time,seconds_elapsed,z,y,x
1782969697485557200,0.08355712890625,-0.005978149361908436,0.03248053416609764,0.05553663522005081
1782969697495483100,0.093483154296875,-0.014521569944918156,0.03054015524685383,0.031365785747766495
1782969697505409300,0.1034091796875,-0.014200001955032349,0.008697215467691422,0.007330663502216339
1782969697515336200,0.113336181640625,-0.003904754528775811,-0.010728945955634117,-0.007287427317351103
1782969697525262300,0.123262451171875,0.006913579534739256,-0.014617236331105232,-0.00018507475033402443
1782969697535188200,0.133188232421875,0.005297041032463312,-0.00907226838171482,0.023425979539752007
1782969697545114400,0.1431142578125,-0.007321425247937441,0.00005096429958939552,0.04512585699558258
1782969697555041300,0.153041259765625,-0.017786314710974693,0.009173622354865074,0.05925845354795456
1782969697564967200,0.16296728515625,-0.021044345572590828,0.017421282827854156,0.06643560528755188
1782969697574893300,0.172893310546875,-0.024338675662875175,0.02213214710354805,0.06094230338931084
1782969697584820200,0.1828203125,-0.01747140660881996,0.018493929877877235,0.04909120872616768
1782969697594746400,0.192746337890625,-0.0075202398002147675,0.015465915203094482,0.03692775219678879
1782969697604672300,0.20267236328125,-0.0015134795103222132,0.010955318808555603,0.02778671681880951
1782969697614598400,0.212598388671875,0.0046549346297979355,0.009755831211805344,0.011995237320661545
1782969697624525300,0.222525390625,0.002313869073987007,0.00426514120772481,0.007008781656622887
1782969697634451200,0.232451171875,-0.0015192185528576374,0.002956198062747717,-0.0013759143184870481
1782969697644377300,0.24237744140625,-0.009757725521922112,-0.0017386050894856453,-0.008734150789678097
1782969697654304300,0.25230419921875,-0.017283819615840912,0.0063443551771342754,-0.015486595220863819
1782969697664230400,0.26223046875,-0.011942446231842041,0.010525651276111603,-0.016597429290413857
1782969697674156300,0.27215625,-0.004027265124022961,0.01411505974829197,-0.015826977789402008
1782969697684082200,0.282082275390625,0.002087073167786002,0.012429986149072647,-0.014546327292919159
1782969697694009300,0.29200927734375,0.001937136985361576,0.012524262070655823,-0.011473838239908218
1782969697703935200,0.301935302734375,0.0049480656161904335,0.007764203008264303,-0.01311537902802229
1782969697713861000,0.311861083984375,0.002334705786779523,0.00048125628381967545,-0.019133325666189194
1782969697723788300,0.321788330078125,-0.00026740896282717586,-0.004262258764356375,-0.023257071152329445
1782969697733714400,0.33171435546875,-0.000013343407772481441,-0.004778379574418068,-0.018377361819148064
1782969697743640000,0.34164013671875,0.0026010586880147457,-0.003317377995699644,-0.01543514896184206
1782969697753566200,0.351566162109375,0.006532949395477772,-0.0027344119735062122,-0.011714446358382702
1782969697763493400,0.361493408203125,0.0033808997832238674,0.0038199210539460182,-0.003934147302061319
1782969697773419300,0.371419189453125,0.005094644147902727,0.006749398075044155,-0.0014273138949647546
1782969697783345200,0.38134521484375,0.0071878256276249886,0.0058844685554504395,0.0015040115686133504
1782969697793272300,0.391272216796875,0.01104488130658865,0.01021583378314972,0.001971130259335041
1782969697803198500,0.401198486328125,0.01915816031396389,0.0019888714887201786,0.004836723208427429
1782969697813124000,0.4111240234375,0.016358645632863045,-0.0014679115265607834,0.006155787035822868
1782969697823050200,0.42105029296875,0.00571550615131855,-0.0014909310266375542,0.007078900933265686
1782969697832977400,0.430977294921875,-0.004229535814374685,0.0011618435382843018,0.011596953496336937
1782969697842903000,0.440903076171875,-0.014356165193021297,0.0016501923091709614,0.012670709751546383
1782969697852829200,0.4508291015625,-0.01632210984826088,0.0036286544054746628,0.0158675666898489
1782969697862756400,0.46075634765625,-0.024181917309761047,0.0056831007823348045,0.010918959975242615
1782969697872682200,0.47068212890625,-0.025024542585015297,0.011026733554899693,0.01864558830857277
1782969697882608000,0.480608154296875,-0.021390104666352272,0.0027247779071331024,0.017325913533568382
1782969697892534300,0.4905341796875,-0.010775278322398663,-0.0063121262937784195,0.011548719368875027
1782969697902461200,0.500461181640625,-0.005778352729976177,-0.006491524167358875,0.01703707128763199
1782969697912387000,0.510386962890625,-0.005363698583096266,0.011270960792899132,0.026510734111070633
1782969697922313200,0.520313232421875,-0.01102416031062603,0.007319305092096329,0.041491344571113586
1782969697932240100,0.530240234375,-0.01048620231449604,0.021238049492239952,0.04414598271250725
1782969697942166300,0.540166259765625,-0.0035744996275752783,0.02405967004597187,0.041358187794685364
1782969697952092200,0.550092041015625,-0.0012591475388035178,0.018744532018899918,0.029369167983531952
1782969697962018300,0.560018310546875,0.004318797495216131,0.011609107255935669,0.008986304514110088
1782969697971945200,0.5699453125,0.004668470472097397,0.0084892138838768,-0.009833189658820629
1782969697981871400,0.579871337890625,0.003477487014606595,0.005524133797734976,-0.02411484532058239
1782969697991797200,0.58979736328125,0.0003400168498046696,0.0019560311920940876,-0.030760498717427254
1782969698001724200,0.59972412109375,0.000412105699069798,0.008068667724728584,-0.03183555230498314
1782969698011650300,0.609650390625,-0.0026515948120504618,0.01051132008433342,-0.027128947898745537
1782969698021576200,0.619576171875,-0.0032664132304489613,0.01232505775988102,-0.011660792864859104
1782969698031502300,0.62950244140625,-0.008466235361993313,0.01382494904100895,0.0023660766892135143
1782969698041429200,0.63942919921875,-0.004935664124786854,0.018459832295775414,0.01236403826624155
1782969698051355400,0.64935546875,-0.01008781511336565,0.0026142895221710205,0.013905742205679417
1782969698061281300,0.65928125,-0.01808960922062397,0.004213409963995218,0.028154294937849045
1782969698071208200,0.669208251953125,-0.019569793716073036,0.011194886639714241,0.04665128141641617
1782969698081134300,0.67913427734375,-0.010556490160524845,0.01049237884581089,0.07268140465021133
1782969698091060200,0.689060302734375,-0.000516905914992094,0.018239779397845268,0.10732540488243103
1782969698100986400,0.698986328125,0.003670651698485017,0.04034650698304176,0.14191706478595734
1782969698110913500,0.70891357421875,-0.0051481397822499275,0.06350669264793396,0.15723291039466858
1782969698120839700,0.718839599609375,-0.009759755805134773,0.05358513444662094,0.14431731402873993
1782969698130765300,0.728765380859375,-0.01385862659662962,0.03674490377306938,0.11260944604873657
1782969698140692500,0.7386923828125,-0.009012352675199509,0.005070281680673361,0.07042103260755539
1782969698150618600,0.74861865234375,0.004748465958982706,-0.011245841160416603,0.025731055065989494
1782969698160544500,0.75854443359375,0.013186265714466572,-0.00046816980466246605,-0.01706622540950775
1782969698170470400,0.768470458984375,0.013148448430001736,-0.005425644107162952,-0.05298827588558197
1782969698180397600,0.7783974609375,0.003146005794405937,-0.0095463115721941,-0.07586944848299026
1782969698190323700,0.78832373046875,-0.025760211050510406,-0.0020990476477891207,-0.08915942162275314
1782969698200249300,0.798249267578125,-0.049875132739543915,-0.00047931307926774025,-0.09519148617982864
1782969698210176500,0.808176513671875,-0.049699366092681885,0.006375397555530071,-0.09844213724136353
1782969698220102700,0.8181025390625,-0.05026043578982353,-0.000793991144746542,-0.09228981286287308
1782969698230028300,0.8280283203125,-0.0507935993373394,-0.0034963004291057587,-0.07877666503190994
1782969698239954400,0.837954345703125,-0.04242860898375511,-0.0007369993254542351,-0.06519747525453568
1782969698249881600,0.847881591796875,-0.03398692235350609,-0.0021735085174441338,-0.05257462337613106
1782969698259807500,0.857807373046875,-0.020770985633134842,0.008933205157518387,-0.023498229682445526
1782969698269733400,0.8677333984375,-0.0027198130264878273,-0.00023392820730805397,0.006471387110650539
1782969698279660500,0.87766064453125,0.004174192436039448,-0.011221014894545078,0.03285101801156998
1782969698289586400,0.88758642578125,0.009343388490378857,-0.01538912858814001,0.07524853944778442
1782969698299512300,0.89751220703125,0.004732533358037472,0.0017892844043672085,0.14048409461975098
1782969698309438500,0.9074384765625,-0.013430491089820862,0.02563789300620556,0.2198747992515564
1782969698319365400,0.917365478515625,-0.02800128050148487,0.04729735106229782,0.2793177366256714
1782969698329291500,0.92729150390625,-0.03765896335244179,0.05893669277429581,0.29834362864494324
1782969698339217400,0.937217529296875,-0.03134828060865402,0.05742279440164566,0.28964775800704956
1782969698349144600,0.94714453125,-0.019037019461393356,0.031167220324277878,0.2589479088783264
1782969698359070500,0.957070556640625,-0.00490495515987277,0.002465535420924425,0.21973900496959686
1782969698368996600,0.96699658203125,0.007117885630577803,-0.013056965544819832,0.16982044279575348
1782969698378922500,0.976922607421875,0.016702229157090187,-0.008387237787246704,0.1262572705745697
1782969698388849400,0.986849365234375,0.01616986282169819,-0.0008819173090159893,0.08637803047895432
1782969698398775600,0.996775634765625,0.005148211494088173,0.0020543434657156467,0.058652643114328384
1782969698408701400,1.006701416015625,-0.008008337579667568,0.008407313376665115,0.04122891277074814
1782969698418627600,1.016627685546875,-0.015215976163744926,0.015547407791018486,0.02303270809352398
1782969698428554500,1.026554443359375,-0.019617382436990738,0.015850208699703217,0.02628389559686184
1782969698438480600,1.036480712890625,-0.01412887405604124,0.052655093371868134,0.02881549671292305
1782969698448406500,1.046406494140625,-0.000673784757964313,0.03824606537818909,0.014086617156863213
1782969698458333400,1.05633349609375,0.012250963598489761,0.01592385396361351,0.0024560762103646994
1782969698468259600,1.066259521484375,0.019134700298309326,0.012034040875732899,-0.012342310510575771
1782969698478185500,1.076185546875,0.022456763312220573,-0.0027594531420618296,-0.03303735703229904
1782969698488111600,1.086111572265625,0.03417041525244713,-0.012762552127242088,-0.048642419278621674
1782969698498038500,1.09603857421875,0.04502083361148834,-0.01918683759868145,-0.06257021427154541
1782969698507964700,1.105964599609375,0.04891650378704071,-0.022769587114453316,-0.060078561305999756
1782969698517890600,1.115890625,0.04792548343539238,-0.016189558431506157,-0.04784069582819939
1782969698527817500,1.1258173828125,0.042246293276548386,-0.019480958580970764,-0.031658001244068146
1782969698537743600,1.13574365234375,0.012400512583553791,-0.025029120966792107,-0.00784933939576149
1782969698547669500,1.14566943359375,-0.006358527112752199,0.011180547997355461,0.020048871636390686
1782969698557595400,1.155595458984375,-0.020264511927962303,0.009334702044725418,0.03583497554063797
1782969698567522600,1.1655224609375,-0.040609199553728104,-0.004245821852236986,0.03263305872678757
1782969698577448700,1.17544873046875,-0.05277800187468529,-0.018306255340576172,0.008853381499648094
1782969698587374300,1.185374267578125,-0.04642769321799278,-0.05264531821012497,-0.015160874463617802
1782969698597301500,1.195301513671875,-0.03739548102021217,-0.06268158555030823,-0.02684151567518711
1782969698607227600,1.2052275390625,-0.028738075867295265,-0.039430055767297745,-0.028315575793385506
1782969698617153300,1.2151533203125,-0.06153331324458122,0.020518671721220016,-0.019249234348535538
1782969698627079400,1.225079345703125,-0.06873822957277298,0.03516845405101776,0.0026065302081406116
1782969698637006600,1.235006591796875,-0.09528086334466934,0.043994177132844925,0.007962459698319435
1782969698646932500,1.244932373046875,-0.11277730017900467,0.042261525988578796,0.007368042133748531
1782969698656858400,1.2548583984375,-0.1015324667096138,0.02335997298359871,0.0033055301755666733
1782969698666785500,1.26478564453125,-0.09054320305585861,0.047046393156051636,0.02163793332874775
1782969698676711700,1.274711669921875,-0.07965753227472305,0.08411120623350143,0.03884860873222351
1782969698686637300,1.28463720703125,-0.04868762940168381,0.07112403213977814,0.044345639646053314
1782969698696563500,1.2945634765625,-0.04525352641940117,0.020932309329509735,0.024138405919075012
1782969698706490600,1.30449072265625,-0.03514949604868889,-0.014166288077831268,-0.0001229913905262947
1782969698716416500,1.31441650390625,-0.0332767590880394,-0.026468228548765182,-0.02191350795328617
1782969698726342400,1.32434228515625,-0.030383232980966568,-0.0399845689535141,-0.026455262675881386
1782969698736268500,1.3342685546875,-0.008423317223787308,-0.00607586232945323,-0.023098567500710487
1782969698746195500,1.344195556640625,0.04770227149128914,-0.05033174157142639,-0.027725277468562126
1782969698756121300,1.354121337890625,-0.0007119918009266257,-0.0540466234087944,-0.03404912352561951
1782969698766047500,1.364047607421875,-0.02612360753118992,-0.0024721145164221525,-0.03701002523303032
1782969698775974400,1.373974365234375,-0.016028694808483124,-0.018764203414320946,-0.03991289064288139
1782969698785900500,1.383900634765625,-0.021206945180892944,-0.04516039043664932,-0.033662449568510056
1782969698795826400,1.393826416015625,-0.02966948039829731,-0.03815514221787453,-0.032753732055425644
1782969698805752600,1.403752685546875,-0.019410451874136925,-0.026365861296653748,-0.03522301837801933
1782969698815679500,1.413679443359375,0.001228346023708582,-0.026377905160188675,-0.03484378010034561
1782969698825605400,1.42360546875,0.024889465421438217,-0.024213287979364395,-0.028370702639222145
1782969698835531500,1.433531494140625,0.019995784386992455,-0.02331717684864998,-0.02130790427327156
1782969698845458400,1.44345849609375,0.001523300539702177,-0.0230210330337286,-0.025908248499035835
1782969698855384600,1.453384521484375,-0.014418428763747215,-0.02433904819190502,-0.03952135890722275
1782969698865310500,1.463310546875,-0.02244279906153679,-0.0360039584338665,-0.034678664058446884
1782969698875236600,1.473236572265625,-0.02739752270281315,-0.03170860558748245,-0.024604663252830505
1782969698885163500,1.48316357421875,-0.029243625700473785,-0.014771433547139168,-0.016970979049801826
1782969698895089400,1.49308935546875,-0.026382531970739365,-0.011272197589278221,-0.01349699404090643
1782969698905015600,1.503015625,-0.016531499102711678,0.0011386647820472717,-0.020917626097798347
1782969698914942500,1.5129423828125,-0.011369920335710049,0.021333273500204086,-0.02181406319141388
1782969698924868600,1.52286865234375,0.003285188227891922,0.0049796015955507755,-0.016722630709409714
1782969698934794500,1.53279443359375,0.005128196440637112,-0.0037930842954665422,-0.02620469033718109
1782969698944720400,1.542720458984375,0.009772749617695808,0.0014695883728563786,-0.031406112015247345
1782969698954647600,1.5526474609375,0.013823214918375015,-0.0035300301387906075,-0.033581897616386414
1782969698964573400,1.562573486328125,0.02312536910176277,-0.002062362153083086,-0.03718116134405136
1782969698974499600,1.57249951171875,0.022033018991351128,0.007506932131946087,-0.03456132858991623
1782969698984425500,1.582425537109375,0.02529752254486084,0.011623379774391651,-0.026894355192780495
1782969698994352600,1.5923525390625,0.02109835296869278,0.027271348983049393,-0.010057991370558739
1782969699004278500,1.602278564453125,0.01827060803771019,0.03681531921029091,0.004639195278286934
1782969699014204400,1.612204345703125,0.014283262193202972,0.02697935700416565,0.011901479214429855
1782969699024131600,1.622131591796875,0.011157510802149773,0.018483875319361687,0.014890876598656178
1782969699034057700,1.6320576171875,0.00673217698931694,0.01801188848912716,0.010058806277811527
1782969699043983400,1.6419833984375,0.0010196967050433159,0.01595938950777054,0.004164963960647583
1782969699053909500,1.651909423828125,0.0016183340921998024,0.00016239192336797714,0.003098133485764265
1782969699063836700,1.661836669921875,-0.001964949071407318,-0.0020059538073837757,0.004272054880857468
1782969699073762300,1.67176220703125,-0.002449254272505641,-0.00577881233766675,0.016783757135272026
1782969699083688400,1.6816884765625,-0.007042940706014633,-0.0035042064264416695,0.027207637205719948
1782969699093615600,1.69161572265625,0.023835837841033936,0.02143317647278309,0.0065218303352594376
1782969699103541500,1.70154150390625,-0.007405704818665981,-0.05238885059952736,-0.008051520213484764
1782969699113467400,1.71146728515625,-0.02539636380970478,0.0009434553794562817,-0.0029897585045546293
1782969699123393500,1.7213935546875,0.001085844123736024,0.05131341889500618,-0.005828688386827707
1782969699133320400,1.731320556640625,0.022097185254096985,-0.04280142858624458,-0.024569071829319
1782969699143246300,1.741246337890625,0.02211582660675049,-0.0207656342536211,-0.03382302075624466
1782969699153172500,1.75117236328125,-0.007168457843363285,-0.04974612221121788,-0.03554995730519295
1782969699163099600,1.761099609375,-0.016098037362098694,-0.006991200149059296,-0.016157085075974464
1782969699173025500,1.771025634765625,-0.012953128665685654,0.0036932192742824554,0.0002813545288518071
1782969699182951400,1.780951416015625,-0.010696899145841599,0.07972114533185959,0.0009048004867509007
1782969699192877600,1.790877685546875,-0.014300238341093063,-0.0006126957014203072,-0.02901282161474228
1782969699202804500,1.800804443359375,-0.023886818438768387,0.028070881962776184,-0.039269186556339264
1782969699212730400,1.81073046875,-0.021462874487042427,0.0283279437571764,-0.04573163017630577
1782969699222656500,1.820656494140625,-0.027507184073328972,0.029808392748236656,-0.04090677946805954
1782969699232582700,1.830582763671875,-0.04305977746844292,0.046954087913036346,-0.017757253721356392
1782969699242509600,1.840509521484375,-0.060082703828811646,0.06457222998142242,0.004009295254945755
1782969699252435500,1.850435546875,-0.07020390033721924,0.06095588579773903,0.01677977852523327
1782969699262361600,1.860361572265625,-0.07940219342708588,0.06595782935619354,0.017438111826777458
1782969699272288500,1.87028857421875,-0.05166830122470856,0.12981253862380981,-0.009902306832373142
1782969699282214400,1.88021435546875,-0.04602692648768425,0.03152911365032196,-0.0423089824616909
1782969699292140500,1.890140625,-0.028081748634576797,0.012486711144447327,-0.058981701731681824
1782969699302066700,1.900066650390625,-0.017287157475948334,-0.023672625422477722,-0.06641778349876404
1782969699311993600,1.90999365234375,-0.021573597565293312,-0.007286044768989086,-0.03749046102166176
1782969699321919500,1.91991943359375,-0.005639106035232544,0.008189584128558636,-0.005973015911877155
1782969699331845600,1.929845703125,0.011892423033714294,0.00397635530680418,0.02155272662639618
1782969699341772500,1.9397724609375,0.025060689076781273,0.006439513526856899,0.04230460897088051
1782969699351698400,1.949698486328125,0.043216194957494736,0.002631525509059429,0.053445130586624146
1782969699361624600,1.95962451171875,0.05387070029973984,0.004152722656726837,0.06026015803217888
1782969699371550500,1.969550537109375,0.05519714206457138,0.002638599369674921,0.061421096324920654
1782969699381477600,1.9794775390625,0.06555496901273727,-0.0019223305862396955,0.05559569597244263
1782969699391403500,1.989403564453125,0.06992094218730927,-0.018808193504810333,0.04792839288711548
1782969699401329400,1.999329345703125,0.04447656869888306,-0.04759136959910393,0.04160444810986519
1782969699411256600,2.009256591796875,0.0350651815533638,-0.003634318010881543,0.03602556884288788
1782969699421182500,2.019182373046875,0.03084992989897728,0.02352806180715561,0.02634923718869686
1782969699431108400,2.0291083984375,0.020691975951194763,0.00162831274792552,0.010349058546125889
1782969699441034500,2.039034423828125,0.015842359513044357,0.014769947156310081,0.004725261591374874
1782969699450961700,2.048961669921875,0.040040723979473114,0.015312816947698593,-0.018735386431217194
1782969699460887600,2.058887451171875,0.027899105101823807,-0.005588736850768328,-0.03171217069029808
1782969699470813400,2.0688134765625,0.004393535200506449,-0.0036451532505452633,-0.03335769101977348
1782969699480740600,2.07874072265625,-0.01162298209965229,0.015530138276517391,-0.02605849876999855
1782969699490666500,2.08866650390625,-0.009168511256575584,0.016497431322932243,-0.014984684064984322
1782969699500592400,2.09859228515625,-0.005014245864003897,0.009370546787977219,-0.009143039584159851
1782969699510518500,2.1085185546875,-0.0001397386658936739,0.010086978785693645,0.0007073665037751198
1782969699520445700,2.11844580078125,0.01047961600124836,0.005281570367515087,0.011029512621462345
1782969699530371300,2.128371337890625,0.02450527437031269,0.0051315841265022755,0.028006412088871002
1782969699540297500,2.13829736328125,0.03003266453742981,0.001242303755134344,0.038617778569459915
1782969699550223600,2.1482236328125,0.025185076519846916,0.004735272843390703,0.04623136669397354
1782969699560150300,2.158150390625,0.017849666997790337,0.006027439143508673,0.0464358925819397
1782969699570076400,2.168076416015625,0.01869221217930317,0.001745052170008421,0.04152441397309303
1782969699580002600,2.17800244140625,0.02561110444366932,0.0005650054663419724,0.03711928054690361
1782969699589929500,2.187929443359375,0.025180429220199585,0.000979201402515173,0.027462422847747803
1782969699599855400,2.19785546875,0.020605118945240974,-0.002676519798114896,0.016291260719299316
1782969699609781500,2.207781494140625,0.01349580753594637,-0.011811520904302597,0.010407679714262486
1782969699619707600,2.217707763671875,0.003525997744873166,-0.012203805148601532,0.014935585670173168
1782969699629634600,2.227634521484375,-0.0038683894090354443,-0.006001518107950687,0.02063736692070961
1782969699639560400,2.237560546875,-0.014036604203283787,0.00033627264201641083,0.029162943363189697
1782969699649486600,2.247486572265625,-0.01910347305238247,0.007203700486570597,0.027513664215803146
1782969699659413500,2.25741357421875,-0.018945546820759773,0.003114150371402502,0.022022493183612823
1782969699669339400,2.26733935546875,-0.018070310354232788,0.00261289207264781,0.01676332950592041
1782969699679265500,2.277265625,-0.018586965277791023,0.003988414537161589,0.0025692135095596313
1782969699689191700,2.287191650390625,-0.01073957048356533,-0.006852206774055958,0.002789363032206893
1782969699699118600,2.29711865234375,-0.002892565680667758,-0.009779553860425949,0.0067098019644618034
1782969699709044500,2.30704443359375,-0.0023389169946312904,-0.004891329910606146,0.018195435404777527
1782969699718970600,2.316970703125,-0.0025357245467603207,-0.0030636026058346033,0.0364636592566967
1782969699728896500,2.326896484375,0.00599917396903038,-0.0006848671473562717,0.059106118977069855
1782969699738823400,2.336823486328125,0.0069746896624565125,0.00011434732005000114,0.07426802068948746
1782969699748749600,2.34674951171875,0.006495095789432526,-0.009167643263936043,0.07735246419906616
1782969699758675500,2.356675537109375,0.012069358490407467,-0.01860668510198593,0.07185729593038559
1782969699768602600,2.3666025390625,0.0046445890329778194,0.048318326473236084,0.06603607535362244
1782969699778528500,2.376528564453125,-0.004449306987226009,0.003441934008151293,0.04053284227848053
1782969699788454700,2.38645458984375,-0.0003277990617789328,-0.005721736699342728,0.020880043506622314
1782969699798380500,2.396380615234375,-0.002500139409676194,0.006571148056536913,-0.0018329917220398784
1782969699808307500,2.406307373046875,-0.010891925543546677,0.018521849066019058,-0.018637146800756454
1782969699818233600,2.416233642578125,-0.0255395770072937,0.021177023649215698,-0.04921609163284302
1782969699828159500,2.426159423828125,-0.03401897847652435,0.02708297222852707,-0.07688076049089432
1782969699838086700,2.436086669921875,-0.04535925015807152,0.030268914997577667,-0.10312887281179428
1782969699848012500,2.446012451171875,-0.044342536479234695,0.022019388154149055,-0.11933627724647522
1782969699857938400,2.4559384765625,-0.03461240977048874,0.012504711747169495,-0.11576284468173981
1782969699867864600,2.465864501953125,-0.027200201526284218,0.0013423729687929153,-0.10022371262311935
1782969699877791500,2.47579150390625,-0.01699230447411537,0.007411982864141464,-0.08490068465471268
1782969699887717400,2.48571728515625,-0.009703600779175758,0.008520623669028282,-0.06780171394348145
1782969699897643500,2.4956435546875,-0.007242572959512472,0.0010304837487637997,-0.062093496322631836
1782969699907569400,2.5055693359375,-0.003585171652957797,0.0037542153149843216,-0.05899976193904877
1782969699917496300,2.515496337890625,-0.0015678273048251867,-0.003783063031733036,-0.05771984905004501
1782969699927422500,2.52542236328125,-0.0011736382730305195,-0.001155130099505186,-0.046738334000110626
1782969699937348600,2.5353486328125,0.0029792950954288244,0.0052891867235302925,-0.03562922403216362
1782969699947275500,2.545275634765625,0.0056467363610863686,0.002653904724866152,-0.02723129279911518
1782969699957201400,2.555201416015625,0.009291005320847034,0.002607565838843584,-0.02017897553741932
1782969699967127600,2.56512744140625,0.007334010675549507,0.0038631209172308445,-0.015427080914378166
1782969699977053400,2.575053466796875,-0.004587896168231964,0.0005924925208091736,-0.010983596555888653
1782969699986980400,2.58498046875,-0.007605092599987984,-0.009369360283017159,-0.0019758467096835375
1782969699996906500,2.594906494140625,-0.013372967019677162,0.017365049570798874,-0.012008773162961006
1782969700006832600,2.60483251953125,-0.009797793813049793,0.014840688556432724,-0.018248872831463814
1782969700016759300,2.61475927734375,-0.0022599827498197556,0.010380426421761513,-0.015233642421662807
1782969700026685400,2.624685546875,0.00933890137821436,0.010764636099338531,-0.023879673331975937
1782969700036611600,2.634611572265625,0.01737712137401104,0.0032689040526747704,-0.02606426365673542
1782969700046537500,2.644537353515625,0.021234732121229172,-0.007623682264238596,-0.009323320351541042
1782969700056464400,2.65446435546875,0.019707409664988518,0.0012049628421664238,0.009714819490909576
1782969700066390500,2.664390625,0.011764627881348133,0.017871499061584473,0.024918805807828903
1782969700076316700,2.674316650390625,0.018198292702436447,0.015314863994717598,0.03007841482758522
1782969700086243300,2.684243408203125,0.024854600429534912,0.004667371511459351,0.029030054807662964
1782969700096169500,2.69416943359375,0.03116229735314846,0.0019368324428796768,0.03062235563993454
1782969700106095400,2.704095458984375,0.02431313693523407,0.0022982051596045494,0.029103729873895645
1782969700116021500,2.714021484375,0.01703817956149578,0.0028803725726902485,0.023254629224538803
1782969700125948400,2.723948486328125,0.008787711150944233,0.008282247930765152,0.013727153651416302
1782969700135874300,2.733874267578125,0.006024149712175131,0.0065714335069060326,-0.0009689676226116717
1782969700145800400,2.743800537109375,-0.0014248155057430267,0.004567012190818787,-0.02009657397866249
1782969700155726300,2.753726318359375,-0.0046395170502364635,0.0023699039593338966,-0.046895164996385574
1782969700165653500,2.763653564453125,-0.009722820483148098,-0.002893169177696109,-0.07356755435466766
1782969700175579400,2.773579345703125,-0.010894078761339188,-0.010235770605504513,-0.09557831287384033
1782969700185505300,2.78350537109375,-0.007886526174843311,-0.011946301907300949,-0.0993063747882843
1782969700195432400,2.793432373046875,-0.002066186862066388,-0.008573673665523529,-0.08933603018522263
1782969700205358300,2.8033583984375,-0.0036199358291924,-0.004952148534357548,-0.06469422578811646
1782969700215284200,2.8132841796875,-0.002308595459908247,0.0002628536894917488,-0.026718618348240852
1782969700225210400,2.82321044921875,-0.0032184545416384935,0.00626983679831028,0.012801720760762691
1782969700235137500,2.833137451171875,0.00018186963279731572,0.009467494674026966,0.0422096773982048
1782969700245063400,2.8430634765625,0.009026366285979748,0.00625398987904191,0.054230090230703354
1782969700254989300,2.8529892578125,0.007960302755236626,0.004893381614238024,0.05683865770697594
1782969700264916500,2.86291650390625,0.00835697166621685,0.0029618320986628532,0.04640935733914375
1782969700274842400,2.87284228515625,0.011043036356568336,0.005126449279487133,0.035997726023197174
1782969700284768300,2.882768310546875,0.010564345866441727,0.0030497675761580467,0.018964368849992752
1782969700294694400,2.8926943359375,0.012766513973474503,-0.0001393682323396206,0.00034541147761046886
1782969700304621600,2.90262158203125,0.0100707383826375,-0.0011317036114633083,-0.020875360816717148
1782969700314547200,2.912547119140625,0.007682682015001774,-0.0034361369907855988,-0.036146726459264755
1782969700324473300,2.922473388671875,0.0074846469797194,0.0011259838938713074,-0.03757739067077637
1782969700334399500,2.9323994140625,0.004212154541164637,0.009302686899900436,-0.028890958055853844
1782969700344326100,2.942326171875,0.002507608151063323,0.01499302126467228,-0.024029264226555824
1782969700354252300,2.952252197265625,-0.00018165184883400798,0.011534640565514565,-0.020547447726130486
1782969700364178400,2.962178466796875,-0.002291287761181593,0.005818913225084543,-0.021929580718278885
1782969700374105300,2.972105224609375,-0.005319567862898111,0.0005722199566662312,-0.029630644246935844
1782969700384031200,2.98203125,-0.011005578562617302,-0.004576343577355146,-0.03453274071216583
1782969700393957400,2.991957275390625,-0.014493520371615887,-0.006870390381664038,-0.030323080718517303
1782969700403883500,3.001883544921875,-0.01965075358748436,-0.00525412755087018,-0.025534499436616898
1782969700413810400,3.011810546875,-0.018311716616153717,-0.0005872040055692196,-0.021566122770309448
1782969700423736300,3.021736328125,-0.019242942333221436,0.0006792456842958927,-0.019761627539992332
1782969700433662500,3.031662353515625,-0.015184551477432251,0.0042862314730882645,-0.02035577781498432
1782969700443589400,3.04158935546875,-0.012127936817705631,0.004992627073079348,-0.014526134356856346
1782969700453515300,3.051515380859375,-0.010830977000296116,0.003672232385724783,-0.016508590430021286
1782969700463441400,3.06144140625,-0.00906124897301197,0.00027937954291701317,-0.022936366498470306
1782969700473367600,3.071367431640625,-0.016024084761738777,-0.00010305037721991539,-0.024125201627612114
1782969700483294500,3.08129443359375,-0.027957314625382423,-0.002759951166808605,-0.031210510060191154
1782969700493220400,3.091220458984375,-0.036151327192783356,0.0013208105228841305,-0.028502607718110085
1782969700503146500,3.101146484375,-0.04056525230407715,0.005715026520192623,-0.03685081750154495
1782969700513072400,3.111072265625,-0.03954845666885376,0.0024782205000519753,-0.045527394860982895
1782969700522999300,3.120999267578125,-0.026586076244711876,-0.0058952998369932175,-0.050046827644109726
1782969700532925400,3.130925537109375,-0.014329143799841404,-0.011179810389876366,-0.048300061374902725
1782969700542851300,3.140851318359375,-0.007754268124699593,-0.008495409972965717,-0.0407467857003212
1782969700552778500,3.150778564453125,-0.007138545624911785,-0.012504266574978828,-0.03457091748714447
1782969700562704400,3.160704345703125,-0.005687350407242775,-0.007643365766853094,-0.02544495463371277
1782969700572630500,3.170630615234375,-0.007023991085588932,-0.00781727023422718,-0.012838081456720829
1782969700582556400,3.180556396484375,-0.014343093149363995,-0.002190343337133527,-0.00675700418651104
1782969700592483300,3.1904833984375,-0.012232804670929909,0.0018430142663419247,0.0043576983734965324
1782969700602409500,3.200409423828125,-0.005582770798355341,0.005986575968563557,0.016324127092957497
1782969700612335400,3.21033544921875,-0.006515143904834986,0.006969016045331955,0.026587417349219322
1782969700622262500,3.220262451171875,-0.008955417200922966,0.0018094913102686405,0.028620818629860878
1782969700632188400,3.2301884765625,-0.011854534037411213,-0.0003221025690436363,0.027270063757896423
1782969700642114300,3.2401142578125,-0.009397664107382298,0.0014194641262292862,0.021281665191054344
1782969700652040400,3.25004052734375,-0.006922521628439426,0.008099472150206566,0.01753007061779499
1782969700661967400,3.25996728515625,-0.004859043750911951,0.004793263506144285,0.006360129453241825
1782969700671893200,3.269893310546875,-0.001580692594870925,0.0022131935693323612,-0.004053096752613783
1782969700681819400,3.2798193359375,0.005419774912297726,-0.0019670536275953054,-0.01338487584143877
1782969700691746600,3.28974658203125,0.010323453694581985,-0.003036579117178917,-0.015504752285778522
1782969700701672200,3.299672119140625,0.01506674662232399,-0.009375102818012238,-0.011104959063231945
1782969700711598300,3.309598388671875,0.01614612527191639,-0.006929256021976471,-0.0005734886508435011
1782969700721524500,3.3195244140625,0.012737522833049297,-0.0027297260239720345,0.012871166691184044
1782969700731451400,3.329451416015625,0.005062292795628309,0.00022505130618810654,0.01851014420390129
1782969700741377300,3.339377197265625,-0.0002602184540592134,-0.0005250447429716587,0.018673067912459373
1782969700751303400,3.349303466796875,-0.003388900076970458,0.00043688900768756866,0.006919471547007561
1782969700761229300,3.359229248046875,-0.009350894019007683,0.0035699340514838696,-0.006632116623222828
1782969700771156200,3.36915625,-0.010128537192940712,0.0020237029530107975,-0.02694830670952797
1782969700781082400,3.379082275390625,-0.0027469927445054054,-0.002288114046677947,-0.04321953281760216
1782969700791008500,3.389008544921875,-0.0021634940057992935,0.0033652442507445812,-0.051088105887174606
1782969700800935200,3.39893505859375,-0.0073022060096263885,0.003075534012168646,-0.05506004020571709
1782969700810861300,3.408861328125,-0.0062941997312009335,-0.0027373475022614002,-0.05021095648407936
1782969700820787500,3.418787353515625,-0.0068565793335437775,0.0012443684972822666,-0.03840961307287216
1782969700830713300,3.42871337890625,-0.010501115582883358,0.007074560970067978,-0.0291330236941576
1782969700840640300,3.43864013671875,-0.01589254103600979,0.012571017257869244,-0.025134727358818054
1782969700850566400,3.44856640625,-0.009639972820878029,0.007976265624165535,-0.016415802761912346
1782969700860492500,3.458492431640625,-0.007894638925790787,0.007518434431403875,-0.007506057620048523
1782969700870419200,3.468419189453125,-0.00655719917267561,0.005555951502174139,0.0008828998543322086
1782969700880345300,3.478345458984375,-0.011027907952666283,0.002883894369006157,-0.003351416438817978
1782969700890271500,3.488271484375,-0.0086052305996418,-0.0013888813555240631,0.0022952842991799116
1782969700900197400,3.498197265625,-0.004258196800947189,-0.0012115328572690487,0.0021180901676416397
1782969700910124300,3.508124267578125,-0.00015160266775637865,-0.00282167992554605,0.006685145199298859
1782969700920050400,3.518050537109375,-0.003210344584658742,-0.0021524601615965366,0.004535315558314323
1782969700929976600,3.5279765625,0.0005566968466155231,-0.002909597009420395,0.006843743845820427
1782969700939902200,3.537902099609375,0.0029554658103734255,-0.0022269212640821934,0.0024105363991111517
1782969700949829400,3.547829345703125,0.003593559144064784,-0.00137124746106565,0.001137278974056244
1782969700959755500,3.557755615234375,0.007771672680974007,-0.00424900883808732,0.009656950831413269
1782969700969681200,3.56768115234375,0.013507588766515255,-0.0011911671608686447,0.017351355403661728
1782969700979608300,3.5776083984375,0.014121673069894314,-0.0009074653498828411,0.019561544060707092
1782969700989534500,3.587534423828125,0.008224102668464184,0.0011911052279174328,0.023564541712403297
1782969700999460400,3.59746044921875,0.003946574404835701,0.0014421665109694004,0.01592390052974224
1782969701009386200,3.60738623046875,0.0008181591401807964,0.00238625705242157,0.009066261351108551
1782969701019313400,3.6173134765625,0.0011691227555274963,0.00021558953449130058,0.0016195618081837893
1782969701029239300,3.6272392578125,0.0016535517061129212,-0.000930901151150465,-0.008830149658024311
1782969701039165200,3.637165283203125,0.0036800962407141924,-0.0006424300372600555,-0.01496185828000307
1782969701049091300,3.64709130859375,-0.0012502138270065188,0.0002470659092068672,-0.021394457668066025
1782969701059018500,3.6570185546875,-0.005996990948915482,0.0010264981538057327,-0.01807858794927597
1782969701068944400,3.6669443359375,-0.006872638128697872,0.0016166544519364834,-0.017877519130706787
1782969701078870300,3.676870361328125,-0.010297054424881935,0.0025487192906439304,-0.011302346363663673
1782969701088797400,3.68679736328125,-0.009616883471608162,0.001288777682930231,-0.0016116356709972024
1782969701098723300,3.696723388671875,-0.007639057002961636,0.0026031876914203167,0.0021282564848661423
1782969701108649200,3.706649169921875,-0.005850212182849646,0.0012870538048446178,0.0077089108526706696
1782969701118575400,3.716575439453125,-0.008150587789714336,0.0009676753543317318,0.0015538285952061415
1782969701128502300,3.726502197265625,-0.004360909573733807,0.0005823159590363503,-0.0003346189623698592
1782969701138428200,3.73642822265625,0.0028534922748804092,0.0033383886329829693,0.00068151846062392
1782969701148354300,3.746354248046875,0.007392850238829851,0.004619102459400892,0.002185405232012272
1782969701158281200,3.75628125,0.009568465873599052,-0.00005232449620962143,0.0018187661189585924
1782969701168207000,3.76620703125,0.00489248801022768,0.0014435728080570698,-0.006605344824492931
1782969701178133200,3.77613330078125,0.0077098459005355835,0.002216156106442213,-0.0026255170814692974
1782969701188059400,3.786059326171875,0.004934566095471382,0.0033847512677311897,0.0033596709836274385
1782969701197986300,3.795986328125,0.0022128154523670673,0.006446853280067444,0.007530980743467808
1782969701207912200,3.805912109375,0.0008037369698286057,0.004363463260233402,0.0011859990190714598
1782969701217838300,3.81583837890625,-0.0024524913169443607,-0.0021959866862744093,-0.00477742962539196
1782969701227764500,3.825764404296875,-0.005345483310520649,-0.0027437987737357616,-0.009334364905953407
1782969701237691100,3.835691162109375,-0.0032463984098285437,-0.0028885910287499428,-0.014007867313921452
1782969701247617300,3.8456171875,-0.003883426310494542,-0.0004605869762599468,-0.014347952790558338
1782969701257543400,3.85554345703125,-0.002608568873256445,0.0014947992749512196,-0.015979811549186707
1782969701267470300,3.86547021484375,0.0007251759525388479,0.0023928172886371613,-0.011988799087703228
1782969701277396200,3.875396240234375,0.01049848273396492,0.003689075354486704,-0.004235163331031799
1782969701287322400,3.885322265625,0.006468588020652533,0.0019670757465064526,0.002633928321301937
1782969701297248300,3.895248291015625,0.007022588513791561,0.0011299788020551205,0.003575105220079422
1782969701307175200,3.905175048828125,0.007672666106373072,-0.002510562539100647,0.0031745657324790955
1782969701317101300,3.915101318359375,0.005715037230402231,0.00005896249786019325,0.00029904115945100784
1782969701327027200,3.925027099609375,-0.0008746885578148067,0.007303293328732252,-0.006912533193826675
1782969701336954400,3.934954345703125,-0.0005985581083223224,0.004870397970080376,-0.021932601928710938
1782969701346880300,3.94488037109375,0.005932311527431011,0.00381365604698658,-0.02351878210902214
1782969701356806400,3.954806396484375,0.01289987750351429,0.008144553750753403,-0.017817769199609756
1782969701366732300,3.964732177734375,0.01515104714781046,0.004794029984623194,-0.018598608672618866
1782969701376659200,3.9746591796875,0.019137000665068626,0.0007811789400875568,-0.02108014188706875
1782969701386585300,3.98458544921875,0.008799674920737743,-0.0006217742338776588,-0.02740035578608513
1782969701396511200,3.99451123046875,0.006133378483355045,-0.0012933157850056887,-0.027124296873807907
1782969701406437000,4.00443701171875,-0.002442799275740981,0.0009522615000605583,-0.02045201137661934
1782969701416364300,4.0143642578125,-0.008408422581851482,0.002913455478847027,-0.01708107627928257
1782969701426290200,4.024290283203125,-0.0118500255048275,-0.006502683274447918,-0.023115001618862152
1782969701436216300,4.03421630859375,-0.004255632404237986,-0.011672901920974255,-0.029399089515209198
1782969701446143200,4.044143310546875,-0.0004193488275632262,-0.014519555494189262,-0.01834111101925373
1782969701456069000,4.054069091796875,0.0033215326257050037,-0.014135368168354034,-0.0035988078452646732
1782969701465995300,4.063995361328125,0.0018496036063879728,-0.010328644886612892,0.017843900248408318
1782969701475921200,4.073921142578125,0.000935173244215548,-0.007885788567364216,0.03144546225667
1782969701485848000,4.08384814453125,-0.002196171320974827,0.0008573695085942745,0.040400341153144836
1782969701495774200,4.093774169921875,-0.00226189149543643,0.00663334084674716,0.03894215077161789
1782969701505700400,4.103700439453125,0.00007449969416484237,0.006780080962926149,0.03317001461982727
1782969701515627300,4.113627197265625,-0.003975406754761934,0.003035843838006258,0.0178559310734272
1782969701525553200,4.12355322265625,-0.005340543109923601,-0.0009098956361413002,-0.0013691630447283387
1782969701535479300,4.133479248046875,-0.005231024697422981,-0.008664286695420742,-0.021001173183321953
1782969701545405200,4.1434052734375,-0.00535938935354352,-0.0061518605798482895,-0.0322335846722126
1782969701555332000,4.15333203125,-0.0021711760200560093,0.00042424118146300316,-0.024435224011540413
1782969701565258200,4.16325830078125,0.004285924136638641,0.006882672663778067,-0.012858197093009949
1782969701575184400,4.173184326171875,0.006522611249238253,0.011780725792050362,-0.007635063491761684
1782969701585110300,4.1831103515625,0.006938330363482237,0.006213387940078974,-0.005451804026961327
1782969701595037200,4.193037109375,0.010231861844658852,-0.0009569069370627403,-0.003984401933848858
1782969701604963300,4.20296337890625,0.005342031829059124,-0.004574278369545937,0.000926200533285737
1782969701614889200,4.21288916015625,0.004030648153275251,-0.00047036632895469666,0.009167257696390152
1782969701624816000,4.222816162109375,0.006295133847743273,-0.007226539775729179,0.017327183857560158
1782969701634742300,4.2327421875,0.0036821032408624887,-0.0026480983942747116,0.025361156091094017
1782969701644668400,4.24266845703125,-0.009479771368205547,-0.00018360931426286697,0.02705918811261654
1782969701654594300,4.25259423828125,-0.021231506019830704,0.004042734391987324,0.022620372474193573
1782969701664521200,4.262521240234375,-0.028169572353363037,0.00396390538662672,0.008829458616673946
1782969701674447400,4.272447265625,-0.03414648398756981,0.0016224626451730728,-0.011934095062315464
1782969701684373200,4.282373291015625,-0.027820410206913948,-0.0035227646585553885,-0.029307758435606956
1782969701694300200,4.292300048828125,-0.01987740769982338,-0.004725939128547907,-0.03307729214429855
1782969701704226300,4.302226318359375,-0.0164488535374403,-0.0023655793629586697,-0.03257528692483902
1782969701714152400,4.31215234375,-0.008639686740934849,-0.002032600110396743,-0.020000824704766273
1782969701724078000,4.322078125,0.0005455557256937027,0.0023336526937782764,-0.0037060079630464315
1782969701734005200,4.332005126953125,0.013399917632341385,0.006600153166800737,0.011817761696875095
1782969701743931400,4.341931396484375,0.020810697227716446,0.01304180733859539,0.029463864862918854
1782969701753857000,4.35185693359375,0.024686597287654877,0.014538835734128952,0.030476650223135948
1782969701763783200,4.361783203125,0.02760409191250801,0.003283517900854349,0.026322653517127037
1782969701773710300,4.37171044921875,0.023398302495479584,0.003642736468464136,0.018713561818003654
1782969701783637200,4.38163720703125,0.015841849148273468,0.003107174765318632,0.006420411169528961
1782969701793563400,4.3915634765625,0.009926765225827694,0.006638993974775076,0.006227613892406225
1782969701803489300,4.4014892578125,0.008825015276670456,0.0029417271725833416,0.005224933847784996
1782969701813416200,4.411416259765625,0.005237611010670662,0.001119457185268402,-0.004836253821849823
1782969701823342300,4.42134228515625,0.004186461679637432,-0.0029381350614130497,-0.007693293038755655
1782969701833268200,4.431268310546875,-0.0008305024821311235,-0.00030190451070666313,-0.007313918322324753
1782969701843194400,4.4411943359375,-0.0020323870703577995,-0.0034393747337162495,0.0022241936530917883
1782969701853121300,4.451121337890625,-0.005335791036486626,-0.004470466636121273,0.011126420460641384
1782969701863047400,4.46104736328125,-0.012008074671030045,-0.0048885829746723175,0.022581208497285843
1782969701872973300,4.470973388671875,-0.01684570498764515,-0.003956383094191551,0.032174576073884964
1782969701882900200,4.480900146484375,-0.020057477056980133,0.0030274903401732445,0.044452812522649765
1782969701892826400,4.490826416015625,-0.018819643184542656,0.003405831754207611,0.0534384548664093
1782969701902752300,4.500752197265625,-0.02184526063501835,0.003797316923737526,0.048343561589717865
1782969701912678100,4.51067822265625,-0.014229334890842438,0.0006021731533110142,0.033142175525426865
1782969701922605300,4.520605224609375,-0.0025923862121999264,-0.0008697556331753731,0.01567530259490013
1782969701932531500,4.530531494140625,0.006246461067348719,0.0010361187160015106,0.006004237104207277
1782969701942457000,4.54045703125,0.009270214475691319,0.00121321901679039,-0.004501666873693466
1782969701952384300,4.55038427734375,0.010492481291294098,0.0031948345713317394,-0.0073689986020326614
1782969701962310400,4.560310302734375,0.006443944294005632,0.00310881482437253,-0.015461013652384281
1782969701972236000,4.570236083984375,0.0007763496832922101,0.003940571565181017,-0.013621347956359386
1782969701982162200,4.580162109375,-0.001404512906447053,0.0044031632132828236,-0.007667052559554577
1782969701992089300,4.59008935546875,-0.0060926200821995735,0.0034784614108502865,0.0008822733070701361
1782969702002015200,4.60001513671875,-0.003297099843621254,0.0023410250432789326,0.003576060524210334
1782969702011941000,4.609941162109375,-0.011769579723477364,0.0041464148089289665,0.009833283722400665
1782969702021867300,4.6198671875,-0.008509604260325432,0.0029192306101322174,0.011193359270691872
1782969702031794400,4.62979443359375,-0.004972349852323532,0.002678233664482832,0.012183085083961487
1782969702041720000,4.639719970703125,0.0008426624117419124,0.0036609400995075703,0.01300919707864523
1782969702051646200,4.649646240234375,0.0017518223030492663,0.0057839928194880486,0.016034720465540886
1782969702061573400,4.659573486328125,-0.0027571755927056074,-0.00043502077460289,0.008189580403268337
1782969702071499300,4.669499267578125,-0.005461429245769978,-0.002234010025858879,0.004845636896789074
1782969702081425200,4.679425048828125,0.0026984959840774536,0.00008773384615778923,0.0016554364701732993
1782969702091351300,4.689351318359375,0.000958323769737035,-0.003966064192354679,0.002651442773640156
1782969702101278200,4.6992783203125,0.0023130737245082855,-0.005271279253065586,-0.001034638611599803
1782969702111203800,4.709203857421875,-0.0009188970434479415,-0.0023954068310558796,0.008269349113106728
1782969702121130000,4.7191298828125,-0.0020733773708343506,0.002674718853086233,0.0197805967181921
1782969702131057200,4.72905712890625,-0.00497906981036067,0.004502830095589161,0.026811012998223305
1782969702140983000,4.738983154296875,-0.0023225671611726284,0.004376595839858055,0.024355845525860786
1782969702150909000,4.748908935546875,0.003492708085104823,0.003068891353905201,0.022671271115541458
1782969702160835000,4.7588349609375,0.009043801575899124,0.002204961609095335,0.02467450127005577
1782969702170762000,4.768761962890625,0.013968008570373058,0.0048159342259168625,0.023324323818087578
1782969702180688000,4.77868798828125,0.01042200904339552,-0.000972979236394167,0.010769916698336601
1782969702190614000,4.788614013671875,0.005482400301843882,-0.0020885681733489037,-6.585614755749702e-7
1782969702200540200,4.7985400390625,-0.001145675079897046,-0.004175687674432993,-0.009270589798688889
1782969702210467000,4.808467041015625,-0.009417024441063404,-0.0019371605012565851,-0.008965108543634415
1782969702220393000,4.81839306640625,-0.019633974879980087,-0.0036168161313980818,-0.012530016712844372
1782969702230319000,4.828319091796875,-0.019388698041439056,-0.0009123762138187885,-0.016750328242778778
1782969702240246000,4.83824609375,-0.01279018446803093,0.0023811552673578262,-0.01248660683631897
1782969702250172000,4.848171875,-0.0015866124304011464,-0.0007928237318992615,-0.002341905841603875
1782969702260098000,4.85809814453125,0.002038748934864998,0.0034786206670105457,0.010519830510020256
1782969702270024000,4.86802392578125,0.007309040054678917,0.004428443498909473,0.026240220293402672
1782969702279951000,4.877951171875,0.003771563759073615,0.0024494491517543793,0.030760135501623154
1782969702289877000,4.887876953125,0.004332916811108589,0.0016164868138730526,0.03298923373222351
1782969702299803100,4.89780322265625,0.006421633996069431,-0.0008440078236162663,0.02733534388244152
1782969702309730000,4.90772998046875,0.011655955575406551,0.00395612558349967,0.02479464001953602
1782969702319656000,4.917656005859375,0.014451742172241211,0.003919640090316534,0.02450915053486824
1782969702329582000,4.92758203125,0.01610894501209259,0.0024116411805152893,0.020184503868222237
1782969702339508000,4.937508056640625,0.01906079240143299,0.0028705038130283356,0.011111114174127579
1782969702349435100,4.94743505859375,0.015960093587636948,0.000041876453906297684,0.0015968934167176485
1782969702359361000,4.957361083984375,0.008891264908015728,0.002318346407264471,-0.004514262080192566
1782969702369287000,4.967286865234375,0.0015922796446830034,0.006583024747669697,-0.00598128791898489
1782969702379213000,4.977213134765625,-0.0023438723292201757,0.006347601301968098,-0.010290282778441906
1782969702389140000,4.987139892578125,0.002195240929722786,0.002133691683411598,-0.017114851623773575
1782969702399065900,4.99706591796875,0.006929808296263218,-0.006229965947568417,-0.01659260503947735
1782969702408992000,5.006991943359375,0.0111310463398695,-0.00709892250597477,-0.01472693681716919
1782969702418919200,5.016919189453125,0.008072938770055771,-0.011120561510324478,-0.011857913807034492
1782969702428845000,5.026844970703125,0.0031060418114066124,-0.010022573173046112,0.006147594191133976
1782969702438771000,5.03677099609375,-0.007970844395458698,-0.004910635761916637,0.02624567225575447
1782969702448697000,5.046697021484375,-0.012465543113648891,-0.0014009731821715832,0.03904541954398155
1782969702458624000,5.0566240234375,-0.015290890820324421,0.0051320274360477924,0.045311301946640015
1782969702468550000,5.0665498046875,-0.01076021883636713,0.00897659920156002,0.03646227717399597
1782969702478476000,5.07647607421875,0.0032852923031896353,0.015081895515322685,0.027561992406845093
1782969702488402000,5.08640185546875,-0.0008612073143012822,-0.002664058469235897,0.012906979769468307
1782969702498328800,5.096328857421875,0.00590828200802207,0.00009524263441562653,0.0011794839520007372
1782969702508255000,5.1062548828125,0.006559906993061304,-0.0007140296511352062,-0.009834895841777325
1782969702518181000,5.11618115234375,0.0015550281386822462,0.0012026475742459297,-0.018364468589425087
1782969702528108000,5.12610791015625,0.000051662500482052565,0.001311040949076414,-0.023133061826229095
1782969702538034000,5.136033935546875,0.001984584843739867,0.004474344197660685,-0.0276042427867651
1782969702547960000,5.1459599609375,0.010755888186395168,0.0010381229221820831,-0.02680482715368271
1782969702557886000,5.155885986328125,0.020884955301880836,-0.00368818873539567,-0.018431048840284348
1782969702567812900,5.165812744140625,0.026850273832678795,-0.0038409281987696886,-0.005800224374979734
1782969702577739000,5.175739013671875,0.022772440686821938,-0.005236424505710602,0.01141950860619545
1782969702587665200,5.1856650390625,0.024225890636444092,-0.008880726993083954,0.01832229644060135
1782969702597591000,5.195591064453125,0.021706542000174522,-0.01873309165239334,0.02531256154179573
1782969702607518000,5.20551806640625,0.02004118449985981,-0.0215324554592371,0.027487894520163536
1782969702617444000,5.215444091796875,0.016418753191828728,-0.018546786159276962,0.034765250980854034
1782969702627370200,5.225370361328125,0.010273058898746967,-0.017843862995505333,0.03866884857416153
1782969702637297000,5.235296875,0.004290267359465361,-0.009315354749560356,0.03419660031795502
1782969702647223000,5.24522314453125,-0.0016824478516355157,-0.005632221698760986,0.026609692722558975
1782969702657149200,5.255149169921875,-0.00627480261027813,-0.0018055252730846405,0.02025778777897358
1782969702667074800,5.26507470703125,-0.009101602248847485,-0.002137836767360568,0.01574368216097355
1782969702677002000,5.275001953125,-0.01070455927401781,0.003353334963321686,0.013863490894436836
1782969702686928100,5.28492822265625,-0.013899246230721474,-0.00986933521926403,0.01432578545063734
1782969702696854000,5.29485400390625,-0.014035067521035671,-0.006668747402727604,0.01730186864733696
1782969702706781000,5.304781005859375,-0.01212228648364544,0.0034458786249160767,0.025808004662394524
1782969702716707000,5.31470703125,-0.01603740081191063,-0.0009153145365417004,0.03137427568435669
1782969702726633000,5.324633056640625,-0.012926580384373665,-0.002072906820103526,0.03326120600104332
1782969702736558800,5.334558837890625,-0.01193401962518692,0.009994409047067165,0.026384124532341957
1782969702746486000,5.344486083984375,-0.011722625233232975,0.005401146598160267,0.02951078489422798
1782969702756412000,5.354411865234375,-0.010286915116012096,-0.0011976337991654873,0.026691295206546783
1782969702766338000,5.364338134765625,-0.010565008036792278,-0.001996329054236412,0.020262662321329117
1782969702776265000,5.374264892578125,-0.010127183981239796,-0.0025976707693189383,0.013164006173610687
1782969702786191000,5.384191162109375,-0.004999310243874788,-0.0026802481152117252,0.0039682816714048386
1782969702796117000,5.394116943359375,-0.0019534530583769083,-0.00526484614238143,-0.003797495737671852
1782969702806043000,5.40404296875,0.005222107749432325,-0.009987803176045418,-0.006196894217282534
1782969702815970000,5.413969970703125,0.00833640806376934,-0.013721555471420288,0.0017901925602927804
1782969702825896000,5.42389599609375,0.008260241709649563,-0.01008820440620184,0.009835869073867798
1782969702835822000,5.433822021484375,0.0051680454052984715,-0.002102982485666871,0.019433101639151573
1782969702845748000,5.443748046875,0.006551782600581646,0.0041725654155015945,0.03164266049861908
1782969702855675000,5.4536748046875,0.010346521623432636,0.00010804878547787666,0.03607602417469025
1782969702865601000,5.46360107421875,0.011397032998502254,0.0002629188820719719,0.032260797917842865
1782969702875527000,5.47352685546875,0.015060477890074253,-0.002701179590076208,0.026980813592672348
1782969702885453800,5.483453857421875,0.013856586068868637,-0.007980587892234325,0.02320382557809353
1782969702895380000,5.4933798828125,0.013580949045717716,-0.008099631406366825,0.016442591324448586
1782969702905306000,5.50330615234375,0.011532179079949856,-0.006884963717311621,0.012945327907800674
1782969702915232000,5.51323193359375,0.01719512604176998,-0.005004505626857281,0.010064319707453251
1782969702925159000,5.523158935546875,0.02006414905190468,-0.001491529867053032,0.009631822817027569
1782969702935085000,5.5330849609375,0.024031993001699448,-0.005374418571591377,0.015796242281794548
1782969702945011000,5.543010986328125,0.02270366996526718,0.000596323050558567,0.019001903012394905
1782969702954937000,5.55293701171875,0.024603836238384247,0.003552165348082781,0.022078920155763626
1782969702964864000,5.562864013671875,0.026982776820659637,0.0011618714779615402,0.021564243361353874
1782969702974790100,5.5727900390625,0.03288860246539116,-0.0022714759688824415,0.01702568307518959
1782969702984716000,5.582716064453125,0.027653256431221962,-0.0033038435503840446,0.009732631035149097
1782969702994643000,5.592642822265625,0.026413556188344955,-0.0006350898183882236,-0.0021213646978139877
1782969703004569000,5.602569091796875,0.022868724539875984,-0.0035964923445135355,-0.005062168464064598
1782969703014495000,5.612494873046875,0.018960269168019295,0.001437680795788765,-0.005416102707386017
1782969703024420900,5.6224208984375,0.0062904441729187965,-0.00003800913691520691,-0.0061201006174087524
1782969703034348000,5.63234814453125,0.007407906465232372,0.0011723972856998444,-0.0035749180242419243
1782969703044274200,5.642274169921875,0.014592008665204048,0.003560795448720455,0.007126226555556059
1782969703054199800,5.65219970703125,0.023836906999349594,0.0053075626492500305,0.016035033389925957
1782969703064127000,5.662126953125,0.021096820011734962,0.003438215237110853,0.021480634808540344
1782969703074053000,5.67205322265625,0.016550805419683456,-0.0029075653292238712,0.016439536586403847
1782969703083979000,5.68197900390625,0.00875704176723957,-0.006469552405178547,0.005921867210417986
1782969703093905000,5.69190478515625,0.0005651588435284793,-0.00527219520881772,0.0062707411125302315
1782969703103832000,5.70183203125,-0.009866544045507908,-0.0016418062150478363,0.0044644600711762905
1782969703113758700,5.7117587890625,-0.012815196067094803,0.002987300045788288,0.012558339163661003
1782969703123684900,5.721684814453125,-0.006647848058491945,0.004225670360028744,0.009721007198095322
1782969703133611000,5.731611083984375,-0.0010533456224948168,0.008852913044393063,0.0018335232743993402
1782969703143537700,5.74153759765625,0.012983009219169617,0.006175071466714144,-0.01087414100766182
1782969703153463800,5.7514638671875,0.024000240489840508,0.002878344152122736,-0.02038135938346386
1782969703163390000,5.761389892578125,0.03206837177276611,0.0023908354341983795,-0.02817463129758835
1782969703173316900,5.77131689453125,0.03498213365674019,-0.002700329525396228,-0.03546849638223648
1782969703183242800,5.78124267578125,0.03290152922272682,0.0012707528658211231,-0.036762356758117676
1782969703193169000,5.7911689453125,0.02795231156051159,0.005091856699436903,-0.027068980038166046
1782969703203095000,5.801094970703125,0.022560186684131622,0.00839949306100607,-0.014293843880295753
1782969703213022000,5.81102197265625,0.01864640600979328,0.008394165895879269,-0.008245538920164108
1782969703222947800,5.82094775390625,0.015481523238122463,0.011260708793997765,-0.0070666358806192875
1782969703232874000,5.8308740234375,0.015304689295589924,0.005885118152946234,-0.014969565905630589
1782969703242799900,5.8407998046875,0.014744034968316555,0.0025198403745889664,-0.01857937127351761
1782969703252726800,5.850726806640625,0.014712076634168625,-0.0012738327495753765,-0.016021670773625374
1782969703262653000,5.86065283203125,0.009314831346273422,-0.0007237405516207218,-0.01595422998070717
1782969703272579000,5.8705791015625,-0.005687553435564041,-0.00022839242592453957,-0.013750998303294182
1782969703282506000,5.880506103515625,-0.017269577831029892,0.0077024358324706554,-0.010832956060767174
1782969703292432000,5.890431884765625,-0.01798277348279953,0.009760793298482895,0.001958739012479782
1782969703302358000,5.90035791015625,-0.010950000956654549,0.009416853077709675,0.0019923103973269463
1782969703312284000,5.910283935546875,-0.0007828509551472962,0.010409146547317505,-0.006283462513238192
1782969703322210800,5.9202109375,0.010923504829406738,0.006501457653939724,-0.017907487228512764
1782969703332137000,5.930136962890625,0.02127387933433056,0.0018278765492141247,-0.018328266218304634
1782969703342062800,5.940062744140625,0.025132881477475166,0.0028940564952790737,-0.01725614070892334
1782969703351990000,5.949989990234375,0.012110823765397072,0.0016692690551280975,-0.015910711139440536
1782969703361916000,5.959916015625,0.0036444896832108498,0.004137967713177204,-0.007523039355874062
1782969703371841800,5.969841796875,-0.010468666441738605,0.010925034061074257,-0.009932400658726692
1782969703381768000,5.979767822265625,-0.02048327587544918,0.012131603434681892,-0.018475178629159927
1782969703391694800,5.98969482421875,-0.020271820947527885,0.0034728688187897205,-0.03192147985100746
1782969703401621000,5.99962109375,-0.018530605360865593,0.005155379883944988,-0.043212249875068665
1782969703411547000,6.009546875,-0.01403359230607748,-0.012711768038570881,-0.02433895878493786
1782969703421472800,6.01947265625,-0.009284891188144684,-0.015285264700651169,-0.004973595030605793
1782969703431400000,6.02939990234375,-0.01695665903389454,-0.006855827756226063,0.02149769477546215
1782969703441325800,6.039325927734375,-0.01281704194843769,-0.0009899488650262356,0.04383708909153938
1782969703451252000,6.049251953125,-0.005040877498686314,-0.0003771558403968811,0.05800696834921837
1782969703461179000,6.059178955078125,-0.007420472335070372,0.004456907045096159,0.05551861971616745
1782969703471104800,6.069104736328125,-0.010289495810866356,0.005683025810867548,0.03325698897242546
1782969703481031000,6.079031005859375,-0.015056449919939041,0.003820271696895361,-0.0021305757109075785
1782969703490956800,6.088956787109375,-0.012438029982149601,-0.0029532124754041433,-0.03912641108036041
1782969703500883700,6.0988837890625,-0.014205962419509888,-0.002058259444311261,-0.0652664378285408
1782969703510809900,6.108809814453125,-0.01752745546400547,-0.004618089646100998,-0.07932286709547043
1782969703520736000,6.118736083984375,-0.01675659604370594,-0.0031778940465301275,-0.08105222880840302
1782969703530662000,6.128661865234375,-0.016912924125790596,0.00004985695704817772,-0.06954790651798248
1782969703540588800,6.1385888671875,-0.013264757581055164,0.00040678074583411217,-0.04986900836229324
1782969703550515000,6.148514892578125,-0.0160371083766222,-0.00378956226631999,-0.027434006333351135
1782969703560440800,6.15844091796875,-0.02110307477414608,-0.006592743564397097,-0.009827046655118465
1782969703570367700,6.16836767578125,-0.03193734586238861,-0.0068840933963656425,0.010958126746118069
1782969703580294000,6.1782939453125,-0.041417013853788376,-0.00594724528491497,0.029608823359012604
1782969703590220000,6.188219970703125,-0.037007350474596024,-0.005079853814095259,0.03486163914203644
1782969703600146000,6.19814599609375,-0.030000492930412292,-0.0021064113825559616,0.0378497876226902
1782969703610072800,6.20807275390625,-0.029715800657868385,-0.0010368861258029938,0.0371597595512867
1782969703619999000,6.2179990234375,-0.027797507122159004,-0.0025115625467151403,0.02320817857980728
1782969703629924900,6.2279248046875,-0.026362329721450806,-0.002017279854044318,0.007806852459907532
1782969703639850800,6.237850830078125,-0.031034883111715317,-0.006191616412252188,-0.008421228267252445
1782969703649778000,6.24777783203125,-0.03425570949912071,-0.011122992262244225,-0.018937518820166588
1782969703659704000,6.2577041015625,-0.035138119012117386,-0.011259471997618675,-0.02239402011036873
1782969703669629700,6.267629638671875,-0.033681903034448624,-0.009473290294408798,-0.013176021166145802
1782969703679556900,6.277556884765625,-0.0227065272629261,-0.004477657377719879,-0.0005115936510264874
1782969703689483000,6.28748291015625,-0.005713693797588348,0.0022412315011024475,0.01684555783867836
1782969703699409000,6.297408935546875,0.006421186029911041,0.002327495254576206,0.02610316127538681
1782969703709334800,6.307334716796875,0.012907047756016254,0.005002107936888933,0.02676042914390564
1782969703719262000,6.317261962890625,0.01752449758350849,0.0019542272202670574,0.024609284475445747
1782969703729187800,6.327187744140625,0.019942646846175194,0.0017017591744661331,0.018873633816838264
1782969703739113700,6.33711376953125,0.015075372532010078,0.0004289178177714348,0.008759543299674988
1782969703749041000,6.347041015625,0.009695520624518394,-0.0013101263903081417,0.0034523960202932358
1782969703758967000,6.356967041015625,-0.0008901332621462643,0.00037224404513835907,-0.0015927422791719437
1782969703768892700,6.366892578125,-0.010208799503743649,-0.002466419246047735,-0.002525647636502981
1782969703778818800,6.37681884765625,-0.01865536719560623,-0.001406958093866706,-0.0026109321042895317
1782969703788746000,6.38674609375,-0.022940393537282944,-0.0011177388951182365,-0.0002377892378717661
1782969703798672000,6.396671875,-0.021300846710801125,-0.0007088175043463707,0.0005089455517008901
1782969703808597800,6.40659765625,-0.00860529113560915,-0.0010422454215586185,0.008749298751354218
1782969703818524000,6.41652392578125,0.0001128331059589982,-0.002277153078466654,0.01797075942158699
1782969703828450800,6.426450927734375,0.0070607541128993034,0.0009127813391387463,0.027338694781064987
1782969703838376700,6.436376708984375,0.012839075177907944,-0.0013617170043289661,0.0314616933465004
1782969703848302800,6.446302734375,0.004066356457769871,-0.0009910049848258495,0.029572444036602974
1782969703858229800,6.456229736328125,-0.0018232462462037802,0.00363356526941061,0.02799500897526741
1782969703868156000,6.466156005859375,-0.0019944875966757536,0.0034490078687667847,0.015802258625626564
1782969703878081800,6.476081787109375,-0.00036245904630050063,0.0005725463852286339,0.0073854317888617516
1782969703888008000,6.486008056640625,0.0024913842789828777,0.0035893754102289677,-0.005018241237848997
1782969703897934800,6.495934814453125,0.0073945908807218075,-0.0007168487645685673,-0.012291710823774338
1782969703907861000,6.505861083984375,0.007923761382699013,0.0025958572514355183,-0.0189762432128191
1782969703917787000,6.515786865234375,0.015523436479270458,0.002039812970906496,-0.019441688433289528
1782969703927713000,6.525713134765625,0.024210669100284576,0.002529834397137165,-0.01511405035853386
1782969703937640000,6.535639892578125,0.02171155996620655,0.000579694751650095,-0.008417406119406223
1782969703947565800,6.54556591796875,0.017842520028352737,0.001916335429996252,-0.004336910787969828
1782969703957492000,6.555491943359375,0.016637172549962997,0.0015453570522367954,-0.00006812997162342072
1782969703967419000,6.5654189453125,0.012723392806947231,0.0008452120237052441,0.005539688281714916
1782969703977345000,6.575344970703125,0.007214377634227276,0.0015347041189670563,0.0060294438153505325
1782969703987271000,6.58527099609375,-0.004780233837664127,0.00024014152586460114,0.0032363201025873423
1782969703997196800,6.59519677734375,-0.010204151272773743,0.0037562716752290726,0.006474018562585115
1782969704007124000,6.6051240234375,-0.018750235438346863,0.0018915259279310703,0.011266909539699554
1782969704017049900,6.6150498046875,-0.019719647243618965,-0.0008075968362390995,0.012449572794139385
1782969704026975700,6.624975830078125,-0.01667325757443905,0.0020443820394575596,0.008332858793437481
1782969704036902000,6.63490185546875,-0.010338498279452324,0.002193485852330923,0.00945578794926405
1782969704046829000,6.6448291015625,0.0008390555158257484,0.00011355709284543991,0.004024537280201912
1782969704056755000,6.6547548828125,0.002574535785242915,0.0019439151510596275,0.0028385065961629152
1782969704066680800,6.664680908203125,0.012164312414824963,0.005260616075247526,-0.0053661600686609745
1782969704076608000,6.67460791015625,0.01609073393046856,0.0011541582643985748,-0.01047513447701931
1782969704086534000,6.684533935546875,0.022490045055747032,0.0033102533780038357,-0.021333642303943634
1782969704096459800,6.694459716796875,0.025317972525954247,0.00047510722652077675,-0.026842454448342323
1782969704106386000,6.704385986328125,0.027238378301262856,0.00043223053216934204,-0.03260500356554985
1782969704116313000,6.71431298828125,0.03803892806172371,0.0037710685282945633,-0.028728114441037178
1782969704126239000,6.724239013671875,0.03535819053649902,0.006075502373278141,-0.01803605444729328
1782969704136165000,6.7341650390625,0.03108326718211174,0.00520349433645606,-0.008792816661298275
1782969704146092000,6.744092041015625,0.025497552007436752,-0.00015212222933769226,-0.006273199804127216
1782969704156018000,6.754017822265625,0.019325409084558487,-0.000626259483397007,-0.00014965410809963942
1782969704165944000,6.763944091796875,0.012655256316065788,-0.005243115592747927,0.002138799987733364
1782969704175870000,6.773869873046875,0.006717739161103964,-0.005156296771019697,0.008601759560406208
1782969704185796900,6.783796875,0.0059872339479625225,-0.003415121929720044,0.010803661309182644
1782969704195723000,6.793722900390625,0.0019791354425251484,-0.0033671101555228233,0.005182825028896332
1782969704205649200,6.803649169921875,0.003224962158128619,-0.005270471330732107,0.0007121763192117214
1782969704215575000,6.813574951171875,0.0011076254304498434,0.0018630302511155605,6.731133908033371e-7
1782969704225502000,6.823501953125,-0.005563859362155199,0.003432697616517544,-0.00831318274140358
1782969704235428000,6.833427978515625,-0.013860117644071579,0.003139492589980364,-0.017848582938313484
1782969704245354000,6.84335400390625,-0.018096672371029854,-0.0015548611991107464,-0.029700715094804764
1782969704255281000,6.853281005859375,-0.015617803670465946,-0.0015066578052937984,-0.04094671458005905
1782969704265207000,6.86320703125,-0.010327966883778572,-0.009132353588938713,-0.03755997121334076
1782969704275133200,6.87313330078125,-0.003980404231697321,-0.005279941949993372,-0.031467925757169724
1782969704285059000,6.88305908203125,0.003363794879987836,-0.0018471272196620703,-0.019405938684940338
1782969704294986000,6.892986083984375,0.014339296147227287,0.001002306118607521,-0.005242510698735714
1782969704304912100,6.902912109375,0.017230957746505737,0.0020659728907048702,0.002517940476536751
1782969704314838000,6.912838134765625,0.01737251505255699,0.004467397462576628,0.005848177708685398
1782969704324764000,6.922763916015625,0.010301555506885052,0.0028841481544077396,0.001064075157046318
1782969704334691000,6.932691162109375,0.003851235844194889,0.003535599447786808,-0.01070798933506012
1782969704344617200,6.9426171875,0.007077388931065798,-0.006448325235396624,-0.023485835641622543
1782969704354542800,6.95254296875,0.007247502449899912,-0.014437837526202202,-0.025587480515241623
1782969704364470000,6.962469970703125,0.002385102678090334,-0.01845202036201954,-0.02401195466518402
1782969704374396200,6.972396240234375,-0.002996570896357298,-0.020367080345749855,-0.009157811291515827
1782969704384322000,6.982322021484375,-0.012880627065896988,-0.015355544164776802,0.011816713027656078
1782969704394248000,6.992248046875,-0.01932668685913086,-0.009006086736917496,0.028555259108543396
1782969704404175000,7.002175048828125,-0.025325989350676537,-0.003730365075170994,0.0381343811750412
1782969704414101200,7.012101318359375,-0.026538996025919914,-0.0024222852662205696,0.03745182976126671
1782969704424027000,7.02202685546875,-0.02050933428108692,-0.0030763577669858932,0.02735498920083046
1782969704433953000,7.031953125,-0.010592028498649597,-0.0192901398986578,0.013696199283003807
1782969704443880200,7.041880126953125,-0.003858226118609309,0.005884987767785788,0.002775907050818205
1782969704453806000,7.05180615234375,-0.0008867533761076629,-0.0033211444970220327,-0.01568346470594406
1782969704463732000,7.06173193359375,0.006794335786253214,-0.0053278361447155476,-0.027617622166872025
1782969704473659100,7.0716591796875,0.009777138009667397,-0.006204879842698574,-0.029920175671577454
1782969704483585000,7.0815849609375,0.0038228423800319433,-0.0028559546917676926,-0.028008557856082916
1782969704493511000,7.091510986328125,-0.0003998664324171841,-0.000058931298553943634,-0.015596489422023296
1782969704503437000,7.10143701171875,-0.000940754427574575,0.0010089962743222713,0.0018123281188309193
1782969704513364000,7.111364013671875,-0.001775164040736854,-0.00430446770042181,0.014827227219939232
1782969704523290000,7.1212900390625,-0.005658052861690521,-0.007104781456291676,0.019358595833182335
1782969704533216000,7.131216064453125,-0.00958455540239811,-0.011290004476904869,0.02676939032971859
1782969704543142100,7.14114208984375,-0.01037045381963253,-0.009001017548143864,0.03109569475054741
1782969704553069000,7.151069091796875,-0.013914507813751698,-0.0073655471205711365,0.04021124169230461
1782969704562995000,7.160994873046875,-0.0166796687990427,0.0006636166945099831,0.04254576936364174
1782969704572921000,7.170921142578125,-0.011588462628424168,0.0035560019314289093,0.04024689644575119
1782969704582848000,7.180847900390625,-0.007974020205438137,0.003627108410000801,0.028287438675761223
1782969704592774100,7.190774169921875,-0.0022182108368724585,0.0008653872646391392,0.008726443164050579
1782969704602700000,7.200699951171875,-0.0031753508374094963,-0.00526787294074893,-0.008564130403101444
1782969704612626200,7.210626220703125,-0.005611610598862171,-0.006355241406708956,-0.025740453973412514
1782969704622553000,7.220552978515625,-0.007482214830815792,-0.006819430738687515,-0.029673676937818527
1782969704632479000,7.23047900390625,-0.006970130372792482,-0.003935951739549637,-0.020151246339082718
1782969704642405000,7.240405029296875,-0.002504008822143078,-0.0026195510290563107,-0.007936924695968628
1782969704652331000,7.2503310546875,0.011677713133394718,-0.0017297465819865465,0.0063835978507995605
1782969704662258200,7.260258056640625,0.0215830747038126,-0.0009568971581757069,0.01101669855415821
1782969704672184000,7.27018408203125,0.02034160867333412,0.004837547428905964,0.019589681178331375
1782969704682110000,7.28010986328125,0.018868347629904747,0.007750779390335083,0.027529362589120865
1782969704692037000,7.290037109375,0.016023848205804825,0.010299433954060078,0.025131499394774437
1782969704701963000,7.299962890625,0.010321487672626972,0.00826291460543871,0.016143595799803734
1782969704711889200,7.30988916015625,0.005479041486978531,0.011082753539085388,0.0017290498362854123
1782969704721815000,7.31981494140625,0.0023458327632397413,0.008076843805611134,-0.019314715638756752
1782969704731742200,7.3297421875,-0.007450975477695465,0.006141131743788719,-0.033741310238838196
1782969704741668000,7.339668212890625,-0.00814259797334671,-0.002400158206000924,-0.043660786002874374
1782969704751594000,7.349593994140625,-0.00763764139264822,-0.004641731269657612,-0.04413051903247833
1782969704761520000,7.35952001953125,-0.0005403171526268125,-0.0050238948315382,-0.03160061687231064
1782969704771447000,7.369447021484375,0.001159414416179061,-0.003969250712543726,-0.015187428332865238
1782969704781373000,7.379373046875,-0.0008890891913324594,0.0017645349726080894,0.002784914569929242
1782969704791299000,7.389299072265625,0.00039961450966075063,0.0036444608122110367,0.021456869319081306
1782969704801226200,7.399226318359375,-0.002946647349745035,0.006799773313105106,0.02682926319539547
1782969704811152000,7.40915185546875,-0.001552257570438087,0.00705657759681344,0.02697204053401947
1782969704821078000,7.419078125,0.0037628794088959694,-0.00039654504507780075,0.013799512758851051
1782969704831004200,7.429004150390625,0.006234150379896164,-0.0020307910162955523,-0.0020792849827557802
1782969704840930800,7.438930908203125,0.00879744254052639,-0.0014646027702838182,-0.011048811487853527
1782969704850857000,7.44885693359375,0.006670642178505659,-0.0015712236054241657,-0.015972059220075607
1782969704860783000,7.458783203125,0.007673588581383228,-0.0009451145306229591,-0.026130154728889465
1782969704870710000,7.4687099609375,0.0008680232567712665,-0.0022117558401077986,-0.0255564134567976
1782969704880636000,7.478635986328125,-0.003035904373973608,-0.00033449335023760796,-0.02640889212489128
1782969704890562000,7.48856201171875,-0.006745482794940472,0.0035040793009102345,-0.018997738137841225
1782969704900488200,7.49848828125,-0.010400671511888504,0.005557376425713301,-0.016778793185949326
1782969704910414800,7.508414794921875,-0.012719608843326569,0.003352769184857607,-0.013919794000685215
1782969704920341000,7.518341064453125,-0.01022822130471468,0.002843040507286787,-0.005751080811023712
1782969704930267100,7.52826708984375,-0.00929000973701477,0.0004651886411011219,-0.005789618007838726
1782969704940193000,7.538193115234375,-0.004720291588455439,-0.0032946623396128416,-0.003613548818975687
1782969704950120000,7.548119873046875,-0.008696903474628925,-0.006441804580390453,0.0005339792696759105
1782969704960046000,7.558046142578125,-0.010578692890703678,-0.0010920464992523193,0.00724221533164382
1782969704969972200,7.56797216796875,-0.012642806395888329,0.0036208098754286766,0.010586598888039589
1782969704979899000,7.57789892578125,-0.010326655581593513,0.002865005284547806,0.010874486528337002
1782969704989825000,7.587824951171875,-0.01017274521291256,0.001752687618136406,0.005549309309571981
1782969704999751200,7.597751220703125,-0.003428822383284569,0.0031385961920022964,0.002122619654983282
1782969705009677000,7.607677001953125,-0.005392575636506081,0.0026856991462409496,0.00011901312973350286
1782969705019604000,7.61760400390625,-0.004761140327900648,0.001321894582360983,-0.010904076509177685
1782969705029530000,7.627530029296875,-0.001270207343623042,-0.000004784669727087021,-0.020540302619338036
1782969705039456300,7.637456298828125,0.0010251711355522275,-0.001447418937459588,-0.02115948684513569
1782969705049383000,7.6473828125,0.003608682192862034,0.0014711297117173672,-0.01243768259882927
1782969705059309000,7.65730908203125,0.007902762852609158,-0.00006338395178318024,-0.002246298361569643
1782969705069235200,7.667235107421875,0.006616477854549885,0.0007614069618284702,0.0030979146249592304
1782969705079160800,7.677160888671875,0.003829746041446924,0.004928721114993095,0.0033402619883418083
1782969705089088000,7.687087890625,0.0070527647621929646,0.004010569769889116,0.013944326899945736
1782969705099014100,7.69701416015625,0.0015179169131442904,0.0011583245359361172,0.017291121184825897
1782969705108940000,7.70693994140625,0.0019970391876995564,0.002190482337027788,0.01784151792526245
1782969705118865000,7.716864990234375,-0.002978811040520668,-0.0021747048012912273,0.01536584459245205
1782969705128792000,7.7267919921875,-0.003947053104639053,0.0009106062352657318,0.01674528606235981
1782969705138718200,7.73671826171875,-0.011901648715138435,0.0016986355185508728,0.00877337995916605
1782969705148644000,7.74664404296875,-0.013462630100548267,-0.003461727173998952,0.0007185364374890924
1782969705158571000,7.756571044921875,-0.012373663485050201,0.001495214644819498,0.0012738056248053908
1782969705168497200,7.7664970703125,-0.013908157125115395,-0.0007283417508006096,0.0031336788088083267
1782969705178423000,7.776423095703125,-0.009115000255405903,0.003939114511013031,0.006504441611468792
1782969705188349000,7.786348876953125,-0.007631413638591766,0.0029019713401794434,0.008669967763125896
1782969705198276000,7.796276123046875,-0.002913357922807336,0.0028798673301935196,0.009641755372285843
1782969705208202200,7.8062021484375,0.0008352877339348197,-0.0012767103035002947,0.011912710964679718
1782969705218128000,7.8161279296875,0.0016765802865847945,0.005111147649586201,0.01564992591738701
1782969705228054000,7.826053955078125,0.0009662527590990067,0.0006730547174811363,0.01245278399437666
1782969705237981200,7.835981201171875,0.00040539103792980313,0.001604362390935421,0.01628906838595867
1782969705247907000,7.845906982421875,0.003987834323197603,0.003813263028860092,0.010595526546239853
1782969705257833000,7.8558330078125,0.001862365403212607,0.005517952144145966,0.008085230365395546
1782969705267759000,7.865759033203125,0.004491786472499371,0.003869838546961546,0.005785529036074877
1782969705277686000,7.87568603515625,0.005187670700252056,0.0024274708703160286,0.003977242857217789
1782969705287612000,7.88561181640625,0.0027769964653998613,-0.0025423383340239525,0.004601675551384687
1782969705297538000,7.8955380859375,-0.0029282935429364443,0.0013962103985249996,-0.00005326361861079931
1782969705307465000,7.90546484375,-0.009480019100010395,0.004055526573210955,0.002629933413118124
1782969705317391000,7.91539111328125,-0.016140850260853767,0.0022664149291813374,-0.00018848979379981756
1782969705327317000,7.92531689453125,-0.01585441641509533,0.0035221460275352,-0.0021214585285633802
1782969705337243100,7.9352431640625,-0.013606973923742771,-0.000699230469763279,-0.005462660454213619
1782969705347170000,7.945170166015625,-0.0064634340815246105,-0.005947031080722809,-0.011630713939666748
1782969705357096000,7.955095947265625,-0.0006920976447872818,-0.011989743448793888,-0.01028688345104456
1782969705367022000,7.96502197265625,0.0025570609141141176,-0.013503717258572578,0.0016167731955647469
1782969705376949000,7.974948974609375,0.003605813719332218,-0.008622143417596817,0.01839495450258255
1782969705386875100,7.984875244140625,0.011386853642761707,-0.0025090069975703955,0.03462739288806915
1782969705396801000,7.994801025390625,0.006003540009260178,0.002594408579170704,0.04370397701859474
1782969705406727200,8.00472705078125,0.0007636487716808915,0.00733515340834856,0.039817847311496735
1782969705416653000,8.014653076171875,-0.0021876664832234383,0.008525320328772068,0.02776198275387287
1782969705426579000,8.024578857421876,-0.0023977698292583227,0.0007951445877552032,0.009310724213719368
1782969705436505000,8.034505126953125,-0.001978854648768902,-0.0011452347971498966,-0.01300523430109024
1782969705446432000,8.044431884765626,-0.00804141815751791,-0.0036126109771430492,-0.026932328939437866
1782969705456358000,8.05435791015625,-0.009584719315171242,-0.002686896361410618,-0.030011741444468498
1782969705466284000,8.064283935546875,-0.010730719193816185,-0.0037398356944322586,-0.02736852318048477
1782969705476210200,8.074210205078124,-0.009264116175472736,-0.005486602894961834,-0.016747837886214256
1782969705486137000,8.08413720703125,-0.008546886034309864,-0.0006192182190716267,-0.004319693893194199
1782969705496063000,8.09406298828125,-0.005463744048029184,-0.00023625558242201805,0.01631288044154644
1782969705505989000,8.103989013671875,-0.0010827422374859452,-0.0004822988994419575,0.029302306473255157
1782969705515916000,8.113916015625,0.004282461944967508,-0.0017145436722785234,0.041565898805856705
1782969705525842000,8.123842041015624,0.00563899427652359,-0.00001556379720568657,0.04507787153124809
1782969705535768000,8.13376806640625,0.0081104077398777,-0.004848934710025787,0.0404205359518528
1782969705545694200,8.143694091796876,0.008452069014310837,-0.006538986228406429,0.031431786715984344
1782969705555621000,8.15362109375,-0.004147612489759922,-0.0031075028236955404,0.022338954731822014
1782969705565547000,8.163547119140626,-0.00973682664334774,-0.00048518646508455276,0.01172295305877924
1782969705575473200,8.17347314453125,-0.014479118399322033,-0.0031677887309342623,-0.004743638448417187
1782969705585399000,8.18339892578125,-0.011533969081938267,-0.003801013808697462,-0.016354190185666084
1782969705595326000,8.193325927734374,-0.006070494186133146,-0.0022470594849437475,-0.020449332892894745
1782969705605252000,8.203252197265625,-0.00440067145973444,0.0006478065624833107,-0.01542949303984642
1782969705615178000,8.213177978515626,0.008131898008286953,0.0008922847919166088,-0.010921826586127281
1782969705625105200,8.223105224609375,0.014177621342241764,0.004920605570077896,0.005801304243505001
1782969705635031000,8.233031005859376,0.026055052876472473,0.010292734019458294,0.01917410083115101
1782969705644957200,8.242957275390625,0.030879657715559006,0.011145221069455147,0.03090537153184414
1782969705654883000,8.252883056640625,0.030652223154902458,0.007218390237540007,0.03158608078956604
1782969705664810000,8.26281005859375,0.02631993591785431,0.007815161719918251,0.024013472720980644
1782969705674736000,8.272736083984375,0.021672185510396957,0.0056500122882425785,0.017519086599349976
1782969705684662000,8.282662109375,0.012026728130877018,0.0016930783167481422,0.011582587845623493
1782969705694588000,8.292587890625,0.005037795286625624,0.0017551295459270477,0.007581454701721668
1782969705704515000,8.30251513671875,-0.005050300154834986,-0.0023428674321621656,0.003421628847718239
1782969705714441000,8.31244091796875,-0.01270529069006443,-0.001865362748503685,-0.004883705172687769
1782969705724367000,8.3223671875,-0.008947240188717842,-0.006024125963449478,-0.004462783224880695
1782969705734294000,8.3322939453125,-0.004477390553802252,-0.0008629197254776955,0.003974377643316984
1782969705744220000,8.342219970703125,0.001838663243688643,0.0017075017094612122,0.02189398743212223
1782969705754146000,8.35214599609375,0.005740726832300425,0.0025708982720971107,0.032098688185214996
1782969705764072000,8.362072021484375,0.011395907960832119,0.0003352491185069084,0.029225701466202736
1782969705773999900,8.371999755859376,0.018693502992391586,-0.0005627688951790333,0.029714656993746758
1782969705783926000,8.381926025390625,0.023044738918542862,-0.00492852134630084,0.023922422900795937
1782969705793853000,8.39185302734375,0.018309105187654495,-0.006117356475442648,0.017468785867094994
1782969705803779000,8.401779052734375,0.017009198665618896,-0.0032423892989754677,0.01711200177669525
1782969705813705000,8.411705078125,0.015658974647521973,-0.0011424869298934937,0.014876543544232845
1782969705823632100,8.421632080078124,0.014874056912958622,-0.0033475286327302456,0.010546179488301277
1782969705833558000,8.43155810546875,0.015417607501149178,-0.002509964630007744,0.005594830960035324
1782969705843484000,8.44148388671875,0.01491763349622488,-0.0010326476767659187,0.005298422649502754
1782969705853410000,8.45141015625,0.015497403219342232,0.0014992193318903446,0.004301334731280804
1782969705863337000,8.4613369140625,0.008415831252932549,-0.0047063808888196945,0.002442290773615241
1782969705873263000,8.47126318359375,0.0012186381500214338,-0.0029609452467411757,0.008982481434941292
1782969705883189000,8.48118896484375,-0.00025343388551846147,0.0015885750763118267,0.014681553468108177
1782969705893116000,8.491115966796874,0.0026589990593492985,-0.0006098644807934761,0.018054179847240448
1782969705903042000,8.5010419921875,0.0010783111210912466,-0.0063708471134305,0.005609635263681412
1782969705912968200,8.51096826171875,0.006751643028110266,-0.010698217898607254,-0.004035801161080599
1782969705922894000,8.52089404296875,0.008478047326207161,-0.010069487616419792,-0.006209112703800201
1782969705932821000,8.530821044921876,0.006716632284224033,-0.00936801079660654,-0.0030921492725610733
1782969705942747100,8.5407470703125,0.006006613839417696,-0.010550369508564472,-0.00004195224028080702
1782969705952673000,8.550673095703125,0.0021413019858300686,-0.004033614415675402,0.004795946180820465
1782969705962599000,8.560598876953126,0.004460116382688284,0.0008191973902285099,0.009966473095119
1782969705972526000,8.570526123046875,0.002163406228646636,0.0020304033532738686,0.016911199316382408
1782969705982452200,8.5804521484375,0.0026057162322103977,0.0006238901987671852,0.015552878379821777
1782969705992378000,8.590378173828125,-0.004703329410403967,0.0024063442833721638,0.0075692543759942055
1782969706002305000,8.600304931640625,-0.0037272830959409475,-0.000014124903827905655,0.004616887308657169
1782969706012231200,8.610231201171874,-0.004216505214571953,-0.002234402345493436,0.0050011808052659035
1782969706022157000,8.620156982421875,-0.0006062614265829325,-0.004185765981674194,0.00228956644423306
1782969706032083000,8.6300830078125,-0.0037565145175904036,-0.002220086520537734,0.002562540350481868
1782969706042010000,8.640010009765625,-0.001746523892506957,-0.0006899740546941757,0.005511443596333265
1782969706051936300,8.649936279296876,0.0004891997668892145,0.0014581317082047462,0.00937941949814558
1782969706061862000,8.65986181640625,0.00043591560097411275,0.0007840758189558983,0.01118020061403513
1782969706071788000,8.6697880859375,0.00010674889199435711,-0.0010471134446561337,0.010077651590108871
1782969706081715200,8.679715087890624,-0.0005311595159582794,0.0016226833686232567,0.0023943549022078514
1782969706091640800,8.689640869140625,-0.003243322717025876,-0.00007561454549431801,-0.0025929466355592012
1782969706101567000,8.69956689453125,-0.004493718035519123,0.003665135707706213,-0.0034669646993279457
1782969706111494400,8.709494384765625,-0.0056905425153672695,0.006672110874205828,-0.006427867338061333
1782969706121420300,8.719420166015626,-0.004030185751616955,0.008759359829127789,-0.008876676671206951
1782969706131346400,8.729346435546875,0.0004780131275765598,0.0032775094732642174,-0.015047486871480942
1782969706141272300,8.739272216796875,0.006226078607141972,0.004100127145648003,-0.018503863364458084
1782969706151199200,8.74919921875,0.01344031561166048,-0.000220585148781538,-0.014798340387642384
1782969706161125400,8.75912548828125,0.012861241586506367,0.0025293626822531223,-0.00684333685785532
1782969706171051500,8.769051513671876,0.01964644528925419,0.002557592000812292,0.000709654064849019
1782969706180977400,8.778977294921875,0.0152045376598835,0.000974161084741354,0.004379036370664835
1782969706190904300,8.788904296875,0.01743173971772194,0.003023729659616947,0.005078648682683706
1782969706200830500,8.79883056640625,0.014089511707425117,-0.0012630634009838104,0.00701221264898777
1782969706210756400,8.80875634765625,0.007240393664687872,-0.0024590890388935804,0.0025466240476816893
1782969706220683300,8.818683349609374,-0.005256569944322109,-0.004307611845433712,0.0019707712344825268
1782969706230609400,8.828609375,-0.008700836449861526,-0.0003893030807375908,-0.0010005176300182939
1782969706240535600,8.83853564453125,-0.008171544410288334,0.0013507548719644547,0.0034179789945483208
1782969706250461400,8.84846142578125,-0.0013983268290758133,0.0035606459714472294,0.007817521691322327
1782969706260388400,8.858388427734376,0.0055339643731713295,0.006998731289058924,0.018183941021561623
1782969706270314500,8.868314453125,0.0121607081964612,0.007258389610797167,0.01810777373611927
1782969706280240600,8.87824072265625,0.0179225392639637,0.007248292211443186,0.014911258593201637
1782969706290166300,8.888166259765624,0.01557682640850544,0.006645884830504656,0.010481090284883976
1782969706300093400,8.898093505859375,0.012185660190880299,0.00005788402631878853,0.007222963497042656
1782969706310019600,8.90801953125,0.004476607311517,0.004507493693381548,0.00019008805975317955
1782969706319945200,8.9179453125,-0.007087330333888531,0.005004536360502243,-0.001678010798059404
1782969706329872400,8.927872314453126,-0.017093893140554428,0.011230208911001682,-0.009041384793817997
1782969706339798500,8.937798583984375,-0.013967073522508144,0.01019290741533041,-0.016298498958349228
1782969706349724400,8.947724365234375,-0.005026842467486858,0.008731364272534847,-0.027118923142552376
1782969706359650300,8.957650390625,0.00377918710000813,-0.0026286058127880096,-0.029021169990301132
1782969706369577500,8.967577392578125,0.012754572555422783,-0.006447845138609409,-0.02725469507277012
1782969706379503600,8.977503662109376,0.014987735077738762,-0.011427657678723335,-0.015429336577653885
1782969706389429200,8.98742919921875,0.01660187728703022,-0.00503207603469491,0.008056814782321453
1782969706399355400,8.99735546875,0.009893597103655338,0.0032921480014920235,0.028395548462867737
1782969706409282600,9.007282470703124,0.010461117140948772,0.008106078021228313,0.039464712142944336
1782969706419208400,9.01720849609375,0.004027168266475201,0.012834431603550911,0.036470986902713776
1782969706429134300,9.02713427734375,-0.0006197814363986254,0.008606929332017899,0.022315755486488342
1782969706439061500,9.0370615234375,-0.011585121974349022,0.0016601486131548882,-0.0004268103512004018
1782969706448987400,9.0469873046875,-0.0175884198397398,-0.002484262455254793,-0.020368026569485664
1782969706458913300,9.056913330078125,-0.02018655836582184,0.0007024016231298447,-0.02493351697921753
1782969706468839400,9.06683935546875,-0.021076319739222527,0.007252712268382311,-0.022575553506612778
1782969706478766300,9.076766357421874,-0.005697856657207012,0.011241083033382893,-0.01049189642071724
1782969706488692500,9.0866923828125,0.011356228031218052,0.015267516486346722,-0.005597538780421019
1782969706498618400,9.096618408203126,0.0279577374458313,0.010877872817218304,-0.003821056568995118
1782969706508544500,9.10654443359375,0.03621060773730278,0.008000859059393406,-0.008498099632561207
1782969706518471400,9.116471435546876,0.035208605229854584,0.00283091701567173,-0.013995709829032421
1782969706528397300,9.126397216796875,0.02417566254734993,-0.0006889831274747849,-0.017340106889605522
1782969706538323500,9.136323486328125,0.014779066666960716,-0.002866084687411785,-0.006867634132504463
1782969706548250400,9.14625048828125,0.01034596934914589,-0.0018825794104486704,0.007603450678288937
1782969706558176500,9.156176513671875,0.007073025219142437,0.0018968293443322182,0.02568012662231922
1782969706568102400,9.166102294921876,-0.00011910719331353903,0.007533676456660032,0.032012857496738434
1782969706578028500,9.176028564453125,0.002115980489179492,0.01215200312435627,0.028076453134417534
1782969706587955500,9.18595556640625,0.0037402426823973656,0.008269647136330605,0.01451270841062069
1782969706597881300,9.19588134765625,0.005770453251898289,0.003914258908480406,-0.005190624855458736
1782969706607807500,9.205807373046875,0.003845520317554474,-0.004681626334786415,-0.02040286734700203
1782969706617733400,9.2157333984375,0.0004861061170231551,-0.006553156767040491,-0.029357733204960823
1782969706627660500,9.22566064453125,-0.002538978587836027,-0.006931591778993607,-0.030921807512640953
1782969706637586400,9.23558642578125,-0.007856308482587337,-0.0010480713099241257,-0.02220902591943741
1782969706647512300,9.24551220703125,-0.014076387509703636,0.0017831353470683098,-0.011595794931054115
1782969706657439500,9.255439453125,-0.016859717667102814,0.0030030221678316593,0.0013115910114720464
1782969706667365400,9.265365478515625,-0.01530176866799593,0.008123215287923813,0.0013107919367030263
1782969706677291500,9.27529150390625,-0.009608011692762375,0.007909075357019901,0.010134300217032433
1782969706687217400,9.285217529296874,-0.00588997220620513,0.0048283301293849945,0.010691167786717415
1782969706697144600,9.29514453125,0.0012155657168477774,0.008705873042345047,0.013406164944171906
1782969706707070500,9.305070556640626,0.006487293168902397,0.006383596453815699,0.011736096814274788
1782969706716996400,9.314996337890625,0.0032234671525657177,0.003026999533176422,0.012690261006355286
1782969706726922500,9.324922607421875,0.009108787402510643,0.0007457360625267029,0.003442700020968914
1782969706736849400,9.334849365234374,0.013195713981986046,-0.0015508760698139668,-0.003293657209724188
1782969706746775300,9.344775390625,0.015172844752669334,0.0013634213246405125,-0.009718799963593483
1782969706756701400,9.354701416015626,0.011985513381659985,-0.002306428039446473,-0.00995025783777237
1782969706766628600,9.364628662109375,0.004524933639913797,-0.0006712470203638077,-0.008102556690573692
1782969706776554200,9.37455419921875,-0.003539405530318618,0.005000039003789425,-0.006714703515172005
1782969706786480400,9.38448046875,-0.006425739265978336,-0.0033708089031279087,-0.0030382093973457813
1782969706796406500,9.394406494140625,-0.006533085368573666,-0.0009437082335352898,0.0038333693519234657
1782969706806333200,9.404333251953124,-0.011294018477201462,-0.00342071452178061,0.007862999103963375
1782969706816259300,9.41425927734375,-0.012707501649856567,0.001251577865332365,0.01792219653725624
1782969706826185500,9.424185546875,-0.005349453538656235,0.004343241918832064,0.016135215759277344
1782969706836111400,9.434111328125,-0.004571258090436459,0.006999393459409475,0.019664358347654343
1782969706846038300,9.444038330078126,0.003966303542256355,0.002603047527372837,0.01390394102782011
1782969706855964400,9.45396435546875,0.009933527559041977,0.000364712905138731,-0.002194114960730076
1782969706865890600,9.463890625,0.011586018837988377,0.0017783185467123985,-0.006578477099537849
1782969706875817500,9.4738173828125,0.006918685510754585,0.00002147303894162178,-0.011831656098365784
1782969706885743400,9.483743408203125,0.0004730364016722888,-0.0007545719854533672,-0.006036617327481508
1782969706895669500,9.49366943359375,-0.011344392783939838,0.0019866428337991238,-0.0006825212622061372
1782969706905595400,9.503595458984375,-0.016284557059407234,0.0044615184888243675,0.004889344796538353
1782969706915522300,9.513522216796876,-0.014459840022027493,0.004519019741564989,0.009035808965563774
1782969706925448400,9.523448486328125,-0.011731165461242199,0.0044071669690310955,0.009116768836975098
1782969706935374600,9.53337451171875,-0.006460586562752724,-0.001150794792920351,0.008348116651177406
1782969706945300200,9.54330029296875,-0.0018796834629029036,0.0015560421161353588,0.0013677051756531
1782969706955227400,9.553227294921875,0.002641095081344247,-0.004520024638622999,0.004135810770094395
1782969706965153500,9.563153564453126,-0.0032447571866214275,-0.006201278418302536,0.0008848900906741619
1782969706975079400,9.573079345703125,-0.0024401771370321512,-0.0021593011915683746,0.0036056849639862776
1782969706985006300,9.58300634765625,0.0015596244484186172,-0.0009419703856110573,0.01063989195972681
1782969706994932500,9.592932373046875,-0.00248135207220912,0.005858537275344133,0.02098119631409645
1782969707004858400,9.6028583984375,0.0011924785794690251,0.0024326471611857414,0.01712866872549057
1782969707014784300,9.6127841796875,0.005364668555557728,0.003255947958678007,0.007053867913782597
1782969707024711400,9.62271142578125,0.011386075988411903,0.0023163841105997562,-0.004436872899532318
1782969707034637600,9.632637451171876,0.010711537674069405,-0.00045897020027041435,-0.01298458594828844
1782969707044563500,9.6425634765625,0.008962906897068024,0.0038665360771119595,-0.014009104110300541
1782969707054489300,9.6524892578125,0.016138404607772827,0.005859431345015764,-0.011660775169730186
1782969707064416500,9.66241650390625,0.019318485632538795,0.004075645934790373,-0.013272253796458244
1782969707074342400,9.67234228515625,0.022499630227684975,-0.00020095286890864372,-0.010786052793264389
1782969707084268300,9.682268310546876,0.017207929864525795,0.001224104780703783,-0.004683952312916517
1782969707094195500,9.692195556640625,0.00973932072520256,-0.005215609911829233,0.0017798375338315964
1782969707104121300,9.702121337890626,0.0006717895739711821,-0.0006424300372600555,0.010761613957583904
1782969707114048000,9.712048095703125,0.0005367271369323134,0.0024800291284918785,0.020330242812633514
1782969707123974100,9.72197412109375,0.0017532589845359325,0.00022406503558158875,0.023517515510320663
1782969707133901000,9.731901123046875,0.005074487067759037,-0.0002755438908934593,0.020020784810185432
1782969707143827000,9.741826904296875,0.006648681592196226,-0.003908894490450621,0.016138693317770958
1782969707153753000,9.751753173828124,0.0026776413433253765,-0.0003555323928594589,0.006574890110641718
1782969707163679200,9.76167919921875,-0.0008643630426377058,-0.006299708038568497,-0.0004478656919673085
1782969707173606100,9.771606201171876,-0.0035152933560311794,-0.007419921457767487,-0.004640806466341019
1782969707183532000,9.781531982421875,-0.008742013014853,-0.0044955043122172356,-0.0022050796542316675
1782969707193458200,9.791458251953125,-0.011743067763745785,-0.0011348482221364975,0.003049899125471711
1782969707203385000,9.801385009765625,-0.013675990514457226,-0.0018792019691318274,-0.0043965657241642475
1782969707213311000,9.81131103515625,-0.01956425979733467,-0.003160630352795124,-0.011802737601101398
1782969707223237000,9.821237060546874,-0.024451160803437233,-0.0025369180366396904,-0.016698425635695457
1782969707233163000,9.8311630859375,-0.01699056103825569,-0.0040992130525410175,-0.01513736043125391
1782969707243090200,9.841090087890626,-0.009433042258024216,-0.004954353906214237,-0.008022991940379143
1782969707253016000,9.85101611328125,-0.0039556981064379215,-0.004035287536680698,0.0033892332576215267
1782969707262942000,9.86094189453125,0.0064269015565514565,-0.0008594677783548832,0.019268065690994263
1782969707272868000,9.8708681640625,0.006333035416901112,0.0010798042640089989,0.02958817221224308
1782969707282795000,9.880794921875,-0.0013845391804352403,0.004992519970983267,0.029182307422161102
1782969707292721200,9.89072119140625,-0.00908453669399023,-0.001097329892218113,0.01839224435389042
1782969707302647000,9.90064697265625,-0.013014031574130058,-0.0007580434903502464,-0.0017335298471152782
1782969707312573000,9.910572998046876,-0.011570251546800137,-0.009910506196320057,-0.018790997564792633
1782969707322500000,9.9205,-0.008145426400005817,-0.012734522111713886,-0.03495798632502556
1782969707332426000,9.930426025390625,0.004358773119747639,-0.019814932718873024,-0.035091109573841095
1782969707342352100,9.94035205078125,0.012354115024209023,-0.016434581950306892,-0.02290022373199463
1782969707352279000,9.950279052734375,0.014289719983935356,-0.019734056666493416,-0.005000398028641939
1782969707362205000,9.960204833984376,0.01386201661080122,-0.009686216711997986,0.01774992235004902
1782969707372131000,9.970131103515625,0.009708449244499207,-0.0021732051391154528,0.03730086237192154
1782969707382057000,9.980056884765625,0.0004028314142487943,0.007304452825337648,0.04838387295603752
1782969707391983900,9.98998388671875,-0.007190475706011057,0.008262891322374344,0.04156339168548584
1782969707401910000,9.999909912109375,-0.013830535113811493,0.0028036772273480892,0.019749440252780914
1782969707411836200,10.009836181640624,-0.016244444996118546,-0.003924181219190359,-0.004706289619207382
1782969707421762000,10.019761962890625,-0.016779741272330284,-0.008228648453950882,-0.03002362884581089
1782969707431689000,10.02968896484375,-0.0192816574126482,-0.005346361547708511,-0.042099952697753906
1782969707441615000,10.039614990234375,-0.01794634759426117,-0.001865343889221549,-0.042885053902864456
1782969707451541000,10.049541015625,-0.013098925352096558,0.00172892352566123,-0.03838885575532913
1782969707461468000,10.059468017578125,-0.0030076750554144382,0.0011760513298213482,-0.022340381518006325
1782969707471394000,10.06939404296875,-0.00006670498987659812,0.0035461895167827606,-0.000259611289948225
1782969707481320200,10.0793203125,0.000011591939255595207,0.0022484315559267998,0.024511780589818954
1782969707491246000,10.08924609375,-0.0036603943444788456,0.0028301505371928215,0.04332256689667702
1782969707501173000,10.099173095703126,0.008465777151286602,-0.007197183556854725,0.05206572264432907
1782969707511099100,10.10909912109375,0.02741912566125393,-0.024768222123384476,0.04478051885962486
1782969707521025000,10.11902490234375,0.050201933830976486,-0.02501669153571129,0.040774859488010406
1782969707530951000,10.128950927734374,0.05784229934215546,-0.024137135595083237,0.04636102914810181
1782969707540878000,10.138878173828125,0.05877387151122093,-0.009856998920440674,0.05100797861814499
1782969707550804200,10.14880419921875,0.058435775339603424,-0.0039665778167545795,0.05055541545152664
1782969707560729900,10.158729736328125,0.04528215527534485,0.00230223685503006,0.050987377762794495
1782969707570657000,10.168656982421876,0.03350457176566124,0.003309435211122036,0.05217190459370613
1782969707580583200,10.178583251953125,0.027382228523492813,-0.004949027672410011,0.045448753982782364
1782969707590509000,10.188509033203125,0.03383099287748337,-0.006447877734899521,0.03237122297286987
1782969707600435000,10.19843505859375,0.03016754798591137,-0.014770522713661194,0.008891732431948185
1782969707610362000,10.208362060546875,0.02792815864086151,-0.020341120660305023,-0.0072504691779613495
1782969707620288300,10.218288330078124,0.020846279338002205,-0.019687848165631294,-0.020764147862792015
1782969707630214000,10.2282138671875,0.00873174425214529,-0.030444299802184105,-0.029354505240917206
1782969707640140000,10.23814013671875,0.0029849091079086065,-0.012203510850667953,-0.03773840516805649
1782969707650067200,10.248067138671875,-0.006285103503614664,-0.01892988011240959,-0.04881136864423752
1782969707659992800,10.257992919921875,-0.016915643587708473,-0.008842358365654945,-0.04682385176420212
1782969707669919000,10.2679189453125,-0.029965931549668312,0.0014113448560237885,-0.03309791907668114
1782969707679846100,10.27784619140625,-0.02471550926566124,-0.0010030772536993027,-0.022669248282909393
1782969707689772000,10.28777197265625,-0.026339935138821602,-0.01053369976580143,-0.03209511563181877
1782969707699698000,10.297697998046875,-0.022883685305714607,-0.005304316524416208,-0.04543009400367737
1782969707709624000,10.3076240234375,-0.014928228221833706,-0.005507940426468849,-0.0490742102265358
1782969707719551000,10.317551025390625,-0.009944122284650803,-0.011972764506936073,-0.04341818764805794
1782969707729476900,10.327476806640625,-0.005274515599012375,-0.02437802404165268,-0.0342818982899189
1782969707739403000,10.337403076171874,-0.007695862092077732,-0.016644470393657684,-0.018443282693624496
1782969707749329200,10.3473291015625,-0.015484502539038658,-0.004848873242735863,0.011019237339496613
1782969707759256000,10.357256103515626,-0.009588529355823994,-0.0019369726069271564,0.03814486414194107
1782969707769182000,10.367181884765625,0.004036284051835537,-0.006835035979747772,0.05541341006755829
1782969707779108000,10.377108154296875,0.008127965033054352,0.002668720670044422,0.07900235801935196
1782969707789035000,10.387034912109375,0.017622195184230804,0.0024928865022957325,0.10511866956949234
1782969707798961200,10.396961181640625,0.027802394703030586,-0.0007351310923695564,0.1268223524093628
1782969707808887000,10.406886962890624,0.03173031285405159,0.0008872770704329014,0.12059114873409271
1782969707818813200,10.416813232421875,0.03722228482365608,-0.008182117715477943,0.11085675656795502
1782969707828740000,10.426739990234376,0.059783026576042175,0.0033561252057552338,0.11486891657114029
1782969707838666000,10.436666015625,0.07704190909862518,-0.039105579257011414,0.11024140566587448
1782969707848592100,10.446592041015625,0.08410625159740448,-0.035158585757017136,0.09063731878995895
1782969707858518000,10.45651806640625,0.08327321708202362,-0.012876182794570923,0.06978023797273636
1782969707868445200,10.466445068359375,0.0796571746468544,-0.01786445453763008,0.04492535442113876
1782969707878371000,10.47637109375,0.08468415588140488,-0.03181462734937668,0.020421873778104782
1782969707888297000,10.486296875,0.07550804316997528,-0.037996333092451096,-0.011156215332448483
1782969707898223000,10.49622314453125,0.06785838305950165,-0.04764043912291527,-0.04886524751782417
1782969707908150000,10.50614990234375,0.051152147352695465,-0.04405199736356735,-0.0807168111205101
1782969707918076200,10.516076171875,0.030031418427824974,-0.02965521439909935,-0.09790298342704773
1782969707928002000,10.526001953125,0.013132495805621147,-0.019845400005578995,-0.09669604152441025
1782969707937929200,10.53592919921875,0.002477188128978014,-0.02294105850160122,-0.08827139437198639
1782969707947855000,10.545855224609374,-0.001156715676188469,-0.020820658653974533,-0.07921057194471359
1782969707957781000,10.555781005859375,0.0026777037419378757,-0.015948139131069183,-0.08202686905860901
1782969707967707100,10.56570703125,0.0070929378271102905,-0.028011906892061234,-0.09132654219865799
1782969707977634000,10.575634033203125,0.011557460762560368,-0.0474921315908432,-0.10534702241420746
1782969707987560000,10.585559814453125,0.016856517642736435,-0.05707484483718872,-0.12042076885700226
1782969707997486000,10.595486083984374,0.0191191378980875,-0.06325231492519379,-0.1368202418088913
1782969708007412000,10.605411865234375,-0.0018864843295887113,-0.06519924849271774,-0.14782080054283142
1782969708017339000,10.6153388671875,-0.01528165303170681,-0.05709391087293625,-0.15224778652191162
1782969708027265000,10.62526513671875,-0.023130828514695168,-0.049312081187963486,-0.14323507249355316
1782969708037191200,10.635191162109376,-0.036482054740190506,-0.03993455693125725,-0.13898946344852448
1782969708047117000,10.645116943359374,-0.045292772352695465,-0.038187939673662186,-0.1291920244693756
1782969708057044000,10.6550439453125,-0.04094170033931732,-0.026528887450695038,-0.11386793106794357
1782969708066970000,10.66497021484375,-0.024187343195080757,-0.02424730733036995,-0.10484358668327332
1782969708076896000,10.67489599609375,-0.008812381885945797,-0.034737229347229004,-0.09133843332529068
1782969708086823000,10.684822998046876,0.007959693670272827,-0.03365820273756981,-0.08106403797864914
1782969708096749000,10.6947490234375,0.013445539399981499,-0.026433313265442848,-0.06922415643930435
1782969708106675200,10.70467529296875,0.022299854084849358,-0.027012955397367477,-0.05727483332157135
1782969708116601300,10.714601318359374,0.03290775790810585,-0.03533799573779106,-0.032396912574768066
1782969708126528500,10.724528564453125,0.05213555693626404,-0.037340596318244934,-0.008699999190866947
1782969708136454700,10.73445458984375,0.06219431385397911,-0.04218168929219246,0.007263254839926958
1782969708146380500,10.744380615234375,0.056753966957330704,-0.03411693871021271,0.015591117553412914
1782969708156307500,10.754307373046874,0.05005345493555069,-0.021090619266033173,0.01429921854287386
1782969708166233600,10.764233642578125,0.038651518523693085,-0.017701171338558197,-0.004744074773043394
1782969708176159700,10.77415966796875,0.02875574491918087,-0.017219405621290207,-0.03988635167479515
1782969708186085400,10.78408544921875,0.02170730009675026,-0.019407328218221664,-0.0670679360628128
1782969708196012500,10.794012451171875,0.013826739974319935,-0.025246843695640564,-0.08881664276123047
1782969708205938700,10.803938720703124,0.018279321491718292,-0.038974884897470474,-0.11139243096113205
1782969708215864600,10.813864501953125,0.02284211479127407,-0.05466356873512268,-0.13706983625888824
1782969708225790500,10.82379052734375,0.02128533273935318,-0.07077326625585556,-0.16249224543571472
1782969708235717600,10.833717529296875,0.007725848350673914,-0.07615365087985992,-0.17586344480514526
1782969708245643500,10.8436435546875,-0.008365052752196789,-0.057371024042367935,-0.16442351043224335
1782969708255569400,10.8535693359375,-0.029662884771823883,-0.005200228653848171,-0.1276090294122696
1782969708265495600,10.86349560546875,-0.05624174699187279,0.031956110149621964,-0.10245874524116516
1782969708275422500,10.87342236328125,-0.05943940207362175,0.015606964007019997,-0.08458494395017624
1782969708285348600,10.8833486328125,-0.047403592616319656,0.0052030375227332115,-0.060487937182188034
1782969708295274500,10.8932744140625,-0.03744709864258766,-0.014738713391125202,-0.04332040250301361
1782969708305201400,10.903201416015625,-0.030686337500810623,-0.03409392759203911,-0.015887556597590446
1782969708315127600,10.91312744140625,-0.03187943622469902,-0.035226572304964066,0.013986717909574509
1782969708325053400,10.923053466796874,-0.030047280713915825,-0.0314829982817173,0.03687140345573425
1782969708334979600,10.9329794921875,-0.03122892417013645,-0.025248272344470024,0.05640222877264023
1782969708344906500,10.942906494140624,-0.029466282576322556,-0.017042571678757668,0.07028249651193619
1782969708354832600,10.95283251953125,-0.027584226801991463,-0.009001689031720161,0.07099329680204391
1782969708364758500,10.962758544921876,-0.022929634898900986,0.0006724875420331955,0.07125581055879593
1782969708374684700,10.9726845703125,-0.016537781804800034,0.0025494834408164024,0.0574989840388298
1782969708384611600,10.982611572265625,0.0003609162522479892,-0.0035501860547810793,0.049521591514348984
