time,seconds_elapsed,z,y,x
1782952643062943500,0.072943603515625,0.02470189505815506,-0.003368672715499997,0.016496184974489733
1782952643072871400,0.082871337890625,0.02530395260453224,-0.0044007374432869254,-0.002136610169894993
1782952643082799400,0.09279931640625,0.011838321831822395,-0.0025108685760758817,-0.01650719499227125
1782952643092726500,0.1027265625,0.018427052572369575,-0.008801712348591536,-0.0007636824154527858
1782952643102654500,0.112654541015625,0.030700258690118786,-0.0011184826359152793,0.00032276111438404767
1782952643112581400,0.122581298828125,0.030700258690118786,-0.0029507760969921947,-0.003435289944615215
1782952643122509600,0.132509521484375,0.012141688692569732,0.006274696355313063,-0.0037083895312622185
1782952643132437500,0.1424375,0.024406711503863334,-0.0037263453130610283,-0.0032571112329605966
1782952643142364400,0.152364501953125,0.033385552251338955,-0.01348482866352424,0.0028520649628713726
1782952643152292600,0.162292724609375,0.013334697869420051,-0.008860712526831776,-0.006565272233146242
1782952643162220500,0.172220458984375,0.031737785044312475,-0.019985077403020114,-0.011938581035635434
1782952643172147500,0.1821474609375,0.02141103681921959,-0.00406956926016137,-0.014356560863601042
1782952643182075400,0.192075439453125,0.02694529007077217,-0.01759611817356199,-0.013215277307410723
1782952643192003600,0.202003662109375,0.025000001221895215,-0.024330687125585972,-0.0082451242120238
1782952643201930500,0.211930419921875,0.029192776736617087,-0.010979768773727118,-0.009665804664907044
1782952643211858400,0.2218583984375,0.017073299875855444,0.004084949492383748,-0.011563012021780013
1782952643221786600,0.23178662109375,0.014379823008179663,-0.0027885530062951146,-0.010586801100498996
1782952643231713500,0.241713623046875,0.026200024661421774,-0.012767455908097325,-0.0012839662627782671
1782952643241641500,0.251641357421875,0.006594575959444046,-0.0038101146063767373,-0.008162364132283256
1782952643251568400,0.261568359375,0.022458500045537948,-0.01449280012967065,-0.017869921013107522
1782952643261496600,0.27149658203125,0.02829728920161724,-0.008776340445317327,-0.002955041280156001
1782952643271424500,0.281424560546875,0.02365560087561607,-0.0010378916803747416,-0.0060777627108385785
1782952643281351400,0.291351318359375,0.024847441008687018,-0.005650463509745895,-0.014900956238876096
1782952643291279400,0.301279296875,0.01661912636756897,0.005374642243050038,0.0030759368466213343
1782952643301207600,0.31120751953125,0.00914192235469818,0.011521364837139845,0.00395178353281226
1782952643311134500,0.321134521484375,0.018870704686641693,-0.0008165040146559476,0.004587355189723894
1782952643321062400,0.3310625,0.02799976755976677,-0.01733249880131334,-0.006060368618043139
1782952643330990600,0.340990478515625,0.013036007183790206,-0.004030680288188159,-0.010650281091034412
1782952643340917200,0.350917236328125,0.02544774498939514,-0.001968870653863996,-0.006497938051400706
1782952643350845400,0.360845458984375,0.03980944781899452,-0.0025885551884770393,0.00008990220658015459
1782952643360773400,0.3707734375,0.004195698124170303,0.003995590708497912,-0.00842663652508054
1782952643370700300,0.3807001953125,0.030827099940180777,-0.0005033829448744655,-0.0032352647273335604
1782952643380628200,0.390628173828125,0.0122737906396389,-0.008189790995325893,-0.017096014031162485
1782952643390556400,0.400556396484375,0.022902736681699752,-0.018537015752866863,-0.006494905844097957
1782952643400483300,0.4104833984375,0.025441899770498273,-0.011498678081296383,-0.0033623023402178658
1782952643410411300,0.420411376953125,0.024245383462309835,0.00240797445718199,-0.015350343974190763
1782952643420338400,0.43033837890625,0.03143091105222702,-0.004244469169341027,-0.008942614090046845
1782952643430266400,0.440266357421875,0.0019575638085603713,-0.00815223546391353,-0.000881244380516
1782952643440194300,0.4501943359375,0.01991466078162193,-0.00590493146115914,0.0014789956445340066
1782952643450121500,0.46012158203125,0.03801847274899482,0.0016264686906710267,-0.010508452334394678
1782952643460049400,0.47004931640625,0.022158055794239042,-0.00035164471557363867,-0.008240562201337889
1782952643469977300,0.479977294921875,0.01437865396440029,0.0013648038134910165,0.000916544022760354
1782952643479904500,0.489904541015625,0.017072715353965758,-0.0033035167911089954,-0.014206521401042118
1782952643489832400,0.49983251953125,0.030392800176143646,-0.013067480034288018,-0.003535530882119201
1782952643499760400,0.509760498046875,0.024704233145713805,-0.0028293416744098066,-0.007913513070903717
1782952643509687300,0.519687255859375,0.009289806392788886,-0.007816646833997219,-0.0010759495352860539
1782952643519615500,0.529615478515625,0.0063005614489316936,-0.0012107457629404962,-0.011533877258840948
1782952643529543400,0.53954345703125,0.02979483428299427,0.0022309373898431657,-0.007746823867643251
1782952643539470300,0.54947021484375,0.025900164932012557,0.00045565307931974525,-0.00962091521041002
1782952643549398500,0.5593984375,0.024404373416304588,0.0013158866378478705,0.005030217286129482
1782952643559325400,0.569325439453125,0.022608137649297713,-0.0022824666476808485,-0.011699653146648779
1782952643569253400,0.57925341796875,0.015277648630738258,-0.0013011639927513897,-0.015825021414388903
1782952643579181300,0.589181396484375,0.019022095856070516,0.00007653583493083715,-0.0015807755185756832
1782952643589108500,0.5991083984375,0.026803835773468017,-0.01415668177679181,0.00008446797963697463
1782952643599036400,0.609036376953125,0.02560731946527958,-0.00834598620403558,-0.0005298371269600466
1782952643608964400,0.61896435546875,0.02411152794957161,-0.010749942073225974,-0.010632471439708024
1782952643618891500,0.6288916015625,0.0254582663834095,-0.007907832248788327,-0.005920535455667414
1782952643628819500,0.6388193359375,0.018274492359161378,-0.004735924214404076,-0.010102268986566923
1782952643638747400,0.648747314453125,0.030995442244410514,-0.012731215550936759,-0.0020287202154751867
1782952643648674600,0.658674560546875,0.030993104156851768,0.01082545499484986,0.012368295956100336
1782952643658602500,0.6686025390625,0.023214286848902702,0.0011605134130455552,-0.004691555349715054
1782952643668530400,0.678530517578125,0.026359014615416527,-0.0032507454242557284,-0.002266995083913207
1782952643678457600,0.68845751953125,0.01828033757805824,-0.006146960056107491,-0.016170058292662725
1782952643688385500,0.698385498046875,0.021723171508312225,-0.005419595629628748,0.005654952455195598
1782952643698313500,0.7083134765625,0.021727847683429717,-0.014789938179031013,-0.005625192071171477
1782952643708240400,0.718240478515625,0.021423896300792694,-0.02435032340781763,-0.004486826557852328
1782952643718168600,0.72816845703125,0.01708089866042137,-0.00044575273981317876,0.001315977969393134
1782952643728096500,0.738096435546875,0.022015432453155515,-0.0037619828820228576,0.0012820300340186804
1782952643738023400,0.7480234375,0.023213117805123328,-0.00022462080242112277,0.004932981156464666
1782952643747951600,0.75795166015625,0.014534721308946608,-0.005752426046878099,0.0030747586696874348
1782952643757878500,0.76787841796875,0.021716741767525673,-0.019483484556432812,0.0042375599379418415
1782952643767806500,0.777806396484375,0.032492402803897855,-0.015155848881974816,-0.014887480269372462
1782952643777734400,0.787734375,0.01079495025873184,-0.0036279447061941025,-0.0037921588245779275
1782952643787661600,0.79766162109375,0.016031097346544263,-0.011511555829178542,-0.0037953188960440456
1782952643797589500,0.807589599609375,0.02560731946527958,0.002815532344765961,-0.0029796277321409432
1782952643807517400,0.817517333984375,0.03189560595452785,-0.007336224639602005,-0.005107109314086847
1782952643817444400,0.8274443359375,0.025309797823429105,0.0027343751336447895,-0.01759036885278765
1782952643827372500,0.83737255859375,0.023666706791520116,-0.0036507958588190377,-0.005753289129980839
1782952643837300500,0.847300537109375,0.022765374037623406,-0.0008096724150702357,-0.015532897466863505
1782952643847227400,0.857227294921875,0.011391747108101844,-0.007359824710898101,-0.005354439705237746
1782952643857155300,0.8671552734375,0.013635142120718955,-0.005684475377202034,-0.012171334912162273
1782952643867083500,0.87708349609375,0.016628478717803954,0.0029575346313416954,-0.011180816904315724
1782952643877010400,0.887010498046875,0.014983634120225905,-0.008143814695440232,-0.0126302393944934
1782952643886938400,0.8969384765625,0.028302549898624418,-0.005936130317021161,-0.017123966050590387
1782952643896865300,0.906865234375,0.022766543081402777,-0.0224207070521079,-0.0020389584816992283
1782952643906793500,0.91679345703125,0.021423896300792694,-0.0005619447316974401,0.013117520587937906
1782952643916721400,0.926721435546875,0.01962941409945488,-0.002981335632037371,-0.006739980346080847
1782952643926648300,0.9366484375,0.03144961575269699,-0.008322824524156749,-0.01493851177028846
1782952643936576300,0.946576171875,0.023071663507819175,-0.022743162205815314,-0.008452008428354748
1782952643946504400,0.95650439453125,0.024123802909255025,-0.018970329136215148,-0.00395217169187963
1782952643956431400,0.966431396484375,0.014843933388590812,-0.00377975600073114,-0.011961532652960159
1782952643966359300,0.976359375,0.015146131205558777,0.002884378063585609,-0.016061241323058494
1782952643976287500,0.98628759765625,0.015445990934967993,-0.010459361628815531,-0.0054449857992120085
1782952643986214400,0.99621435546875,0.018140052324533463,-0.0007618329516611993,-0.011178652346692979
1782952643996142300,1.006142333984375,0.024574469286203382,-0.006003259002789855,-0.006414999875146895
1782952644006069500,1.016069580078125,0.007218260815739631,-0.007239961190894245,-0.012622019555419682
1782952644015997400,1.02599755859375,0.016498130336403845,0.003602317074593156,0.006682404939946718
1782952644025925400,1.03592529296875,0.0181470665872097,-0.005312481993343681,0.0006684327468974515
1782952644035852500,1.0458525390625,0.01590191800892353,-0.015602569736167788,-0.0027213603884447364
1782952644045780500,1.055780517578125,0.009769698864221573,-0.022118783229775726,-0.004627235108963214
1782952644055708700,1.065708740234375,0.03131634476184845,-0.015497995116841048,-0.01167577451413963
1782952644065635300,1.07563525390625,0.01620119321644306,-0.0006155380824580788,-0.007161384095926769
1782952644075563800,1.085563720703125,0.004084054443240165,-0.004338157068472355,-0.00017367149989586323
1782952644085491700,1.09549169921875,0.012762450939416884,-0.010151811783295123,0.00662161009684205
1782952644095418400,1.10541845703125,0.03251695272326469,-0.01575474635688588,-0.0042359890353633085
1782952644105346600,1.1153466796875,0.02353986554145813,0.002042246417328715,-0.0030431579550262537
1782952644115274800,1.125274658203125,0.013219547057151794,-0.007238518152479082,-0.007078943676594645
1782952644125201400,1.135201416015625,0.027286066332459447,-0.006827964590210467,-0.00865344015143346
1782952644135129300,1.14512939453125,0.024143092131614682,0.010070344044920056,0.0008082613426959142
1782952644145056500,1.155056396484375,0.028033085307478903,-0.009372771968506275,-0.009986597584490664
1782952644154984400,1.164984375,0.03566927927434444,0.00018816124955192207,-0.0031264842903474346
1782952644164912400,1.174912353515625,0.026695114701986312,-0.0057870407025329765,-0.010917421294352971
1782952644174839600,1.184839599609375,0.018165771287679672,0.004545735404547304,0.00844475213708356
1782952644184767500,1.194767578125,0.015476386073231697,0.0006380239089019596,-0.010816988560603931
1782952644194695400,1.2046953125,0.023107903864979743,0.00048597515234723686,0.0026345040888991205
1782952644204622600,1.21462255859375,0.025952187380194662,-0.0031441432446241376,-0.0020608141204807905
1782952644214550500,1.224550537109375,0.022361469411849973,-0.008267989064380527,0.010130915125738828
1782952644224478500,1.234478515625,0.012183774268627165,-0.003435490874014795,0.0028397854366106912
1782952644234405600,1.244405517578125,0.012782909205555915,-0.029634474355820565,-0.01123150134535972
1782952644244333600,1.25433349609375,0.025052023670077323,-0.003126625854242593,-0.016588489200710318
1782952644254261500,1.264261474609375,0.019368132814764974,-0.007113521799631416,-0.004987095097033306
1782952644264188400,1.2741884765625,0.03088964378237724,-0.0030936916990205645,0.004315945236664265
1782952644274116600,1.28411669921875,0.020716040292382238,0.002802179672848433,-0.006352086140192114
1782952644284043500,1.29404345703125,0.02834872712790966,-0.00487717758230865,-0.008577146345097571
1782952644293971500,1.303971435546875,0.02326397120952606,-0.01457543691182509,-0.008855196101497858
1782952644303899600,1.313899658203125,0.02864917137920856,0.0010497647812590003,-0.013324162775673902
1782952644313826600,1.32382666015625,0.012189619487524032,0.0013247092651203275,-0.008996038477448747
1782952644323754500,1.33375439453125,0.021768179693818092,-0.00860995263615623,-0.011508098930190317
1782952644333682400,1.343682373046875,0.027602877196669578,-0.006342172100953758,-0.011409949485072865
1782952644343609600,1.353609619140625,0.019825228932499883,-0.004323580553848296,-0.006770841275225393
1782952644353537500,1.36353759765625,0.023118425258994102,-0.007527673824783414,-0.011898486487264744
1782952644363465500,1.373465576171875,0.02266834340393543,-0.012159187816642224,-0.007429204719257541
1782952644373392600,1.383392578125,0.025807810473442078,-0.012216324831359088,-0.008523516461718826
1782952644383320600,1.393320556640625,0.022960604348778724,-0.0024904468425549567,-0.007492744075297378
1782952644393247500,1.40324755859375,0.01757365061342716,-0.006252904648613184,0.0015976307552540675
1782952644403175700,1.41317578125,0.027300094857811926,-0.003670706135686487,-0.0033705998111050574
1782952644413103600,1.423103515625,0.022808044135570523,0.0003087554219178855,-0.00609767755428329
1782952644423030500,1.433030517578125,-0.00128010293841362,0.006623875119164586,-0.02070915846044663
1782952644432958700,1.442958740234375,0.024157120656967162,-0.015786000011675058,-0.01190801236743573
1782952644442886700,1.45288671875,0.010987257960438727,-0.013046510311495512,-0.02264587127722334
1782952644452813600,1.4628134765625,0.010686229187250137,0.001548288887925446,-0.019272590885264798
1782952644462741500,1.472741455078125,0.009337737187743186,-0.00613959873355925,-0.01121055445545353
1782952644472669700,1.482669677734375,0.016672902381420135,-0.011364000584650783,-0.012976294619496911
1782952644482596600,1.4925966796875,0.021913141122460365,-0.0023319866115227342,0.003501496181776747
1782952644492524500,1.502524658203125,0.01907294926047325,0.004901672702748328,-0.004528756870282814
1782952644502451700,1.51245166015625,0.017125322324037552,-0.0019980236831121144,-0.005988052300503477
1782952644512379600,1.522379638671875,0.014131401205062866,-0.018576434447802603,-0.005224653012841008
1782952644522307600,1.5323076171875,0.028047698354721068,-0.0030156397604383526,-0.02190440526015591
1782952644532234800,1.54223486328125,0.02326046407818794,0.001872095748502761,-0.00038556525148451327
1782952644542162700,1.55216259765625,0.01293430037498474,-0.014519523739814758,-0.008951948173972777
1782952644552090600,1.562090576171875,0.02161620400249958,-0.020039766732323914,-0.00522461191364564
1782952644562017500,1.572017578125,0.011294131952524185,-0.011050167128816245,-0.009947836476680821
1782952644571945700,1.58194580078125,0.03763151925802231,-0.0022518157810904084,-0.0260007209633477
1782952644581873700,1.591873779296875,0.01877367405295372,-0.00503163749165833,-0.006283012092509307
1782952644591800600,1.601800537109375,0.018324176719784736,-0.008130261094123124,-0.00475627288268879
1782952644601728800,1.611728759765625,0.02011807439923286,-0.0031301877845078705,-0.000507849057437852
1782952644611655400,1.621655517578125,0.01398527073264122,-0.011915935378987342,-0.005083372245472856
1782952644621583400,1.631583251953125,0.02386485971212387,-0.00411527156541124,-0.00515281618591398
1782952644631511600,1.641511474609375,0.0252098445802927,-0.011683332199510186,-0.014315032409969716
1782952644641438500,1.6514384765625,0.029849779340624806,-0.007397946497891098,-0.015706409136555157
1782952644651366400,1.661366455078125,0.015633622461557386,-0.009170436063129454,-0.010583207204192877
1782952644661294300,1.67129443359375,0.008450432959198952,-0.0007126600476913154,-0.017947438662149942
1782952644671221500,1.681221435546875,0.035088264515995976,-0.006605864538438618,-0.010975649721035733
1782952644681149400,1.6911494140625,0.027755437409877775,0.001798281593620777,-0.004815309593547135
1782952644691077400,1.701077392578125,0.027753683844208715,-0.011461780137009919,-0.016937677097716368
1782952644701004500,1.711004638671875,0.017432196316123007,-0.0031895350226201114,-0.01331178278471343
1782952644710932500,1.720932373046875,0.021471827095746993,-0.010946962482668458,0.015452347610518335
1782952644720859600,1.730859619140625,0.01713058302104473,-0.012673694943729788,-0.007430446828273125
1782952644730787600,1.74078759765625,0.02446165656149387,-0.0036436537319794295,-0.005093724676128477
1782952644740715500,1.750715576171875,0.018777765706181525,-0.012524934122804551,-0.00837483783918433
1782952644750642400,1.760642333984375,0.016387071177363394,-0.007230389644950628,-0.008626853538607246
1782952644760570600,1.770570556640625,0.023121347868442534,0.004567052187211811,-0.016076598722394555
1782952644770498600,1.78049853515625,0.018180384334921834,-0.006083886490948498,-0.0016558454822050406
1782952644780425500,1.790425537109375,0.009801847568154335,-0.012730923289991914,-0.0006700584484031424
1782952644790353700,1.800353759765625,0.025064298629760742,-0.002407280337437987,0.0029782851584255693
1782952644800281600,1.810281494140625,0.014887772530317306,-0.00746958696199581,-0.018788524562213568
1782952644810208500,1.82020849609375,0.03045359045267105,-0.005035272487159818,-0.016182497649127617
1782952644820136400,1.830136474609375,0.025815409258008,-0.009554704406671225,-0.004388832376361824
1782952644830063600,1.840063720703125,0.019832243195176125,-0.018145970608666538,-0.001382316637295298
1782952644839991600,1.849991455078125,0.015945757150650025,-0.023228808564599603,-0.009260667063272558
1782952644849919500,1.85991943359375,0.024924597898125646,-0.02983812543544918,-0.001988219241728075
1782952644859846700,1.8698466796875,0.027018355306982992,-0.016765183774754402,-0.014215535824559629
1782952644869774600,1.879774658203125,0.0077186115533113475,0.000033829204365611074,-0.004528807102632709
1782952644879702500,1.88970263671875,0.01864157210588455,0.004424173117801547,-0.012333124178019352
1782952644889629700,1.899629638671875,0.027166239345073697,-0.006659165628254414,-0.001983543066610582
1782952644899557600,1.9095576171875,0.022229367464780807,-0.005221132181771099,-0.011767809312301687
1782952644909485600,1.919485595703125,0.025374679753184318,-0.0011178250487893818,-0.010515982620301656
1782952644919412700,1.929412841796875,0.03255553116798401,0.00450264518149197,0.003918995508062653
1782952644929340700,1.939340576171875,0.022679449319839475,-0.002710555866640061,-0.01651918225758709
1782952644939267600,1.949267578125,0.03015899142026901,-0.010714688096754252,-0.0033608227691845965
1782952644949195500,1.959195556640625,0.013543956705927849,-0.006803232007753104,-0.014944023629045114
1782952644959123700,1.969123779296875,0.01997486653625965,-0.0014487375035881994,0.004188661028607748
1782952644969050600,1.979050537109375,0.02386661327779293,-0.0035683417397551235,-0.0008377568652387708
1782952644978978600,1.988978515625,0.02251987484395504,-0.010763112082052976,-0.003029608920286409
1782952644988906500,1.998906494140625,0.027155133429169653,-0.012030611267220229,0.0038853900659829377
1782952644998833700,2.008833740234375,0.02820493474304676,0.0009241656402125954,0.004103380198217928
1782952645008761600,2.01876171875,0.019075287348031995,-0.012456344132311642,-0.008541074951295741
1782952645018689500,2.028689453125,0.022518705800175665,-0.011610778419952839,-0.020306413745298048
1782952645028616700,2.03861669921875,0.031794483667612075,0.004784603928029537,-0.0015207113278331234
1782952645038544600,2.048544677734375,0.01817979981303215,-0.004730042462889105,0.0010437505990033968
1782952645048471600,2.058471435546875,0.022367899152636525,-0.005736589156929403,0.006761100765923038
1782952645058399200,2.068399169921875,0.026855273699760436,0.0011967355038970708,-0.02408125154231675
1782952645068327400,2.078327392578125,0.02850070281922817,0.008119867564272135,-0.006553280401253141
1782952645078254300,2.08825439453125,0.027601708152890203,-0.004721786091197282,-0.012977203368372284
1782952645088182300,2.098182373046875,0.014731120663881301,-0.010932404234353453,-0.011774056389997713
1782952645098110200,2.108110107421875,0.0250572843670845,-0.013519023194070905,-0.002758340531121939
1782952645108037000,2.118037109375,0.027453239592909812,-0.0062438993582502,-0.01323963999710977
1782952645117965300,2.12796533203125,0.021468319964408872,-0.008224186455272137,-0.018658568906458093
1782952645127893200,2.137893310546875,0.03538578615784645,-0.006191182790324092,-0.009638176872464828
1782952645137820200,2.147820068359375,0.025805472385883328,0.0008029321470297872,-0.005384519749670289
1782952645147748400,2.157748291015625,0.005156067588925361,0.008715312706772237,-0.004307565567386336
1782952645157675300,2.16767529296875,0.01308686058819294,-0.00039948417898267506,-0.00605124003009405
1782952645167603200,2.177603271484375,0.02131634427309036,-0.0008296192245557904,0.003225528784608468
1782952645177531100,2.18753125,0.017576573222875595,-0.009991725850757211,-0.006474794637830928
1782952645187458300,2.197458251953125,0.014433014500141143,0.0013081965217366814,-0.008139896572148426
1782952645197386200,2.20738623046875,0.02026537391543388,-0.007251213237270712,-0.0033386931357672436
1782952645207314200,2.217314208984375,0.020864508852362632,-0.011176898781023918,-0.0030790558188920837
1782952645217241300,2.227241455078125,0.009645780223608017,0.005626278916560113,0.0061459508425323285
1782952645227169300,2.237169189453125,0.010395721808075905,-0.0023583996944129466,-0.013258198567107318
1782952645237097200,2.24709716796875,0.009499065229296683,-0.0034223208651877938,0.00030590587770566344
1782952645247024400,2.2570244140625,0.021171382844448087,-0.01388407538048923,-0.013748215140332467
1782952645256952300,2.266952392578125,0.017879355561733246,-0.00835610573925078,-0.005192275980045087
1782952645266879200,2.276879150390625,0.0157855981528759,-0.003865863381605595,0.00019621212526690213
1782952645276807400,2.286807373046875,0.01832359219789505,-0.003953413800895214,-0.015291261597559787
1782952645286735400,2.2967353515625,0.01907119569480419,-0.013953322958108036,-0.007371615613391623
1782952645296662300,2.306662353515625,0.023859014493227002,0.005787095501460135,-0.002388529971195385
1782952645306590200,2.316590087890625,0.032684125983715055,0.0004975925249047577,-0.014345669576828366
1782952645316518400,2.326518310546875,0.01576981606185436,-0.009822415432147681,0.0006428644808009267
1782952645326445300,2.3364453125,0.012777648508548735,0.005439250178169459,0.0015884656346868723
1782952645336373200,2.346373291015625,0.02025894417464733,-0.008446743164770305,-0.011010296342731454
1782952645346300400,2.356300537109375,0.02474456515610218,-0.015953319402597844,0.013364293856662697
1782952645356228400,2.366228271484375,0.02788812387883663,-0.0100264135716483,0.001281733206496574
1782952645366156300,2.37615625,0.018758476483821868,-0.004566869524121284,-0.023370769751979967
1782952645376083500,2.38608349609375,0.023696517407894132,-0.0014148352339863777,-0.009847668604413046
1782952645386011400,2.396011474609375,0.0230967979490757,-0.001252648675907403,-0.0003887892550323158
1782952645395939300,2.405939208984375,0.02997603606879711,0.010109159951657056,-0.0031152002779301254
1782952645405866500,2.415866455078125,0.021743045252561568,-0.0014720635802485049,-0.018713418065966107
1782952645415794400,2.42579443359375,0.008571428990364074,0.0068571724183857435,-0.019698447047942318
1782952645425722400,2.435722412109375,0.011266659423708915,-0.0026201559031382203,-0.002259309534379281
1782952645435649300,2.445649169921875,0.02294073060452938,-0.010771204056963324,-0.015603624615515581
1782952645445577500,2.455577392578125,0.01980067901313305,-0.014760584220383316,-0.008785268103866838
1782952645455504400,2.46550439453125,0.014114450070261955,-0.0015707929806783795,-0.007801321400701999
1782952645465432300,2.475432373046875,0.019196867901086805,-0.006039426294714212,-0.011964619659190065
1782952645475360500,2.485360595703125,0.02817746221423149,0.001085840741638094,0.006071374069247394
1782952645485287400,2.495287353515625,0.036709728237986565,-0.005592431445885449,-0.0060248086808947846
1782952645495215400,2.50521533203125,0.02354337267279625,0.013203819765057414,-0.017830091326218097
1782952645505143300,2.515143310546875,0.012018939095735549,-0.0016720613980665802,-0.004752710952423513
1782952645515070200,2.5250703125,0.016205869391560553,-0.009353994202800095,-0.0076009719564346595
1782952645524998400,2.534998291015625,0.027128245422244072,0.004467701732274144,-0.006420333637390285
1782952645534926300,2.54492626953125,0.021596330258250234,-0.00243329156152904,0.0008041331568500027
1782952645544853200,2.554853271484375,0.025640637212991712,-0.00002392886485904455,-0.008769983769766987
1782952645554781200,2.56478125,0.010078326421976088,-0.007087163515668362,0.009673526747059076
1782952645564708400,2.574708251953125,0.01681026502549648,-0.004205452333204448,-0.005546377514186315
1782952645574636300,2.58463623046875,0.02608955002427101,-0.011580036221817136,0.008396515381452627
1782952645584564200,2.594564208984375,0.02713525968492031,-0.013744484246708452,-0.004051526713394559
1782952645594491100,2.6044912109375,0.021744214296340943,-0.0013803849751129746,-0.0048357678596861655
1782952645604419300,2.61441943359375,0.022344518277049065,0.0014186894251964986,-0.019921638511680065
1782952645614347300,2.62434716796875,0.025792612904310223,-0.0037256694596260785,-0.007717999631958082
1782952645624274200,2.634274169921875,0.026240941193699834,-0.013729140547104179,-0.005315281305206008
1782952645634202400,2.644202392578125,0.009182838886976241,-0.0007559877327643334,-0.005682036824943498
1782952645644129300,2.65412939453125,0.015320903250575064,-0.012542579377349466,-0.01666950484793633
1782952645654057200,2.66405712890625,0.026242694759368895,-0.0012613617053255438,-0.0022397645836928857
1782952645663985200,2.673985107421875,0.017563129219412804,0.001583798592723906,0.0014998512028949335
1782952645673912300,2.683912353515625,0.015171265646815299,-0.0037043892095796763,-0.006972044669440947
1782952645683840300,2.69384033203125,0.025799042645096776,-0.008038162363879383,-0.006140128456521779
1782952645693768200,2.703768310546875,0.03223170604109764,-0.0009550722351297736,-0.014296423607622273
1782952645703695400,2.7136953125,0.013373276314139365,-0.0005775441596284508,-0.004666557905776426
1782952645713623300,2.723623291015625,0.017709844213724135,0.00011069383285939693,-0.016258403296396134
1782952645723551200,2.73355126953125,0.018159926068782806,-0.012516696017421782,-0.010027774411672725
1782952645733478400,2.743478515625,0.02609305715560913,-0.00017703706733882427,-0.013492980003939009
1782952645743406300,2.75340625,0.020855156502127645,-0.004658657727111131,-0.009355487473565153
1782952645753333200,2.763333251953125,0.02863397381007671,-0.00851489476384595,-0.0015985349375521763
1782952645763261400,2.773261474609375,0.02788110961616039,-0.016313074359390882,0.0024313598993467166
1782952645773189400,2.783189453125,0.00708674339056015,-0.0036441286560147997,0.011917579346802085
1782952645783116300,2.7931162109375,0.018010872986912726,-0.006365315514523536,-0.011303351872018537
1782952645793044200,2.803044189453125,0.03506605268418789,-0.005030377116333693,-0.020244262628746217
1782952645802972400,2.812972412109375,0.028783611413836476,-0.016792382308933883,0.0028284237923799083
1782952645812899300,2.8228994140625,0.02025894417464733,-0.017811934615019707,-0.001262663179845549
1782952645822827300,2.8328271484375,0.02385141570866108,0.01041736738430336,-0.007570933011197485
1782952645832755200,2.842755126953125,0.022655483922362326,0.00019373247381299734,-0.003841409360361285
1782952645842682400,2.852682373046875,0.01727086827456951,-0.00857457079552114,-0.0020874646653886884
1782952645852610300,2.8626103515625,0.010984919872879981,-0.0085817311886698,-0.028015394387161358
1782952645862537500,2.872537353515625,0.02370411619246006,-0.0002037606774829328,-0.009003769692755305
1782952645872465400,2.88246533203125,0.018767244312167166,-0.00455097783524543,-0.0004153850010130554
1782952645882393300,2.892393310546875,0.016669395250082014,0.005097779796738177,-0.017987035453598945
1782952645892320500,2.902320556640625,0.01592237627506256,-0.0027239998701028526,-0.0029258928174851462
1782952645902248400,2.91224853515625,0.021161445972323417,-0.010412344149313867,-0.009897289032954722
1782952645912176400,2.92217626953125,0.0350783276438713,-0.007087748037558048,-0.01376026633772999
1782952645922103300,2.932103271484375,0.008588964647054671,0.01415823441306129,-0.005978151960996911
1782952645932031500,2.942031494140625,0.02190846494734287,0.010536847311817109,0.0019146471154410391
1782952645941958400,2.95195849609375,0.02894084780216217,-0.0033795777020044623,0.013834413852752185
1782952645951886300,2.96188623046875,0.019663316369056702,-0.0017497480104677378,-0.022602214798587372
1782952645961814500,2.971814453125,0.02295592817366123,0.009895535467285662,0.003285314414137974
1782952645971741200,2.9817412109375,0.02131166809797287,0.013140508737880736,0.0012468308564741164
1782952645981669400,2.99166943359375,0.03223813578188419,-0.008950235707499086,-0.003109163262788206
1782952645991597300,3.001597412109375,0.03672726389467716,-0.008058310102764516,-0.009249136455683036
1782952646001524200,3.011524169921875,0.03433540032207966,-0.007861910747829824,-0.001675600495445542
1782952646011452200,3.0214521484375,0.023566169026494024,-0.007696746781375259,0.004956092603993602
1782952646021380400,3.03138037109375,0.01593406671285629,-0.006380659214127809,0.008703238676488399
1782952646031307300,3.041307373046875,0.028358079478144643,-0.002312532992381602,-0.013713595918100327
1782952646041235200,3.051235107421875,0.021028174981474874,-0.011087229469884186,-0.0034525607398245483
1782952646051162400,3.061162353515625,0.01758241844177246,-0.008896843286138028,-0.0001609398824861273
1782952646061091000,3.071091064453125,0.02595978616476059,-0.015261099354736506,-0.005618935860320925
1782952646071019300,3.081019287109375,0.021921324428915975,-0.013948884245008229,-0.005561958675808273
1782952646080946000,3.09094580078125,0.023120178824663162,-0.013396364928781986,0.0015757203175453469
1782952646090873900,3.100873779296875,0.02416939561665058,-0.010631174531765281,0.006768288558535278
1782952646100802000,3.110802001953125,0.011149170523881912,-0.022849307727720588,-0.011127470148727297
1782952646110729000,3.12072900390625,0.024467501780390737,0.007375497204065323,-0.015382561176782474
1782952646120657000,3.130656982421875,0.0328477921128273,-0.0042960166934877635,0.006842637002957053
1782952646130584000,3.140583984375,0.03329495135843753,-0.008112177448160946,-0.014631445981957949
1782952646140512000,3.150511962890625,0.00950491044819355,-0.016138959901500494,-0.008497989294817671
1782952646150440000,3.16043994140625,0.04227437662780285,-0.014483995768707245,-0.012869313413952477
1782952646160367000,3.1703671875,0.02686170344054699,0.0083818977676332,-0.004779982551839202
1782952646170295000,3.180294921875,0.024169980138540267,-0.007656688765622675,0.008501784120523371
1782952646180223000,3.190222900390625,0.0297106631308794,-0.011680044263880699,-0.004157713334495202
1782952646190150100,3.200150146484375,0.023579613029956818,0.000616396598983556,-0.016950253451499156
1782952646200078000,3.210078125,0.01759235531389713,-0.0039606472592800855,-0.007142693095188587
1782952646210006000,3.220006103515625,0.022232874596118925,0.002585906573664397,-0.0024872045726981014
1782952646219933000,3.229932861328125,0.019091069439053535,-0.008534932904876768,-0.006600051285582594
1782952646229861000,3.239861083984375,0.022833178576827047,-0.005264825193025171,-0.011285848181368782
1782952646239788000,3.2497880859375,0.02433013913631439,-0.0040924386790953575,-0.0002539564947597682
1782952646249716000,3.259716064453125,0.024930443117022513,0.004942351773008704,0.018045743370894343
1782952646259644000,3.269643798828125,0.027622166419029235,-0.012358528047334403,-0.0010444355855928733
1782952646269571000,3.279571044921875,0.020288754791021345,-0.005299951305333525,0.004925437170825898
1782952646279499000,3.2894990234375,0.009221417331695556,-0.006231733996421098,-0.007615598703408613
1782952646289427000,3.299427001953125,0.014012158739566802,-0.0056980107122100885,-0.018577388862450608
1782952646299354000,3.30935400390625,0.020001170021295547,-0.007771309854928404,0.0020536263278685507
1782952646309282000,3.319281982421875,0.03601648527681827,-0.009709310446493327,-0.017668498423183337
1782952646319210000,3.3292099609375,0.02135726080536842,0.0009122194740921258,0.004087543308269232
1782952646329137200,3.33913720703125,0.02300268992483616,-0.016298022920731455,0.003268815370486118
1782952646339065000,3.349065185546875,0.020457097095251082,-0.011139343249611557,0.0036539604968624188
1782952646348992000,3.358991943359375,-0.002738485053181648,0.0037362091199494895,0.003372577139060013
1782952646358920200,3.368920166015625,0.009684943190217017,-0.01834474458377808,-0.009227271683746948
1782952646368848100,3.37884814453125,0.027043489748239516,-0.026152221730630844,-0.007580618721572682
1782952646378775000,3.388775146484375,0.02314998944103718,-0.002262227577250451,-0.023366856195265427
1782952646388703200,3.398703125,0.028688334345817565,-0.008748228595685213,0.010835615629260428
1782952646398631200,3.408631103515625,0.025996026521921158,0.0021380897409282625,0.018436066995887086
1782952646408558000,3.41855810546875,0.029285131195187566,0.0007182130056433379,0.007586354342615231
1782952646418486000,3.428486083984375,0.014770868152379988,-0.012777283182367682,-0.02449950892042834
1782952646428413200,3.4384130859375,0.009681436058878898,-0.018255897256545722,-0.022252246016869322
1782952646438341000,3.448341064453125,0.025841712743043897,-0.02224942387212068,-0.013574726303527131
1782952646448269000,3.45826904296875,0.02389525485038757,-0.016060049446392805,-0.020379474414931608
1782952646458196200,3.4681962890625,0.018509470158815385,-0.00783197226729244,-0.006473041072161868
1782952646468124200,3.478124267578125,0.02344868012666702,0.0169946816816926,0.009971724242344498
1782952646478052000,3.488052001953125,0.017462006932497023,-0.0017068039178848265,-0.0045497768254252145
1782952646487979300,3.497979248046875,0.029879589956998822,0.00198118214616552,-0.0032857436724007126
1782952646497907200,3.5079072265625,0.021499884146451948,-0.011431257134582847,-0.00813494183581788
1782952646507835100,3.517835205078125,0.009673252752423285,-0.012874131152965127,-0.029317220533615906
1782952646517762000,3.527761962890625,0.019997662889957427,-0.015394808737002313,-0.019598324841447173
1782952646527690200,3.537690185546875,0.017906828090548513,-0.016907167795021084,-0.0033159698473056777
1782952646537617000,3.547616943359375,0.017003741770982742,-0.009399970502685755,-0.004097667410061695
1782952646547544800,3.557544921875,0.029273440757393836,0.005449059186130762,0.003092778383567929
1782952646557473000,3.56747314453125,0.03241816852390766,0.004476780087873339,0.014823913513869046
1782952646567400000,3.57739990234375,0.01655541348159313,-0.0026713563674129544,0.007434707444859668
1782952646577327900,3.587327880859375,0.02344049682021141,-0.007811824528407305,-0.009714986702031456
1782952646587256000,3.597256103515625,0.020446575701236723,-0.01311906409105286,0.0035087022406980395
1782952646597183000,3.607182861328125,0.02523731710910797,-0.015736498314142228,-0.018323820526758208
1782952646607111000,3.61711083984375,0.026439094114303587,-0.017680179727822543,-0.005979599565989337
1782952646617038000,3.6270380859375,0.026885084316134452,-0.020141327410656957,-0.0034206038321368394
1782952646626966000,3.636966064453125,0.03107318365573883,0.005963694177381694,-0.0009972034769598394
1782952646636894000,3.64689404296875,0.01386544374525547,-0.009022552025038749,0.00518376844660379
1782952646646821000,3.656821044921875,0.0274842192530632,-0.01729099774714559,-0.005046081575541757
1782952646656749000,3.6667490234375,0.015364742392301558,0.0015207432938739657,-0.010913530570524745
1782952646666677000,3.676677001953125,0.029735797572135923,-0.017699450683873144,-0.018783469361183233
1782952646676604200,3.686604248046875,0.02404956862926483,-0.003509085833188146,-0.005386337247421033
1782952646686532000,3.696531982421875,0.016264321580529213,-0.0006943572060205042,-0.004124144425033591
1782952646696459000,3.706458984375,0.012969371688365936,-0.009576496113371103,-0.0064448789901798585
1782952646706387000,3.716386962890625,0.017457915279269216,-0.006132876731827855,0.010558648151671512
1782952646716315100,3.726315185546875,0.025835283002257344,-0.007418021171540021,0.0056929007122525944
1782952646726242000,3.736241943359375,0.027180267870426177,-0.012865345058310777,-0.008299137687892652
1782952646736170000,3.746169921875,0.0054822308033704754,-0.016864296767674387,-0.010276730504329316
1782952646746098000,3.756097900390625,0.01191606324315071,-0.006974697850830852,-0.009640921385399997
1782952646756025000,3.766025146484375,0.019851532417535782,-0.013576799529604612,-0.015660318672237918
1782952646765953000,3.775953125,0.01685994938611984,-0.005701280381530523,-0.0023157432961976154
1782952646775881000,3.785880859375,0.02927811693251133,-0.004945749306492507,0.006481589704798534
1782952646785808100,3.79580810546875,0.02942717001438141,-0.006445742073282599,-0.0005541678506182506
1782952646795736000,3.805736083984375,0.01850654754936695,0.004210183307249099,0.0033749471926596015
1782952646805663200,3.815663330078125,0.011918985852599144,-0.0025826186380349097,-0.0058372776190051805
1782952646815591200,3.825591064453125,0.031520342901349065,-0.008530658588558435,-0.000058776415954343974
1782952646825519000,3.83551904296875,0.023441665863990782,-0.014721786579955369,-0.009923345922818407
1782952646835446000,3.845446044921875,0.0306213482350111,-0.00713069213014096,-0.01196541881021112
1782952646845374200,3.855374267578125,0.024786650732159615,-0.014190657111629843,-0.008285976812220179
1782952646855302100,3.86530224609375,0.023589549902081487,-0.008199307742342352,-0.004964522505621426
1782952646865229000,3.87522900390625,0.01236614509820938,0.0019769626287743447,-0.003577643857640214
1782952646875157000,3.885156982421875,0.023888825109601018,-0.0014892156444489956,-0.008980484715290367
1782952646885084200,3.895084228515625,0.011618541601300238,-0.006445449812337756,-0.01024555448135361
1782952646895012000,3.90501220703125,0.013564999493956564,0.0023032719736918806,-0.02027579484474845
1782952646904940000,3.91493994140625,0.02329144373834133,0.0008013795107603073,-0.007891141408891416
1782952646914867200,3.9248671875,0.02733691973686218,-0.009706241706572473,-0.01943825260864105
1782952646924795100,3.934795166015625,0.011176643052697182,-0.0063040503139607604,-0.007957936734519899
1782952646934723000,3.94472314453125,0.015366495957970619,-0.003759151604119688,-0.008775737657118587
1782952646944650200,3.954650146484375,0.01641395918428898,-0.010794256138987839,-0.015051534557552076
1782952646954578200,3.964578125,0.011471242085099219,-0.02425270825223997,-0.022044864043616687
1782952646964504800,3.9745048828125,0.025982582518458364,-0.0013950893539004027,-0.025823546898690982
1782952646974433000,3.98443310546875,0.037354455882310865,0.014371749299578367,0.0030264534153975546
1782952646984361200,3.994361328125,0.009520108017325401,0.007718739417474717,-0.0006427594495238735
1782952646994287900,4.004287841796875,0.024637597650289535,-0.007998707136325538,-0.008470347802643663
1782952647004216000,4.014216064453125,0.019548165556788445,-0.011852496487647295,-0.012640126034268177
1782952647014144000,4.02414404296875,0.022542671197652814,-0.006692136316094547,0.00568846656573005
1782952647024071000,4.03407080078125,0.01700900246798992,-0.003516611552517861,-0.016021955058863384
1782952647033998800,4.043998779296875,0.02075169612765312,0.006301456498075276,-0.00045211398194078354
1782952647043927000,4.053927001953125,0.036460721912980075,0.005354220509529113,0.0025033611230552196
1782952647053854000,4.06385400390625,0.02792962493300438,0.0021048450584523377,-0.0016038276006001978
1782952647063781600,4.07378173828125,0.015211013135313986,-0.01378876177985221,-0.0036247618018416684
1782952647073708800,4.083708740234375,0.0050339025139808655,-0.01492169306622818,-0.014814780359342694
1782952647083636700,4.09363671875,0.014015081349015236,-0.0009790558989159763,0.004677924116584472
1782952647093564700,4.103564697265625,0.03301496537327766,0.004836772506684065,-0.000872910377010703
1782952647103491800,4.113491943359375,0.023282675909996033,-0.03713937009321525,-0.023133668493898585
1782952647113419800,4.123419677734375,0.002927285623550415,-0.029224980239477005,-0.011013575145206414
1782952647123347700,4.13334765625,0.011007716226577757,-0.023121073873806745,-0.027117532231984657
1782952647133275000,4.14327490234375,0.0020300445228815076,-0.001420716985501349,-0.022533200116408986
1782952647143202800,4.153202880859375,0.03524374733865261,0.02153345762249082,0.022517641787673345
1782952647153129700,4.163129638671875,0.015642974811792373,0.0358205425796099,0.03532678597960621
1782952647163058000,4.173057861328125,0.03554828324317932,0.032377306790556754,0.016081115067307836
1782952647172985900,4.18298583984375,0.023126608565449715,-0.005549797880556434,0.00024033896136097608
1782952647182912800,4.192912841796875,0.02536591192483902,-0.04097100241165608,-0.03932626741193235
1782952647192840700,4.2028408203125,0.009656886139512062,-0.052429111020546405,-0.05097036814617458
1782952647202769000,4.212768798828125,0.009804185655713081,-0.0417626825123094,-0.022115084302192552
1782952647212695800,4.22269580078125,0.024469839867949483,0.008153313176147639,-0.004640980506525375
1782952647222623700,4.232623779296875,0.02282441074848175,-0.008122790173720569,-0.004890032497304492
1782952647232552000,4.242552001953125,0.019680267503857613,0.01840420141974464,0.012205410711700096
1782952647242478600,4.252478515625,0.03269698546528816,0.012875208865199238,0.007661652635107747
1782952647252406800,4.26240673828125,0.0011228665500879287,0.00750672236829996,-0.003535713545209728
1782952647262333700,4.272333740234375,0.014886018964648246,-0.007151844516023993,-0.01618650253738742
1782952647272261600,4.28226171875,0.0030658173114061354,-0.02049529194748029,-0.019838887565094044
1782952647282189600,4.292189453125,0.010547697499394416,-0.029048527694027867,-0.00898615183767397
1782952647292116700,4.30211669921875,0.01144201599061489,-0.006909012203477323,0.001229582894151099
1782952647302044700,4.312044677734375,0.019070611172914503,-0.005613949157949536,0.0012499954945174975
1782952647311972600,4.32197265625,0.009492635488510131,0.004769241962116212,0.007131322317803278
1782952647321899800,4.331899658203125,0.022659575575590132,0.001965911511797458,0.0029793491709278895
1782952647331827700,4.34182763671875,0.02385784544944763,0.005963073122873902,0.0035739312303252517
1782952647341754600,4.351754638671875,0.01936754829287529,0.0003122077543288469,-0.018891569378157145
1782952647351682600,4.3616826171875,0.016969254979491234,-0.017809742657933385,-0.009682372207217849
1782952647361610800,4.37161083984375,0.006790975314378738,-0.019070739037077872,-0.02935594054223038
1782952647371537700,4.38153759765625,0.014418401452898978,-0.01984132155077532,-0.024739108096272684
1782952647381465600,4.391465576171875,0.029828152030706403,-0.010943254421930759,-0.008916433902597054
1782952647391393500,4.4013935546875,0.013666121780872344,-0.0015094912474974988,-0.0028101574833272022
1782952647401320700,4.41132080078125,0.02683773804306984,0.0025615393173880874,0.0024738473342033104
1782952647411248600,4.42124853515625,0.037762452161312104,0.011943554038275033,-0.004879369539394975
1782952647421175800,4.43117578125,0.026244448325037955,-0.004772255903109908,-0.0023580161019228396
1782952647431103700,4.441103759765625,0.02953764465153217,-0.014542082631494849,-0.01297002470891457
1782952647441031700,4.45103173828125,0.0292401230096817,-0.023561638981848952,-0.022035488860495386
1782952647450958800,4.460958740234375,0.009191022193431854,-0.01511436609411612,-0.010356494909385219
1782952647460886800,4.47088671875,0.03477612982690334,-0.005874024866241961,-0.0157689803782152
1782952647470814700,4.480814697265625,0.02191021851301193,-0.009829868086241185,-0.009387307383934966
1782952647480741600,4.49074169921875,0.03134147920310497,0.0009710917881689965,0.006102467893832363
1782952647490669800,4.500669921875,0.03029284693300724,0.009232121388800441,-0.012470605553104542
1782952647500597800,4.51059765625,0.02700140417218208,-0.002752714507933706,0.002404997048806399
1782952647510524700,4.520524658203125,0.026554244926571845,-0.0038398338912054896,-0.0006842513705370947
1782952647520452900,4.530452880859375,0.026853520134091376,-0.017918829055596143,-0.006087768081622198
1782952647530379800,4.5403798828125,0.021620295655727387,-0.0205908795427531,-0.022216229421994648
1782952647540307700,4.5503076171875,0.022968787655234336,-0.011991028175503014,-0.02510673583226744
1782952647550235600,4.560235595703125,0.02955167317688465,-0.01643483757553622,0.004226294191833585
1782952647560162800,4.570162841796875,0.01803717647194862,-0.007723525190446525,-0.00460773582404945
1782952647570090800,4.5800908203125,0.028811668464541435,-0.004302519499510526,0.01005858967504464
1782952647580018000,4.590017822265625,0.02671557296812534,-0.0030724662479013204,0.000889112593140453
1782952647589945900,4.59994580078125,0.032552608558535576,-0.014496197663154452,-0.013094167111814022
1782952647599873800,4.609873779296875,0.014295651856064795,-0.018202358704712242,-0.01779736266697291
1782952647609800700,4.61980078125,0.009806523743271827,-0.018350388873275367,-0.014803528312966227
1782952647619729000,4.62972900390625,0.020882629030942915,-0.015480952650494872,-0.005165625435137189
1782952647629656800,4.63965673828125,0.03344984965920448,-0.009603731180168688,-0.020246746846777387
1782952647639583700,4.649583740234375,0.031057401564717292,-0.006057528206985443,0.0033170749590033665
1782952647649512000,4.659511962890625,0.027469606205821034,-0.005260349947307259,0.016000213584513402
1782952647659439900,4.66943994140625,0.018640987583994864,0.002969352933298796,-0.0028921823441283774
1782952647669366800,4.67936669921875,0.02402735679745674,-0.011235606698319316,0.0015402608450967817
1782952647679294700,4.689294677734375,0.016244447836279867,-0.007444562118593603,-0.007735329792671836
1782952647689221600,4.6992216796875,0.005765139397978783,-0.008330551172886043,-0.02440716816158965
1782952647699149600,4.709149658203125,0.034500235494971276,-0.017923961888439952,-0.003792848377744667
1782952647709077800,4.719077880859375,0.026420389413833616,-0.022006792488973588,-0.016740547090419566
1782952647719004700,4.729004638671875,0.018636895930767058,0.007257350717112422,-0.0012998396853450686
1782952647728932600,4.7389326171875,0.015042086309194564,0.0024405250199139115,-0.014283445395040326
1782952647738860500,4.748860595703125,0.024766776987910268,0.0025206958503462373,-0.013151482223044148
1782952647748787700,4.75878759765625,0.015938158366084098,0.0014588753051124512,-0.010819888337166048
1782952647758715600,4.768715576171875,0.012498831567168234,-0.016177794074546545,-0.019121158616640602
1782952647768642600,4.778642578125,0.024025018709897993,-0.007645162724610417,-0.014502810067031531
1782952647778570800,4.78857080078125,0.016097148320078847,-0.002974266570433974,-0.025489054247317833
1782952647788498700,4.798498779296875,0.014451719200611113,-0.016730075928755105,-0.012935341554600745
1782952647798425600,4.808425537109375,0.029119126978516575,0.005010211111139506,-0.0005278689321596175
1782952647808353500,4.818353515625,0.03285714446306229,-0.014211078845150767,-0.004538378648576326
1782952647818281700,4.82828173828125,0.019535890597105025,-0.01752382012233138,-0.004043165310425684
1782952647828208600,4.838208740234375,0.027018355306982992,0.005948770602885634,-0.00886516037308611
1782952647838136600,4.848136474609375,0.019245383217930793,-0.0031667752015404403,0.0006762826932128519
1782952647848063700,4.858063720703125,0.022834932142496107,-0.021812585091125217,-0.0060192511563654984
1782952647857991700,4.86799169921875,0.020735914036631584,-0.012670516605954616,-0.014881762914638965
1782952647867919600,4.877919677734375,0.03285772898495197,-0.0041893414486199616,-0.008836217406392097
1782952647877846800,4.8878466796875,0.03450315810441971,-0.006114829618483781,-0.004297080705990083
1782952647887774700,4.897774658203125,0.024624153646826744,0.0029740108421072364,-0.008055392059893347
1782952647897702700,4.90770263671875,0.029414310532808303,-0.02048727303780615,-0.00016547449370846152
1782952647907629800,4.9176298828125,0.027769465935230254,-0.010802987434715031,-0.019484283707453868
1782952647917557800,4.927557861328125,0.025676293048262595,-0.0017400120677426457,-0.012206173330103046
1782952647927484700,4.937484619140625,0.01938976012468338,-0.002995857347734272,-0.014126186173828319
1782952647937412900,4.947412841796875,0.030761048966646193,-0.0008230433532968163,-0.013400086689251474
1782952647947340800,4.9573408203125,0.02297638643980026,-0.01641412358107045,-0.01965382702150382
1782952647957267700,4.967267822265625,0.023124854999780654,-0.00022063874704763293,-0.004183304433478042
1782952647967195600,4.977195556640625,0.02207797629535198,-0.006103303577471524,-0.012765049321879633
1782952647977123800,4.987123779296875,0.024623569124937055,-0.001691807278152555,-0.007454366559977643
1782952647987050800,4.99705078125,0.02656885797381401,-0.0013804763066582381,-0.011433120298106223
1782952647996978700,5.006978759765625,0.017893968608975408,0.00041718423245474693,0.005143386203865521
1782952648006905900,5.01690576171875,0.006073182433843612,-0.006214527133293449,-0.021352607463137246
1782952648016833800,5.026833740234375,0.01819850451350212,-0.00952664735596627,-0.02320225391781423
1782952648026761700,5.03676171875,0.009818798702955246,-0.01402773990118876,-0.011099919988098554
1782952648036689000,5.04668896484375,0.013709960922598838,-0.015986874612327666,-0.00850770697123371
1782952648046616800,5.056616943359375,0.01715104128718376,0.001388677879422903,-0.006711338773486204
1782952648056544800,5.066544677734375,0.02208966673314571,-0.01240057709077373,-0.017786571844900026
1782952648066472000,5.076471923828125,0.0372048182785511,-0.0018558752660639583,-0.01776182099613361
1782952648076400000,5.086400146484375,0.01595510950088501,0.0023664734030142427,-0.01269625383540988
1782952648086328000,5.096328125,0.0319634104937315,-0.011750990608241408,-0.009849696164717897
1782952648096254700,5.106254638671875,0.01938917560279369,-0.002450991615001112,-0.025858746076235548
1782952648106183200,5.11618310546875,0.02357902850806713,-0.020109379636123775,-0.0038481130957836282
1782952648116109800,5.12610986328125,0.010565233156085013,-0.02356405013464391,-0.005325953396270051
1782952648126037800,5.136037841796875,0.016404022312164306,-0.012292239611782134,-0.01331966013049241
1782952648135966000,5.145966064453125,0.014613047242164612,-0.009896156521793454,-0.03420303808010649
1782952648145892900,5.155892822265625,0.012222937235236167,-0.01211662731654942,-0.006375147355371155
1782952648155820800,5.16582080078125,0.0223994633346796,-0.010470120484847575,-0.01577087550777942
1782952648165748000,5.175748046875,0.013874211573600768,-0.016594667779747396,-0.00771299466327764
1782952648175676000,5.185676025390625,0.01895662940442562,-0.012839553029928355,-0.0014797125971643254
1782952648185603800,5.195603759765625,0.02224748764336109,-0.022687559561058876,-0.012949863270297646
1782952648195531000,5.205531005859375,0.03526829725801944,-0.0049577685378491875,-0.0059106077166972675
1782952648205459000,5.215458984375,0.02524433137178421,-0.0024766557792201636,0.0029648365883855146
1782952648215387000,5.225386962890625,0.030182372295856474,0.0060871378939598795,-0.009062345179310068
1782952648225313800,5.235313720703125,0.025841712743043897,0.0016439678147435188,-0.011716357686277478
1782952648235242000,5.245241943359375,0.008481412619352341,0.0060443581981584425,-0.010428774694306775
1782952648245169000,5.2551689453125,0.015816577813029288,-0.002473897566553205,-0.01132042173782829
1782952648255096800,5.265096923828125,0.02494797877371311,-0.009168865160550922,-0.014709128027781843
1782952648265025000,5.27502490234375,0.023150573962926864,-0.0038838556960225103,-0.009374753863038494
1782952648274952000,5.284951904296875,0.008933832561969756,-0.003849989959038794,-0.018255057006329296
1782952648284880000,5.2948798828125,0.011329787787795066,0.0031220410106703638,-0.0005717994054313749
1782952648294807800,5.304807861328125,0.03182780141532421,-0.012502265633270143,-0.006391313038882799
1782952648304734000,5.31473388671875,0.02195288861095905,-0.004599657548870891,-0.019105202995683065
1782952648314662000,5.324661865234375,0.017314122894406318,-0.005049118349421769,-0.002146537908865139
1782952648324590000,5.334590087890625,0.024192191970348356,-0.0039794250249862665,-0.018812499092845245
1782952648334517000,5.34451708984375,0.017157471027970314,-0.01547026685969904,-0.0013239329469855875
1782952648344445000,5.35444482421875,0.012673603612184524,-0.00022873072195798158,-0.004086461029457859
1782952648354372000,5.3643720703125,0.02135258463025093,-0.0033281763083301483,-0.010678694334765896
1782952648364300000,5.374300048828125,0.024347090271115302,-0.005650664439145475,-0.013828577767009846
1782952648374228000,5.38422802734375,0.01821019495129585,-0.001983483701106161,-0.0010749859874835236
1782952648384155100,5.394155029296875,0.024344167661666867,-0.023312523058988153,-0.01156895770537667
1782952648394083000,5.4040830078125,0.02015431475639343,-0.0083484886883758,-0.002331255959160626
1782952648404011000,5.414010986328125,0.014466332247853278,-0.002616064249910414,0.005986234802752733
1782952648413938000,5.42393798828125,0.030627193453907964,0.001877740038000047,0.012283330219541675
1782952648423866000,5.4338662109375,0.021947627913951873,0.0035311880671419203,-0.0038948611472267654
1782952648433792800,5.443792724609375,0.033468554359674454,0.0035780411498621103,0.003462963402830064
1782952648443720700,5.453720703125,0.028384967485070228,0.0065704096325673155,-0.00372620374916587
1782952648453649200,5.463649169921875,0.02314940491914749,-0.01566865724232048,-0.00821191149558872
1782952648463575800,5.473575927734375,0.02180383552908897,-0.010007745403796434,-0.011621313513698987
1782952648473503700,5.483503662109375,0.02569207513928413,-0.01294314126856625,-0.004262347319326364
1782952648483432000,5.493431884765625,0.028084523233771322,-0.005269793629087508,-0.014458856760873459
1782952648493358800,5.50335888671875,0.017758944052457808,-0.011992964404262601,-0.009927629372291266
1782952648503286800,5.513286865234375,0.02958206831514835,-0.015483327270671724,-0.007863929174980149
1782952648513214000,5.5232138671875,0.03017769612073898,-0.005467672555055469,-0.011515473952470347
1782952648523142000,5.533141845703125,0.02134732393324375,-0.0006194836052134633,-0.01569971453428734
1782952648533069800,5.54306982421875,0.016558336091041563,-0.012154730837233363,-0.005910941076837479
1782952648542997000,5.5529970703125,0.018508885636925695,-0.01786947348853573,0.0002105420447187498
1782952648552925000,5.562925048828125,0.02987842091321945,0.00029037951501086355,-0.01582694850999396
1782952648562852900,5.572852783203125,0.027928455889225004,-0.003875928117893636,-0.008751210570638067
1782952648572779800,5.58277978515625,0.016705051085352897,-0.005949738717265427,-0.013593568001314997
1782952648582708000,5.5927080078125,0.025534838750958442,-0.008111793855670839,-0.009532506274594925
1782952648592635000,5.602634765625,0.031816695499420164,-0.005804576359223574,-0.012798120474419555
1782952648602562800,5.612562744140625,0.03226443926692009,0.0017179281000979244,-0.002047292485204525
1782952648612491000,5.622490966796875,0.01790039834976196,-0.0019366488846950232,0.0064374217695090915
1782952648622418000,5.63241796875,0.009821136790513992,-0.0037794637397862967,-0.014550836760108357
1782952648632345900,5.642345947265625,0.02104278802871704,-0.011530150931794195,-0.011012698362371884
1782952648642273800,5.652273681640625,0.01610533162653446,-0.010203797698859124,-0.014436727127456105
1782952648652201000,5.662200927734375,0.0117640875518322,-0.0008595942377112805,0.005797525563929229
1782952648662129000,5.67212890625,0.01730535506606102,0.006779193545039743,-0.010621360957226716
1782952648672056000,5.68205615234375,0.02792904041111469,0.00435284318095073,-0.013054396790429018
1782952648681984000,5.69198388671875,0.03526303656101227,-0.013794259938877075,-0.01691596758940723
1782952648691912000,5.701911865234375,0.02778232541680336,-0.015766108001116663,-0.015508863570727408
1782952648701838800,5.7118388671875,0.01940671125948429,-0.014126451035309582,-0.00898802413435187
1782952648711769900,5.721769775390625,0.011176643052697182,-0.00934809418497607,-0.01007926257031504
1782952648721696800,5.73169677734375,0.009079378512501715,-0.004173248830344528,0.003633799058245495
1782952648731625000,5.741625,0.018207856863737104,-0.006443148257397115,-0.0035858180309413
1782952648741553000,5.751552978515625,0.006689853027462959,-0.008083481076639145,-0.0007579787604510784
1782952648751479800,5.761479736328125,0.03212707662284374,-0.008687840177956967,-0.007685727630439214
1782952648761407700,5.77140771484375,0.01820902590751648,-0.01644192490344867,-0.024879023457039146
1782952648771336000,5.7813359375,0.021347908455133437,-0.013304357530083506,-0.016423854957218282
1782952648781262800,5.791262939453125,0.03077157036066055,-0.009154891434125602,-0.014507267046440392
1782952648791190800,5.801190673828125,0.023891747719049453,-0.007464782922714948,-0.01029988305105362
1782952648801118000,5.811117919921875,0.022846038058400152,-0.001415127494931221,-0.012372077082074247
1782952648811046000,5.8210458984375,0.020151976668834684,-0.0070906158480793235,-0.012788526095589623
1782952648820973800,5.830973876953125,0.031225743868947026,-0.01548228609105572,-0.007252578643872402
1782952648830901000,5.84090087890625,0.0244908826559782,0.012093155109416692,-0.013213025984819977
1782952648840829000,5.850828857421875,0.020001170021295547,-0.009299633667059243,0.001409460372547619
1782952648850755800,5.860755859375,0.022691724279522894,-0.00857186738178134,-0.02634044691226445
1782952648860684000,5.87068408203125,0.03466565518975258,-0.002091419321298599,-0.015138838381669482
1782952648870612000,5.880612060546875,0.028087445843219757,0.0037257242585532367,-0.014818164193094707
1782952648880539000,5.890538818359375,0.02165361340343952,-0.01109636262441054,0.0026213843124220145
1782952648890466800,5.900466796875,0.030333178943395614,0.006543466826714575,0.006367169544892385
1782952648900395000,5.91039501953125,0.025241993284225463,0.00023461247347295283,-0.02371692544168327
1782952648910322000,5.920322021484375,0.0321288301885128,0.0014537059396505356,-0.0097026295439573
1782952648920249900,5.930249755859375,0.013876549661159514,-0.0035946634911000726,-0.002160520768444985
1782952648930177000,5.940177001953125,0.022409400206804275,-0.0037203904963098466,0.0026237908986397086
1782952648940105000,5.95010498046875,0.020615502527356146,-0.010690960161294788,-0.013961711760540492
1782952648950033000,5.960032958984375,0.02361000816822052,-0.013432934079505502,-0.008786793340672738
1782952648959960000,5.9699599609375,0.02166881097257137,-0.012540551817044615,-0.025735571787715888
1782952648969888000,5.979887939453125,0.025859832921624182,-0.003189005299657583,-0.01916313002826646
1782952648979816000,5.98981591796875,0.020776830568909645,0.007580116398073732,-0.016855971897323616
1782952648989743000,5.9997431640625,0.017187866166234016,-0.008792524395138024,-0.017967718831775708
1782952648999671000,6.009671142578125,0.018531681990623473,-0.00017292714780196546,-0.007115846187458373
1782952649009598000,6.019597900390625,0.010299860218167305,-0.014200539184827356,-0.01081789274290204
1782952649019526000,6.02952587890625,0.00895195274055004,-0.006971154186874628,-0.000947135523846373
1782952649029454000,6.0394541015625,0.01852525224983692,-0.005179704192839562,0.006060208787838928
1782952649039381000,6.049381103515625,0.027951836764812468,-0.008573547882214188,-0.0093979064097628
1782952649049309000,6.059308837890625,0.012390695017576217,-0.016982187526300548,-0.00815440458811354
1782952649059236900,6.06923681640625,0.006556582036614417,-0.013588161173835395,0.0027009112554602322
1782952649069163800,6.079163818359375,0.03334638928472996,-0.018503223081119357,-0.004787001381092704
1782952649079091700,6.089091796875,0.013296703946590422,-0.02277215083828196,-0.012965389632992446
1782952649089018600,6.0990185546875,0.020030980637669563,-0.020118695453740655,-0.008706453546881675
1782952649098946600,6.108946533203125,0.014196283134818076,-0.015834168268647045,-0.015604478565463795
1782952649108874800,6.118874755859375,0.026764672806859013,-0.004551471025589854,-0.007151104730507359
1782952649118801700,6.1288017578125,0.026765257328748703,-0.013097637710534035,0.0014110723743215202
1782952649128729600,6.1387294921875,0.027511107259988784,-0.0028368673937395213,-0.0041155501266242935
1782952649138657500,6.148657470703125,0.016733692657947538,-0.011556399617902934,0.0069156383070861915
1782952649148584700,6.158584716796875,0.015235563054680823,-0.01253485272862017,-0.0070140708799939595
1782952649158512600,6.1685126953125,0.027357962524890898,-0.010951127201132475,-0.016879243175056763
1782952649168439600,6.178439453125,0.025263620594143867,-0.003131904817558825,-0.017561275189043952
1782952649178367500,6.188367431640625,0.0071557169735431666,0.006655603697989136,-0.010154761792207137
1782952649188295700,6.198295654296875,0.01030044474005699,-0.003587064706534147,-0.007461828347225673
1782952649198222600,6.20822265625,0.0299023863106966,-0.019149960019439458,-0.01758648726211395
1782952649208150500,6.218150634765625,0.02870587000250816,-0.013650083961524069,-0.0006849865894764662
1782952649218078700,6.22807861328125,0.0119470429033041,-0.009626545800175516,-0.011614413415454328
1782952649228005600,6.238005615234375,0.02362228312790394,-0.007359861243516206,-0.008804845020594075
1782952649237933600,6.24793359375,0.020782675787806508,-0.014491685884818434,-0.00986708112435881
1782952649247860700,6.25786083984375,0.02048983032107353,-0.00032068332172930237,-0.009918487084610387
1782952649257788700,6.26778857421875,0.021390578553080557,-0.0033880715357139705,0.00544389438724611
1782952649267716600,6.277716552734375,0.02528349433839321,-0.00016728285830467938,-0.0018294073842465876
1782952649277643800,6.287643798828125,0.020340192717313764,-0.015387958871107547,-0.012891333449515513
1782952649287571700,6.29757177734375,0.029020342779159543,-0.005107223478518426,-0.01477614711569622
1782952649297499600,6.307499755859375,0.020790274572372435,-0.019452176102716476,-0.0008430540948640555
1782952649307426800,6.3174267578125,0.03021744360923767,-0.004313168757688254,-0.013459438493940979
1782952649317354800,6.327354736328125,0.011360182926058768,-0.017829031880293042,-0.005664144975226372
1782952649327281700,6.33728173828125,0.026168460479378697,-0.014770703755598514,0.004134537954884581
1782952649337209600,6.347209716796875,0.033797640183568,-0.010918832366727292,-0.016716403596429154
1782952649347137800,6.3571376953125,0.022275544694066046,-0.011838595826458185,0.003548349264496937
1782952649357064700,6.367064697265625,0.014645195946097374,-0.014281933857966214,-0.01350692633090075
1782952649366992600,6.37699267578125,0.021227496945858,-0.004798614187072962,-0.001716133435233496
1782952649376920600,6.386920654296875,0.01718728164434433,-0.011068725698813795,-0.006194119099504314
1782952649386847700,6.39684765625,0.005518471160531044,-0.020926650835759935,0.0022543730643577874
1782952649396775700,6.406775634765625,0.01853869625329971,-0.007947232677415013,-0.017878277849499136
1782952649406702800,6.416702880859375,0.01539689109623432,-0.009618746086210012,-0.021361854782095176
1782952649416630800,6.426630859375,0.026319851648807523,-0.0043661958528682585,-0.012984687988506629
1782952649426558700,6.436558837890625,0.027813305076956747,-0.0071070007272996,-0.013146637084567918
1782952649436486000,6.44648583984375,0.023320669832825658,-0.01569156319387257,-0.0022733243599999697
1782952649446413800,6.456413818359375,0.0233189162671566,-0.019021730529889463,-0.015519645259645767
1782952649456340700,6.4663408203125,0.036786885127425194,-0.01195360050825402,0.003495157772535458
1782952649466268700,6.4762685546875,0.026609189984202385,-0.009785846281424164,-0.01644403922872152
1782952649476196900,6.48619677734375,0.02406125906705856,-0.007438296774588525,-0.005939929709304124
1782952649486123800,6.496123779296875,0.017478373545408248,-0.008371138911601156,0.0014152370927855372
1782952649496051700,6.5060517578125,0.01807692396044731,-0.005982618073560297,-0.009819579587667248
1782952649505980000,6.51597998046875,0.02166705740690231,-0.010761504646856337,-0.013277729818061924
1782952649515906600,6.525906494140625,0.01403144796192646,-0.02036877949098125,-0.00032225422430783506
1782952649525834800,6.535834716796875,0.04171206656992435,-0.012186678611766547,0.006123168188566341
1782952649535761700,6.54576171875,0.020014029502868652,-0.01460027909213677,-0.01305034623639658
1782952649545689600,6.555689697265625,0.010583937856554985,-0.013578680959437041,-0.020720086279837412
1782952649555617500,6.565617431640625,0.0044470425367355345,-0.0015324337316676973,-0.037536968275788236
1782952649565544700,6.575544677734375,0.023446926560997963,-0.010334383542276919,-0.0040618471780093385
1782952649575472600,6.58547265625,0.01985328598320484,-0.01291970559405163,-0.00839010847355239
1782952649585400600,6.595400634765625,0.018507132071256635,0.0008358297696337103,-0.010758956496743485
1782952649595327500,6.605327392578125,0.010430208599567413,-0.013963844352122395,-0.0120483113206923
1782952649605255700,6.615255615234375,0.01850830111503601,-0.0003042801761999726,-0.015169260919396764
1782952649615182600,6.6251826171875,0.024347090271115302,-0.0010033683562651276,-0.02161793016870506
1782952649625110500,6.635110595703125,0.020004677152633665,-0.005231635309476405,-0.022499891501851377
1782952649635038700,6.645038818359375,0.01940846482515335,0.005186334863025695,-0.0141556040645577
1782952649644965600,6.654965576171875,0.026739538365602493,-0.0028674451950937508,-0.024541334201581774
1782952649654893600,6.6648935546875,0.020004677152633665,0.0003201353324577212,-0.006524360267445445
1782952649664821500,6.674821533203125,0.03017769612073898,-0.007210735096409917,-0.0061660072498722
1782952649674748700,6.684748779296875,0.010725392153859137,-0.006614102643821388,-0.003845318350498564
1782952649684676600,6.694676513671875,0.02074994256198406,-0.011959427460841833,-0.015533477422175928
1782952649694603800,6.704603759765625,0.014162380865216255,0.0029421361328102647,-0.011014123134477995
1782952649704531700,6.71453173828125,0.025387539234757422,-0.009531396596319974,-0.015972973951138555
1782952649714459600,6.724459716796875,0.02628653390109539,-0.0008864639783278107,-0.010095569817721844
1782952649724386800,6.73438671875,0.007436287480592727,-0.0040178938718512655,-0.008275473684514872
1782952649734314800,6.744314697265625,0.01432253986299038,-0.011730587141029536,-0.013775272110616788
1782952649744241700,6.75424169921875,0.023297288957238194,-0.009511888178251684,-0.0062538681964157145
1782952649754169600,6.764169677734375,0.01282324121594429,-0.0033807467457838353,-0.01725672101820819
1782952649764097800,6.774097900390625,0.02165185983777046,-0.01145451014600694,-0.008395981091912835
1782952649774024700,6.784024658203125,0.014467501291632651,-0.018439017004799097,-0.02296256797700189
1782952649783952600,6.79395263671875,0.02643500246107578,-0.0054614802762866016,-0.007599939909973181
1782952649793880600,6.803880615234375,0.02448912909030914,-0.01821598537126556,-0.005001840575016104
1782952649803807700,6.813807861328125,0.015063129097223281,-0.017798289682157336,-0.00020707601257599888
1782952649813735700,6.823735595703125,0.015063129097223281,-0.0050782348460517825,-0.005727574733411893
1782952649823662800,6.833662841796875,0.020449498310685158,-0.007612776558659971,-0.007457850858429447
1782952649833590800,6.8435908203125,0.0217938986569643,0.0056273748951032754,-0.00014963760375976562
1782952649843518700,6.853518798828125,0.026134558209776875,0.0033518129122443495,-0.007084058243129402
1782952649853446000,6.86344580078125,0.027030045744776725,-0.0053949726450257,-0.0037939489228650926
1782952649863373800,6.873373779296875,0.027777064719796178,-0.01985679311454296,-0.015454808995663188
1782952649873301800,6.8833017578125,0.007873509854078293,-0.01591043010894209,-0.008988704554364084
1782952649883228700,6.893228759765625,0.03361000865697861,-0.014530830585118382,-0.009035146645130589
1782952649893156900,6.903156982421875,0.024929858595132828,-0.0025533925435505807,-0.001411401167884469
1782952649903083800,6.913083740234375,0.0078688336789608,-0.01773430280154571,-0.007569672635872848
1782952649913011700,6.92301171875,0.011907295414805412,-0.0064350928151048715,0.000004393047327175736
1782952649922940000,6.93293994140625,0.023133622828125953,-0.009640647390764206,0.0006596146862022579
1782952649932866600,6.942866455078125,0.03615501696467399,-0.0046419988532550634,-0.004060952128865756
1782952649942794800,6.952794677734375,0.029720600003004072,-0.009576916238479316,-0.0077958963069133455
1782952649952721700,6.9627216796875,0.03615560148656368,-0.012109832249581813,-0.017770209798566066
1782952649962649600,6.972649658203125,0.021188918501138687,0.0011714914647862314,-0.012639911405136808
1782952649972577500,6.98257763671875,0.02552665544450283,-0.019870072721224277,-0.012487967679859139
1782952649982504700,6.992504638671875,0.01894318540096283,-0.008355210690107195,-0.0070460734534543
1782952649992432600,7.0024326171875,0.02806932566463947,-0.013707129644695669,-0.01497157835625112
1782952650002360600,7.012360595703125,0.03001169190406799,-0.011821334164403379,-0.019184597507980652
1782952650012287700,7.022287841796875,0.026567688930034635,-0.012912819195538758,0.0001463222686666995
1782952650022215700,7.032215576171875,0.017891045999526976,-0.010477299144305289,0.007696481919893994
1782952650032142600,7.042142578125,0.018341712376475333,-0.0009618855684064328,-0.006860378155624494
1782952650042070500,7.052070556640625,0.02013911718726158,-0.00777364794248715,-0.022261781030194834
1782952650051998700,7.061998779296875,0.03166530432999134,-0.010618424648046493,0.0005909379307413473
1782952650061926000,7.07192578125,0.025231471890211105,-0.0042308607690967615,-0.004664790640375577
1782952650071853800,7.081853759765625,0.012512275570631027,-0.015015015639178455,-0.017577084679529068
1782952650081781800,7.09178173828125,0.03225800952613354,-0.0019189853638410567,-0.00665227466316428
1782952650091709000,7.101708984375,0.013550386446714401,-0.013788469518907368,-0.002929125954187475
1782952650101636900,7.111636962890625,0.0213321263641119,-0.016055756863765418,-0.012915988400159404
1782952650111564000,7.12156396484375,0.018644494715332985,0.001095960276853293,-0.023824007111927493
1782952650121492000,7.131491943359375,0.02792085710465908,-0.0013923859401606023,-0.019024191915034315
1782952650131420000,7.141419921875,0.030015783557295797,-0.009302209216635673,-0.013678383040823973
1782952650141346800,7.151346923828125,0.027922610670328137,-0.010559004344698041,-0.026079928245977498
1782952650151275000,7.16127490234375,0.022386603853106497,-0.006837718799244612,0.0014644693622598423
1782952650161202000,7.171201904296875,0.01670095943212509,-0.006241506471764296,0.0022686892840778454
1782952650171129900,7.1811298828125,0.023879472759366034,-0.007618402581848204,0.01280074168976862
1782952650181058000,7.19105810546875,0.023728666111826894,-0.008776285646390169,-0.014292112758685834
1782952650190985000,7.20098486328125,0.021332710886001586,-0.011413575347419828,-0.0009577391162514686
1782952650200913000,7.210912841796875,0.01759118627011776,0.0070372416930273175,-0.00959190374505706
1782952650210840800,7.2208408203125,0.01968260559141636,-0.0018067023620940744,-0.011945321303675881
1782952650220768000,7.23076806640625,0.02746200742125511,0.00022509572645649313,-0.014764621074683964
1782952650230696000,7.240696044921875,0.029556349352002142,-0.0012448854945600032,-0.014875926828896626
1782952650240623000,7.250623046875,0.015641221246123313,-0.011891549856401978,-0.014114650999661534
1782952650250551000,7.260551025390625,0.009355272844433785,-0.006294752762652933,-0.0016055811662692575
1782952650260479000,7.27047900390625,0.021471827095746993,-0.007350472360663116,-0.01862130106941331
1782952650270406000,7.280406005859375,0.024615385818481442,-0.0027608247491531074,-0.006103381209284998
1782952650280334000,7.290333984375,0.012643208473920822,-0.004217288901470601,-0.0017475423536496236
1782952650290261000,7.300260986328125,0.01593289766907692,-0.00997437285715714,0.007539012636127882
1782952650300189000,7.31018896484375,0.02460895607769489,-0.0007457220670767128,-0.014310287736193276
1782952650310117000,7.3201171875,0.022364392021298408,-0.006698931383062154,-0.017674763767188413
1782952650320044000,7.3300439453125,0.017872341299057005,0.0003064538669772446,-0.001656603534030728
1782952650329972000,7.339971923828125,0.01832300767600536,0.0025086766189895567,-0.005818682516389526
1782952650339900000,7.34989990234375,0.01607961266338825,-0.012784078249335288,-0.017141757435607724
1782952650349827000,7.3598271484375,0.013982348123192786,-0.014211645100731403,0.00017033789849374442
1782952650359755000,7.369755126953125,0.027896307185292242,0.002762578314822167,-0.006821288254251703
1782952650369682200,7.37968212890625,0.018465046495199203,-0.003989818554837256,-0.021066415499476715
1782952650379610000,7.389610107421875,0.027439211067557333,-0.009679463297501205,-0.005467882617609575
1782952650389538000,7.3995380859375,0.020109306570887563,-0.007227686231210827,-0.011618112343037501
1782952650399465000,7.40946484375,0.019363456639647482,-0.0007518047479912638,-0.01999702356914058
1782952650409393200,7.41939306640625,0.02385258475244045,0.002539272686652839,-0.0002383798997150734
1782952650419321000,7.429321044921875,0.014723521879315376,-0.0007550378846935928,-0.005203240332053974
1782952650429248000,7.439248046875,0.01262801090478897,0.002514686234667897,-0.006295003924402408
1782952650439176200,7.44917626953125,0.015021043521165846,0.009138926680013537,-0.00748557454899419
1782952650449102800,7.459102783203125,0.017559037566184998,-0.00951956002805382,-0.014556056357920169
1782952650459030800,7.46903076171875,0.01845335605740547,-0.003127977561112493,-0.008479581421869806
1782952650468959000,7.478958984375,0.02414016952216625,-0.008050747850816697,-0.012974938346049748
1782952650478886000,7.488885986328125,0.021743629774451254,0.002057480519078672,-0.012194871051376685
1782952650488813800,7.498813720703125,0.021740122643113136,-0.0038118133731186387,-0.005104031441011465
1782952650498741000,7.508740966796875,0.011265490379929542,-0.010544263433292508,-0.013004488667519761
1782952650508669000,7.5186689453125,0.021290040788054465,-0.007383497847430407,-0.008282378349336796
1782952650518596900,7.528596923828125,0.019795418316125867,0.0010831555942073464,-0.01416263202696573
1782952650528524000,7.53852392578125,0.01845160249173641,-0.0014014460294507443,0.003703927985276095
1782952650538452000,7.548451904296875,0.018149989196658133,-0.0025053704170510172,0.0030385685448767615
1782952650548380000,7.5583798828125,0.03715162678658962,-0.00020021701352670787,-0.03720161254131235
1782952650558306800,7.568306884765625,0.01829611966907978,-0.014830672048218547,-0.008453341868915595
1782952650568235000,7.578235107421875,0.029372809478640554,0.0004295870563015342,-0.012627015390945597
1782952650578162000,7.588161865234375,0.02697743877470493,0.0028919951144605873,-0.026176433723280206
1782952650588089900,7.59808984375,0.027131168031692503,-0.013996668909490109,-0.007656172742391936
1782952650598018000,7.60801806640625,0.021300562182068824,0.0006429740786552428,-0.007206652576336636
1782952650607945000,7.617945068359375,0.014863807132840155,-0.007534487158060073,-0.018118274317565373
1782952650617873000,7.627872802734375,0.011416881549358368,-0.012611626025568694,-0.011445102996844798
1782952650627800000,7.637800048828125,0.027575989189743993,-0.009083671095129102,-0.005959976983489468
1782952650637728000,7.64772802734375,0.007224690556526183,-0.00591782747535035,-0.004452070338302291
1782952650647656000,7.657656005859375,0.0230880301207304,-0.003740282506868243,0.004665489326696842
1782952650657583000,7.6675830078125,0.034460488006472584,-0.01904655444389209,-0.015590797099983318
1782952650667511000,7.677510986328125,0.02607785958647728,-0.0068411163327284155,-0.01269138129747007
1782952650677439000,7.68743896484375,0.018745032480359077,-0.005940623829048127,-0.0018446825851919128
1782952650687366000,7.697365966796875,0.03041384296417236,0.003908917072042823,-0.010123005813919008
1782952650697294000,7.707294189453125,0.014251228192448616,-0.011442180387396365,-0.023863635869417338
1782952650707221000,7.717220947265625,0.024728198543190954,0.013768413111567497,0.0024959358684252947
1782952650717149000,7.72714892578125,0.025474632996320724,-0.013861845282372087,-0.0026729866354959085
1782952650727077000,7.7370771484375,0.025168343526124952,-0.0042073702956549825,-0.01557986014743801
1782952650737004000,7.747004150390625,0.010956862822175025,-0.006417648489959538,-0.004680225671525113
1782952650746932000,7.756931884765625,0.02442424716055393,0.004633651150017976,-0.0018349923082394523
1782952650756859100,7.766859130859375,0.021579963645339012,-0.0004220796032808721,-0.022674631580826825
1782952650766787000,7.776787109375,0.019331892457604406,-0.018401205745059997,-0.00989464041814208
1782952650776715000,7.786715087890625,0.022024784803390502,-0.02135075799934566,-0.004731540300231427
1782952650786642200,7.79664208984375,0.031152678632736203,-0.00623964330824092,-0.0054563931092154235
1782952650796570000,7.806570068359375,0.03369651789665222,0.012019085226207971,-0.005658153625857085
1782952650806498000,7.816498046875,0.019778467181324956,-0.014401413785479962,-0.0050170153112616385
1782952650816425000,7.826425048828125,0.01588847400546074,0.0011490604372695087,-0.0069065782177960494
1782952650826353200,7.836353271484375,0.020978490620851515,-0.0028177791007794437,-0.004336627265089191
1782952650836279800,7.84627978515625,0.03400105380117893,0.0006828676976263523,-0.008177004578988999
1782952650846207700,7.856207763671875,0.010809563305974006,-0.012429784918949006,-0.015534920460591092
1782952650856136200,7.86613623046875,0.010958031865954398,-0.002070486131124198,-0.011843148703989573
1782952650866062800,7.876062744140625,0.025619594424962994,-0.011402231969498097,-0.0012377799003385006
1782952650875990800,7.88599072265625,0.023372107759118077,-0.0032437311615794895,-0.007288549572974443
1782952650885918000,7.89591796875,0.027413492104411123,0.012002773412223904,-0.014274376172595657
1782952650895846000,7.905845947265625,0.02277472638785839,0.013215966860577463,-0.005534285217593424
1782952650905773800,7.91577392578125,0.02591828511059284,-0.006268047418817878,-0.015954762441013008
1782952650915701000,7.925700927734375,0.019929858350753782,-0.00721082642795518,0.004848549709445797
1782952650925629000,7.93562890625,0.015290508112311363,-0.0077503949310630555,-0.01513892058006022
1782952650935556900,7.945556884765625,0.01379530111849308,-0.019436302680149672,-0.013491463900287635
1782952650945484000,7.955484130859375,0.020679215413331984,-0.008214176517911256,-0.009583825469878501
1782952650955412000,7.965411865234375,0.014840426257252692,-0.006319942002836615,-0.018076768696820362
1782952650965339000,7.9753388671875,0.02651391291618347,-0.0031006328964605927,-0.006301237302366644
1782952650975266800,7.985266845703125,0.02322247015535831,-0.0002671813025139272,-0.003462675708462484
1782952650985195000,7.995195068359375,0.027709260180592537,-0.0006394121483899653,-0.016443244644277728
1782952650995122000,8.005121826171875,0.02321779398024082,0.005889606027863919,0.0010678666935302317
1782952651005049900,8.0150498046875,0.0239636439114809,-0.01065904891937971,0.003268641840550117
1782952651014977000,8.02497705078125,0.01498480316400528,-0.02230100792888552,-0.012985920964367686
1782952651024905000,8.034905029296874,0.022912673553824422,-0.005437313949409872,0.007774401427735574
1782952651034833000,8.0448330078125,0.033382045120000835,-0.01501344473659992,-0.0024829713555751367
1782952651044760000,8.054760009765625,0.03323065395057201,-0.012004380847420542,-0.02706389778202865
1782952651054688000,8.06468798828125,0.04131576072871685,-0.009754062903672455,-0.014340481945057399
1782952651064615400,8.074615478515625,0.018425299006700514,-0.011998243367578834,0.00031248631554190066
1782952651074542600,8.08454248046875,0.018875380861759185,-0.009807455325033515,-0.007946844518347642
1782952651084470500,8.094470458984375,0.03054594491124153,-0.006340984790865332,-0.006646278747217729
1782952651094397400,8.1043974609375,0.01633154159784317,-0.004435571294650435,-0.004440699560916982
1782952651104325600,8.11432568359375,0.006006546938419342,-0.0049012891102582215,-0.010943085458572022
1782952651114253600,8.124253662109375,0.014232523491978644,-0.004005856374185532,-0.0029476251586806027
1782952651124180500,8.134180419921876,0.02485913144648075,-0.019002112513966857,0.003934631468611769
1782952651134108400,8.1441083984375,0.011541969233751297,-0.007369049196969717,-0.022932040407997553
1782952651144036600,8.15403662109375,0.020371172377467155,0.002620265500992536,-0.02311047484797891
1782952651153963500,8.163963623046875,0.017675357422232627,-0.0035807810962200162,0.00009905819399282335
1782952651163891500,8.173891357421875,0.03263911779820919,-0.007638385923951864,-0.013437423024955205
1782952651173818600,8.183818603515626,0.022017770540714264,-0.007877437110524623,-0.019744665376422926
1782952651183746600,8.19374658203125,0.03413958548903465,-0.008526731332112103,-0.02443133448846638
1782952651193674500,8.203674560546874,0.024415479332208632,0.006483169740531593,-0.009102508226339704
1782952651203601700,8.2136015625,0.007352700850367546,-0.009387585945148021,-0.018968671468668617
1782952651213529600,8.223529541015624,0.022764789515733717,-0.004573573259543627,-0.004568897084426134
1782952651223456500,8.23345654296875,0.03204641260206699,-0.004113298804033548,-0.002177316639618948
1782952651233384700,8.243384765625,0.030702012255787847,0.00014176482455804942,-0.016512245626724324
1782952651243312600,8.253312744140626,0.009006897798180579,-0.012948511563427745,-0.006667531597800552
1782952651253239600,8.263239501953125,0.019779051703214645,0.0019173413960263132,-0.003183310777810402
1782952651263167700,8.273167724609374,0.01259703124463558,-0.00883037218749523,-0.009456856355653144
1782952651273095700,8.283095703125,0.01663432393670082,-0.002734009807463735,-0.010273127474868669
1782952651283022600,8.293022705078124,0.017981646892428396,-0.007951890586223453,-0.01076618082197383
1782952651292950500,8.302950439453125,0.013635726642608642,-0.0025139007833786305,-0.012004211884061805
1782952651302877700,8.312877685546875,0.031143910804390905,-0.007644724333193153,-0.016302406834904103
1782952651312805600,8.3228056640625,0.019772621962428093,-0.009201507054828107,0.0011171354956226423
1782952651322733600,8.332733642578125,0.021565350598096847,-0.003278784208651632,-0.0035764748138608408
1782952651332660700,8.34266064453125,0.01901975776851177,-0.010260660718940199,-0.013972584781004115
1782952651342588700,8.352588623046875,0.014976619857549667,-0.0043171873456798494,-0.01644123535028193
1782952651352515600,8.362515625,0.02395721417069435,-0.007071637152973562,-0.012507987554580904
1782952651362443500,8.372443603515626,0.01872048256099224,-0.0035127938939258454,-0.015679333899961782
1782952651372371700,8.382371826171875,0.01887245825231075,-0.0027027561526745555,-0.0049518959194887425
1782952651382298400,8.39229833984375,0.023806992045044897,-0.019193488633912056,-0.010192714615841396
1782952651392226600,8.4022265625,0.016771686580777167,0.0025877514708787202,-0.013470343480445443
1782952651402154500,8.412154541015624,0.02455459554195404,-0.006605645342729985,-0.014244309827894902
1782952651412081400,8.422081298828125,0.03157937961220741,0.0012877930545248091,-0.01671217037930619
1782952651422009300,8.43200927734375,0.024388006803393363,-0.005462996379937976,-0.009670713735464959
1782952651431936500,8.4419365234375,0.022142273703217506,-0.01154726646337658,-0.018461959488969296
1782952651441864400,8.451864501953125,0.032166824111342425,-0.013187160891201347,-0.004507348756073042
1782952651451792400,8.46179248046875,0.019894787037372588,-0.010626534889265894,-0.009453294425387867
1782952651461719600,8.471719482421875,0.02378594925701618,0.0013206724108196794,-0.02024169164574705
1782952651471647500,8.4816474609375,0.022145780834555626,-0.010830131169967352,-0.0014855441163294017
1782952651481574700,8.49157470703125,0.016460136413574217,-0.00592248538415879,-0.015580211773887276
1782952651491502600,8.501502685546875,0.016462474501132963,0.011652882262319326,-0.012261319317133165
1782952651501430500,8.511430419921876,0.02678746916055679,-0.026022001213394104,-0.010653039303701371
1782952651511357400,8.521357421875,0.02124970877766609,-0.007433748463634401,-0.0009179733614437281
1782952651521285600,8.53128564453125,0.02110240926146507,-0.0043811194273643194,0.004843471675529144
1782952651531212500,8.541212646484375,0.015868015739321707,0.0009109956313855946,-0.012070856512640601
1782952651541140500,8.551140380859374,0.026644261297583578,0.013592417223844676,-0.01848032626272179
1782952651551068700,8.561068603515626,0.023504794228076935,-0.002652706465870142,-0.009080912882462143
1782952651560995600,8.57099560546875,0.022306524354219436,-0.0032334472295828163,-0.0018166255344869567
1782952651570923500,8.580923583984376,0.012881108883023261,-0.0019372882055118678,-0.00110439474505838
1782952651580851500,8.5908515625,0.020516133806109428,-0.012995145450439304,-0.006703205699380487
1782952651590778600,8.600778564453124,0.018569675913453102,-0.024806323547009377,-0.013866599089303053
1782952651600706600,8.61070654296875,0.025157237610220907,-0.00459823277676478,0.0042222436378011475
1782952651610633700,8.6206337890625,0.033090368697047234,0.0034066849046386774,-0.01359078238918446
1782952651620561700,8.630561767578126,0.03084697368443012,0.002162493529822677,-0.0011925022867741062
1782952651630489600,8.640489501953125,0.01049567505121231,-0.003029102030210197,-0.018921804686216636
1782952651640416500,8.65041650390625,0.02201484793126583,-0.01026418611658737,-0.025243993445066733
1782952651650344700,8.6603447265625,0.018568506869673727,-0.003522584635578096,0.006960988985886797
1782952651660271600,8.670271728515624,0.02739537192583084,-0.002602766376920044,0.00526621799909044
1782952651670199600,8.680199462890625,0.02619359492063522,-0.004685728397127241,-0.010116685670986772
1782952651680127700,8.690127685546875,0.05402268208861351,-0.003924315570574254,-0.005467868917877786
1782952651690054700,8.7000546875,-0.014509586867690086,-0.0015696422032080589,0.0009050316814798861
1782952651699982600,8.709982666015625,0.02633972539305687,0.002022829330805689,-0.00591306910184212
1782952651709910500,8.71991064453125,0.0314274039208889,-0.014420666475221514,-0.011244694187073037
1782952651719837700,8.729837646484375,0.02469429627358913,-0.009751633484568447,-0.007108005374297499
1782952651729765600,8.739765625,0.003000350859761238,0.008682141089532525,0.0007626321026822551
1782952651739692500,8.749692626953125,0.02545066759884357,-0.003013082477170974,-0.014335253214091062
1782952651749620700,8.759620849609375,0.02141220586299896,-0.00276287057576701,-0.01478714343374595
1782952651759548700,8.769548583984376,0.016327449944615362,-0.01603356329826638,-0.00431074847173877
1782952651769475600,8.7794755859375,0.030396891829371452,-0.010609181895665823,0.008629904012219048
1782952651779403500,8.789403564453124,0.022020693150162696,-0.024824918649625032,-0.011706343182339332
1782952651789330400,8.799330322265625,0.017230536264181136,0.0011248210451565682,-0.016337861740775405
1782952651799258400,8.80925830078125,0.03533668631911278,-0.003693283293675631,-0.0031260413323529065
1782952651809186600,8.8191865234375,0.025158991175889968,-0.013944993521180003,-0.01098662777277641
1782952651819113500,8.829113525390625,0.03339022842645645,-0.011734203870221971,-0.019471342027490027
1782952651829041400,8.83904150390625,0.026357261049747466,-0.006487170062214135,-0.00830850830443669
1782952651838968600,8.848968505859375,0.015582769057154654,-0.006897486162465065,-0.010187211890239268
1782952651848896500,8.858896484375,0.01887596538364887,-0.010851228756923228,-0.016582054893346503
1782952651858824400,8.868824462890625,0.026655367213487623,-0.001090060259029269,-0.012072212786087765
1782952651868751600,8.878751708984375,0.03862871360182762,-0.015112795191537588,-0.014559947081748395
1782952651878679600,8.888679443359376,-0.0034229601860046384,-0.003944171048514545,-0.0067232940727612
1782952651888607500,8.898607421875,0.03548223226964473,-0.0015463891917839646,-0.006367790599400177
1782952651898534700,8.90853466796875,0.02275952881872654,0.012629928867239505,0.0006206024166429415
1782952651908462600,8.918462646484375,0.0251531459569931,0.015340813527442513,0.002981819689227268
1782952651918389500,8.928389404296874,0.01946808605790138,-0.014942516658548264,-0.002024514397815801
1782952651928317400,8.9383173828125,0.0067465516507625575,-0.01754981308011338,-0.02042926380683202
1782952651938245600,8.94824560546875,0.02440729602575302,-0.021433687042444943,-0.01066584855292458
1782952651948172500,8.958172607421876,0.010939327165484427,-0.009464633236732333,-0.00994551665543113
1782952651958100500,8.9681005859375,0.017521628165245055,0.0013640000958926974,-0.01719885335112922
1782952651968027600,8.978027587890624,0.008845569756627081,-0.004589665877819061,-0.004213480376033112
1782952651977955600,8.98795556640625,0.02964928833246231,0.004392389740049839,0.0017598401462193577
1782952651987883500,8.997883544921875,0.026803251251578328,0.012273918503802269,-0.003960843622102402
1782952651997810700,9.007810791015626,0.023211948761343956,-0.015424674152303487,-0.0017955918796127661
1782952652007738600,9.017738525390625,0.013483166429400444,-0.018768303758092224,-0.020251486953976564
1782952652017666600,9.02766650390625,0.030387539479136465,-0.009770995772164314,-0.027250652525783514
1782952652027593700,9.03759375,0.016622633498907087,0.0026092143840156495,-0.0165797487718286
1782952652037521700,9.047521728515624,0.025603227812051772,0.00220801317198202,-0.02186633827209007
1782952652047448600,9.057448486328125,0.012738485541939735,-0.0021242804112844168,-0.008439879599143751
1782952652057376500,9.06737646484375,0.026949381723999976,-0.006186360484734177,-0.0021215313317719847
1782952652067305000,9.077304931640626,0.027993337818980217,0.005448858256731182,-0.004899617742979899
1782952652077231900,9.08723193359375,0.02380465395748615,-0.004317497872933745,-0.010269638609839603
1782952652087159800,9.097159912109374,0.02410042203366756,0.0031393757379613815,-0.01891545714382082
1782952652097087000,9.1070869140625,0.026788053682446477,-0.0010039894107729196,-0.015920682074897923
1782952652107015000,9.117014892578124,0.02424655250608921,-0.010179686170909552,-0.01837760110718664
1782952652116942800,9.12694287109375,0.019010405418276786,-0.011598065068852156,-0.01085660818493925
1782952652126870000,9.1368701171875,0.011826046872138977,0.0020351408231072125,0.007078098859800957
1782952652136798000,9.1467978515625,0.039356443354487416,0.002136756300367415,-0.0085078942009015
1782952652146724600,9.156724609375,0.03336977016031742,-0.005609419113304466,-0.0009230285624740645
1782952652156652800,9.16665283203125,0.016910802790522574,-0.0022074469164013863,0.0007248984747566282
1782952652166581000,9.1765810546875,0.03576923251748085,-0.005662263545393943,-0.01563663183597382
1782952652176507600,9.186507568359374,0.027391280272603034,-0.016486385099682956,-0.027847600072203202
1782952652186435600,9.196435546875,0.027692309045791626,-0.016243479721900076,-0.019465213680802843
1782952652196364000,9.206364013671875,0.032628011882305144,-0.014680322058405726,-0.011135712820687331
1782952652206290700,9.216290771484376,0.007939560827612876,-0.004122084898687899,-0.009115545804426074
1782952652216218600,9.226218505859375,0.024548750323057172,-0.0030848142728209494,0.007234344300860539
1782952652226145800,9.236145751953124,0.02559504450559616,-0.002603898888081312,0.006145106025738641
1782952652236073700,9.24607373046875,0.029334815555810925,0.0038379341950640082,0.0025981906665023414
1782952652246001700,9.256001708984375,0.03187748577594757,0.0071816368660889566,0.004696605984168127
1782952652255928800,9.2659287109375,0.025891981625556944,-0.006890691095497459,-0.02480191223337315
1782952652265856800,9.275856689453125,0.013023147702217101,-0.01137538049519062,-0.02459000478205271
1782952652275783700,9.28578369140625,0.02140226899087429,-0.008806589453108608,-0.019765096243098378
1782952652285712000,9.2957119140625,0.031577626046538354,-0.014047193520329892,-0.017122495612711643
1782952652295639800,9.305639892578125,0.02394844634234905,-0.004124824845045805,-0.0160022228785092
1782952652305564000,9.31556396484375,0.02663724703490734,-0.021334720179997383,-0.010867828265274874
1782952652315491800,9.325491943359374,0.04309796797037124,-0.012544588671345263,-0.01583669358587358
1782952652325419800,9.335419677734375,0.03366846084594726,0.0013092377013526856,-0.000998180724494159
1782952652335346700,9.3453466796875,0.010319733962416647,-0.013760887392237782,-0.0074082943619694554
1782952652345275000,9.35527490234375,0.018695932641625404,-0.009904887817520648,-0.0008699740678304806
1782952652355201800,9.365201904296875,0.023933833295106885,0.00266140122897923,-0.021147166285221463
1782952652365129700,9.375129638671876,0.02049041484296322,-0.012381616661977022,-0.00569194629760459
1782952652375057700,9.3850576171875,0.013756138151884078,-0.01896351580293849,-0.02266558062469121
1782952652384984800,9.39498486328125,0.031414544439315795,-0.023339685060549526,-0.026250818700320085
1782952652394912800,9.404912841796875,0.026027006182074545,-0.01915653589069843,-0.025129331256565638
1782952652404839700,9.414839599609374,0.020940496698021886,-0.014830726847145705,-0.011418836044427007
1782952652414767600,9.424767578125,0.021387655943632126,-0.023138956590369342,-0.007320716543216258
1782952652424695800,9.43469580078125,0.012108370944857597,-0.0010570895711891353,-0.003186521081626415
1782952652434622700,9.444622802734376,0.025872692403197287,-0.0036782866539433598,0.00652866654980462
1782952652444550700,9.454550537109375,0.014349427869915962,0.0011555267106741667,-0.01625730731785297
1782952652454477800,9.464477783203124,0.022128829699754715,0.009721603672485798,-0.015559073087736032
1782952652464405800,9.47440576171875,0.024522446838021277,0.002846438939683139,-0.01082748255515471
1782952652474333700,9.484333740234375,0.022424597775936125,0.004737878709472716,-0.015336242383602074
1782952652484260900,9.4942607421875,0.009109773650765419,-0.0027179171891883016,-0.012118362615909426
1782952652494188800,9.504188720703125,0.027218261793255805,-0.005943729101587087,-0.013050040275719947
1782952652504116700,9.51411669921875,0.04247779024541378,-0.013763883066922425,-0.016204851044830864
1782952652514044000,9.5240439453125,0.02571662505865097,0.0019922332631424067,-0.008362859707023017
1782952652523971800,9.533971923828124,0.01614683268070221,0.006423457176238298,0.0023900004090741276
1782952652533898800,9.543898681640625,0.03350245662927628,0.004568111633136868,0.01904770522136241
1782952652543827000,9.553826904296875,0.026920155629515646,0.009885032339580357,0.0038409435694804414
1782952652553755000,9.5637548828125,0.01869476359784603,-0.0007796791356056928,-0.022278312039887532
1782952652563681800,9.573681884765625,0.023334113836288452,-0.033254509750194845,-0.020088364247558638
1782952652573609700,9.583609619140624,0.007024199548363685,-0.019805318655632436,-0.020847087360103614
1782952652583537000,9.593536865234375,0.026478841602802276,-0.011616751503013074,-0.016913063246267845
1782952652593464800,9.60346484375,0.030820670199394225,-0.0066198565311729905,0.014769594077323563
1782952652603392800,9.613392822265626,0.015555296528339386,0.00018551263473927973,0.002177586067677475
1782952652613320000,9.62331982421875,0.02288227841556072,0.006942092489171773,0.011594452906236983
1782952652623248000,9.633247802734376,0.01689618974328041,-0.0021768873813562094,-0.006387851573317311
1782952652633174800,9.6431748046875,0.015251929667592048,-0.010031765600200741,-0.032064450582256536
1782952652643103000,9.65310302734375,0.011661211699247359,-0.028288466574344782,-0.020484797952929512
1782952652653031000,9.663031005859375,0.010608487775921821,-0.022740988515038044,-0.024447290109423918
1782952652662957800,9.672957763671874,0.02212766065597534,-0.006329020358435809,-0.00797731728842482
1782952652672888800,9.682888916015624,0.03694470603764057,0.0059674935696646565,-0.017480583768803626
1782952652682815700,9.692815673828125,0.018389058649539946,0.012713131904974579,0.013614341361285186
1782952652692743700,9.70274365234375,0.02871463783085346,-0.003614573767967522,0.008629931411682628
1782952652702672000,9.712671875,0.03395487657189369,0.02829034800417721,-0.005012243238021619
1782952652712598800,9.722598876953125,0.03305821999311447,-0.0012414148958399891,-0.007511795835639349
1782952652722526700,9.732526611328124,0.01464753403365612,-0.013374828950408845,-0.029197936968924476
1782952652732454000,9.742453857421875,0.02332417696416378,-0.028556762121710925,-0.011533142039901577
1782952652742381800,9.7523818359375,0.02033084036707878,-0.005799735787324607,-0.011411611719196661
1782952652752309800,9.762309814453126,0.021975100442767143,-0.005012366535607725,-0.0022808089801343158
1782952652762237000,9.77223681640625,0.02556581841111183,0.004123966328520328,-0.01381427981359884
1782952652772164900,9.782164794921876,0.0349959100574255,0.017477807289827615,-0.012245372829330152
1782952652782091800,9.792091796875,0.022727380114793777,0.000936604996677488,-0.006328901627426967
1782952652792020000,9.80202001953125,0.022429273951053617,-0.004926569681987166,-0.023175128448870964
1782952652801948000,9.811947998046875,0.027365561309456825,-0.006047061611898243,-0.021637443153350613
1782952652811874800,9.821874755859374,0.01988251207768917,-0.016035426461789758,-0.016668819861346856
1782952652821802800,9.831802734375,0.02227671373784542,-0.010926741678547113,-0.015118183752708136
1782952652831730000,9.84172998046875,0.01539163039922714,0.010684658284671604,-0.01242478451684583
1782952652841657900,9.851657958984376,0.014344751694798468,0.003480097200721502,-0.012590067214309237
1782952652851585800,9.861585693359375,0.022875848674774168,-0.004089205542393028,-0.005661089935037307
1782952652861513000,9.871512939453124,0.03693944534063339,-0.0049307161341421305,-0.012926802055118605
1782952652871441000,9.88144091796875,0.02885843021571636,-0.0010147847994230687,-0.008382025631796568
1782952652881368800,9.891368896484375,0.016888590958714485,-0.014823347258288412,-0.033278644111030736
1782952652891296000,9.9012958984375,0.011356675794720649,-0.012282010478712618,-0.020534938971279188
1782952652901224000,9.911223876953125,0.01808744535446167,-0.003971387849003076,-0.027752820761105974
1782952652911150600,9.921150634765626,0.015392214921116828,0.005833144866582006,-0.008062004463770426
1782952652921079000,9.9310791015625,0.010001754054427147,-0.00048031259654089805,-0.00328709081269335
1782952652931007000,9.941007080078125,0.00910451295375824,-0.0037748971625231205,-0.010897985941520891
1782952652940933600,9.95093359375,0.02361293077766895,0.003904368761088699,-0.030574444919941015
1782952652950861600,9.960861572265625,0.032739071041345595,-0.014747761271428315,-0.012786649232334456
1782952652960788700,9.970788818359376,0.018971242451667786,-0.025133546207379547,-0.007810614385432563
1782952652970716700,9.980716552734375,0.031245033091306683,-0.005066928000748157,-0.008143846661481075
1782952652980644600,9.99064453125,0.029449966368079183,-0.01268923957273364,0.009146762926597147
1782952652990571800,10.00057177734375,0.017628011149168014,-0.011046860926877707,0.005793073151097633
1782952653000499700,10.010499755859374,0.020326748713850974,-0.0010434629046358168,-0.006469118382292799
1782952653010427000,10.020427001953125,0.02227496017217636,-0.01848738619117066,0.00021297603040002286
1782952653020354800,10.030354736328125,0.020626023921370504,0.0024254005160182714,-0.0045447809898993
1782952653030282800,10.04028271484375,0.03154313925504684,-0.020430227354634553,0.00037406660993583496
1782952653040209700,10.050209716796875,0.015678630647063256,-0.014366342472098767,-0.018077357785287313
1782952653050137900,10.060137939453124,0.01642389605641365,-0.0011022438871674239,-0.007508941724849864
1782952653060064800,10.070064697265625,0.025402736803889273,-0.00221179429795593,-0.02202019539324101
1782952653069992400,10.079992431640624,0.01672317126393318,0.0015566548574715853,-0.0034123748599085954
1782952653079920600,10.089920654296876,0.01836976942718029,-0.00934654154870659,-0.0122533780392725
1782952653089847600,10.09984765625,0.016719664132595062,0.0019836480978876352,-0.0075652384893503035
1782952653099775500,10.109775390625,0.025703765577077865,-0.005696311945468187,-0.007020505187357776
1782952653109703400,10.119703369140625,0.024054244804382324,-0.009182784088049083,-0.012614781530457548
1782952653119630600,10.129630615234374,0.026747721672058102,0.00399970062803477,0.003170419330196455
1782952653129558500,10.13955859375,0.019265256962180136,0.009095854723267257,-0.0037649648569757117
1782952653139485700,10.149485595703124,0.011333294919133185,-0.002524732704646885,-0.005377596818539314
1782952653149413600,10.15941357421875,0.023006781578063965,-0.008847195458132773,-0.015151446701493113
1782952653159341600,10.169341552734375,0.017169161465764044,-0.0018747260970063506,-0.006765576011640951
1782952653169268700,10.179268798828126,0.021508651974797247,-0.005881075661536306,-0.010677639455418102
1782952653179196700,10.18919677734375,0.03512450487315655,0.0016487718540243803,-0.027069190445076673
1782952653189123600,10.19912353515625,0.017467267629504204,0.01004424148928374,-0.019668019943637774
1782952653199051500,10.209051513671875,0.028389059138298034,-0.006171674372255802,-0.009264302058774047
1782952653208979700,10.218979736328125,0.027642040163278578,-0.008446341305971146,-0.02595355278679635
1782952653218906600,10.22890673828125,0.030185294905304905,-0.008558770438190548,-0.009596538820979186
1782952653228834600,10.23883447265625,0.020458266139030457,0.003248553467169404,-0.002390767594054341
1782952653238761700,10.24876171875,0.03811374981701374,0.010326876089256256,0.0042917012779740615
1782952653248689700,10.258689697265625,0.03197977710664272,0.0007320771342143416,-0.008371093245828524
1782952653258617600,10.26861767578125,0.009837503403425216,-0.0019424210383556782,-0.006210339581943117
1782952653268544800,10.278544677734375,0.023151743006706235,-0.013201134617626667,-0.008314773648441768
1782952653278472700,10.28847265625,0.03272504251599312,-0.004261036711651831,-0.008962355403555557
1782952653288399400,10.2983994140625,0.02330021156668663,-0.012297134982608258,-0.016699014070210978
1782952653298327600,10.30832763671875,0.025243162328004835,-0.014025895003974437,-0.014169888318236916
1782952653308255700,10.318255859375,0.01970774003267288,0.00286892476612702,-0.022662096326239407
1782952653318182400,10.328182373046875,0.020604981133341787,-0.006531666791066527,-0.004501489837444387
1782952653328110300,10.3381103515625,0.010130348870158195,-0.008769417514186351,-0.009717101027304305
1782952653338037500,10.34803759765625,0.02074994256198406,-0.0075507259068079285,0.0025944871723419054
1782952653347965400,10.35796533203125,0.03182254071831703,0.00024485987285152077,-0.01629095842570532
1782952653357893400,10.367893310546876,0.018204349732398987,-0.010620616605132818,0.005365015898179263
1782952653367820500,10.377820556640625,0.01939852795302868,-0.007988989459909498,-0.004691468584747054
1782952653377748500,10.38774853515625,0.02373451133072376,0.0054312678011134265,-0.023051881095115093
1782952653387676400,10.397676513671875,0.026426819154620168,0.0122015656536445,-0.026535841620201242
1782952653397603600,10.407603515625,0.015500935992598533,-0.0043477468807250255,-0.008194503703061492
1782952653407531500,10.417531494140626,0.025673370438814163,-0.00783865773640573,-0.017902951066452077
1782952653417458400,10.42745849609375,0.031363106513023375,0.0008815868738107382,0.0033621562097454444
1782952653427386600,10.43738671875,0.023429975426197052,-0.009854819864407182,0.003378486290038563
1782952653437314600,10.447314453125,0.019835165804624556,-0.003460680114198476,0.002394544153450988
1782952653447241500,10.457241455078124,0.018185645031929015,-0.001856076195463538,-0.014520537519967182
1782952653457169400,10.46716943359375,0.017884616258740424,0.009575582797918468,-0.02641130649165716
1782952653467096600,10.4770966796875,0.017733225089311598,0.0006349003700539469,-0.00444871847059112
1782952653477024500,10.4870244140625,0.03703355336487293,0.007905110568739474,-0.009314794703572988
1782952653486952400,10.496952392578125,0.02655658301413059,-0.0016236374127678573,-0.013017549078492447
1782952653496879600,10.506879638671874,0.02835515686869621,0.00144833564478904,-0.008748872483079321
1782952653506807600,10.5168076171875,0.021474749705195424,-0.016468630247283726,-0.006200685837608762
1782952653516734700,10.526734619140624,0.01938274586200714,0.0016880992174148558,-0.014328659076523035
1782952653526662700,10.53666259765625,0.02416939561665058,0.005788374143093824,0.0023213921522721647
1782952653536590600,10.546590576171875,0.012500000610947607,0.004240962038002908,0.011728399750520474
1782952653546517500,10.556517578125,0.018931494963169097,0.005671652428247034,-0.012447320575639605
1782952653556445700,10.56644580078125,0.03150105367898941,0.002987600976042449,0.00241283329539001
1782952653566372600,10.57637255859375,0.01953004537820816,-0.005839921667240559,-0.004484050078876316
1782952653576300500,10.586300537109375,0.03045651306211948,0.009793463332299142,-0.010663323235698043
1782952653586228700,10.596228759765625,0.032252164307236666,0.012470628385990857,-0.01175908714972902
1782952653596155600,10.60615576171875,0.017585341051220893,0.014496763918735086,-0.0322742848074995
1782952653606083600,10.61608349609375,0.006357260072231292,-0.007453731805738061,-0.026402200736594383
1782952653616010800,10.6260107421875,0.017279051581025124,-0.021887842284422365,-0.03199492444342468
1782952653625938700,10.635938720703125,0.02416238135397434,-0.00812461680462584,-0.018565625359420662
1782952653635866600,10.64586669921875,0.016828385204076767,0.011380805588979274,-0.021239799305004997
1782952653645793800,10.655793701171875,0.0193757315993309,0.0054363641013391315,-0.009659411456738598
1782952653655721700,10.6657216796875,0.03328910613954067,0.01632039914932102,-0.007818838791083544
1782952653665648400,10.6756484375,0.03403846320211887,0.007906973732262849,0.0010429879806004463
1782952653675576600,10.68557666015625,0.027158640560507773,-0.003742036072537303,-0.0036349315694067623
1782952653685504800,10.6955048828125,0.000526069700717926,-0.010548720412701367,-0.027496562711405565
1782952653695431400,10.705431396484375,0.028062311401963233,-0.02199311102349311,-0.020919417377375064
1782952653705359400,10.715359375,0.027615736678242683,-0.004857449968531728,-0.0076840699628926805
1782952653715286500,10.72528662109375,0.03150865246355533,0.00644932226985693,-0.025603437874605877
1782952653725214500,10.73521435546875,0.022082652470469474,-0.000028988632466644047,0.008636703645763919
1782952653735142400,10.745142333984376,0.024776129338145256,0.009381832057796418,0.005677424581907689
1782952653745069600,10.755069580078125,0.027020108872652052,0.005634389157779514,-0.00471921054162085
1782952653754997500,10.76499755859375,0.013104980766773223,-0.006678217388596385,-0.006535242421063594
1782952653764925400,10.774925537109375,0.02014087075293064,-0.013652312451228499,-0.006925963338278234
1782952653774852600,10.7848525390625,0.0249310276389122,-0.010549122271500528,-0.02376613487827126
1782952653784780500,10.794780517578126,0.013705869269371031,-0.015883852629270404,-0.019532442831271327
1782952653794707500,10.80470751953125,0.01385667591691017,-0.009608389088977128,-0.01508286584415473
1782952653804635600,10.8146357421875,0.016406944921612737,-0.006383253030013292,-0.0023644001769367604
1782952653814562600,10.8245625,0.016254969230294226,0.0021878654330968854,0.0009825767299858853
1782952653824490500,10.834490478515624,0.01790215191543102,0.005997377251274884,-0.007190007402212359
1782952653834418400,10.84441845703125,0.030921207964420317,0.0010155702507123352,-0.01131854944115039
1782952653844345600,10.854345703125,0.019396189865469933,0.006642287558689713,-0.013869708928419277
1782952653854273500,10.8642734375,0.007124737313389778,0.007595734092313796,-0.002017682798230089
1782952653864201500,10.874201416015625,0.012062778237462043,-0.002436415100377053,-0.006367539437650702
1782952653874128600,10.884128662109376,0.017599954098463058,0.0076986464775167405,-0.021860465653729625
1782952653884056600,10.894056640625,0.01834872663915157,0.00544513192968443,0.00855322204681579
1782952653893983500,10.9039833984375,0.031364860078692436,0.003723842828720808,0.007457499231980182
1782952653903911700,10.91391162109375,0.03062076371312141,-0.003457885368913412,-0.018096624174760653
1782952653913839600,10.923839599609375,0.024186931273341178,-0.002420267683174461,-0.025576791896275243
1782952653923766500,10.9337666015625,0.02418985388278961,-0.006240392226912081,-0.01203715517243836
1782952653933694700,10.94369482421875,0.02553834588229656,-0.0010828268006443976,-0.013731711530103347
1782952653943621600,10.95362158203125,0.027038813573122024,-0.0019423845057375728,-0.013058118550898506
1782952653953549600,10.963549560546875,0.024947394251823424,-0.0071659278403036295,-0.021483613431663252
1782952653963477500,10.9734775390625,0.01776712735891342,-0.013111775833740829,-0.006604398667137138
1782952653973404700,10.98340478515625,0.02674830619394779,-0.009780987443216144,0.005330762002128176
1782952653983332600,10.99333251953125,0.03483224392831325,0.0016390724439173936,-0.011408698242902755
1782952653993259800,11.003259765625,0.021366613155603408,-0.00842193751707673,-0.0032271864521550013
1782952654003187700,11.013187744140625,0.011790391036868094,-0.0014125519453547894,-0.01971611970195081
1782952654013115600,11.02311572265625,0.02555705058276653,-0.006811963303480297,-0.003236315040104091
1782952654023042600,11.03304248046875,0.027351532784104345,-0.004966189306322485,-0.00847109215473756
1782952654032970800,11.042970703125,0.019720599514245984,0.0005223799062892794,-0.01111314022927545
1782952654042897400,11.0528974609375,0.026304654079675673,-0.015329543214756994,-0.02114364088757429
1782952654052825300,11.062825439453125,0.01882160484790802,-0.008421846185531467,-0.003091472342470661
1782952654062753300,11.072753173828126,0.006551905861496925,0.00006851692525669932,0.0015004676908254623
1782952654072680000,11.082679931640625,0.026453707161545752,0.00036108839735388756,-0.01274276442483533
1782952654082607900,11.09260791015625,0.02765373060107231,0.005480751232337207,-0.009803098810324444
1782952654092535000,11.10253515625,0.012990998998284339,-0.001297967388667166,-0.016215778864221646
1782952654102463000,11.112462890625,0.011641922476887702,0.0055214485689066345,-0.022788494618306867
1782952654112391000,11.122390869140625,0.02675181332528591,0.009399787839595228,-0.014501796286879106
1782952654122318000,11.132318115234375,0.01148819321990013,-0.015129673261102289,-0.009440786570264027
1782952654132246000,11.14224609375,0.03288637055754661,-0.003143266461789608,-0.02135274446045514
1782952654142173000,11.1521728515625,0.02076397108733654,-0.013854904084932057,-0.023748046665731815
1782952654152101000,11.16210107421875,0.026898528319597242,0.008443035104032605,-0.012408102810103445
1782952654162029000,11.172029052734375,0.032737317475676535,-0.0036423750903457402,0.0062538225306430825
1782952654171956000,11.1819560546875,0.024210896670818327,-0.007799129443615675,-0.01608994682773482
1782952654181884200,11.19188427734375,0.015229717835783958,0.008144326152093708,-0.002404503858461976
1782952654191811000,11.20181103515625,0.015077742144465446,-0.004490753814298659,-0.02565785777585115
1782952654201739000,11.211739013671876,0.01687222434580326,-0.01627287021316588,-0.011129095850232988
1782952654211667000,11.2216669921875,0.030489246287941932,-0.009522975827846676,-0.007483505889493971
1782952654221594000,11.231593994140624,0.015970891591906546,-0.008812580802477895,-0.020177955926884896
1782952654231522000,11.24152197265625,0.020758125868439673,0.002011175425630063,-0.024502299099136142
1782952654241449200,11.25144921875,0.019559855994582175,-0.008865662696585059,-0.018791944928583687
1782952654251377200,11.261377197265626,0.022404139509797093,0.0036640206665731964,0.0027295162954367696
1782952654261305000,11.27130517578125,0.022554361635446548,-0.004742664482444524,0.00031485180256422607
1782952654271232300,11.281232177734376,0.020460019704699513,0.005549889212101698,-0.012903928069607353
1782952654281160200,11.29116015625,0.02868774982392788,0.009669946550484747,-0.026655056686233726
1782952654291087000,11.301087158203124,0.022999767315387724,-0.012588336481526493,-0.019105385658773594
1782952654301015000,11.31101513671875,0.022847207102179527,-0.010086418396886437,-0.005646321624168195
1782952654310943200,11.320943115234375,0.0003986439287662506,-0.0014552951085381209,-0.0039923804046818985
1782952654320870100,11.3308701171875,0.012965864557027817,-0.013825769321992993,-0.012029200194845907
1782952654330798000,11.340798095703125,-0.002354454171657562,-0.0008005940594710409,-0.03612237050381954
1782952654340725200,11.350725341796876,0.009595511341094971,0.015005590223707259,-0.012868934388039634
1782952654350653200,11.360653076171875,0.09444120171666144,-0.0027150311123579737,0.009490754058677702
1782952654360581000,11.3705810546875,0.014696633872389793,0.0022960750479251147,-0.0269005924125202
1782952654370508300,11.38050830078125,0.048989948618412014,-0.006954623177181929,0.005442095155804418
1782952654380436200,11.390436279296875,0.019683190113306045,-0.0005471124887466431,-0.004192003763164393
1782952654390363100,11.400363037109376,0.013260463589429854,-0.0012449950924143195,-0.013665240431460552
1782952654400291300,11.410291259765625,0.008769581910967826,-0.011027681302372366,-0.001135219141584821
