time,seconds_elapsed,z,y,x
1782952643045573000,0.055572998046875,-0.9973297119140625,-0.0289459228515625,0.0067138671875
1782952643055499300,0.065499267578125,-0.9978485107421875,-0.02923583984375,0.0070343017578125
1782952643065427500,0.075427490234375,-0.9965667724609375,-0.029693603515625,0.0069580078125
1782952643075355600,0.085355712890625,-0.997772216796875,-0.02911376953125,0.0054473876953125
1782952643085282300,0.0952822265625,-0.9982757568359375,-0.0296173095703125,0.0054473876953125
1782952643095210500,0.10521044921875,-0.997314453125,-0.029083251953125,0.006072998046875
1782952643105138400,0.115138427734375,-0.9957275390625,-0.028717041015625,0.006195068359375
1782952643115065300,0.1250654296875,-0.997467041015625,-0.0291290283203125,0.005584716796875
1782952643124993300,0.1349931640625,-0.9982757568359375,-0.027801513671875,0.0066986083984375
1782952643134921500,0.14492138671875,-0.995819091796875,-0.02978515625,0.0062408447265625
1782952643144848400,0.154848388671875,-0.9974212646484375,-0.029937744140625,0.0067138671875
1782952643154776300,0.1647763671875,-0.9970245361328125,-0.0306243896484375,0.005340576171875
1782952643164704300,0.174704345703125,-0.9974517822265625,-0.0301971435546875,0.005615234375
1782952643174631400,0.18463134765625,-0.9980316162109375,-0.02984619140625,0.0049896240234375
1782952643184559400,0.194559326171875,-0.997467041015625,-0.030670166015625,0.0048675537109375
1782952643194486300,0.204486328125,-0.9964447021484375,-0.03070068359375,0.0056610107421875
1782952643204414500,0.21441455078125,-0.997344970703125,-0.029052734375,0.0052642822265625
1782952643214342400,0.22434228515625,-0.99798583984375,-0.0296478271484375,0.005706787109375
1782952643224269300,0.234269287109375,-0.9971923828125,-0.029571533203125,0.005889892578125
1782952643234197500,0.244197509765625,-0.997039794921875,-0.0302734375,0.0059814453125
1782952643244125400,0.25412548828125,-0.9987335205078125,-0.0296173095703125,0.0049591064453125
1782952643254052400,0.26405224609375,-0.997802734375,-0.0300445556640625,0.005523681640625
1782952643263980300,0.273980224609375,-0.9965057373046875,-0.030120849609375,0.0067901611328125
1782952643273908500,0.283908447265625,-0.9967041015625,-0.02947998046875,0.005584716796875
1782952643283835400,0.29383544921875,-0.9976348876953125,-0.02935791015625,0.0048065185546875
1782952643293763300,0.303763427734375,-0.99835205078125,-0.0287017822265625,0.0074462890625
1782952643303691300,0.313691162109375,-0.99822998046875,-0.0279083251953125,0.0064544677734375
1782952643313618400,0.323618408203125,-0.9970550537109375,-0.02978515625,0.0053253173828125
1782952643323546400,0.33354638671875,-0.9967193603515625,-0.030853271484375,0.0054931640625
1782952643333473500,0.3434736328125,-0.99786376953125,-0.028961181640625,0.005828857421875
1782952643343401500,0.3534013671875,-0.9961395263671875,-0.0302734375,0.006134033203125
1782952643353329400,0.363329345703125,-0.9967803955078125,-0.0287933349609375,0.0066986083984375
1782952643363256600,0.373256591796875,-0.9988861083984375,-0.029571533203125,0.00604248046875
1782952643373184500,0.3831845703125,-0.9964141845703125,-0.0296630859375,0.00543212890625
1782952643383112400,0.393112548828125,-0.9983062744140625,-0.0308837890625,0.005096435546875
1782952643393039400,0.403039306640625,-0.9963836669921875,-0.0301055908203125,0.0055999755859375
1782952643402967600,0.412967529296875,-0.99676513671875,-0.0297393798828125,0.0053253173828125
1782952643412895500,0.4228955078125,-0.9969482421875,-0.029266357421875,0.005035400390625
1782952643422822400,0.432822509765625,-0.9978485107421875,-0.0300750732421875,0.004974365234375
1782952643432750300,0.442750244140625,-0.998809814453125,-0.0296173095703125,0.007171630859375
1782952643442678500,0.452678466796875,-0.99688720703125,-0.028839111328125,0.0062255859375
1782952643452605400,0.46260546875,-0.9951629638671875,-0.0289459228515625,0.0047454833984375
1782952643462533400,0.472533447265625,-0.9976806640625,-0.02886962890625,0.0056610107421875
1782952643472461600,0.482461669921875,-0.9972381591796875,-0.029815673828125,0.0063629150390625
1782952643482388500,0.492388427734375,-0.997467041015625,-0.0301513671875,0.0047454833984375
1782952643492316400,0.50231640625,-0.9968414306640625,-0.029632568359375,0.0065765380859375
1782952643502243600,0.51224365234375,-0.9969024658203125,-0.02984619140625,0.0048675537109375
1782952643512171500,0.522171630859375,-0.999267578125,-0.0287322998046875,0.006378173828125
1782952643522099500,0.532099365234375,-0.997833251953125,-0.0288238525390625,0.0052947998046875
1782952643532026600,0.542026611328125,-0.99700927734375,-0.028106689453125,0.0053558349609375
1782952643541954600,0.55195458984375,-0.9971160888671875,-0.029754638671875,0.0050048828125
1782952643551882500,0.561882568359375,-0.9969482421875,-0.0287628173828125,0.0060577392578125
1782952643561809700,0.5718095703125,-0.9970245361328125,-0.0291748046875,0.0051116943359375
1782952643571737600,0.581737548828125,-0.9983978271484375,-0.0282135009765625,0.005218505859375
1782952643581665500,0.59166552734375,-0.996673583984375,-0.029693603515625,0.0063934326171875
1782952643591592400,0.601592529296875,-0.9966583251953125,-0.0297698974609375,0.006988525390625
1782952643601520600,0.611520751953125,-0.9975128173828125,-0.0299072265625,0.0055999755859375
1782952643611448600,0.621448486328125,-0.997314453125,-0.0300750732421875,0.005523681640625
1782952643621375200,0.631375244140625,-0.9973907470703125,-0.0294647216796875,0.0054168701171875
1782952643631303400,0.641303466796875,-0.997833251953125,-0.0299224853515625,0.005096435546875
1782952643641230300,0.651230224609375,-0.9964141845703125,-0.029205322265625,0.0069427490234375
1782952643651158300,0.661158203125,-0.9974365234375,-0.0279388427734375,0.0071868896484375
1782952643661086200,0.671086181640625,-0.996856689453125,-0.02850341796875,0.0061492919921875
1782952643671013400,0.681013427734375,-0.9977264404296875,-0.0296783447265625,0.0054931640625
1782952643680941300,0.69094140625,-0.9970245361328125,-0.0291290283203125,0.005889892578125
1782952643690869200,0.700869140625,-0.9974365234375,-0.029632568359375,0.0068817138671875
1782952643700796400,0.71079638671875,-0.997528076171875,-0.0313568115234375,0.0056610107421875
1782952643710724400,0.720724365234375,-0.9969482421875,-0.029998779296875,0.006805419921875
1782952643720652300,0.73065234375,-0.9972076416015625,-0.02911376953125,0.006927490234375
1782952643730579500,0.740579345703125,-0.997039794921875,-0.0292816162109375,0.00628662109375
1782952643740507400,0.75050732421875,-0.996673583984375,-0.0279998779296875,0.0070648193359375
1782952643750435300,0.760435302734375,-0.998382568359375,-0.0303497314453125,0.0057830810546875
1782952643760362500,0.770362548828125,-0.9965362548828125,-0.0314788818359375,0.006134033203125
1782952643770290400,0.78029052734375,-0.9980010986328125,-0.0298004150390625,0.0050811767578125
1782952643780218400,0.79021826171875,-0.997955322265625,-0.029449462890625,0.0061798095703125
1782952643790145300,0.800145263671875,-0.997039794921875,-0.030548095703125,0.005950927734375
1782952643800073500,0.810073486328125,-0.9971771240234375,-0.02838134765625,0.00531005859375
1782952643810000400,0.82000048828125,-0.9960174560546875,-0.0290985107421875,0.0057373046875
1782952643819928300,0.82992822265625,-0.9969635009765625,-0.0284423828125,0.004486083984375
1782952643829856500,0.8398564453125,-0.9964599609375,-0.02923583984375,0.0058135986328125
1782952643839783400,0.849783447265625,-0.9976043701171875,-0.02935791015625,0.0052337646484375
1782952643849711400,0.85971142578125,-0.998291015625,-0.02899169921875,0.0059814453125
1782952643859639300,0.869639404296875,-0.99688720703125,-0.029571533203125,0.00482177734375
1782952643869566500,0.87956640625,-0.998077392578125,-0.028533935546875,0.0060272216796875
1782952643879494400,0.889494384765625,-0.9972381591796875,-0.02972412109375,0.00518798828125
1782952643889422300,0.89942236328125,-0.9968109130859375,-0.030303955078125,0.0050811767578125
1782952643899349500,0.909349609375,-0.998138427734375,-0.0301971435546875,0.0070953369140625
1782952643909277400,0.91927734375,-0.997222900390625,-0.0296478271484375,0.0065460205078125
1782952643919205400,0.929205322265625,-0.997802734375,-0.0298614501953125,0.0045013427734375
1782952643929132500,0.939132568359375,-0.996612548828125,-0.0305023193359375,0.0057220458984375
1782952643939060500,0.949060546875,-0.99725341796875,-0.031036376953125,0.0058441162109375
1782952643948987400,0.9589873046875,-0.9969940185546875,-0.03021240234375,0.0049285888671875
1782952643958915600,0.96891552734375,-0.9976806640625,-0.0294189453125,0.0045928955078125
1782952643968843500,0.978843505859375,-0.9977264404296875,-0.0290679931640625,0.0055389404296875
1782952643978770400,0.9887705078125,-0.99774169921875,-0.029541015625,0.00567626953125
1782952643988698400,0.998698486328125,-0.9970855712890625,-0.029449462890625,0.005218505859375
1782952643998626600,1.00862646484375,-0.9975433349609375,-0.0306396484375,0.0052642822265625
1782952644008553500,1.018553466796875,-0.9982452392578125,-0.0290679931640625,0.0049285888671875
1782952644018481400,1.0284814453125,-0.9973602294921875,-0.0294342041015625,0.0066986083984375
1782952644028409600,1.03840966796875,-0.998626708984375,-0.029998779296875,0.0062103271484375
1782952644038336500,1.04833642578125,-0.9984893798828125,-0.0307464599609375,0.00567626953125
1782952644048264400,1.058264404296875,-0.997344970703125,-0.03106689453125,0.005157470703125
1782952644058192400,1.0681923828125,-0.99658203125,-0.0305328369140625,0.0057220458984375
1782952644068119600,1.07811962890625,-0.9987945556640625,-0.028900146484375,0.004974365234375
1782952644078047500,1.088047607421875,-0.9980926513671875,-0.029266357421875,0.0073089599609375
1782952644087974700,1.097974609375,-0.9977264404296875,-0.0296478271484375,0.0059814453125
1782952644097902600,1.107902587890625,-0.996551513671875,-0.0294342041015625,0.0058746337890625
1782952644107830500,1.11783056640625,-0.9976654052734375,-0.0292510986328125,0.006256103515625
1782952644117757400,1.12775732421875,-0.998138427734375,-0.029449462890625,0.0046844482421875
1782952644127685600,1.137685546875,-0.9972686767578125,-0.02947998046875,0.0054931640625
1782952644137613600,1.147613525390625,-0.9975738525390625,-0.0283660888671875,0.0059814453125
1782952644147540500,1.15754052734375,-0.9955596923828125,-0.0303955078125,0.0050506591796875
1782952644157468700,1.16746875,-0.9961090087890625,-0.0289306640625,0.00543212890625
1782952644167396600,1.177396728515625,-0.9976654052734375,-0.0295867919921875,0.0068359375
1782952644177323500,1.187323486328125,-0.9973602294921875,-0.0290985107421875,0.0061492919921875
1782952644187251500,1.19725146484375,-0.997589111328125,-0.029022216796875,0.005462646484375
1782952644197178600,1.2071787109375,-0.9959564208984375,-0.0294647216796875,0.00653076171875
1782952644207106600,1.2171064453125,-0.997344970703125,-0.029266357421875,0.0057373046875
1782952644217034500,1.227034423828125,-0.9974517822265625,-0.028778076171875,0.007354736328125
1782952644226961700,1.236961669921875,-0.998748779296875,-0.02978515625,0.0054168701171875
1782952644236889600,1.2468896484375,-0.9975738525390625,-0.03131103515625,0.0055389404296875
1782952644246817500,1.256817626953125,-0.9966583251953125,-0.0289764404296875,0.0051422119140625
1782952644256744700,1.26674462890625,-0.9974822998046875,-0.029815673828125,0.0054473876953125
1782952644266672600,1.276672607421875,-0.9968109130859375,-0.0288848876953125,0.006927490234375
1782952644276600600,1.2866005859375,-0.9980316162109375,-0.0280914306640625,0.0050506591796875
1782952644286527700,1.29652783203125,-0.9962310791015625,-0.0305633544921875,0.0057220458984375
1782952644296455700,1.30645556640625,-0.997100830078125,-0.0296630859375,0.00506591796875
1782952644306383600,1.316383544921875,-0.996673583984375,-0.028656005859375,0.006072998046875
1782952644316310500,1.326310546875,-0.997711181640625,-0.0286865234375,0.0056915283203125
1782952644326238700,1.33623876953125,-0.996856689453125,-0.0293731689453125,0.005401611328125
1782952644336165600,1.34616552734375,-0.996795654296875,-0.0301055908203125,0.0048370361328125
1782952644346093600,1.356093505859375,-0.9971160888671875,-0.029571533203125,0.00518798828125
1782952644356021800,1.366021728515625,-0.997283935546875,-0.0298919677734375,0.0057830810546875
1782952644365948700,1.37594873046875,-0.997650146484375,-0.0306854248046875,0.00579833984375
1782952644375876600,1.385876708984375,-0.9974822998046875,-0.0291748046875,0.005157470703125
1782952644385804500,1.395804443359375,-0.9976654052734375,-0.029449462890625,0.006439208984375
1782952644395731500,1.4057314453125,-0.9977874755859375,-0.0299072265625,0.0054931640625
1782952644405659600,1.41565966796875,-0.996795654296875,-0.0289764404296875,0.006439208984375
1782952644415587600,1.425587646484375,-0.998931884765625,-0.02734375,0.0048980712890625
1782952644425514500,1.435514404296875,-0.998443603515625,-0.0289459228515625,0.004364013671875
1782952644435442400,1.4454423828125,-0.99664306640625,-0.0304412841796875,0.0056610107421875
1782952644445369600,1.45536962890625,-0.9981536865234375,-0.029388427734375,0.0045928955078125
1782952644455297500,1.465297607421875,-0.9986572265625,-0.028717041015625,0.0055389404296875
1782952644465225500,1.4752255859375,-0.9986572265625,-0.0297088623046875,0.0056915283203125
1782952644475152400,1.48515234375,-0.9971923828125,-0.02984619140625,0.0055389404296875
1782952644485080600,1.49508056640625,-0.9974822998046875,-0.029052734375,0.006744384765625
1782952644495008500,1.505008544921875,-0.9975433349609375,-0.029327392578125,0.0054931640625
1782952644504935400,1.514935302734375,-0.998565673828125,-0.029632568359375,0.0060272216796875
1782952644514863600,1.524863525390625,-0.997650146484375,-0.0295867919921875,0.0052032470703125
1782952644524791600,1.53479150390625,-0.9962158203125,-0.0284423828125,0.00506591796875
1782952644534718500,1.544718505859375,-0.997772216796875,-0.029327392578125,0.0065765380859375
1782952644544646400,1.554646484375,-0.99755859375,-0.0305633544921875,0.005157470703125
1782952644554573600,1.564573486328125,-0.9970703125,-0.0307464599609375,0.0061187744140625
1782952644564501500,1.57450146484375,-0.9974822998046875,-0.0295257568359375,0.0045318603515625
1782952644574429400,1.584429443359375,-0.996307373046875,-0.028594970703125,0.004852294921875
1782952644584356600,1.594356689453125,-0.9979705810546875,-0.0298614501953125,0.006134033203125
1782952644594284500,1.604284423828125,-0.9979248046875,-0.02984619140625,0.005706787109375
1782952644604212500,1.61421240234375,-0.9974212646484375,-0.029205322265625,0.006866455078125
1782952644614139600,1.6241396484375,-0.9981536865234375,-0.02899169921875,0.005828857421875
1782952644624067600,1.634067626953125,-0.997161865234375,-0.0302276611328125,0.00531005859375
1782952644633995500,1.64399560546875,-0.997161865234375,-0.0301513671875,0.0042724609375
1782952644643922700,1.653922607421875,-0.997283935546875,-0.0298614501953125,0.00537109375
1782952644653850600,1.6638505859375,-0.9994964599609375,-0.029327392578125,0.004547119140625
1782952644663777500,1.673777587890625,-0.9975738525390625,-0.0294189453125,0.0048828125
1782952644673705500,1.68370556640625,-0.996978759765625,-0.0285186767578125,0.005462646484375
1782952644683633700,1.693633544921875,-0.9976043701171875,-0.029541015625,0.00592041015625
1782952644693560600,1.703560546875,-0.997100830078125,-0.02947998046875,0.0044708251953125
1782952644703488500,1.713488525390625,-0.998046875,-0.029388427734375,0.0069122314453125
1782952644713416700,1.723416748046875,-0.9980316162109375,-0.0294647216796875,0.0076446533203125
1782952644723343600,1.733343505859375,-0.998138427734375,-0.0296478271484375,0.005706787109375
1782952644733271600,1.743271484375,-0.996551513671875,-0.0294647216796875,0.0059356689453125
1782952644743199500,1.753199462890625,-0.9981536865234375,-0.0303802490234375,0.0050201416015625
1782952644753126700,1.763126708984375,-0.9979400634765625,-0.0290374755859375,0.00457763671875
1782952644763054600,1.7730546875,-0.9972991943359375,-0.0289459228515625,0.005859375
1782952644772981800,1.782981689453125,-0.9976959228515625,-0.029510498046875,0.0065155029296875
1782952644782909700,1.79290966796875,-0.99786376953125,-0.03033447265625,0.0065155029296875
1782952644792837600,1.802837646484375,-0.9977569580078125,-0.0285491943359375,0.005126953125
1782952644802764500,1.8127646484375,-0.9976654052734375,-0.030242919921875,0.003875732421875
1782952644812692700,1.822692626953125,-0.996917724609375,-0.029327392578125,0.0049896240234375
1782952644822620700,1.83262060546875,-0.9979248046875,-0.0301361083984375,0.00567626953125
1782952644832547600,1.842547607421875,-0.997222900390625,-0.0308074951171875,0.0054473876953125
1782952644842475800,1.852475830078125,-0.9976654052734375,-0.031646728515625,0.005157470703125
1782952644852403700,1.86240380859375,-0.996246337890625,-0.0305938720703125,0.0054168701171875
1782952644862330600,1.87233056640625,-0.99822998046875,-0.029815673828125,0.0057220458984375
1782952644872258600,1.882258544921875,-0.9982452392578125,-0.0284881591796875,0.0055999755859375
1782952644882185500,1.892185546875,-0.9971923828125,-0.029205322265625,0.0044403076171875
1782952644892113400,1.902113525390625,-0.9974365234375,-0.028717041015625,0.0058746337890625
1782952644902041600,1.91204150390625,-0.9975128173828125,-0.028717041015625,0.004791259765625
1782952644911968500,1.921968505859375,-0.9968414306640625,-0.02850341796875,0.0064697265625
1782952644921896400,1.931896484375,-0.9962615966796875,-0.02886962890625,0.0047454833984375
1782952644931824400,1.941824462890625,-0.996337890625,-0.02935791015625,0.0056610107421875
1782952644941751600,1.95175146484375,-0.9974517822265625,-0.0298004150390625,0.005859375
1782952644951679500,1.961679443359375,-0.9984283447265625,-0.02899169921875,0.005340576171875
1782952644961607400,1.971607421875,-0.997406005859375,-0.0289306640625,0.0067138671875
1782952644971534600,1.98153466796875,-0.9969940185546875,-0.0290679931640625,0.005889892578125
1782952644981462500,1.991462646484375,-0.997589111328125,-0.02947998046875,0.0061798095703125
1782952644991389400,2.001389404296875,-0.99664306640625,-0.029815673828125,0.0069580078125
1782952645001317400,2.0113173828125,-0.9973297119140625,-0.028350830078125,0.005584716796875
1782952645011245600,2.02124560546875,-0.9969940185546875,-0.0298004150390625,0.004638671875
1782952645021172500,2.03117236328125,-0.99609375,-0.0287933349609375,0.0051727294921875
1782952645031100400,2.041100341796875,-0.9967803955078125,-0.028533935546875,0.0066680908203125
1782952645041028600,2.051028564453125,-0.9978485107421875,-0.0297393798828125,0.0066680908203125
1782952645050955300,2.060955322265625,-0.9972991943359375,-0.0288238525390625,0.0050048828125
1782952645060883200,2.07088330078125,-0.9968719482421875,-0.0283203125,0.004547119140625
1782952645070811400,2.080811279296875,-0.996673583984375,-0.0283203125,0.006103515625
1782952645080738300,2.09073828125,-0.9977264404296875,-0.0291748046875,0.00396728515625
1782952645090666200,2.100666259765625,-0.9979248046875,-0.030487060546875,0.0051116943359375
1782952645100593400,2.110593505859375,-0.996551513671875,-0.0289154052734375,0.0059814453125
1782952645110521300,2.120521240234375,-0.997314453125,-0.029632568359375,0.005218505859375
1782952645120449300,2.13044921875,-0.9967498779296875,-0.0295562744140625,0.0048828125
1782952645130376400,2.14037646484375,-0.99560546875,-0.02899169921875,0.0050048828125
1782952645140304400,2.150304443359375,-0.9975128173828125,-0.02838134765625,0.0059661865234375
1782952645150232300,2.160232421875,-0.9985198974609375,-0.02862548828125,0.0050506591796875
1782952645160159200,2.1701591796875,-0.9975433349609375,-0.0298004150390625,0.00634765625
1782952645170087400,2.18008740234375,-0.997161865234375,-0.0288848876953125,0.005340576171875
1782952645180015400,2.190015380859375,-0.9977874755859375,-0.0287628173828125,0.00531005859375
1782952645189942300,2.1999423828125,-0.9980926513671875,-0.02886962890625,0.0050811767578125
1782952645199870500,2.209870361328125,-0.996826171875,-0.02899169921875,0.0060882568359375
1782952645209797400,2.21979736328125,-0.9983367919921875,-0.02984619140625,0.0064544677734375
1782952645219725300,2.229725341796875,-0.9987030029296875,-0.0286712646484375,0.006561279296875
1782952645229653200,2.2396533203125,-0.9984588623046875,-0.0289154052734375,0.0057373046875
1782952645239580400,2.249580322265625,-0.998687744140625,-0.02978515625,0.0067138671875
1782952645249508400,2.25950830078125,-0.996978759765625,-0.0301361083984375,0.0047607421875
1782952645259436300,2.269436279296875,-0.997772216796875,-0.0299530029296875,0.0065155029296875
1782952645269363500,2.279363525390625,-0.9970550537109375,-0.0294189453125,0.0054473876953125
1782952645279291400,2.28929150390625,-0.997711181640625,-0.02984619140625,0.0054931640625
1782952645289218300,2.29921826171875,-0.99713134765625,-0.029876708984375,0.0049896240234375
1782952645299146500,2.309146484375,-0.997039794921875,-0.027740478515625,0.00537109375
1782952645309074400,2.319074462890625,-0.9971771240234375,-0.0292816162109375,0.00421142578125
1782952645319001000,2.3290009765625,-0.99749755859375,-0.0292205810546875,0.0066070556640625
1782952645328929500,2.338929443359375,-0.99774169921875,-0.0284576416015625,0.0055389404296875
1782952645338857500,2.348857421875,-0.9963836669921875,-0.03009033203125,0.006561279296875
1782952645348784000,2.3587841796875,-0.9972686767578125,-0.0302276611328125,0.0071563720703125
1782952645358712300,2.36871240234375,-0.9972076416015625,-0.0292205810546875,0.005462646484375
1782952645368640500,2.378640625,-0.99713134765625,-0.029052734375,0.004669189453125
1782952645378567200,2.388567138671875,-0.99774169921875,-0.0291748046875,0.005706787109375
1782952645388495000,2.3984951171875,-0.9978790283203125,-0.02862548828125,0.0064544677734375
1782952645398422300,2.40842236328125,-0.9960174560546875,-0.028106689453125,0.0055694580078125
1782952645408350200,2.41835009765625,-0.99755859375,-0.0284881591796875,0.003936767578125
1782952645418278100,2.428278076171875,-0.9986572265625,-0.028411865234375,0.005859375
1782952645428205300,2.438205322265625,-0.997222900390625,-0.0290374755859375,0.0054473876953125
1782952645438133200,2.44813330078125,-0.997894287109375,-0.03057861328125,0.004302978515625
1782952645448061200,2.458061279296875,-0.9972991943359375,-0.0306854248046875,0.0057830810546875
1782952645457988400,2.46798828125,-0.9978485107421875,-0.0287933349609375,0.0044097900390625
1782952645467916300,2.477916259765625,-0.9974212646484375,-0.0289764404296875,0.0059051513671875
1782952645477844200,2.48784423828125,-0.9965667724609375,-0.0291748046875,0.00653076171875
1782952645487771400,2.497771484375,-0.996246337890625,-0.0292510986328125,0.0051422119140625
1782952645497699300,2.50769921875,-0.9977874755859375,-0.028594970703125,0.0050201416015625
1782952645507626200,2.517626220703125,-0.9987030029296875,-0.0301513671875,0.0067596435546875
1782952645517554200,2.52755419921875,-0.9964599609375,-0.0295257568359375,0.0059814453125
1782952645527482400,2.537482421875,-0.9967498779296875,-0.0289306640625,0.0052642822265625
1782952645537409300,2.5474091796875,-0.99664306640625,-0.0291595458984375,0.005645751953125
1782952645547337200,2.557337158203125,-0.996856689453125,-0.0293121337890625,0.0056915283203125
1782952645557265400,2.567265380859375,-0.998260498046875,-0.0291748046875,0.0067291259765625
1782952645567192300,2.5771923828125,-0.9969635009765625,-0.0300140380859375,0.006866455078125
1782952645577120300,2.587120361328125,-0.9969940185546875,-0.0301055908203125,0.00701904296875
1782952645587047400,2.59704736328125,-0.997467041015625,-0.0296173095703125,0.0063323974609375
1782952645596975400,2.606975341796875,-0.996826171875,-0.0290069580078125,0.0058135986328125
1782952645606903300,2.6169033203125,-0.9973907470703125,-0.0286102294921875,0.00390625
1782952645616830500,2.62683056640625,-0.9961090087890625,-0.0302734375,0.00616455078125
1782952645626758400,2.63675830078125,-0.9974212646484375,-0.02960205078125,0.0056610107421875
1782952645636686300,2.646686279296875,-0.997955322265625,-0.0288238525390625,0.00543212890625
1782952645646613200,2.65661328125,-0.997100830078125,-0.029754638671875,0.005096435546875
1782952645656541400,2.66654150390625,-0.99755859375,-0.028839111328125,0.0064697265625
1782952645666469400,2.676469482421875,-0.997100830078125,-0.0292510986328125,0.0065460205078125
1782952645676396300,2.686396240234375,-0.998260498046875,-0.029754638671875,0.0051116943359375
1782952645686324500,2.696324462890625,-0.996856689453125,-0.0294036865234375,0.006134033203125
1782952645696251400,2.70625146484375,-0.996551513671875,-0.030120849609375,0.0047607421875
1782952645706179300,2.716179443359375,-0.9978790283203125,-0.028900146484375,0.0066070556640625
1782952645716107300,2.726107177734375,-0.998138427734375,-0.0298309326171875,0.0048980712890625
1782952645726034400,2.736034423828125,-0.9972991943359375,-0.0296783447265625,0.0056610107421875
1782952645735962400,2.74596240234375,-0.9977569580078125,-0.0295257568359375,0.0049896240234375
1782952645745890300,2.755890380859375,-0.9968719482421875,-0.0298919677734375,0.00567626953125
1782952645755817500,2.7658173828125,-0.996795654296875,-0.0299224853515625,0.006134033203125
1782952645765745400,2.775745361328125,-0.997161865234375,-0.0296478271484375,0.007171630859375
1782952645775673300,2.78567333984375,-0.99810791015625,-0.02935791015625,0.0076141357421875
1782952645785600500,2.7956005859375,-0.99713134765625,-0.0285797119140625,0.0041351318359375
1782952645795528400,2.805528564453125,-0.9965972900390625,-0.0299530029296875,0.0055084228515625
1782952645805455000,2.815455078125,-0.99749755859375,-0.0309906005859375,0.005889892578125
1782952645815383300,2.82538330078125,-0.997406005859375,-0.029022216796875,0.006866455078125
1782952645825311500,2.8353115234375,-0.996856689453125,-0.028717041015625,0.0063629150390625
1782952645835238100,2.845238037109375,-0.9975738525390625,-0.02972412109375,0.006256103515625
1782952645845166000,2.855166015625,-0.998443603515625,-0.0304107666015625,0.0051422119140625
1782952645855094300,2.86509423828125,-0.997406005859375,-0.0294189453125,0.003875732421875
1782952645865021200,2.875021240234375,-0.996978759765625,-0.0290374755859375,0.0065155029296875
1782952645874949000,2.88494921875,-0.997955322265625,-0.0289764404296875,0.0055999755859375
1782952645884876300,2.894876220703125,-0.998260498046875,-0.0291900634765625,0.0047454833984375
1782952645894804200,2.90480419921875,-0.99822998046875,-0.029144287109375,0.0063934326171875
1782952645904732200,2.914732177734375,-0.996490478515625,-0.030364990234375,0.0043182373046875
1782952645914659300,2.924659423828125,-0.9974365234375,-0.02813720703125,0.0063629150390625
1782952645924587300,2.934587158203125,-0.9991912841796875,-0.0276947021484375,0.0061798095703125
1782952645934515200,2.94451513671875,-0.996612548828125,-0.0284423828125,0.0065765380859375
1782952645944442400,2.9544423828125,-0.9969940185546875,-0.02899169921875,0.00738525390625
1782952645954370300,2.964370361328125,-0.9969482421875,-0.0289154052734375,0.0043792724609375
1782952645964298200,2.97429833984375,-0.99700927734375,-0.0280609130859375,0.0065765380859375
1782952645974225400,2.984225341796875,-0.9974822998046875,-0.0279693603515625,0.0066070556640625
1782952645984153300,2.9941533203125,-0.9959869384765625,-0.0296783447265625,0.0056915283203125
1782952645994080300,3.004080322265625,-0.996185302734375,-0.030426025390625,0.00518798828125
1782952646004008200,3.01400830078125,-0.996673583984375,-0.0296783447265625,0.0068817138671875
1782952646013936400,3.023936279296875,-0.9977874755859375,-0.0295562744140625,0.0066680908203125
1782952646023863300,3.03386328125,-0.9976348876953125,-0.029998779296875,0.0060577392578125
1782952646033791200,3.043791259765625,-0.9973907470703125,-0.0293121337890625,0.00482177734375
1782952646043719200,3.05371923828125,-0.997467041015625,-0.0301971435546875,0.0061798095703125
1782952646053647000,3.063647216796875,-0.997161865234375,-0.02935791015625,0.0055389404296875
1782952646063575000,3.073574951171875,-0.9969024658203125,-0.0299224853515625,0.00567626953125
1782952646073503000,3.0835029296875,-0.9975433349609375,-0.02972412109375,0.0059356689453125
1782952646083430100,3.09343017578125,-0.9977569580078125,-0.0296783447265625,0.006744384765625
1782952646093358000,3.103358154296875,-0.997802734375,-0.0302734375,0.005859375
1782952646103285000,3.113284912109375,-0.997711181640625,-0.0294189453125,0.005645751953125
1782952646113213200,3.123213134765625,-0.9971923828125,-0.0291595458984375,0.0052490234375
1782952646123141000,3.13314111328125,-0.99609375,-0.030029296875,0.00750732421875
1782952646133068000,3.143068115234375,-0.99725341796875,-0.0299835205078125,0.004150390625
1782952646142996000,3.152995849609375,-0.99737548828125,-0.030303955078125,0.0060577392578125
1782952646152924200,3.162924072265625,-0.9956817626953125,-0.028533935546875,0.004608154296875
1782952646162851000,3.17285107421875,-0.9976806640625,-0.029449462890625,0.0067138671875
1782952646172779000,3.182779052734375,-0.9972991943359375,-0.0290679931640625,0.0066070556640625
1782952646182706200,3.1927060546875,-0.9969482421875,-0.0291748046875,0.004425048828125
1782952646192634000,3.202634033203125,-0.997161865234375,-0.029632568359375,0.0056304931640625
1782952646202562000,3.21256201171875,-0.997589111328125,-0.02874755859375,0.0057525634765625
1782952646212489200,3.2224892578125,-0.9973602294921875,-0.0285491943359375,0.00665283203125
1782952646222417200,3.232417236328125,-0.9974212646484375,-0.029388427734375,0.0054931640625
1782952646232345000,3.242344970703125,-0.9975128173828125,-0.0288848876953125,0.0048828125
1782952646242272300,3.252272216796875,-0.9968719482421875,-0.028594970703125,0.0076751708984375
1782952646252200200,3.2622001953125,-0.9964599609375,-0.0290069580078125,0.0078125
1782952646262128000,3.272128173828125,-0.99755859375,-0.0297393798828125,0.0070037841796875
1782952646272055000,3.282054931640625,-0.998321533203125,-0.0286407470703125,0.0063323974609375
1782952646281983200,3.291983154296875,-0.9983978271484375,-0.02972412109375,0.004913330078125
1782952646291910100,3.30191015625,-0.9980926513671875,-0.0291900634765625,0.005157470703125
1782952646301838000,3.311838134765625,-0.997894287109375,-0.0297088623046875,0.006744384765625
1782952646311766300,3.321766357421875,-0.9960784912109375,-0.0290679931640625,0.00469970703125
1782952646321693000,3.33169287109375,-0.99786376953125,-0.0295257568359375,0.0069122314453125
1782952646331621000,3.34162109375,-0.9966888427734375,-0.0301513671875,0.0065460205078125
1782952646341549000,3.351549072265625,-0.9989013671875,-0.0292816162109375,0.0065155029296875
1782952646351476000,3.36147607421875,-0.999786376953125,-0.02862548828125,0.006683349609375
1782952646361404000,3.37140380859375,-0.9976959228515625,-0.03070068359375,0.0050506591796875
1782952646371331000,3.3813310546875,-0.9966583251953125,-0.0305023193359375,0.00506591796875
1782952646381259000,3.391259033203125,-0.99737548828125,-0.0294647216796875,0.0056915283203125
1782952646391187000,3.40118701171875,-0.9972076416015625,-0.029693603515625,0.00775146484375
1782952646401114000,3.411114013671875,-0.996002197265625,-0.02825927734375,0.00823974609375
1782952646411042000,3.4210419921875,-0.99737548828125,-0.0289459228515625,0.0058135986328125
1782952646420970000,3.430969970703125,-0.99853515625,-0.0296478271484375,0.00360107421875
1782952646430897000,3.44089697265625,-0.997039794921875,-0.030670166015625,0.0041961669921875
1782952646440825000,3.4508251953125,-0.9972076416015625,-0.0310821533203125,0.0048675537109375
1782952646450753000,3.4607529296875,-0.9970245361328125,-0.03057861328125,0.0047760009765625
1782952646460680000,3.470679931640625,-0.9977569580078125,-0.0289764404296875,0.0073394775390625
1782952646470608000,3.48060791015625,-0.997161865234375,-0.026702880859375,0.0062103271484375
1782952646480535000,3.49053515625,-0.9980316162109375,-0.02886962890625,0.00689697265625
1782952646490463000,3.500462890625,-0.9964447021484375,-0.028900146484375,0.006195068359375
1782952646500391000,3.510390869140625,-0.99810791015625,-0.0297088623046875,0.0047454833984375
1782952646510318000,3.520318115234375,-0.9976654052734375,-0.030487060546875,0.002471923828125
1782952646520246000,3.53024609375,-0.9973907470703125,-0.0302581787109375,0.0049591064453125
1782952646530174000,3.540174072265625,-0.9980621337890625,-0.02972412109375,0.005462646484375
1782952646540101000,3.55010107421875,-0.997222900390625,-0.0289459228515625,0.00555419921875
1782952646550029000,3.560029052734375,-0.9965362548828125,-0.02789306640625,0.0070343017578125
1782952646559956000,3.5699560546875,-0.997589111328125,-0.027923583984375,0.0082244873046875
1782952646569884200,3.57988427734375,-0.997344970703125,-0.029205322265625,0.00567626953125
1782952646579812000,3.58981201171875,-0.997955322265625,-0.029876708984375,0.006561279296875
1782952646589739000,3.599739013671875,-0.9971466064453125,-0.0301055908203125,0.00555419921875
1782952646599667200,3.609667236328125,-0.997100830078125,-0.0306243896484375,0.0044097900390625
1782952646609595100,3.61959521484375,-0.9969329833984375,-0.0303192138671875,0.005767822265625
1782952646619522000,3.62952197265625,-0.99566650390625,-0.0301361083984375,0.00616455078125
1782952646629450000,3.639449951171875,-0.9969329833984375,-0.0283966064453125,0.005279541015625
1782952646639378200,3.649378173828125,-0.99676513671875,-0.03094482421875,0.006195068359375
1782952646649305000,3.65930517578125,-0.9980926513671875,-0.029632568359375,0.005157470703125
1782952646659233000,3.66923291015625,-0.996673583984375,-0.0291748046875,0.00469970703125
1782952646669160200,3.67916015625,-0.99737548828125,-0.029449462890625,0.00482177734375
1782952646679088000,3.689088134765625,-0.9969329833984375,-0.0282440185546875,0.00531005859375
1782952646689016000,3.69901611328125,-0.99810791015625,-0.0295562744140625,0.005584716796875
1782952646698943200,3.708943115234375,-0.997039794921875,-0.0294952392578125,0.0068359375
1782952646708871200,3.71887109375,-0.997589111328125,-0.0287017822265625,0.00726318359375
1782952646718799000,3.728799072265625,-0.995849609375,-0.0293731689453125,0.006378173828125
1782952646728726300,3.738726318359375,-0.9978485107421875,-0.0304412841796875,0.0056915283203125
1782952646738654200,3.748654296875,-0.9990997314453125,-0.030548095703125,0.0050201416015625
1782952646748581000,3.7585810546875,-0.997344970703125,-0.0295562744140625,0.0055389404296875
1782952646758509000,3.768509033203125,-0.9969024658203125,-0.0302734375,0.00421142578125
1782952646768437200,3.778437255859375,-0.9976806640625,-0.0288238525390625,0.0066070556640625
1782952646778364000,3.788364013671875,-0.996368408203125,-0.029205322265625,0.006072998046875
1782952646788292000,3.7982919921875,-0.9968719482421875,-0.0287322998046875,0.0059661865234375
1782952646798220000,3.808219970703125,-0.9974517822265625,-0.0282135009765625,0.0067138671875
1782952646808147000,3.81814697265625,-0.997100830078125,-0.0290069580078125,0.0052490234375
1782952646818075000,3.828074951171875,-0.99639892578125,-0.0297698974609375,0.0067291259765625
1782952646828002000,3.838001953125,-0.9965057373046875,-0.0302734375,0.0053558349609375
1782952646837930000,3.847929931640625,-0.9963531494140625,-0.0301055908203125,0.0051727294921875
1782952646847858000,3.85785791015625,-0.997100830078125,-0.029998779296875,0.0048370361328125
1782952646857785000,3.86778515625,-0.9977569580078125,-0.0283050537109375,0.00604248046875
1782952646867713000,3.877713134765625,-0.9976959228515625,-0.028076171875,0.0061187744140625
1782952646877641000,3.887640869140625,-0.997100830078125,-0.029052734375,0.0060272216796875
1782952646887568000,3.89756787109375,-0.9987335205078125,-0.0286865234375,0.004547119140625
1782952646897496000,3.90749609375,-0.996795654296875,-0.0284881591796875,0.00421142578125
1782952646907424000,3.917424072265625,-0.9976959228515625,-0.0293121337890625,0.005523681640625
1782952646917351000,3.927350830078125,-0.9969635009765625,-0.0294647216796875,0.0047149658203125
1782952646927279000,3.937279052734375,-0.9980926513671875,-0.02874755859375,0.0056915283203125
1782952646937206000,3.9472060546875,-0.9979095458984375,-0.02850341796875,0.0055694580078125
1782952646947134000,3.957134033203125,-0.9986114501953125,-0.0303192138671875,0.004608154296875
1782952646957062000,3.967061767578125,-0.9982147216796875,-0.0311431884765625,0.00372314453125
1782952646966989000,3.976989013671875,-0.996856689453125,-0.027740478515625,0.005035400390625
1782952646976917000,3.9869169921875,-0.99542236328125,-0.027130126953125,0.0071258544921875
1782952646986845000,3.996844970703125,-0.9988861083984375,-0.02880859375,0.0062255859375
1782952646996772000,4.006772216796875,-0.9974517822265625,-0.029815673828125,0.0047607421875
1782952647006700000,4.016699951171875,-0.9973297119140625,-0.029388427734375,0.0063934326171875
1782952647016627200,4.026627197265625,-0.9973907470703125,-0.0298004150390625,0.006103515625
1782952647026555100,4.03655517578125,-0.9987335205078125,-0.02935791015625,0.0047607421875
1782952647036483000,4.046483154296875,-0.995452880859375,-0.0280914306640625,0.0070343017578125
1782952647046410000,4.056409912109375,-0.9964752197265625,-0.028350830078125,0.005523681640625
1782952647056338000,4.066337890625,-0.9981842041015625,-0.0281829833984375,0.00653076171875
1782952647066265900,4.076265869140625,-0.9984588623046875,-0.031036376953125,0.004852294921875
1782952647076192500,4.086192626953125,-0.997833251953125,-0.0304412841796875,0.0055389404296875
1782952647086121000,4.096120849609375,-0.998077392578125,-0.02825927734375,0.00689697265625
1782952647096047600,4.106047607421875,-0.9955291748046875,-0.029388427734375,0.0052642822265625
1782952647105975600,4.1159755859375,-0.9981689453125,-0.0326080322265625,0.0048065185546875
1782952647115903500,4.125903564453125,-0.998443603515625,-0.03173828125,0.005126953125
1782952647125830700,4.13583056640625,-0.998931884765625,-0.0307464599609375,0.0030670166015625
1782952647135758600,4.145758544921875,-0.9972076416015625,-0.028961181640625,0.0059967041015625
1782952647145686500,4.1556865234375,-0.9970245361328125,-0.024566650390625,0.00970458984375
1782952647155613700,4.16561376953125,-0.9978179931640625,-0.0247039794921875,0.009735107421875
1782952647165541600,4.175541748046875,-0.9949188232421875,-0.0276031494140625,0.0068359375
1782952647175469600,4.185469482421875,-0.99700927734375,-0.030609130859375,0.0059661865234375
1782952647185396700,4.195396728515625,-0.99774169921875,-0.033782958984375,0.000518798828125
1782952647195324700,4.20532470703125,-0.99884033203125,-0.0343475341796875,0.001983642578125
1782952647205251600,4.21525146484375,-0.9974517822265625,-0.0306549072265625,0.0045623779296875
1782952647215179800,4.2251796875,-0.9969024658203125,-0.0294189453125,0.0067901611328125
1782952647225107700,4.235107666015625,-0.99810791015625,-0.0283050537109375,0.00634765625
1782952647235034600,4.24503466796875,-0.99676513671875,-0.0274658203125,0.0084381103515625
1782952647244962800,4.254962890625,-0.9970550537109375,-0.0276031494140625,0.0059051513671875
1782952647254890800,4.264890869140625,-0.9989013671875,-0.0294036865234375,0.0059814453125
1782952647264817700,4.274817626953125,-0.9984893798828125,-0.0294647216796875,0.00396728515625
1782952647274745600,4.28474560546875,-0.9991455078125,-0.030914306640625,0.004913330078125
1782952647284672800,4.2946728515625,-0.9984283447265625,-0.0305938720703125,0.0053253173828125
1782952647294600700,4.3046005859375,-0.9980316162109375,-0.029388427734375,0.006805419921875
1782952647304528600,4.314528564453125,-0.9974365234375,-0.0289459228515625,0.0071258544921875
1782952647314455800,4.324455810546875,-0.9979400634765625,-0.0288238525390625,0.00634765625
1782952647324383700,4.3343837890625,-0.9969940185546875,-0.0289154052734375,0.006866455078125
1782952647334311700,4.344311767578125,-0.99749755859375,-0.02825927734375,0.0070037841796875
1782952647344238800,4.35423876953125,-0.998046875,-0.0300750732421875,0.00421142578125
1782952647354166800,4.364166748046875,-0.9988250732421875,-0.0310821533203125,0.0049591064453125
1782952647364093700,4.37409375,-0.9989471435546875,-0.031219482421875,0.0032196044921875
1782952647374022000,4.38402197265625,-0.997039794921875,-0.0303955078125,0.005462646484375
1782952647383949800,4.39394970703125,-0.9967498779296875,-0.0290069580078125,0.0057830810546875
1782952647393876700,4.403876708984375,-0.9987335205078125,-0.029083251953125,0.0064544677734375
1782952647403804700,4.4138046875,-0.996246337890625,-0.0274810791015625,0.00579833984375
1782952647413732900,4.42373291015625,-0.99554443359375,-0.028076171875,0.0066070556640625
1782952647423659800,4.43365966796875,-0.997528076171875,-0.0293731689453125,0.0054168701171875
1782952647433587700,4.443587646484375,-0.996429443359375,-0.0312652587890625,0.0043487548828125
1782952647443516000,4.453515869140625,-0.997467041015625,-0.03021240234375,0.0045928955078125
1782952647453442800,4.46344287109375,-0.99737548828125,-0.0295257568359375,0.0059661865234375
1782952647463370800,4.473370849609375,-0.996124267578125,-0.029205322265625,0.0051727294921875
1782952647473298000,4.4832978515625,-0.997161865234375,-0.0290679931640625,0.00543212890625
1782952647483225900,4.493225830078125,-0.99566650390625,-0.0285797119140625,0.00726318359375
1782952647493153800,4.50315380859375,-0.9971466064453125,-0.0286865234375,0.005279541015625
1782952647503080700,4.513080810546875,-0.9972076416015625,-0.0298614501953125,0.0062408447265625
1782952647513009000,4.5230087890625,-0.99609375,-0.0288848876953125,0.0055999755859375
1782952647522936800,4.532936767578125,-0.9973602294921875,-0.0306854248046875,0.00640869140625
1782952647532863700,4.54286376953125,-0.9962310791015625,-0.0309600830078125,0.00360107421875
1782952647542792000,4.5527919921875,-0.9979248046875,-0.0294189453125,0.0048675537109375
1782952647552718600,4.562718505859375,-0.996826171875,-0.02984619140625,0.0071868896484375
1782952647562646500,4.572646484375,-0.997528076171875,-0.0290069580078125,0.006011962890625
1782952647572574700,4.58257470703125,-0.9971466064453125,-0.028076171875,0.0077056884765625
1782952647582501600,4.592501708984375,-0.99664306640625,-0.0294342041015625,0.005462646484375
1782952647592429600,4.6024296875,-0.997283935546875,-0.0300445556640625,0.00439453125
1782952647602357500,4.612357421875,-0.998931884765625,-0.02996826171875,0.0047454833984375
1782952647612284700,4.62228466796875,-0.997802734375,-0.0301513671875,0.006072998046875
1782952647622212600,4.632212646484375,-0.996246337890625,-0.0289306640625,0.004638671875
1782952647632139800,4.642139892578125,-0.9955902099609375,-0.029937744140625,0.005828857421875
1782952647642067700,4.652067626953125,-0.9966278076171875,-0.0291290283203125,0.0074005126953125
1782952647651995600,4.66199560546875,-0.9972381591796875,-0.0284576416015625,0.006805419921875
1782952647661922800,4.6719228515625,-0.9975128173828125,-0.029022216796875,0.0071563720703125
1782952647671850800,4.681850830078125,-0.996734619140625,-0.0297393798828125,0.0057525634765625
1782952647681778700,4.69177880859375,-0.9989013671875,-0.0300140380859375,0.004730224609375
1782952647691705600,4.70170556640625,-0.9987030029296875,-0.028656005859375,0.004180908203125
1782952647701633800,4.7116337890625,-0.9964752197265625,-0.031524658203125,0.0057220458984375
1782952647711560700,4.721560791015625,-0.9976654052734375,-0.0294342041015625,0.00469970703125
1782952647721488600,4.731488525390625,-0.997894287109375,-0.0280609130859375,0.007049560546875
1782952647731416600,4.74141650390625,-0.9971160888671875,-0.02899169921875,0.0047454833984375
1782952647741343700,4.75134375,-0.996826171875,-0.0283050537109375,0.0063629150390625
1782952647751271700,4.761271728515625,-0.9978790283203125,-0.0291748046875,0.0035552978515625
1782952647761199600,4.77119970703125,-0.9982757568359375,-0.0299835205078125,0.00482177734375
1782952647771126800,4.781126708984375,-0.9967041015625,-0.0289764404296875,0.0046844482421875
1782952647781054700,4.7910546875,-0.998321533203125,-0.0301666259765625,0.0043487548828125
1782952647790982700,4.800982666015625,-0.997406005859375,-0.0297393798828125,0.0059356689453125
1782952647800909800,4.810909912109375,-0.9969635009765625,-0.028564453125,0.006805419921875
1782952647810837800,4.820837646484375,-0.9969024658203125,-0.031036376953125,0.005645751953125
1782952647820764700,4.8307646484375,-0.9974517822265625,-0.0296630859375,0.0064697265625
1782952647830692900,4.84069287109375,-0.997039794921875,-0.0279998779296875,0.005859375
1782952647840620800,4.850620849609375,-0.99859619140625,-0.029266357421875,0.0060882568359375
1782952647850547700,4.860547607421875,-0.9969482421875,-0.0300445556640625,0.00604248046875
1782952647860476000,4.870475830078125,-0.997528076171875,-0.0291595458984375,0.005218505859375
1782952647870403800,4.88040380859375,-0.99609375,-0.029937744140625,0.0052337646484375
1782952647880330800,4.890330810546875,-0.99688720703125,-0.027984619140625,0.00518798828125
1782952647890258700,4.9002587890625,-0.9971466064453125,-0.029083251953125,0.0066680908203125
1782952647900185900,4.910185791015625,-0.99652099609375,-0.0310516357421875,0.0053253173828125
1782952647910113800,4.92011376953125,-0.9964447021484375,-0.029632568359375,0.004364013671875
1782952647920041700,4.930041748046875,-0.9975128173828125,-0.0289764404296875,0.0058135986328125
1782952647929969000,4.939968994140625,-0.9958953857421875,-0.02923583984375,0.004669189453125
1782952647939896800,4.949896728515625,-0.996490478515625,-0.03033447265625,0.0048980712890625
1782952647949824800,4.95982470703125,-0.9980621337890625,-0.0296783447265625,0.0054168701171875
1782952647959752000,4.969751953125,-0.99652099609375,-0.028656005859375,0.005462646484375
1782952647969680000,4.979679931640625,-0.9973602294921875,-0.0299072265625,0.0054779052734375
1782952647979606500,4.9896064453125,-0.9965057373046875,-0.0280609130859375,0.00506591796875
1782952647989534700,4.99953466796875,-0.99700927734375,-0.02874755859375,0.0063018798828125
1782952647999463000,5.009462890625,-0.99853515625,-0.0293731689453125,0.006500244140625
1782952648009389600,5.0193896484375,-0.9979095458984375,-0.029449462890625,0.0042572021484375
1782952648019317500,5.0293173828125,-0.9981231689453125,-0.02978515625,0.0054473876953125
1782952648029245700,5.03924560546875,-0.9984283447265625,-0.030517578125,0.0054779052734375
1782952648039172600,5.049172607421875,-0.9986572265625,-0.0294036865234375,0.005859375
1782952648049100500,5.0591005859375,-0.99871826171875,-0.0293731689453125,0.00543212890625
1782952648059028000,5.069028076171875,-0.9957427978515625,-0.03033447265625,0.0046539306640625
1782952648068956000,5.078955810546875,-0.9967498779296875,-0.0280609130859375,0.004547119140625
1782952648078883800,5.0888837890625,-0.9963836669921875,-0.029266357421875,0.00616455078125
1782952648088811000,5.09881103515625,-0.9974365234375,-0.0301666259765625,0.004302978515625
1782952648098739000,5.108739013671875,-0.9972686767578125,-0.0293426513671875,0.00518798828125
1782952648108667000,5.1186669921875,-0.9973907470703125,-0.0307464599609375,0.0060577392578125
1782952648118594000,5.128593994140625,-0.998291015625,-0.0305938720703125,0.0053863525390625
1782952648128522000,5.13852197265625,-0.997894287109375,-0.0294189453125,0.0037689208984375
1782952648138449000,5.148448974609375,-0.998504638671875,-0.0302734375,0.004730224609375
1782952648148376800,5.158376953125,-0.9973907470703125,-0.029632568359375,0.006378173828125
1782952648158305000,5.168304931640625,-0.9976654052734375,-0.0301513671875,0.0052337646484375
1782952648168232000,5.17823193359375,-0.998321533203125,-0.0300750732421875,0.005767822265625
1782952648178159900,5.188159912109375,-0.998077392578125,-0.030242919921875,0.0051727294921875
1782952648188088000,5.198088134765625,-0.9969329833984375,-0.0301666259765625,0.005096435546875
1782952648198015000,5.208014892578125,-0.99664306640625,-0.02862548828125,0.0066680908203125
1782952648207943000,5.21794287109375,-0.9970855712890625,-0.029083251953125,0.0059967041015625
1782952648217870000,5.2278701171875,-0.9967193603515625,-0.0280303955078125,0.005340576171875
1782952648227798000,5.237798095703125,-0.9980926513671875,-0.0284881591796875,0.0059661865234375
1782952648237726000,5.247725830078125,-0.9983673095703125,-0.027740478515625,0.0053253173828125
1782952648247653000,5.257653076171875,-0.997344970703125,-0.0292205810546875,0.005706787109375
1782952648257581000,5.2675810546875,-0.9966583251953125,-0.029144287109375,0.0057525634765625
1782952648267509000,5.277509033203125,-0.997711181640625,-0.0286712646484375,0.00537109375
1782952648277436000,5.287435791015625,-0.9992828369140625,-0.027984619140625,0.0050048828125
1782952648287364000,5.297364013671875,-0.997283935546875,-0.0282745361328125,0.0067901611328125
1782952648297291000,5.307291015625,-0.9964599609375,-0.0299072265625,0.00408935546875
1782952648307216000,5.3172158203125,-0.9978485107421875,-0.0296173095703125,0.0053253173828125
1782952648317143800,5.327143798828125,-0.9968414306640625,-0.0292510986328125,0.0049591064453125
1782952648327071000,5.337071044921875,-0.9966888427734375,-0.0298919677734375,0.0059661865234375
1782952648336999000,5.3469990234375,-0.9980010986328125,-0.0292510986328125,0.0056915283203125
1782952648346926800,5.3569267578125,-0.9983062744140625,-0.0288238525390625,0.00653076171875
1782952648356854000,5.36685400390625,-0.9967498779296875,-0.0286407470703125,0.0044403076171875
1782952648366782000,5.376781982421875,-0.998138427734375,-0.0290069580078125,0.0052032470703125
1782952648376710000,5.3867099609375,-0.9970550537109375,-0.0291900634765625,0.0057525634765625
1782952648386637000,5.396636962890625,-0.996673583984375,-0.0306549072265625,0.0048370361328125
1782952648396565000,5.40656494140625,-0.998291015625,-0.0290069580078125,0.0066375732421875
1782952648406492000,5.416491943359375,-0.9977264404296875,-0.029388427734375,0.00726318359375
1782952648416420000,5.426420166015625,-0.9965057373046875,-0.0279998779296875,0.007720947265625
1782952648426348000,5.43634814453125,-0.9977874755859375,-0.028594970703125,0.005218505859375
1782952648436275000,5.44627490234375,-0.995941162109375,-0.02777099609375,0.00628662109375
1782952648446203000,5.456202880859375,-0.99676513671875,-0.0290985107421875,0.00592041015625
1782952648456131000,5.466131103515625,-0.9980926513671875,-0.0305328369140625,0.00518798828125
1782952648466058000,5.47605810546875,-0.997283935546875,-0.0295257568359375,0.005889892578125
1782952648475986000,5.48598583984375,-0.9974365234375,-0.030059814453125,0.0048828125
1782952648485913000,5.4959130859375,-0.996978759765625,-0.029449462890625,0.0063018798828125
1782952648495841000,5.505841064453125,-0.997802734375,-0.030059814453125,0.0052947998046875
1782952648505769000,5.51576904296875,-0.996551513671875,-0.029205322265625,0.00634765625
1782952648515696000,5.525696044921875,-0.99688720703125,-0.0295562744140625,0.0058441162109375
1782952648525624000,5.5356240234375,-0.997894287109375,-0.0289459228515625,0.0045623779296875
1782952648535552000,5.545552001953125,-0.9975433349609375,-0.031005859375,0.00628662109375
1782952648545479000,5.55547900390625,-0.997100830078125,-0.0288848876953125,0.0059814453125
1782952648555407000,5.565406982421875,-0.9977264404296875,-0.0291290283203125,0.0047149658203125
1782952648565333800,5.575333740234375,-0.9970703125,-0.02899169921875,0.0061492919921875
1782952648575262000,5.585261962890625,-0.996856689453125,-0.0294189453125,0.0055084228515625
1782952648585190000,5.59518994140625,-0.99652099609375,-0.029205322265625,0.00555419921875
1782952648595116800,5.60511669921875,-0.9966583251953125,-0.029144287109375,0.0059661865234375
1782952648605044700,5.615044677734375,-0.9966583251953125,-0.0291290283203125,0.006317138671875
1782952648614973000,5.624972900390625,-0.9987945556640625,-0.0295562744140625,0.0062255859375
1782952648624899800,5.63489990234375,-0.998138427734375,-0.029296875,0.0061187744140625
1782952648634827800,5.644827880859375,-0.9976654052734375,-0.0301055908203125,0.0042572021484375
1782952648644755000,5.6547548828125,-0.9978179931640625,-0.028564453125,0.006561279296875
1782952648654683000,5.664682861328125,-0.9985809326171875,-0.0278167724609375,0.0059814453125
1782952648664610800,5.67461083984375,-0.9965667724609375,-0.0274505615234375,0.00555419921875
1782952648674538000,5.6845380859375,-0.997344970703125,-0.0285491943359375,0.0063323974609375
1782952648684466000,5.6944658203125,-0.996246337890625,-0.0306396484375,0.00439453125
1782952648694393900,5.704393798828125,-0.9970703125,-0.029693603515625,0.0058746337890625
1782952648704321000,5.714321044921875,-0.997406005859375,-0.02996826171875,0.005706787109375
1782952648714249700,5.724249755859375,-0.9982147216796875,-0.0284576416015625,0.0063018798828125
1782952648724177000,5.734177001953125,-0.9981231689453125,-0.0292816162109375,0.0068206787109375
1782952648734104800,5.744104736328125,-0.998016357421875,-0.0285491943359375,0.0058135986328125
1782952648744032800,5.75403271484375,-0.9982452392578125,-0.0293121337890625,0.0063629150390625
1782952648753960000,5.7639599609375,-0.9968109130859375,-0.0297698974609375,0.005035400390625
1782952648763887900,5.773887939453125,-0.9988861083984375,-0.0312042236328125,0.004608154296875
1782952648773815800,5.78381591796875,-0.9971160888671875,-0.0297393798828125,0.0058441162109375
1782952648783743000,5.793742919921875,-0.996978759765625,-0.029510498046875,0.005767822265625
1782952648793671000,5.8036708984375,-0.996490478515625,-0.028717041015625,0.005218505859375
1782952648803597800,5.813597900390625,-0.9967803955078125,-0.028350830078125,0.0047760009765625
1782952648813526000,5.823526123046875,-0.9970703125,-0.0299224853515625,0.0054779052734375
1782952648823454000,5.833453857421875,-0.9963531494140625,-0.029388427734375,0.0059356689453125
1782952648833380900,5.843380859375,-0.99713134765625,-0.0284881591796875,0.0053863525390625
1782952648843308800,5.853308837890625,-0.996826171875,-0.0301971435546875,0.005828857421875
1782952648853236000,5.863236083984375,-0.9976043701171875,-0.029815673828125,0.004150390625
1782952648863164000,5.873163818359375,-0.99609375,-0.02911376953125,0.0057220458984375
1782952648873091800,5.883091796875,-0.997039794921875,-0.0279693603515625,0.0058441162109375
1782952648883019000,5.89301904296875,-0.9965362548828125,-0.029327392578125,0.0068359375
1782952648892947000,5.902947021484375,-0.9961700439453125,-0.027618408203125,0.0055694580078125
1782952648902875000,5.912875,-0.996612548828125,-0.0288543701171875,0.0047454833984375
1782952648912802000,5.922802001953125,-0.997161865234375,-0.0291595458984375,0.005584716796875
1782952648922730000,5.93272998046875,-0.9976654052734375,-0.0287628173828125,0.0062255859375
1782952648932657000,5.942656982421875,-0.997161865234375,-0.02911376953125,0.0059814453125
1782952648942585000,5.952585205078125,-0.9971923828125,-0.0299224853515625,0.004547119140625
1782952648952513000,5.962512939453125,-0.9966278076171875,-0.0294036865234375,0.00592041015625
1782952648962440000,5.97243994140625,-0.9974212646484375,-0.0290374755859375,0.0037384033203125
1782952648972368100,5.9823681640625,-0.997467041015625,-0.0279388427734375,0.0052642822265625
1782952648982296000,5.992296142578125,-0.99761962890625,-0.0287017822265625,0.0053558349609375
1782952648992223000,6.002222900390625,-0.99847412109375,-0.028839111328125,0.00537109375
1782952649002151000,6.01215087890625,-0.9979400634765625,-0.0287628173828125,0.005523681640625
1782952649012078000,6.022078125,-0.99822998046875,-0.02960205078125,0.0059051513671875
1782952649022006000,6.032006103515625,-0.998748779296875,-0.02880859375,0.0061187744140625
1782952649031934000,6.041933837890625,-0.9966583251953125,-0.028839111328125,0.0075225830078125
1782952649041860900,6.05186083984375,-0.9972076416015625,-0.0296173095703125,0.00537109375
1782952649051789000,6.0617890625,-0.998809814453125,-0.0294952392578125,0.0058746337890625
1782952649061716700,6.071716796875,-0.9983978271484375,-0.03021240234375,0.006378173828125
1782952649071643600,6.0816435546875,-0.995758056640625,-0.0312042236328125,0.005615234375
1782952649081571600,6.091571533203125,-0.9985198974609375,-0.0303192138671875,0.005828857421875
1782952649091498500,6.10149853515625,-0.9977874755859375,-0.031494140625,0.0057525634765625
1782952649101426700,6.1114267578125,-0.997467041015625,-0.02960205078125,0.0050811767578125
1782952649111354600,6.121354736328125,-0.9965972900390625,-0.029205322265625,0.0068817138671875
1782952649121281500,6.131281494140625,-0.996063232421875,-0.0299224853515625,0.00604248046875
1782952649131209700,6.141209716796875,-0.9970855712890625,-0.0288848876953125,0.0066986083984375
1782952649141137700,6.1511376953125,-0.9980010986328125,-0.030426025390625,0.0063323974609375
1782952649151064600,6.161064697265625,-0.9974365234375,-0.029876708984375,0.0063934326171875
1782952649160992500,6.170992431640625,-0.996978759765625,-0.030181884765625,0.0045928955078125
1782952649170919700,6.180919677734375,-0.9981231689453125,-0.0286407470703125,0.0052947998046875
1782952649180847600,6.19084765625,-0.998870849609375,-0.02825927734375,0.0065765380859375
1782952649190775600,6.200775634765625,-0.9978790283203125,-0.0291900634765625,0.005096435546875
1782952649200702700,6.21070263671875,-0.996734619140625,-0.03033447265625,0.00531005859375
1782952649210630700,6.220630615234375,-0.99798583984375,-0.0301971435546875,0.0067596435546875
1782952649220558600,6.23055859375,-0.9977264404296875,-0.0290069580078125,0.0057373046875
1782952649230485800,6.24048583984375,-0.997314453125,-0.029296875,0.0061187744140625
1782952649240413700,6.25041357421875,-0.997589111328125,-0.029815673828125,0.0055389404296875
1782952649250340600,6.260340576171875,-0.9980316162109375,-0.02838134765625,0.006622314453125
1782952649260268800,6.270268798828125,-0.996551513671875,-0.0291595458984375,0.0072479248046875
1782952649270196700,6.28019677734375,-0.996673583984375,-0.0296783447265625,0.0053558349609375
1782952649280123600,6.29012353515625,-0.9976806640625,-0.0288238525390625,0.0055084228515625
1782952649290051600,6.300051513671875,-0.9975433349609375,-0.0296478271484375,0.005096435546875
1782952649299979800,6.309979736328125,-0.996978759765625,-0.0295257568359375,0.0063934326171875
1782952649309906700,6.31990673828125,-0.996917724609375,-0.0291900634765625,0.0056304931640625
1782952649319834600,6.329834716796875,-0.9982147216796875,-0.03033447265625,0.0064849853515625
1782952649329761800,6.33976171875,-0.996673583984375,-0.02996826171875,0.0061798095703125
1782952649339689700,6.349689697265625,-0.996063232421875,-0.02960205078125,0.006561279296875
1782952649349617700,6.35961767578125,-0.9972076416015625,-0.02996826171875,0.0062713623046875
1782952649359544800,6.369544921875,-0.998138427734375,-0.0301971435546875,0.005950927734375
1782952649369472800,6.37947265625,-0.9965972900390625,-0.0293121337890625,0.0048065185546875
1782952649379400700,6.389400634765625,-0.9977874755859375,-0.0305938720703125,0.0065460205078125
1782952649389328000,6.399327880859375,-0.9981689453125,-0.0308074951171875,0.0060882568359375
1782952649399255800,6.409255859375,-0.9968719482421875,-0.029205322265625,0.004119873046875
1782952649409182700,6.4191826171875,-0.99774169921875,-0.0290679931640625,0.0046539306640625
1782952649419110700,6.429110595703125,-0.99609375,-0.028594970703125,0.0054473876953125
1782952649429038800,6.439038818359375,-0.99755859375,-0.0298004150390625,0.0062713623046875
1782952649438965800,6.4489658203125,-0.99810791015625,-0.02984619140625,0.005279541015625
1782952649448893700,6.458893798828125,-0.9963531494140625,-0.030426025390625,0.00665283203125
1782952649458820600,6.468820556640625,-0.9961395263671875,-0.0287322998046875,0.005462646484375
1782952649468748500,6.47874853515625,-0.99688720703125,-0.02960205078125,0.00531005859375
1782952649478676700,6.4886767578125,-0.9976348876953125,-0.0299530029296875,0.0067291259765625
1782952649488603600,6.498603759765625,-0.9975433349609375,-0.0285797119140625,0.0059967041015625
1782952649498531600,6.508531494140625,-0.9971923828125,-0.02923583984375,0.00592041015625
1782952649508459500,6.51845947265625,-0.9984283447265625,-0.030120849609375,0.0054779052734375
1782952649518386700,6.52838671875,-0.9969482421875,-0.030181884765625,0.006988525390625
1782952649528314600,6.538314697265625,-0.995758056640625,-0.0299224853515625,0.0056915283203125
1782952649538241500,6.548241455078125,-0.9976348876953125,-0.0290985107421875,0.00531005859375
1782952649548169700,6.558169677734375,-0.9987945556640625,-0.0303192138671875,0.004058837890625
1782952649558097700,6.56809765625,-0.9977874755859375,-0.02935791015625,0.0031585693359375
1782952649568024600,6.578024658203125,-0.99755859375,-0.0303955078125,0.006195068359375
1782952649577952500,6.587952392578125,-0.9969482421875,-0.0296783447265625,0.00555419921875
1782952649587880700,6.597880615234375,-0.997894287109375,-0.0293121337890625,0.004791259765625
1782952649597807600,6.6078076171875,-0.9989471435546875,-0.0300445556640625,0.005218505859375
1782952649607735600,6.617735595703125,-0.99688720703125,-0.0278167724609375,0.004974365234375
1782952649617662700,6.627662841796875,-0.997894287109375,-0.02874755859375,0.0046234130859375
1782952649627590700,6.637590576171875,-0.9982452392578125,-0.0288848876953125,0.0042266845703125
1782952649637518600,6.6475185546875,-0.99737548828125,-0.028839111328125,0.0055389404296875
1782952649647445800,6.65744580078125,-0.9968719482421875,-0.028717041015625,0.0049896240234375
1782952649657373700,6.667373779296875,-0.9974517822265625,-0.0284576416015625,0.00579833984375
1782952649667301600,6.677301513671875,-0.9962615966796875,-0.0302581787109375,0.005401611328125
1782952649677228800,6.687228759765625,-0.998443603515625,-0.0293426513671875,0.00537109375
1782952649687156700,6.69715673828125,-0.9982757568359375,-0.02923583984375,0.005218505859375
1782952649697083600,6.707083740234375,-0.9973907470703125,-0.02862548828125,0.005859375
1782952649707011600,6.717011474609375,-0.9967041015625,-0.0298919677734375,0.0050506591796875
1782952649716939800,6.726939697265625,-0.9976959228515625,-0.0284576416015625,0.0059814453125
1782952649726866700,6.73686669921875,-0.9986572265625,-0.0291748046875,0.0050048828125
1782952649736794600,6.746794677734375,-0.9978485107421875,-0.02978515625,0.00494384765625
1782952649746721800,6.7567216796875,-0.9982452392578125,-0.0296630859375,0.005706787109375
1782952649756649700,6.766649658203125,-0.997344970703125,-0.029205322265625,0.0047454833984375
1782952649766577700,6.77657763671875,-0.9965362548828125,-0.0294952392578125,0.0057830810546875
1782952649776504800,6.7865048828125,-0.9978485107421875,-0.0301361083984375,0.0047607421875
1782952649786432800,6.796432861328125,-0.9974517822265625,-0.0300140380859375,0.0058135986328125
1782952649796360700,6.806360595703125,-0.997894287109375,-0.0305633544921875,0.005889892578125
1782952649806288000,6.816287841796875,-0.99810791015625,-0.0308074951171875,0.0060882568359375
1782952649816215800,6.8262158203125,-0.9972076416015625,-0.02960205078125,0.00555419921875
1782952649826142700,6.836142822265625,-0.9969024658203125,-0.028472900390625,0.006317138671875
1782952649836070700,6.846070556640625,-0.99713134765625,-0.0283050537109375,0.0066070556640625
1782952649845998800,6.855998779296875,-0.9968719482421875,-0.02862548828125,0.006500244140625
1782952649855925800,6.86592578125,-0.996856689453125,-0.030059814453125,0.0048980712890625
1782952649865853700,6.875853759765625,-0.9970245361328125,-0.0305938720703125,0.005706787109375
1782952649875782000,6.885781982421875,-0.9979248046875,-0.0299530029296875,0.0053558349609375
1782952649885708500,6.89570849609375,-0.9962921142578125,-0.0287933349609375,0.005950927734375
1782952649895636700,6.90563671875,-0.9980926513671875,-0.0291900634765625,0.005767822265625
1782952649905563600,6.915563720703125,-0.998626708984375,-0.029876708984375,0.005828857421875
1782952649915491600,6.92549169921875,-0.998626708984375,-0.0300140380859375,0.0065460205078125
1782952649925419500,6.93541943359375,-0.995880126953125,-0.029083251953125,0.0066070556640625
1782952649935346700,6.9453466796875,-0.9958343505859375,-0.03009033203125,0.00537109375
1782952649945274600,6.955274658203125,-0.9963226318359375,-0.0294952392578125,0.0051727294921875
1782952649955201500,6.965201416015625,-0.996917724609375,-0.0295257568359375,0.0045318603515625
1782952649965129700,6.975129638671875,-0.9979248046875,-0.0291900634765625,0.004486083984375
1782952649975057700,6.9850576171875,-0.9965667724609375,-0.0305938720703125,0.0057525634765625
1782952649984984600,6.994984619140625,-0.9981536865234375,-0.0290069580078125,0.0056610107421875
1782952649994912500,7.00491259765625,-0.9963226318359375,-0.030029296875,0.005157470703125
1782952650004840700,7.0148408203125,-0.996490478515625,-0.0291290283203125,0.004791259765625
1782952650014767600,7.024767578125,-0.997772216796875,-0.0299835205078125,0.0077972412109375
1782952650024695600,7.034695556640625,-0.9983978271484375,-0.0290069580078125,0.0061492919921875
1782952650034622700,7.044622802734375,-0.9976959228515625,-0.0282440185546875,0.0045623779296875
1782952650044550700,7.054550537109375,-0.9971160888671875,-0.0296478271484375,0.00482177734375
1782952650054478600,7.064478515625,-0.9970703125,-0.0294647216796875,0.00714111328125
1782952650064406000,7.074406005859375,-0.9968719482421875,-0.0291900634765625,0.0051422119140625
1782952650074334000,7.084333984375,-0.9975738525390625,-0.029754638671875,0.0056915283203125
1782952650084262000,7.094261962890625,-0.9974517822265625,-0.0295867919921875,0.005828857421875
1782952650094189000,7.10418896484375,-0.9978485107421875,-0.0301666259765625,0.0058135986328125
1782952650104117000,7.114116943359375,-0.9979248046875,-0.029998779296875,0.004547119140625
1782952650114044000,7.1240439453125,-0.9979400634765625,-0.029022216796875,0.0035552978515625
1782952650123971800,7.133971923828125,-0.997467041015625,-0.0291595458984375,0.0057525634765625
1782952650133900000,7.143900146484375,-0.9962310791015625,-0.0293426513671875,0.004730224609375
1782952650143827000,7.153826904296875,-0.9972076416015625,-0.02972412109375,0.005615234375
1782952650153755000,7.1637548828125,-0.9971771240234375,-0.0291900634765625,0.0061798095703125
1782952650163682000,7.17368212890625,-0.996978759765625,-0.0291290283203125,0.00665283203125
1782952650173610000,7.18360986328125,-0.9967803955078125,-0.0306243896484375,0.006591796875
1782952650183538000,7.193537841796875,-0.9970703125,-0.029449462890625,0.0051727294921875
1782952650193465000,7.203465087890625,-0.9974517822265625,-0.0288238525390625,0.00567626953125
1782952650203393000,7.21339306640625,-0.9985809326171875,-0.02825927734375,0.0053253173828125
1782952650213321000,7.223321044921875,-0.99749755859375,-0.0295867919921875,0.0050048828125
1782952650223248100,7.233248046875,-0.9971160888671875,-0.0283660888671875,0.0055389404296875
1782952650233176000,7.243176025390625,-0.997314453125,-0.030364990234375,0.0046234130859375
1782952650243103000,7.25310302734375,-0.9975738525390625,-0.03009033203125,0.005645751953125
1782952650253031000,7.263031005859375,-0.9984130859375,-0.028564453125,0.0053863525390625
1782952650262959000,7.272958984375,-0.9969329833984375,-0.028564453125,0.00372314453125
1782952650272886000,7.282885986328125,-0.9971466064453125,-0.0298004150390625,0.00579833984375
1782952650282814000,7.29281396484375,-0.9983062744140625,-0.0280609130859375,0.006134033203125
1782952650292741000,7.3027412109375,-0.9977264404296875,-0.029571533203125,0.0068511962890625
1782952650302669000,7.3126689453125,-0.9960784912109375,-0.028717041015625,0.0037078857421875
1782952650312597000,7.322596923828125,-0.99749755859375,-0.0296630859375,0.00518798828125
1782952650322524200,7.332524169921875,-0.9974365234375,-0.02886962890625,0.0069122314453125
1782952650332452000,7.3424521484375,-0.9973602294921875,-0.0298309326171875,0.00592041015625
1782952650342380000,7.352380126953125,-0.998291015625,-0.030242919921875,0.00445556640625
1782952650352307200,7.36230712890625,-0.9981231689453125,-0.02984619140625,0.0068359375
1782952650362235100,7.372235107421875,-0.99676513671875,-0.0287322998046875,0.00482177734375
1782952650372161800,7.382161865234375,-0.997894287109375,-0.02960205078125,0.004852294921875
1782952650382090000,7.392090087890625,-0.9979095458984375,-0.030120849609375,0.00579833984375
1782952650392018200,7.40201806640625,-0.9970855712890625,-0.0300750732421875,0.00396728515625
1782952650401944800,7.41194482421875,-0.9980010986328125,-0.02813720703125,0.005859375
1782952650411872800,7.421872802734375,-0.99713134765625,-0.0280303955078125,0.0062255859375
1782952650421801200,7.43180126953125,-0.9989776611328125,-0.02911376953125,0.0057220458984375
1782952650431727900,7.441727783203125,-0.9980010986328125,-0.0287628173828125,0.0057373046875
1782952650441655800,7.45165576171875,-0.9977569580078125,-0.028106689453125,0.00518798828125
1782952650451583000,7.4615830078125,-0.9976348876953125,-0.030609130859375,0.0051727294921875
1782952650461511000,7.471510986328125,-0.9974365234375,-0.0287017822265625,0.0059661865234375
1782952650471438800,7.48143896484375,-0.9972076416015625,-0.029083251953125,0.0056610107421875
1782952650481366000,7.491365966796875,-0.996917724609375,-0.028411865234375,0.004852294921875
1782952650491294000,7.5012939453125,-0.99774169921875,-0.029296875,0.0053558349609375
1782952650501220900,7.511220947265625,-0.99761962890625,-0.029571533203125,0.0046234130859375
1782952650511149000,7.521149169921875,-0.997344970703125,-0.0291290283203125,0.0062408447265625
1782952650521077000,7.531076904296875,-0.9984130859375,-0.028900146484375,0.00482177734375
1782952650531004000,7.54100390625,-0.9977569580078125,-0.0288848876953125,0.007293701171875
1782952650540931800,7.550931884765625,-0.997222900390625,-0.0296783447265625,0.005706787109375
1782952650550860000,7.560860107421875,-0.996429443359375,-0.02911376953125,0.00335693359375
1782952650560787000,7.570786865234375,-0.9976959228515625,-0.0305023193359375,0.005859375
1782952650570715000,7.58071484375,-0.99652099609375,-0.0283966064453125,0.0047454833984375
1782952650580642000,7.59064208984375,-0.9968414306640625,-0.02947998046875,0.003753662109375
1782952650590570000,7.600570068359375,-0.9976043701171875,-0.0291900634765625,0.0059356689453125
1782952650600498000,7.610497802734375,-0.9970245361328125,-0.0287628173828125,0.00592041015625
1782952650610425000,7.620425048828125,-0.9986114501953125,-0.0294342041015625,0.0042572021484375
1782952650620353000,7.63035302734375,-0.9984283447265625,-0.03045654296875,0.005889892578125
1782952650630280000,7.640280029296875,-0.9971466064453125,-0.02911376953125,0.00531005859375
1782952650640208100,7.6502080078125,-0.9990997314453125,-0.0295257568359375,0.0061492919921875
1782952650650136000,7.660135986328125,-0.9962615966796875,-0.030059814453125,0.0057373046875
1782952650660063000,7.67006298828125,-0.9964599609375,-0.0306549072265625,0.0047149658203125
1782952650669991000,7.679990966796875,-0.997161865234375,-0.0286712646484375,0.0050201416015625
1782952650679919000,7.689919189453125,-0.9976806640625,-0.0289459228515625,0.0064239501953125
1782952650689846000,7.699845947265625,-0.996368408203125,-0.0290374755859375,0.004241943359375
1782952650699774000,7.70977392578125,-0.997283935546875,-0.02899169921875,0.0049285888671875
1782952650709701000,7.719701171875,-0.9976654052734375,-0.0290679931640625,0.0073394775390625
1782952650719629000,7.729629150390625,-0.997406005859375,-0.030792236328125,0.00543212890625
1782952650729557000,7.739556884765625,-0.9980621337890625,-0.02911376953125,0.004302978515625
1782952650739484200,7.749484130859375,-0.9975738525390625,-0.028839111328125,0.0064697265625
1782952650749412000,7.759412109375,-0.9970550537109375,-0.0287628173828125,0.0059356689453125
1782952650759339000,7.769339111328125,-0.997406005859375,-0.0296630859375,0.0049591064453125
1782952650769267200,7.77926708984375,-0.99725341796875,-0.0312347412109375,0.00616455078125
1782952650779195100,7.789195068359375,-0.9971923828125,-0.0301361083984375,0.00628662109375
1782952650789121800,7.799121826171875,-0.996246337890625,-0.0283355712890625,0.00640869140625
1782952650799050000,7.809050048828125,-0.9967041015625,-0.028961181640625,0.005706787109375
1782952650808978200,7.818978271484375,-0.9977874755859375,-0.02960205078125,0.0058441162109375
1782952650818904800,7.82890478515625,-0.9980316162109375,-0.02935791015625,0.00531005859375
1782952650828832800,7.838832763671875,-0.9966278076171875,-0.029541015625,0.0068359375
1782952650838760000,7.848760009765625,-0.9965362548828125,-0.029571533203125,0.00579833984375
1782952650848687900,7.85868798828125,-0.998046875,-0.030181884765625,0.0045166015625
1782952650858615800,7.86861572265625,-0.9969482421875,-0.029205322265625,0.0059356689453125
1782952650868543000,7.87854296875,-0.997222900390625,-0.0303955078125,0.006103515625
1782952650878471000,7.888470947265625,-0.996826171875,-0.0294036865234375,0.0054779052734375
1782952650888397800,7.898397705078125,-0.996917724609375,-0.0279998779296875,0.00604248046875
1782952650898326000,7.908325927734375,-0.997802734375,-0.028289794921875,0.005615234375
1782952650908254000,7.91825390625,-0.997222900390625,-0.0302581787109375,0.0062103271484375
1782952650918180900,7.928180908203125,-0.9981231689453125,-0.02880859375,0.00665283203125
1782952650928109000,7.938109130859375,-0.997406005859375,-0.0296478271484375,0.004547119140625
1782952650938037000,7.948037109375,-0.997833251953125,-0.030914306640625,0.00494384765625
1782952650947964000,7.9579638671875,-0.9979400634765625,-0.0285186767578125,0.0048675537109375
1782952650957891800,7.967891845703125,-0.9974822998046875,-0.02886962890625,0.0048828125
1782952650967819000,7.977819091796875,-0.997283935546875,-0.0289154052734375,0.007049560546875
1782952650977747000,7.987746826171875,-0.997344970703125,-0.0290374755859375,0.0057525634765625
1782952650987675000,7.9976748046875,-0.9965667724609375,-0.029205322265625,0.0048675537109375
1782952650997602000,8.00760205078125,-0.9974517822265625,-0.0284881591796875,0.006591796875
1782952651007530000,8.017530029296875,-0.9976348876953125,-0.0310516357421875,0.0060272216796875
1782952651017457000,8.027456787109376,-0.9984588623046875,-0.0301513671875,0.0062255859375
1782952651027385000,8.037385009765625,-0.99664306640625,-0.029998779296875,0.007354736328125
1782952651037313000,8.04731298828125,-0.996337890625,-0.0311279296875,0.0053253173828125
1782952651047240000,8.057239990234375,-0.99639892578125,-0.030181884765625,0.002899169921875
1782952651057168100,8.067168212890625,-0.9950714111328125,-0.02960205078125,0.0063629150390625
1782952651067095600,8.077095458984376,-0.9977264404296875,-0.029754638671875,0.00701904296875
1782952651077022500,8.0870224609375,-0.9966888427734375,-0.02947998046875,0.00604248046875
1782952651086950700,8.09695068359375,-0.9965057373046875,-0.02880859375,0.006195068359375
1782952651096877600,8.106877685546875,-0.9981231689453125,-0.0299835205078125,0.00604248046875
1782952651106805500,8.116805419921874,-0.998748779296875,-0.029388427734375,0.0056915283203125
1782952651116733400,8.1267333984375,-0.9971923828125,-0.0302734375,0.0067291259765625
1782952651126660600,8.13666064453125,-0.997344970703125,-0.0307159423828125,0.006256103515625
1782952651136588500,8.146588623046876,-0.9982757568359375,-0.0294647216796875,0.0031585693359375
1782952651146516500,8.1565166015625,-0.9972991943359375,-0.0290985107421875,0.0051422119140625
1782952651156443600,8.166443603515624,-0.997528076171875,-0.0301361083984375,0.007049560546875
1782952651166371600,8.17637158203125,-0.9966278076171875,-0.029083251953125,0.0059661865234375
1782952651176298500,8.186298583984374,-0.996978759765625,-0.029937744140625,0.004638671875
1782952651186226700,8.196226806640626,-0.9960784912109375,-0.028778076171875,0.004425048828125
1782952651196154600,8.206154541015625,-0.997802734375,-0.029632568359375,0.0050811767578125
1782952651206081500,8.21608154296875,-0.9980010986328125,-0.0301055908203125,0.0054168701171875
1782952651216009700,8.226009765625,-0.99755859375,-0.0301513671875,0.005889892578125
1782952651225936600,8.2359365234375,-0.995849609375,-0.0286102294921875,0.0049591064453125
1782952651235864600,8.245864501953125,-0.9972381591796875,-0.0291290283203125,0.0062103271484375
1782952651245792500,8.25579248046875,-0.9986724853515625,-0.02935791015625,0.0057373046875
1782952651255719700,8.2657197265625,-0.997283935546875,-0.0289459228515625,0.0060882568359375
1782952651265647600,8.275647705078125,-0.9984130859375,-0.029541015625,0.0056610107421875
1782952651275575600,8.285575439453124,-0.9977874755859375,-0.029571533203125,0.005096435546875
1782952651285502700,8.295502685546875,-0.99810791015625,-0.0297393798828125,0.0058135986328125
1782952651295430700,8.3054306640625,-0.9976806640625,-0.029449462890625,0.0045318603515625
1782952651305357600,8.315357666015625,-0.9969329833984375,-0.030120849609375,0.0057830810546875
1782952651315285500,8.325285400390625,-0.9978485107421875,-0.0297088623046875,0.0066680908203125
1782952651325213700,8.335213623046876,-0.9975738525390625,-0.0290679931640625,0.005859375
1782952651335140400,8.345140380859375,-0.9976959228515625,-0.0307159423828125,0.0044403076171875
1782952651345068500,8.355068603515624,-0.9978179931640625,-0.02947998046875,0.00482177734375
1782952651354995500,8.364995361328125,-0.9972991943359375,-0.0294189453125,0.0049896240234375
1782952651364923400,8.37492333984375,-0.9980010986328125,-0.029571533203125,0.005828857421875
1782952651374851600,8.3848515625,-0.9972076416015625,-0.029815673828125,0.0061492919921875
1782952651384778500,8.394778564453125,-0.9965972900390625,-0.0305938720703125,0.0061187744140625
1782952651394706400,8.40470654296875,-0.997802734375,-0.0290374755859375,0.005126953125
1782952651404634400,8.41463427734375,-0.99700927734375,-0.029754638671875,0.0041046142578125
1782952651414561500,8.4245615234375,-0.996368408203125,-0.0282135009765625,0.0050048828125
1782952651424489500,8.434489501953125,-0.99755859375,-0.0296173095703125,0.00494384765625
1782952651434416600,8.444416748046875,-0.9971771240234375,-0.02935791015625,0.00537109375
1782952651444344600,8.454344482421876,-0.9957733154296875,-0.03118896484375,0.006439208984375
1782952651454272500,8.4642724609375,-0.9979095458984375,-0.02862548828125,0.004974365234375
1782952651464199400,8.474199462890626,-0.996551513671875,-0.0291748046875,0.0057220458984375
1782952651474127600,8.484127685546875,-0.9975738525390625,-0.0308990478515625,0.0062103271484375
1782952651484054500,8.494054443359374,-0.9981842041015625,-0.0287017822265625,0.005615234375
1782952651493982500,8.503982421875,-0.9972381591796875,-0.0289459228515625,0.0054473876953125
1782952651503910700,8.51391064453125,-0.996826171875,-0.03173828125,0.0054931640625
1782952651513837600,8.523837646484376,-0.9974517822265625,-0.028900146484375,0.006378173828125
1782952651523765500,8.533765625,-0.9970550537109375,-0.0296478271484375,0.007354736328125
1782952651533692700,8.543692626953124,-0.997833251953125,-0.0290374755859375,0.0044403076171875
1782952651543620600,8.55362060546875,-0.996490478515625,-0.02789306640625,0.0055999755859375
1782952651553548500,8.563548583984375,-0.996734619140625,-0.02960205078125,0.006317138671875
1782952651563475700,8.573475830078126,-0.998321533203125,-0.0285186767578125,0.0062713623046875
1782952651573403600,8.583403564453125,-0.9978790283203125,-0.02947998046875,0.0066375732421875
1782952651583331600,8.59333154296875,-0.9971160888671875,-0.0301513671875,0.004852294921875
1782952651593258500,8.603258544921875,-0.9974517822265625,-0.0308685302734375,0.0058135986328125
1782952651603186700,8.613186767578124,-0.996826171875,-0.029205322265625,0.006805419921875
1782952651613113600,8.623113525390625,-0.996826171875,-0.0294342041015625,0.004608154296875
1782952651623041500,8.63304150390625,-0.997222900390625,-0.0289764404296875,0.0064239501953125
1782952651632969700,8.6429697265625,-0.9980316162109375,-0.029052734375,0.004302978515625
1782952651642896600,8.652896728515625,-0.9976043701171875,-0.0301361083984375,0.005157470703125
1782952651652824600,8.662824462890624,-0.99737548828125,-0.0297088623046875,0.0074005126953125
1782952651662751700,8.672751708984375,-0.997039794921875,-0.030059814453125,0.00604248046875
1782952651672679700,8.6826796875,-0.9970245361328125,-0.029266357421875,0.00604248046875
1782952651682607600,8.692607666015626,-0.995819091796875,-0.02960205078125,0.00640869140625
1782952651692534500,8.702534423828125,-1.0018768310546875,-0.027801513671875,0.0066375732421875
1782952651702462700,8.712462646484376,-0.99560546875,-0.03009033203125,0.005859375
1782952651712390700,8.722390625,-0.9976654052734375,-0.0294036865234375,0.0048980712890625
1782952651722317600,8.732317626953124,-0.9978790283203125,-0.0289306640625,0.006591796875
1782952651732245500,8.74224560546875,-0.999267578125,-0.0278167724609375,0.0068206787109375
1782952651742172400,8.75217236328125,-0.9956207275390625,-0.0298919677734375,0.0045013427734375
1782952651752100400,8.762100341796875,-0.9987640380859375,-0.0299835205078125,0.0052642822265625
1782952651762028500,8.772028564453125,-0.9968414306640625,-0.03076171875,0.006439208984375
1782952651771955500,8.78195556640625,-0.996856689453125,-0.0301361083984375,0.00689697265625
1782952651781883400,8.79188330078125,-0.9981536865234375,-0.0308380126953125,0.00439453125
1782952651791810600,8.801810546875,-0.997344970703125,-0.0286407470703125,0.0048828125
1782952651801738500,8.811738525390625,-0.9953765869140625,-0.0298309326171875,0.0061492919921875
1782952651811666400,8.82166650390625,-0.9977264404296875,-0.03070068359375,0.0053558349609375
1782952651821593600,8.831593505859376,-0.9961395263671875,-0.0294647216796875,0.0050201416015625
1782952651831521500,8.841521484375,-0.99749755859375,-0.029052734375,0.005706787109375
1782952651841448400,8.851448486328126,-0.9964447021484375,-0.030059814453125,0.0053253173828125
1782952651851376600,8.861376708984375,-0.997772216796875,-0.029937744140625,0.004669189453125
1782952651861304600,8.8713046875,-0.9961700439453125,-0.0288543701171875,0.0053558349609375
1782952651871231500,8.8812314453125,-0.996673583984375,-0.0308380126953125,0.0051116943359375
1782952651881159400,8.891159423828125,-0.999267578125,-0.0284423828125,0.0065460205078125
1782952651891087600,8.901087646484376,-0.995574951171875,-0.0285797119140625,0.0057220458984375
1782952651901014500,8.9110146484375,-0.99810791015625,-0.0277252197265625,0.0074615478515625
1782952651910942500,8.9209423828125,-0.9965667724609375,-0.028656005859375,0.006622314453125
1782952651920869600,8.93086962890625,-0.9982757568359375,-0.0299835205078125,0.0055389404296875
1782952651930797600,8.940797607421874,-0.9970703125,-0.0313720703125,0.005615234375
1782952651940725500,8.9507255859375,-0.998138427734375,-0.030792236328125,0.0059967041015625
1782952651950652700,8.960652587890625,-0.9979705810546875,-0.0289459228515625,0.0053253173828125
1782952651960580600,8.97058056640625,-0.9976806640625,-0.0296173095703125,0.0051116943359375
1782952651970507500,8.980507568359375,-0.99786376953125,-0.0292205810546875,0.0065765380859375
1782952651980435700,8.990435791015624,-0.996337890625,-0.027984619140625,0.0072784423828125
1782952651990363600,9.00036376953125,-0.997314453125,-0.0286712646484375,0.006011962890625
1782952652000290600,9.01029052734375,-0.997406005859375,-0.031402587890625,0.00665283203125
1782952652010218500,9.020218505859376,-0.9976806640625,-0.0301055908203125,0.0032958984375
1782952652020146700,9.030146728515625,-0.99700927734375,-0.0301361083984375,0.0050201416015625
1782952652030073600,9.040073486328126,-0.99755859375,-0.028472900390625,0.0045623779296875
1782952652040001500,9.05000146484375,-0.99725341796875,-0.0284271240234375,0.0052947998046875
1782952652049928700,9.0599287109375,-0.9976806640625,-0.0299530029296875,0.0060882568359375
1782952652059856600,9.069856689453125,-0.9959564208984375,-0.0291290283203125,0.0064544677734375
1782952652069784800,9.079784912109375,-0.9966583251953125,-0.02850341796875,0.0061187744140625
1782952652079712000,9.0897119140625,-0.9981536865234375,-0.0289459228515625,0.0059051513671875
1782952652089640000,9.099639892578125,-0.997039794921875,-0.02838134765625,0.0050811767578125
1782952652099566600,9.109566650390626,-0.9972381591796875,-0.0298309326171875,0.00469970703125
1782952652109495000,9.1194951171875,-0.99627685546875,-0.0306243896484375,0.0044708251953125
1782952652119423000,9.129423095703125,-0.998504638671875,-0.0288848876953125,0.0068206787109375
1782952652129349600,9.139349609375,-0.99737548828125,-0.02899169921875,0.0062255859375
1782952652139277800,9.14927783203125,-0.9954986572265625,-0.0296173095703125,0.00579833984375
1782952652149204700,9.159204833984376,-0.9974517822265625,-0.03021240234375,0.0075836181640625
1782952652159132700,9.169132568359375,-0.9967193603515625,-0.0289306640625,0.00714111328125
1782952652169060600,9.179060546875,-0.996551513671875,-0.029815673828125,0.00372314453125
1782952652178987800,9.18898779296875,-0.99713134765625,-0.0302276611328125,0.0045013427734375
1782952652188915700,9.198915771484375,-0.9964599609375,-0.030548095703125,0.0042266845703125
1782952652198843600,9.20884375,-0.9973297119140625,-0.02960205078125,0.005859375
1782952652208770800,9.218770751953125,-0.997955322265625,-0.0294647216796875,0.0052947998046875
1782952652218698800,9.22869873046875,-0.9967193603515625,-0.0289764404296875,0.008148193359375
1782952652228625700,9.238625732421875,-0.9976654052734375,-0.029541015625,0.0064849853515625
1782952652238553900,9.248553955078124,-0.9962921142578125,-0.02752685546875,0.0082550048828125
1782952652248481800,9.258481689453125,-0.996826171875,-0.02899169921875,0.006195068359375
1782952652258408700,9.26840869140625,-0.99688720703125,-0.030059814453125,0.004119873046875
1782952652268337000,9.2783369140625,-0.9978179931640625,-0.0296173095703125,0.0040740966796875
1782952652278263800,9.288263916015625,-0.9973907470703125,-0.030792236328125,0.0045623779296875
1782952652288191700,9.298191650390624,-0.9962005615234375,-0.0296630859375,0.004852294921875
1782952652298119700,9.30811962890625,-0.9974822998046875,-0.028961181640625,0.0055389404296875
1782952652308045800,9.3180458984375,-0.996246337890625,-0.03125,0.0052642822265625
1782952652317973800,9.327973876953125,-0.99530029296875,-0.029022216796875,0.006622314453125
1782952652327901000,9.33790087890625,-0.9974822998046875,-0.0298309326171875,0.0056304931640625
1782952652337828900,9.347828857421876,-0.9980621337890625,-0.03045654296875,0.0063323974609375
1782952652347756800,9.3577568359375,-0.997528076171875,-0.0292816162109375,0.0067901611328125
1782952652357684000,9.36768408203125,-0.9978485107421875,-0.0287933349609375,0.0047607421875
1782952652367612000,9.37761181640625,-0.9977264404296875,-0.030792236328125,0.005859375
1782952652377539800,9.387539794921874,-0.998291015625,-0.0313873291015625,0.00445556640625
1782952652387467000,9.397467041015625,-0.9967498779296875,-0.0320587158203125,0.0040740966796875
1782952652397395000,9.40739501953125,-0.9976348876953125,-0.031097412109375,0.0040435791015625
1782952652407321600,9.417321533203125,-0.9976806640625,-0.031005859375,0.00567626953125
1782952652417249800,9.427249755859375,-0.9973907470703125,-0.03070068359375,0.0062713623046875
1782952652427178000,9.437177978515624,-0.9973602294921875,-0.0282135009765625,0.0069732666015625
1782952652437104600,9.447104736328125,-0.9965972900390625,-0.029510498046875,0.006256103515625
1782952652447032600,9.457032470703124,-0.9976806640625,-0.028106689453125,0.0052337646484375
1782952652456959700,9.466959716796875,-0.996673583984375,-0.0279388427734375,0.0056304931640625
1782952652466887700,9.4768876953125,-0.9974517822265625,-0.0294036865234375,0.00531005859375
1782952652476815600,9.486815673828126,-0.997314453125,-0.028778076171875,0.0054473876953125
1782952652486742800,9.49674267578125,-0.997833251953125,-0.030181884765625,0.004913330078125
1782952652496670700,9.506670654296874,-0.99591064453125,-0.0307159423828125,0.0053558349609375
1782952652506597600,9.51659765625,-0.99560546875,-0.02984619140625,0.005126953125
1782952652516525800,9.52652587890625,-0.9976806640625,-0.0279083251953125,0.005859375
1782952652526453800,9.536453857421876,-0.9978179931640625,-0.028594970703125,0.0076141357421875
1782952652536380700,9.546380615234375,-0.99578857421875,-0.0272216796875,0.008270263671875
1782952652546308900,9.556308837890626,-0.9983673095703125,-0.0283966064453125,0.005645751953125
1782952652556235800,9.56623583984375,-0.9970550537109375,-0.0304412841796875,0.0048980712890625
1782952652566163700,9.576163818359374,-0.997650146484375,-0.0326080322265625,0.0048065185546875
1782952652576091600,9.586091552734375,-0.997406005859375,-0.030548095703125,0.004119873046875
1782952652586018800,9.596018798828124,-0.9960479736328125,-0.0291595458984375,0.0065765380859375
1782952652595946800,9.60594677734375,-0.9971923828125,-0.0293426513671875,0.0074615478515625
1782952652605874700,9.615874755859375,-0.9982757568359375,-0.027862548828125,0.0071563720703125
1782952652615801900,9.6258017578125,-0.997283935546875,-0.027984619140625,0.00750732421875
1782952652625729800,9.635729736328125,-0.998687744140625,-0.029205322265625,0.0040283203125
1782952652635657000,9.645656982421874,-0.9983062744140625,-0.0315399169921875,0.004150390625
1782952652645585000,9.6555849609375,-0.998992919921875,-0.0321807861328125,0.0037994384765625
1782952652655512800,9.665512939453125,-0.9982757568359375,-0.0315399169921875,0.00457763671875
1782952652665439700,9.675439697265626,-0.996124267578125,-0.0296783447265625,0.005340576171875
1782952652675368700,9.68536865234375,-0.996978759765625,-0.028564453125,0.0057525634765625
1782952652685295900,9.6952958984375,-0.9977264404296875,-0.028533935546875,0.008697509765625
1782952652695223800,9.705223876953125,-0.995849609375,-0.028472900390625,0.007049560546875
1782952652705151700,9.71515185546875,-0.9969940185546875,-0.0269927978515625,0.00689697265625
1782952652715079000,9.725078857421876,-0.996307373046875,-0.0304412841796875,0.0043792724609375
1782952652725006800,9.7350068359375,-0.997650146484375,-0.030548095703125,0.0041656494140625
1782952652734933800,9.744933837890626,-0.9965972900390625,-0.030975341796875,0.0049896240234375
1782952652744862000,9.754862060546875,-0.9971923828125,-0.0290374755859375,0.0060882568359375
1782952652754790000,9.764789794921874,-0.9965057373046875,-0.029327392578125,0.00567626953125
1782952652764716800,9.774716796875,-0.996612548828125,-0.02862548828125,0.004974365234375
1782952652774644700,9.784644775390625,-0.9959869384765625,-0.0273895263671875,0.00628662109375
1782952652784572000,9.794572021484376,-0.9976806640625,-0.029815673828125,0.0050811767578125
1782952652794499800,9.804499755859375,-0.9967193603515625,-0.02911376953125,0.0044403076171875
1782952652804427800,9.814427734375,-0.9969635009765625,-0.030181884765625,0.004547119140625
1782952652814355000,9.82435498046875,-0.9971771240234375,-0.030670166015625,0.004638671875
1782952652824283000,9.834282958984375,-0.9973602294921875,-0.029296875,0.0059967041015625
1782952652834209800,9.844209716796875,-0.9972381591796875,-0.027862548828125,0.0053253173828125
1782952652844138000,9.854137939453125,-0.9979400634765625,-0.029541015625,0.0055999755859375
1782952652854066000,9.86406591796875,-0.9964447021484375,-0.0291748046875,0.006195068359375
1782952652863992600,9.87399267578125,-0.9957733154296875,-0.02947998046875,0.0061798095703125
1782952652873921000,9.883921142578124,-0.9967803955078125,-0.0299072265625,0.004425048828125
1782952652883849000,9.893848876953125,-0.99755859375,-0.0309600830078125,0.0048980712890625
1782952652893775600,9.903775634765625,-0.9979400634765625,-0.0300140380859375,0.004486083984375
1782952652903703800,9.913703857421876,-0.9978790283203125,-0.029510498046875,0.00421142578125
1782952652913630700,9.923630615234375,-0.99822998046875,-0.028594970703125,0.0076446533203125
1782952652923558700,9.93355859375,-0.9987335205078125,-0.0298614501953125,0.006011962890625
1782952652933486600,9.943486572265625,-0.9976959228515625,-0.02984619140625,0.004791259765625
1782952652943413800,9.953413818359374,-0.9971923828125,-0.02886962890625,0.004058837890625
1782952652953341700,9.963341796875,-0.9962921142578125,-0.03167724609375,0.0052947998046875
1782952652963268900,9.973268798828125,-0.996673583984375,-0.0306854248046875,0.0056915283203125
1782952652973196800,9.98319677734375,-0.9967498779296875,-0.0298614501953125,0.0060577392578125
1782952652983124700,9.993124755859375,-0.99664306640625,-0.0299835205078125,0.0082550048828125
1782952652993051600,10.0030517578125,-0.997344970703125,-0.029052734375,0.006561279296875
1782952653002979800,10.012979736328125,-0.9968414306640625,-0.0303192138671875,0.006317138671875
1782952653012906800,10.02290673828125,-0.9976348876953125,-0.029937744140625,0.006683349609375
1782952653022834700,10.032834716796875,-0.9966888427734375,-0.0298004150390625,0.0067138671875
1782952653032763000,10.042762939453125,-0.99700927734375,-0.0312347412109375,0.005950927734375
1782952653042689800,10.052689697265626,-0.9984130859375,-0.02947998046875,0.0054168701171875
1782952653052617700,10.06261767578125,-0.9971160888671875,-0.0293121337890625,0.005706787109375
1782952653062544600,10.072544677734374,-0.9971160888671875,-0.029266357421875,0.0055694580078125
1782952653072472600,10.08247265625,-0.997589111328125,-0.02960205078125,0.0055389404296875
1782952653082400500,10.092400390625,-0.9977569580078125,-0.0308837890625,0.0059814453125
1782952653092327700,10.10232763671875,-0.9971771240234375,-0.028564453125,0.006011962890625
1782952653102255600,10.112255615234375,-0.9975128173828125,-0.030670166015625,0.005706787109375
1782952653112183600,10.12218359375,-0.9969940185546875,-0.0298614501953125,0.006011962890625
1782952653122110700,10.13211083984375,-0.998016357421875,-0.02880859375,0.0072479248046875
1782952653132038700,10.14203857421875,-0.99749755859375,-0.028411865234375,0.005767822265625
1782952653141965600,10.151965576171875,-0.998870849609375,-0.0300140380859375,0.00634765625
1782952653151893500,10.1618935546875,-0.99664306640625,-0.029022216796875,0.006103515625
1782952653161821700,10.17182177734375,-0.997772216796875,-0.0290985107421875,0.005950927734375
1782952653171748600,10.18174853515625,-0.996734619140625,-0.02978515625,0.0042877197265625
1782952653181676500,10.191676513671876,-0.996063232421875,-0.028961181640625,0.0039520263671875
1782952653191603700,10.201603759765625,-0.9979400634765625,-0.0289764404296875,0.0048370361328125
1782952653201531600,10.21153173828125,-0.9961700439453125,-0.030914306640625,0.005279541015625
1782952653211459600,10.22145947265625,-0.996124267578125,-0.03009033203125,0.0040283203125
1782952653221386800,10.23138671875,-0.9961090087890625,-0.0297698974609375,0.0061492919921875
1782952653231314700,10.241314697265626,-0.99725341796875,-0.0283203125,0.0069427490234375
1782952653241241300,10.251241455078125,-0.9956512451171875,-0.0292205810546875,0.0062408447265625
1782952653251169500,10.26116943359375,-0.997100830078125,-0.029815673828125,0.0062713623046875
1782952653261097700,10.27109765625,-0.9980316162109375,-0.02978515625,0.005035400390625
1782952653271024400,10.2810244140625,-0.996246337890625,-0.029205322265625,0.006011962890625
1782952653280952600,10.29095263671875,-0.9964447021484375,-0.029510498046875,0.0052032470703125
1782952653290879500,10.30087939453125,-0.9971771240234375,-0.030059814453125,0.004730224609375
1782952653300807400,10.310807373046876,-0.9969329833984375,-0.030426025390625,0.0045166015625
1782952653310735400,10.3207353515625,-0.997772216796875,-0.029510498046875,0.004608154296875
1782952653320662500,10.33066259765625,-0.99676513671875,-0.0301055908203125,0.0066070556640625
1782952653330590500,10.340590576171875,-0.9985809326171875,-0.0295867919921875,0.005767822265625
1782952653340517600,10.350517578125,-0.9971771240234375,-0.0295867919921875,0.0061187744140625
1782952653350445600,10.360445556640625,-0.9967193603515625,-0.0294342041015625,0.0059051513671875
1782952653360373500,10.37037353515625,-0.99822998046875,-0.029693603515625,0.0078277587890625
1782952653370300400,10.380300537109376,-0.997802734375,-0.029205322265625,0.00494384765625
1782952653380228600,10.390228515625,-0.996917724609375,-0.0296630859375,0.0045013427734375
1782952653390156500,10.400156494140624,-0.9979400634765625,-0.02777099609375,0.0046844482421875
1782952653400083500,10.41008349609375,-0.9976806640625,-0.03009033203125,0.0055389404296875
1782952653410011600,10.42001171875,-0.9963836669921875,-0.0293121337890625,0.0063629150390625
1782952653419938600,10.4299384765625,-0.9961700439453125,-0.02899169921875,0.00787353515625
1782952653429866500,10.439866455078125,-0.9978485107421875,-0.029632568359375,0.0076446533203125
1782952653439794400,10.44979443359375,-0.9978485107421875,-0.0302276611328125,0.006378173828125
1782952653449721600,10.4597216796875,-0.99725341796875,-0.028564453125,0.00408935546875
1782952653459649500,10.4696494140625,-0.99774169921875,-0.028900146484375,0.004669189453125
1782952653469576700,10.47957666015625,-0.997711181640625,-0.028900146484375,0.0066070556640625
1782952653479504600,10.489504638671875,-0.996246337890625,-0.0288848876953125,0.0058441162109375
1782952653489432600,10.4994326171875,-0.997100830078125,-0.0301666259765625,0.005950927734375
1782952653499359500,10.509359375,-0.9969940185546875,-0.029052734375,0.00677490234375
1782952653509287700,10.51928759765625,-0.9978485107421875,-0.029998779296875,0.00543212890625
1782952653519214600,10.529214599609375,-0.99676513671875,-0.029815673828125,0.005615234375
1782952653529142500,10.539142578125,-0.997650146484375,-0.0290374755859375,0.00677490234375
1782952653539070700,10.54907080078125,-0.998260498046875,-0.028350830078125,0.007354736328125
1782952653548997600,10.55899755859375,-0.996826171875,-0.0293426513671875,0.0061492919921875
1782952653558925600,10.568925537109376,-0.9967803955078125,-0.029022216796875,0.0066986083984375
1782952653568852700,10.578852783203125,-0.997467041015625,-0.029327392578125,0.0062255859375
1782952653578780700,10.58878076171875,-0.9963836669921875,-0.0277099609375,0.006072998046875
1782952653588708600,10.59870849609375,-0.9967193603515625,-0.0284576416015625,0.0053863525390625
1782952653598635800,10.6086357421875,-0.9983367919921875,-0.0287628173828125,0.00360107421875
1782952653608563700,10.618563720703126,-0.99822998046875,-0.031982421875,0.0029296875
1782952653618490400,10.628490478515625,-0.9976654052734375,-0.031097412109375,0.0049285888671875
1782952653628418600,10.63841845703125,-0.99761962890625,-0.0298004150390625,0.0045928955078125
1782952653638346800,10.6483466796875,-0.99798583984375,-0.0284423828125,0.0049896240234375
1782952653648273400,10.6582734375,-0.9967498779296875,-0.0289764404296875,0.0067138671875
1782952653658201300,10.668201416015625,-0.9962158203125,-0.027496337890625,0.0060272216796875
1782952653668128500,10.67812841796875,-0.9963531494140625,-0.0295867919921875,0.007354736328125
1782952653678056400,10.688056396484376,-0.9971923828125,-0.0297698974609375,0.0058441162109375
1782952653687984400,10.697984375,-0.9990234375,-0.0312957763671875,0.0032501220703125
1782952653697911600,10.70791162109375,-0.9964141845703125,-0.03118896484375,0.0052337646484375
1782952653707839500,10.717839599609375,-0.996368408203125,-0.0301361083984375,0.00543212890625
1782952653717766400,10.727766357421874,-0.9968109130859375,-0.0286102294921875,0.0048980712890625
1782952653727694600,10.737694580078125,-0.997650146484375,-0.028900146484375,0.0075225830078125
1782952653737622500,10.74762255859375,-0.9973297119140625,-0.0283966064453125,0.0064544677734375
1782952653747549400,10.757549560546876,-0.998565673828125,-0.02874755859375,0.006134033203125
1782952653757477600,10.7674775390625,-0.998077392578125,-0.02960205078125,0.0062255859375
1782952653767405600,10.777405517578124,-0.9973907470703125,-0.0302276611328125,0.006072998046875
1782952653777332500,10.78733251953125,-0.9976806640625,-0.03045654296875,0.00445556640625
1782952653787260400,10.797260498046874,-0.9987640380859375,-0.0307769775390625,0.005645751953125
1782952653797187600,10.8071875,-0.9975738525390625,-0.0299835205078125,0.0053558349609375
1782952653807115500,10.817115478515625,-0.9975433349609375,-0.0294342041015625,0.006561279296875
1782952653817042700,10.827042724609376,-0.9979400634765625,-0.0284881591796875,0.007598876953125
1782952653826970600,10.836970703125,-0.997528076171875,-0.0295562744140625,0.0050048828125
1782952653836898600,10.846898681640624,-0.9973602294921875,-0.0289459228515625,0.005218505859375
1782952653846825500,10.856825439453125,-0.99859619140625,-0.02783203125,0.00482177734375
1782952653856753700,10.866753662109375,-0.9993743896484375,-0.028594970703125,0.0064697265625
1782952653866681600,10.876681640625,-0.9980010986328125,-0.0291900634765625,0.0057220458984375
1782952653876608500,10.8866083984375,-0.9978179931640625,-0.027801513671875,0.0053863525390625
1782952653886536700,10.89653662109375,-0.9969635009765625,-0.027923583984375,0.0082855224609375
1782952653896463600,10.906463623046875,-0.9967803955078125,-0.028167724609375,0.0058746337890625
1782952653906391600,10.9163916015625,-0.9958038330078125,-0.0297698974609375,0.0050811767578125
1782952653916319500,10.926319580078125,-0.9978179931640625,-0.029449462890625,0.0042572021484375
1782952653926246700,10.93624658203125,-0.9964752197265625,-0.0287017822265625,0.0052642822265625
1782952653936174600,10.946174560546876,-0.997467041015625,-0.02960205078125,0.005218505859375
1782952653946101800,10.956101806640625,-0.99591064453125,-0.029510498046875,0.0056610107421875
1782952653956029700,10.96602978515625,-0.99755859375,-0.03021240234375,0.00439453125
1782952653965957600,10.97595751953125,-0.9979400634765625,-0.03009033203125,0.0070037841796875
1782952653975884800,10.985884765625,-0.99603271484375,-0.0300445556640625,0.0074462890625
1782952653985812700,10.995812744140625,-0.9965972900390625,-0.0290679931640625,0.0061492919921875
1782952653995739400,11.005739501953125,-0.9981842041015625,-0.0303497314453125,0.0055999755859375
1782952654005667300,11.015667236328126,-0.9983673095703125,-0.0300140380859375,0.0045318603515625
1782952654015595800,11.025595703125,-0.997406005859375,-0.0304412841796875,0.0064849853515625
1782952654025522400,11.0355224609375,-0.997039794921875,-0.0289764404296875,0.0061187744140625
1782952654035450400,11.045450439453125,-0.9976959228515625,-0.028839111328125,0.005157470703125
1782952654045377500,11.05537744140625,-0.996978759765625,-0.0315093994140625,0.0048828125
1782952654055305500,11.065305419921875,-0.9986572265625,-0.0291290283203125,0.0070953369140625
1782952654065233000,11.07523291015625,-0.9978485107421875,-0.02923583984375,0.00677490234375
1782952654075160000,11.08516015625,-0.99652099609375,-0.02899169921875,0.00543212890625
1782952654085088000,11.095087890625,-0.996917724609375,-0.028961181640625,0.00531005859375
1782952654095015200,11.10501513671875,-0.998138427734375,-0.0291290283203125,0.005218505859375
1782952654104943000,11.114943115234375,-0.9975433349609375,-0.0283050537109375,0.0047149658203125
1782952654114871000,11.12487109375,-0.9973602294921875,-0.0291290283203125,0.005828857421875
1782952654124798000,11.1347978515625,-0.9977874755859375,-0.029754638671875,0.0043792724609375
1782952654134726100,11.14472607421875,-0.9965972900390625,-0.0301513671875,0.0049591064453125
1782952654144653000,11.154653076171876,-0.99798583984375,-0.0304107666015625,0.003936767578125
1782952654154581000,11.1645810546875,-0.9963226318359375,-0.0277862548828125,0.006866455078125
1782952654164509200,11.17450927734375,-0.996917724609375,-0.030181884765625,0.0068206787109375
1782952654174436000,11.18443603515625,-0.9969329833984375,-0.0283355712890625,0.006103515625
1782952654184364000,11.194364013671875,-0.9980926513671875,-0.0286712646484375,0.005279541015625
1782952654194291200,11.204291259765625,-0.997161865234375,-0.0296173095703125,0.0052490234375
1782952654204219100,11.21421923828125,-0.997833251953125,-0.030609130859375,0.005157470703125
1782952654214147000,11.22414697265625,-0.9970550537109375,-0.0301971435546875,0.005340576171875
1782952654224074200,11.23407421875,-0.9976959228515625,-0.030120849609375,0.00537109375
1782952654234002200,11.244002197265624,-0.9974212646484375,-0.02862548828125,0.0039825439453125
1782952654243929000,11.25392919921875,-0.9983673095703125,-0.0290985107421875,0.0053863525390625
1782952654253857000,11.26385693359375,-0.9970245361328125,-0.0298309326171875,0.0075836181640625
1782952654263785200,11.27378515625,-0.996795654296875,-0.0286407470703125,0.0060882568359375
1782952654273712000,11.283712158203125,-0.9971160888671875,-0.0294647216796875,0.0053253173828125
1782952654283640000,11.29364013671875,-0.996978759765625,-0.02838134765625,0.0030670166015625
1782952654293567200,11.303567138671875,-0.996978759765625,-0.030303955078125,0.0050048828125
1782952654303495200,11.3134951171875,-0.998046875,-0.02996826171875,0.007049560546875
1782952654313423000,11.323423095703125,-0.9989166259765625,-0.02984619140625,0.006378173828125
1782952654323350300,11.333350341796875,-0.997100830078125,-0.0300750732421875,0.0043182373046875
1782952654333278200,11.3432783203125,-1.0045013427734375,-0.0287322998046875,0.0026092529296875
1782952654343205000,11.353205078125,-0.9890899658203125,-0.0285186767578125,0.009857177734375
1782952654353133300,11.36313330078125,-0.9974365234375,-0.0285491943359375,0.004486083984375
1782952654363061200,11.373061279296875,-0.994110107421875,-0.029449462890625,0.007232666015625
1782952654372988000,11.38298779296875,-0.9962005615234375,-0.0291748046875,0.00732421875
1782952654382916000,11.392916015625,-0.997894287109375,-0.0294036865234375,0.0062408447265625
1782952654392843000,11.402843017578125,-0.998077392578125,-0.0300445556640625,0.0055389404296875
