time,seconds_elapsed,z,y,x
1782952643051776800,0.06177685546875,-0.0022122878581285477,0.002418682910501957,0.002350772265344858
1782952643061703400,0.071703369140625,0.0015249260468408465,0.006460029631853104,0.0024029703345149755
1782952643071631400,0.08163134765625,-0.0018245317041873932,0.0072986590676009655,0.00013848437811248004
1782952643081559300,0.091559326171875,-0.0006956176948733628,0.004516454879194498,0.0024525050539523363
1782952643091486500,0.101486572265625,-0.00011345066013745964,0.003719104453921318,0.00013848437811248004
1782952643101414400,0.111414306640625,0.0007568703731521964,0.005435511935502291,0.0018303906545042992
1782952643111341600,0.121341552734375,-0.0031614385079592466,0.004519917070865631,-0.0019510318525135517
1782952643121269500,0.13126953125,0.001139566651545465,0.005131112411618233,0.0017595505341887474
1782952643131197400,0.141197509765625,-0.0010905644157901406,0.003992877434939146,0.002516420790925622
1782952643141124600,0.15112451171875,0.0012088088551536202,0.0038874163292348385,0.0035420041531324387
1782952643151052500,0.161052490234375,0.000075101139373146,0.002983805723488331,0.0009853695519268513
1782952643160980500,0.17098046875,-0.001633316627703607,0.002662894781678915,0.0017931063193827868
1782952643170907400,0.180907470703125,-0.0016077503096312284,0.006454703398048878,0.0006905576447024941
1782952643180835600,0.190835693359375,-0.0026224146131426096,0.0052168662659823895,0.001711081014946103
1782952643190763500,0.200763427734375,-0.001591771375387907,0.006652842741459608,-0.00358860963024199
1782952643200690400,0.2106904296875,-0.003465571440756321,0.0054427022114396095,0.001112668658606708
1782952643210618400,0.220618408203125,-0.0005821670056320727,0.004716191906481981,0.001386441639624536
1782952643220546600,0.230546630859375,-0.003212837502360344,0.0038892803713679314,0.001329982653260231
1782952643230473500,0.240473388671875,-0.002516953507438302,0.005075186025351286,0.0008724515791982412
1782952643240401400,0.2504013671875,-0.003005110891535878,0.0046120621263980865,0.002546514617279172
1782952643250328600,0.26032861328125,0.00043116576853208244,0.005254150368273258,-0.00029534456552937627
1782952643260256500,0.270256591796875,0.0004929511342197657,0.005776130128651857,0.0003779025573749095
1782952643270184400,0.280184326171875,-0.0012207929976284504,0.005333246197551489,0.0030810111202299595
1782952643280111600,0.290111572265625,0.0004207794554531574,0.0036727653350681067,0.002150236163288355
1782952643290039600,0.30003955078125,0.002035187790170312,0.003266367129981518,-0.000464188982732594
1782952643299967500,0.309967529296875,-0.0016684704460203648,0.0036157737486064434,0.00011877698125317693
1782952643309894400,0.319894287109375,-0.001734516816213727,0.004959604702889919,0.0009704558760859072
1782952643319822600,0.329822509765625,-0.0023190807551145554,0.00643632747232914,-0.002418416552245617
1782952643329750500,0.33975048828125,0.0017803232185542583,0.0038930089212954044,0.0027089675422757864
1782952643339677400,0.349677490234375,-0.0014258564915508032,0.0067939902655780315,0.0040794298984110355
1782952643349605400,0.35960546875,-0.00013209278404247016,0.004596349783241749,0.0012684636749327183
1782952643359533600,0.369533447265625,0.0003014698449987918,0.0036575854755938053,0.0025891251862049103
1782952643369460200,0.379460205078125,0.0013198626693338156,0.0016058861510828137,-0.0010881676571443677
1782952643379388400,0.389388427734375,0.00016777914424892515,0.0037798245903104544,0.0008564725867472589
1782952643389316400,0.39931640625,0.001577123999595642,0.004051200579851866,0.0011592740193009377
1782952643399243300,0.4092431640625,-0.00019361180602572858,0.005050152540206909,0.0016402408946305513
1782952643409171500,0.41917138671875,-0.0023246733471751213,0.0036709012929350138,-0.0007158577209338546
1782952643419098400,0.429098388671875,-0.0012689962750300765,0.003881823504343629,0.0006332996999844909
1782952643429026300,0.4390263671875,0.0006407565670087934,0.003739078063517809,0.0005483448621816933
1782952643438954200,0.448954345703125,-0.00009906959166983142,0.0037792918737977743,0.0019560917280614376
1782952643448881400,0.45888134765625,0.0026493126060813665,0.004612861201167107,0.0007134608458727598
1782952643458809300,0.468809326171875,-0.0013571468880400062,0.003049319377169013,0.0026612968649715185
1782952643468737300,0.4787373046875,-0.0014242585748434067,0.007802795618772507,0.0010522148804739118
1782952643478664400,0.48866455078125,-0.0023433153983205557,0.00737376045435667,0.00047111319145187736
1782952643488592400,0.49859228515625,-0.001570998691022396,0.005428853910416365,0.0023339942563325167
1782952643498520300,0.508520263671875,-0.0006820355774834752,0.004306597635149956,-0.0005217132274992764
1782952643508447500,0.518447509765625,0.00030067088664509356,0.0030975225381553173,0.0015030881622806191
1782952643518375400,0.52837548828125,-0.0024525050539523363,0.004396346397697926,-0.0009206547983922064
1782952643528303400,0.538303466796875,-0.00358754419721663,0.0020540961995720863,0.0007696535321883857
1782952643538230500,0.54823046875,-0.002654106356203556,0.004850149154663086,0.0011584750609472394
1782952643548158500,0.558158447265625,0.0005328985280357301,0.005141498986631632,0.00007323692989302799
1782952643558085400,0.56808544921875,-0.0005605954211205244,0.006721019744873047,0.0024264061357825994
1782952643568013300,0.578013427734375,0.0001699096756055951,0.00732422573491931,0.000556600687559694
1782952643577941500,0.58794140625,-0.00038988678716123104,0.0034972631838172674,0.0017664746847003698
1782952643587868400,0.597868408203125,0.0012090750969946384,0.003983289934694767,-0.0008633967954665422
1782952643597796400,0.60779638671875,0.0006002765148878098,0.0076182386837899685,0.0014213290996849537
1782952643607724500,0.617724609375,-0.003916444722563028,0.005156146362423897,-0.00008122641156660393
1782952643617651500,0.6276513671875,-0.003917243797332048,0.004956675227731466,0.002261556452140212
1782952643627579400,0.637579345703125,0.00005326322207110934,0.005664277356117964,0.0035444011446088552
1782952643637507300,0.64750732421875,-0.0015246596885845065,0.006850449368357658,0.0021318604703992605
1782952643647434500,0.6574345703125,0.0004956142511218786,0.004559597931802273,0.0012953615514561534
1782952643657362400,0.667362548828125,-0.0018841864075511694,0.003944141324609518,0.0020367854740470648
1782952643667290400,0.677290283203125,-0.001416002749465406,0.00481313094496727,0.0001651159836910665
1782952643677217500,0.687217529296875,0.00009933590627042577,0.005311941262334585,-0.00013741910515818745
1782952643687145500,0.6971455078125,-0.00196408131159842,0.004218713380396366,0.0001584580895723775
1782952643697073400,0.707073486328125,-0.0006207828409969807,0.005231780000030994,0.0012301141396164894
1782952643707000600,0.71700048828125,-0.0005006743012927473,0.003799531841650605,0.0008567389450035989
1782952643716928500,0.726928466796875,0.000248472933890298,0.004543352872133255,0.0026730147656053305
1782952643726856400,0.7368564453125,0.0008383630774915218,0.0052293832413852215,0.0007677893154323101
1782952643736783600,0.74678369140625,-0.0030450583435595036,0.007837150245904922,-0.0016801883466541767
1782952643746711600,0.756711669921875,-0.0016354472609236836,0.005052016582340002,-0.0002844255941454321
1782952643756638500,0.766638427734375,-0.0011036139912903309,0.004033091012388468,0.0007922904333099723
1782952643766566400,0.77656640625,-0.0012740562669932842,0.004480235744267702,0.0030692932195961475
1782952643776494600,0.78649462890625,-0.00011691277177305892,0.0034759577829390764,0.0019542276859283447
1782952643786421500,0.79642138671875,0.00029534456552937627,0.0060112872160971165,-0.00007057376933516935
1782952643796349400,0.806349365234375,-0.002528937766328454,0.005952431354671717,0.002567020943388343
1782952643806277600,0.816277587890625,-0.0016045545926317573,0.003433080855756998,-0.0005254416610114276
1782952643816204500,0.82620458984375,0.0004146541759837419,0.0057798586785793304,0.0025515747256577015
1782952643826132500,0.836132568359375,-0.0005747101386077702,0.0034077810123562813,-0.0004942826926708221
1782952643836060400,0.846060302734375,0.0012713931500911713,0.004465322010219097,-0.00023089606838766485
1782952643845987300,0.8559873046875,0.0012042814632877707,0.005517803598195314,-0.00043329631444066763
1782952643855915500,0.86591552734375,-0.003353186184540391,0.0037057886365801096,-0.00005619269722956233
1782952643865843500,0.875843505859375,-0.0023963123094290495,0.00449914438650012,0.0011856392957270145
1782952643875770400,0.885770263671875,-0.00344533147290349,0.003029079409316182,0.0009912285022437572
1782952643885698300,0.8956982421875,-0.0012365056900307536,0.002217081608250737,-0.00029348034877330065
1782952643895625500,0.90562548828125,-0.0003115898580290377,0.0036477316170930862,0.0030959248542785645
1782952643905553400,0.915553466796875,-0.0007217166712507606,0.006114884279668331,-0.0002407497668173164
1782952643915481300,0.9254814453125,-0.0004040015337523073,0.005179582163691521,0.0014650048688054085
1782952643925408300,0.935408203125,-0.002241050126031041,0.00649678148329258,0.0020506340079009533
1782952643935336400,0.94533642578125,-0.0001358212175546214,0.004030960611999035,0.0022543659433722496
1782952643945264400,0.955264404296875,0.0005550027708522975,0.00475374236702919,0.0028221518732607365
1782952643955191300,0.96519140625,-0.0008111988427117467,0.004503138829022646,0.0021257351618260145
1782952643965119500,0.975119384765625,-0.0010809770319610834,0.0036647759843617678,-0.00035926041891798377
1782952643975047400,0.98504736328125,0.00035686357296071947,0.0054693338461220264,0.000010120012120751198
1782952643984974300,0.994974365234375,-0.0005363606614992023,0.007190534844994545,0.00031638352083973587
1782952643994902300,1.00490234375,-0.0013560815714299679,0.00421471893787384,-0.0016298545524477959
1782952644004829400,1.014829345703125,-0.0003938815207220614,0.004246676806360483,0.0034967304673045874
1782952644014757400,1.02475732421875,-0.0023883229587227106,0.001588575541973114,-0.0018279937794432044
1782952644024685300,1.034685302734375,0.0002639192680362612,0.0041699777357280254,-0.0005139900604262948
1782952644034612500,1.044612548828125,-0.00011078749957960099,0.005106611177325249,-0.0012474246323108673
1782952644044540400,1.05454052734375,-0.0007344998302869499,0.002426672261208296,0.002418150193989277
1782952644054468600,1.064468505859375,0.002133192028850317,0.0020727382507175207,0.0021547635551542044
1782952644064395800,1.074395751953125,-0.0025592977181077003,0.002727875951677561,0.000007723167072981596
1782952644074323700,1.08432373046875,-0.0015872439835220575,0.004644286818802357,-0.00040080572944134474
1782952644084251600,1.094251708984375,0.001418665866367519,0.0028362665325403214,0.002037584548816085
1782952644094178600,1.104178466796875,-0.0033955303952097893,0.005343899130821228,0.000254331884207204
1782952644104106800,1.114106689453125,-0.00213665422052145,0.0032892702147364616,0.0004575310740619898
1782952644114034700,1.12403466796875,0.0009946906939148903,0.005555620416998863,-0.003367034485563636
1782952644123961300,1.13396142578125,0.0016535567119717598,0.0027148264925926924,-0.000060453756304923445
1782952644133889800,1.143889892578125,-0.002493517706170678,0.00686083547770977,0.00010812433902174234
1782952644143816400,1.15381640625,0.002544117858633399,0.0023845944087952375,0.0007462177309207618
1782952644153744400,1.163744384765625,-0.0010809770319610834,0.0057257963344454765,0.0004756405542138964
1782952644163672300,1.17367236328125,-0.0015390408225357533,0.006313023157417774,0.0005856291390955448
1782952644173599500,1.183599609375,-0.0003281014505773783,0.004488757811486721,-0.00035606464371085167
1782952644183527400,1.19352734375,-0.000630902883131057,0.005012335255742073,0.001055943313986063
1782952644193455400,1.203455322265625,-0.0009760485263541341,0.004860002547502518,0.0023667511995881796
1782952644203382500,1.213382568359375,-0.0022216090001165867,0.005319664254784584,0.0012998889433220029
1782952644213310500,1.223310546875,0.0004988100845366716,0.0035001926589757204,0.0029854036401957273
1782952644223238400,1.23323828125,-0.0001882854849100113,0.006332730874419212,0.00015819176041986793
1782952644233165600,1.24316552734375,-0.00027750138542614877,0.002234658459201455,0.0008990831556729972
1782952644243093500,1.253093505859375,-0.0007486145477741957,0.00538384635001421,0.0011257182341068983
1782952644253021400,1.263021484375,0.0003376888344064355,0.0054184673354029655,0.001767273643054068
1782952644262948600,1.272948486328125,-0.0015417039394378662,0.005680788774043322,0.001976065570488572
1782952644272876500,1.28287646484375,-0.0015896408585831523,0.004603273700922728,0.0014599448768422008
1782952644282803500,1.292803466796875,-0.0006548712844960392,0.0034266894217580557,-0.0015635418239980936
1782952644292731600,1.302731689453125,0.002811499172821641,0.0029443909879773855,0.0023576964158564806
1782952644302659600,1.31265966796875,0.001990979304537177,0.003823234001174569,-0.0010748518398031592
1782952644312586500,1.32258642578125,-0.0008431567694060504,0.005782788153737783,0.0010540791554376483
1782952644322514400,1.332514404296875,0.0011342403013259172,0.00379021093249321,0.0001174454009742476
1782952644332442600,1.342442626953125,-0.0016831178218126297,0.005052815657109022,-0.0001257012045243755
1782952644342369500,1.35236962890625,-0.002167813014239073,0.006911968346685171,0.0023675502743571997
1782952644352297500,1.36229736328125,0.0014884406700730324,0.005622731987386942,0.001347293145954609
1782952644362225400,1.372225341796875,0.0005816344055347145,0.003304982790723443,0.0017504957504570484
1782952644372152600,1.382152587890625,-0.001998702296987176,0.004087952431291342,0.003971039317548275
1782952644382080500,1.39208056640625,-0.0020719394087791443,0.005047488957643509,0.0009685916593298316
1782952644392007700,1.402007568359375,-0.001588575541973114,0.004334561061114073,0.0011052117915824056
1782952644401935600,1.411935546875,-0.0005957491230219603,0.006733536254614592,0.0011736550368368626
1782952644411863600,1.421863525390625,-0.0009334379574283957,0.005245894659310579,0.002379800658673048
1782952644421790700,1.431790771484375,-0.0030160299502313137,0.006374808494001627,0.002493784064427018
1782952644431718700,1.44171875,-0.002460494404658675,0.005105546209961176,0.0014016216155141592
1782952644441646600,1.451646484375,-0.001365402713418007,0.00436119269579649,0.0021052288357168436
1782952644451573500,1.461573486328125,-0.0001073253879440017,0.005362008698284626,0.0012088088551536202
1782952644461501700,1.471501708984375,-0.0013670006301254034,0.003876497270539403,0.001356614287942648
1782952644471429600,1.4814296875,-0.0010692591313272715,0.005242166109383106,-0.0020631509833037853
1782952644481356500,1.4913564453125,-0.0003920173039659858,0.004208060912787914,-0.0000021305288555595325
1782952644491284700,1.50128466796875,-0.003394198836758733,0.007714112289249897,0.000535561703145504
1782952644501211600,1.511211669921875,-0.00017417073831893504,0.004983839578926563,0.0009462211164645851
1782952644511139600,1.5211396484375,-0.002600576728582382,0.004194478504359722,0.0014125406742095947
1782952644521067500,1.531067626953125,-0.0015006912872195244,0.004068244714289904,0.001538241864182055
1782952644530994700,1.54099462890625,-0.0017326525412499905,0.005382781382650137,0.0030101709999144077
1782952644540922600,1.550922607421875,-0.0014386395923793316,0.005550294183194637,0.0008135957177728415
1782952644550850600,1.5608505859375,-0.0020594224333763123,0.006943926215171814,0.001704955706372857
1782952644560777700,1.57077783203125,-0.0006042712484486401,0.007434746716171503,-0.0014908375451341271
1782952644570705700,1.58070556640625,-0.0004069310089107603,0.004681038204580545,0.0021409152541309595
1782952644580633600,1.590633544921875,0.0007472829893231392,0.003999002743512392,0.00015206649550236762
1782952644590560800,1.600560791015625,-0.0008010788587853312,0.004743356257677078,0.0014021543320268393
1782952644600488700,1.61048876953125,0.00009960222087102011,0.005112736485898495,0.001460743835195899
1782952644610415400,1.620415283203125,-0.0007781756576150656,0.006434996146708727,-0.0005251753609627485
1782952644620343600,1.630343505859375,-0.0032357405871152878,0.005593969952315092,0.0004338289436418563
1782952644630271700,1.640271728515625,-0.0006450176006183028,0.0033907366450875998,0.0025888588279485703
1782952644640198400,1.650198486328125,-0.0013664679136127234,0.005997971165925264,-0.0011608719360083342
1782952644650126300,1.660126220703125,0.002025067573413253,0.005612878128886223,0.0005496764206327498
1782952644660054500,1.670054443359375,0.00041998049709945917,0.005685849115252495,0.0007925567333586514
1782952644669981400,1.6799814453125,0.0020684772171080112,0.003832022426649928,-0.00010226538870483637
1782952644679909400,1.689909423828125,0.0013142699608579278,0.0031912659760564566,-0.0005033374181948602
1782952644689837600,1.699837646484375,-0.0026940538082271814,0.004470914602279663,-0.0026194851379841566
1782952644699764500,1.709764404296875,-0.00020213393145240843,0.003921238239854574,-0.00014061490946915
1782952644709692400,1.7196923828125,0.0013494236627593637,0.004005926661193371,0.0026668894570320845
1782952644719619600,1.72961962890625,-0.002313754288479686,0.005994243081659079,-0.0009867012267932296
1782952644729547500,1.739547607421875,-0.002213885774835944,0.00635004136711359,0.0009741843095980585
1782952644739475500,1.749475341796875,-0.000990695902146399,0.006551908794790506,0.001085770782083273
1782952644749402600,1.759402587890625,-0.0026876621413975954,0.005942311137914658,0.0010391654213890433
1782952644759330600,1.76933056640625,-0.0006697850185446441,0.005853095557540655,0.002511627273634076
1782952644769258500,1.779258544921875,0.0012266519479453564,0.004542287439107895,0.002037584548816085
1782952644779185400,1.789185302734375,-0.0005142564186826348,0.004250404890626669,0.0006764429272152483
1782952644789113600,1.799113525390625,-0.0008191883680410683,0.0028905950020998716,0.0006924218614585698
1782952644799041500,1.80904150390625,0.00005326322207110934,0.00432976707816124,-0.0013305152533575892
1782952644808968400,1.818968505859375,-0.0033300165086984634,0.004532966297119856,0.00033449303009547293
1782952644818896600,1.828896728515625,-0.0029055087361484766,0.005024319514632225,-0.00023675501870457083
1782952644828823600,1.838823486328125,-0.0009683253592811525,0.004116448108106852,0.0011598066193982959
1782952644838751500,1.84875146484375,0.0024285365361720324,0.006362824235111475,0.0031787490006536245
1782952644848679400,1.858679443359375,-0.0009928264189511538,0.0028306739404797554,-0.00024208133982028812
1782952644858606600,1.868606689453125,-0.001680987305007875,0.004171575419604778,-0.0009462211164645851
1782952644868534500,1.878534423828125,-0.0009238505735993385,0.00506826164200902,0.00070520507870242
1782952644878462500,1.88846240234375,-0.0012887036427855492,0.006652043666690588,0.0013949638232588768
1782952644888389600,1.8983896484375,-0.001353418454527855,0.0028423918411135674,0.0024612934794276953
1782952644898317600,1.908317626953125,0.00003968110104324296,0.00373082235455513,0.0016964336391538382
1782952644908245500,1.91824560546875,0.000794420950114727,0.004029628820717335,-0.0005459480453282595
1782952644918172700,1.928172607421875,-0.0017776599852368236,0.004604339133948088,0.0007195860962383449
1782952644928100600,1.9381005859375,-0.0009829727932810783,0.005730856209993362,-0.001933987601660192
1782952644938027500,1.948027587890625,0.0004825647920370102,0.0030282805673778057,0.003090332029387355
1782952644947955700,1.957955810546875,-0.0014647386269643903,0.005064533557742834,0.0015925703337416053
1782952644957883600,1.967883544921875,-0.0032794165890663862,0.006538859568536282,0.0010735202813521028
1782952644967810600,1.977810546875,-0.0007411577389575541,0.0027174896094948053,0.0013470269041135907
1782952644977738500,1.987738525390625,-0.00029827404068782926,0.005016596522182226,0.0035830168053507805
1782952644987666700,1.997666748046875,0.0012921657180413604,0.004210457671433687,0.0012551478575915098
1782952644997593600,2.007593505859375,-0.004803543444722891,0.004877579398453236,0.0005821670056320727
1782952645007521500,2.017521484375,-0.0028250813484191895,0.004254932515323162,0.00018136126163881272
1782952645017449700,2.02744970703125,-0.0008703210623934865,0.006332198157906532,0.0012783173006027937
1782952645027376600,2.037376708984375,-0.001528920722194016,0.003984888084232807,-0.0004724447790067643
1782952645037304600,2.0473046875,-0.0013752563390880823,0.0059510995633900166,0.0006170544074848294
1782952645047231700,2.057231689453125,-0.00016538229829166085,0.006611031014472246,-0.002561694709584117
1782952645057159400,2.067159423828125,-0.0022338596172630787,0.005887450184673071,0.0011590076610445976
1782952645067087400,2.07708740234375,-0.0004213120846543461,0.005662146955728531,0.0010346380295231938
1782952645077014300,2.08701416015625,-0.0017779263434931636,0.005334844347089529,0.0000756337758502923
1782952645086942200,2.096942138671875,-0.0034173682797700167,0.0034208304714411497,-0.002511893631890416
1782952645096870400,2.106870361328125,-0.002415220718830824,0.005144960712641478,-0.0010346380295231938
1782952645106797300,2.11679736328125,-0.0011835087789222598,0.0067966533824801445,-0.000051399008953012526
1782952645116725200,2.126725341796875,-0.00012010856153210625,0.005082643125206232,0.002092445734888315
1782952645126653200,2.136653076171875,-0.0006639260682277381,0.004037884995341301,0.0015156050212681293
1782952645136580400,2.146580322265625,-0.002210689941421151,0.006665891967713833,0.002290052128955722
1782952645146508300,2.15650830078125,-0.0022828616201877594,0.005474926438182592,0.0019867182709276676
1782952645156435200,2.166435302734375,-0.0015366439474746585,0.0035806200467050076,0.0015094797126948833
1782952645166363100,2.176363037109375,-0.0007829693495295942,0.003865312086418271,0.0037294907961040735
1782952645176291300,2.186291259765625,0.00021278657368384302,0.004860801622271538,0.001389637473039329
1782952645186218200,2.19621826171875,-0.00133903743699193,0.004111654590815306,0.0016756609547883272
1782952645196146200,2.206146240234375,-0.003725229762494564,0.0034519892651587725,-0.00024501082953065634
1782952645206074000,2.21607421875,0.00043223105603829026,0.004496214911341667,-0.00029774141148664057
1782952645216001300,2.226001220703125,-0.0010583401890471578,0.004863731097429991,-0.0010516822803765535
1782952645225929200,2.23592919921875,0.0007962851668708026,0.0008351673022843897,-0.0004386226355563849
1782952645235857200,2.245857177734375,-0.00016431703988928348,0.006376673001796007,0.0022186795249581337
1782952645245784300,2.255784423828125,-0.0012234562309458852,0.003792874049395323,0.00009108010999625549
1782952645255712300,2.265712158203125,-0.004397944081574678,0.0016831178218126297,0.0008761800127103925
1782952645265639400,2.275639404296875,-0.003406715579330921,0.00717721926048398,0.000595216522924602
1782952645275567400,2.2855673828125,-0.002472745021805167,0.00404640706256032,0.00019254654762335122
1782952645285495300,2.295495361328125,-0.0012865731259807944,0.003905792022123933,-0.0005387574783526361
1782952645295422200,2.305422119140625,-0.0006913566030561924,0.003430417738854885,0.0012231898726895452
1782952645305350400,2.315350341796875,-0.0023670175578445196,0.004549744538962841,0.00021172130072955042
1782952645315278300,2.3252783203125,-0.00038056570338085294,0.003739610780030489,0.0012010856298729777
1782952645325205200,2.335205322265625,-0.0020423782989382744,0.004764661658555269,-0.0013558153295889497
1782952645335133400,2.345133544921875,0.0012471582740545273,0.004605404566973448,0.0012964267516508698
1782952645345060400,2.355060302734375,-0.0014245248166844249,0.004880775231868029,0.0025007082149386406
1782952645354988300,2.36498828125,0.0021811288315802813,0.005760683678090572,-0.0019523634109646082
1782952645364916200,2.374916259765625,-0.0014540859265252948,0.0037926076911389828,0.0005667206714861095
1782952645374843400,2.384843505859375,-0.000029294771593413316,0.003547064261510968,-0.00126713200006634
1782952645384771300,2.394771240234375,-0.0007784419576637447,0.0031819448340684175,0.00018695391190703958
1782952645394699300,2.40469921875,-0.00008974852971732616,0.006852313410490751,0.0036991306114941835
1782952645404626400,2.41462646484375,-0.0015981629258021712,0.005626194179058075,0.0022272015921771526
1782952645414554400,2.424554443359375,-0.0008607336785644293,0.004093012306839228,-0.00004660531703848392
1782952645424482300,2.434482421875,-0.0015345134306699038,0.006490656174719334,0.0009518137667328119
1782952645434409500,2.444409423828125,-0.0024700819049030542,0.00532472413033247,0.0016903083305805922
1782952645444337400,2.45433740234375,0.0012442287988960743,0.004028297495096922,0.0014769891276955605
1782952645454264300,2.464264404296875,-0.00010226538870483637,0.004862399306148291,0.0023425165563821793
1782952645464192500,2.474192626953125,0.00023302659974433482,0.005272259935736656,-0.00004873584839515388
1782952645474120400,2.484120361328125,-0.0007757788407616317,0.0060091568157076836,0.0006082659820094705
1782952645484047400,2.49404736328125,-0.0012415656819939613,0.006067479960620403,0.0017499631503596902
1782952645493975300,2.503975341796875,-0.0017603494925424457,0.0054392400197684765,0.0003632551815826446
1782952645503903500,2.513903564453125,0.0004391552647575736,0.004385427106171846,-0.0013233247445896268
1782952645513830400,2.523830322265625,0.000017843178284238093,0.004275438841432333,-0.0011885687708854675
1782952645523758300,2.53375830078125,0.0010604707058519125,0.007321562618017197,0.0007984156836755574
1782952645533686300,2.543686279296875,0.00042796999332495034,0.005260275676846504,0.0008096009842120111
1782952645543613200,2.55361328125,-0.003635214874520898,0.005571332760155201,-0.002621882129460573
1782952645553541400,2.563541259765625,-0.0015933692920953035,0.0049372343346476555,0.0010958907660096884
1782952645563468300,2.57346826171875,-0.0012993563432246447,0.006809968966990709,0.002948652021586895
1782952645573396200,2.583396240234375,-0.0015390408225357533,0.005507417023181915,-0.0013736584223806858
1782952645583324200,2.59332421875,0.0007648598402738571,0.0060299295000731945,0.002038117265328765
1782952645593251300,2.603251220703125,0.000014647385796706658,0.004643221385776997,0.0014444985426962376
1782952645603179300,2.61317919921875,-0.0021933794487267733,0.004268514458090067,-0.0002519350382499397
1782952645613107200,2.623107177734375,-0.0018298579379916191,0.008189219981431961,-0.0015701997326686978
1782952645623034000,2.6330341796875,-0.00318966805934906,0.005286374595016241,0.0021547635551542044
1782952645632962300,2.64296240234375,0.00026604978484101593,0.006189452484250069,-0.0016974988393485546
1782952645642889200,2.65288916015625,-0.002228266792371869,0.00381444557569921,0.0023318638559430838
1782952645652817200,2.662817138671875,0.001790975802578032,0.006887200754135847,0.0009443568997085094
1782952645662745300,2.672745361328125,-0.002020274056121707,0.0059508332051336765,-0.000720118754543364
1782952645672672300,2.68267236328125,0.0025933862198144197,0.007899735122919083,0.0008412926108576357
1782952645682600200,2.69260009765625,-0.002264485927298665,0.0057044909335672855,-0.0012631373247131705
1782952645692528000,2.702528076171875,-0.000550475378986448,0.0038211036007851362,0.0009539442835375667
1782952645702455300,2.712455322265625,-0.0019113506423309445,0.006046707276254892,0.00020160128769930452
1782952645712383200,2.72238330078125,0.001228516222909093,0.0062158177606761456,-0.00008681904728291556
1782952645722311200,2.732311279296875,0.0014764565275982022,0.004344947170466185,0.0011595403775572777
1782952645732238300,2.74223828125,0.0012034825049340725,0.0029784792568534613,0.0018556906143203378
1782952645742166300,2.752166259765625,0.0011680624447762966,0.004565989598631859,-0.00045380264054983854
1782952645752093400,2.762093505859375,-0.0029228192288428545,0.006098372396081686,0.0021827267482876778
1782952645762021400,2.772021484375,-0.0008088020258583128,0.006313822232186794,0.0018703379901126027
1782952645771949300,2.78194921875,-0.0014745922526344657,0.007866178639233112,-0.0025036376900970936
1782952645781876200,2.791876220703125,-0.0013691311469301581,0.004985171370208263,0.001538241864182055
1782952645791804400,2.801804443359375,0.0008564725867472589,0.00373028963804245,0.0016676714876666665
1782952645801732400,2.811732421875,0.0003656520275399089,0.006089850328862667,0.0004111920716241002
1782952645811659300,2.8216591796875,-0.00105328019708395,0.003556119045242667,-0.0013140037190169096
1782952645821587200,2.831587158203125,-0.002484196564182639,0.00330258603207767,-0.00037923414492979646
1782952645831515400,2.841515380859375,0.0002897519152611494,0.0041183121502399445,0.001541171339340508
1782952645841442300,2.8514423828125,-0.0020897823851555586,0.006354568526148796,0.0015614113071933389
1782952645851370200,2.861370361328125,-0.0014503574930131435,0.003519367426633835,0.0023070964962244034
1782952645861297400,2.87129736328125,-0.002832271857187152,0.004050934221595526,0.0017590179340913892
1782952645871225300,2.881225341796875,0.0015547533985227346,0.004945223685353994,0.0008785768295638263
1782952645881153300,2.8911533203125,-0.002614957746118307,0.004217115696519613,-0.0007076018955558538
1782952645891080400,2.90108056640625,-0.002558765234425664,0.004639759194105864,-0.0001781654718797654
1782952645901008400,2.91100830078125,-0.0018785938154906034,0.003938016481697559,0.003376621985808015
1782952645910936300,2.920936279296875,-0.0032692966051399708,0.00472631212323904,0.0020501012913882732
1782952645920863500,2.930863525390625,-0.001303351018577814,0.004829376470297575,0.0017768610268831253
1782952645930791400,2.94079150390625,-0.0016186692519113421,0.004559864290058613,-0.0001917476038215682
1782952645940718300,2.95071826171875,0.0014021543320268393,0.004688761197030544,0.0020730046089738607
1782952645950646500,2.960646484375,-0.0016863135388121009,0.0026937874499708414,-0.0009427590412087739
1782952645960574500,2.970574462890625,-0.0013976269401609898,0.006750048138201237,0.0004487426485866308
1782952645970501400,2.98050146484375,-0.0005110605852678418,0.0051537491381168365,-0.0013464941876009107
1782952645980429300,2.99042919921875,-0.0008476841612718999,0.006330067757517099,-0.0035060516092926264
1782952645990357500,3.000357421875,-0.0022128205746412277,0.0043992758728563786,0.0017662084428593516
1782952646000284200,3.0102841796875,0.0003539340978022665,0.005022455472499132,-0.0005488775204867125
1782952646010212400,3.02021240234375,0.00046152580762282014,0.004878911189734936,-0.0012032161466777325
1782952646020140300,3.030140380859375,0.0014674017438665032,0.006156961899250746,-0.002481533447280526
1782952646030067200,3.040067138671875,0.00021518341964110732,0.005839513149112463,0.0012942962348461151
1782952646039995100,3.0499951171875,-0.0020391824655234814,0.007446464616805315,0.0023188143968582153
1782952646049922300,3.05992236328125,-0.003201652318239212,0.007582552265375853,0.0009536779834888875
1782952646059851300,3.069851318359375,-0.0006729807937517762,0.004598746541887522,0.005389438942074776
1782952646069779200,3.079779296875,-0.0023438481148332357,0.0036456012167036533,-0.0003171824791934341
1782952646079705900,3.089705810546875,-0.0023558323737233877,0.003939880523830652,0.00017443705291952938
1782952646089634000,3.099634033203125,-0.00023515711654908955,0.005537244491279125,-0.00025007082149386406
1782952646099562200,3.109562255859375,-0.0008080030675046146,0.005726861767470837,0.0012567456578835845
1782952646109489000,3.119489013671875,-0.0011496866354718804,0.00490154791623354,-0.0009057410643436015
1782952646119416800,3.129416748046875,0.0003563309437595308,0.003126551164314151,0.0007629956235177815
1782952646129344000,3.139343994140625,-0.0022034994326531887,0.003855724586173892,-0.0001555285998620093
1782952646139272000,3.14927197265625,0.00024154871061909944,0.005085572600364685,0.0014972290955483913
1782952646149200000,3.159199951171875,-0.0013081447687000036,0.005790244787931442,-0.0006676545017398894
1782952646159127000,3.169126953125,0.0012839100090786815,0.0026607641484588385,0.00008495483780279756
1782952646169055000,3.179054931640625,-0.004403004422783852,0.006301038898527622,0.002432797569781542
1782952646178983000,3.18898291015625,-0.002588326344266534,0.0066650933586061,-0.0010285128373652697
1782952646188910000,3.19891015625,-0.0015590144321322441,0.004699147772043943,0.00011664645717246458
1782952646198838000,3.208838134765625,-0.001517469179816544,0.0034149715211242437,0.001119060325436294
1782952646208766000,3.218765869140625,-0.0009504822082817554,0.0031401331070810556,0.0008958873804658651
1782952646218693000,3.228693115234375,-0.0006966829532757401,0.00433136522769928,0.0026852653827518225
1782952646228621000,3.23862109375,-0.0012141350889578462,0.0031443943735212088,0.00032570460462011397
1782952646238548000,3.2485478515625,0.00013182646944187582,0.006170277949422598,0.00038003307417966425
1782952646248476000,3.258475830078125,-0.0021547635551542044,0.004385427106171846,-0.0013739247806370258
1782952646258404000,3.268404052734375,-0.0013065468519926071,0.0054307179525494576,0.00018801917030941695
1782952646268331000,3.2783310546875,-0.00012969593808520585,0.00443895673379302,0.0010000169277191162
1782952646278259000,3.288259033203125,-0.004296477884054184,0.006090915761888027,-0.00045140579459257424
1782952646288187100,3.298187255859375,-0.0019006980583071709,0.00538491178303957,0.0007273092633113265
1782952646298114000,3.308114013671875,-0.0008796420879662037,0.0067540425807237625,0.0008279767935164273
1782952646308042000,3.3180419921875,-0.0005858954391442239,0.004295678809285164,-0.0005091963685117662
1782952646317970000,3.327969970703125,-0.0010833739070221782,0.00421418622136116,0.0007430219557136297
1782952646327897000,3.33789697265625,-0.0012687299167737365,0.006685333326458931,0.00016458335448987782
1782952646337825000,3.347824951171875,-0.0005182511522434652,0.005212871357798576,0.0010167949367314577
1782952646347752200,3.357752197265625,0.0003709783486556262,0.0032384039368480444,0.0007723167072981596
1782952646357680000,3.36768017578125,-0.003939614165574312,0.004596083424985409,-0.003948402591049671
1782952646367608000,3.377608154296875,0.002354234457015991,0.0039044604636728764,0.0006354302167892456
1782952646377535200,3.38753515625,-0.0018580874893814325,0.006108758971095085,-0.0010551444720476866
1782952646387463200,3.397463134765625,-0.00239205127581954,0.0057348511181771755,-0.0013611416798084974
1782952646397391000,3.40739111328125,-0.0016911072889342904,0.00239151855930686,0.0023960459511727095
1782952646407318000,3.417318115234375,-0.00034194986801594496,0.005390238016843796,-0.0009195895399898291
1782952646417246200,3.42724609375,-0.0022620889358222485,0.004796885885298252,0.00202267081476748
1782952646427173000,3.437173095703125,-0.0019528960110619664,0.004418450407683849,-0.00010865696822293103
1782952646437101000,3.44710107421875,-0.0014466290595009923,0.0027483822777867317,0.00016218650853261352
1782952646447029000,3.457029052734375,0.0014471617760136724,0.0046693203039467335,0.0010775149567052722
1782952646456956200,3.4669560546875,-0.0002519350382499397,0.0018759306985884905,-0.000955009541939944
1782952646466884000,3.476884033203125,-0.003620034782215953,0.0034610440488904715,-0.002142513170838356
1782952646476812000,3.48681201171875,0.002873817225918174,0.005820604972541332,0.0032956618815660477
1782952646486739200,3.4967392578125,-0.001067661214619875,0.0042144525796175,0.0008372978190891445
1782952646496667100,3.506667236328125,-0.0005584649043157697,0.003019491909071803,0.0012444951571524143
1782952646506595000,3.516594970703125,0.0015733955660834908,0.0044133905321359634,-0.00016777914424892515
1782952646516522200,3.526522216796875,-0.0009784454014152288,0.003347327234223485,-0.002549444092437625
1782952646526450200,3.5364501953125,-0.0011403656098991632,0.0039145806804299355,-0.0011374361347407103
1782952646536376800,3.546376953125,-0.002403769176453352,0.005426190793514252,0.0024474449455738068
1782952646546305000,3.556304931640625,-0.0011938951211050153,0.0049193911254405975,0.0010000169277191162
1782952646556233200,3.566233154296875,-0.003094060579314828,0.005678924731910229,0.0013978932984173298
1782952646566160000,3.576159912109375,-0.002037850907072425,0.004819256253540516,0.0011616708943620324
1782952646576088000,3.586088134765625,-0.0022679478861391544,0.004735366906970739,0.0003552656853571534
1782952646586016300,3.596016357421875,0.0005424859118647873,0.005568403284996748,-0.0008149272762238979
1782952646595943000,3.60594287109375,-0.0024461133871227503,0.006297843065112829,0.0005986785981804132
1782952646605870800,3.615870849609375,-0.0026815368328243494,0.005850166082382202,0.00010679275874281302
1782952646615798000,3.625798095703125,-0.003727892879396677,0.004327370319515467,0.0005880259559489787
1782952646625726000,3.635725830078125,-0.0018679412314668298,0.004249606281518936,-0.00014061490946915
1782952646635654000,3.64565380859375,-0.00012357067316770554,0.002847185591235757,0.0015044197207316756
1782952646645581000,3.6555810546875,-0.002415753435343504,0.0037678403314203024,0.0020032296888530254
1782952646655509000,3.665509033203125,0.0014080132823437452,0.007705856580287218,0.0008471515611745417
1782952646665437000,3.67543701171875,-0.0004114583716727793,0.004752943757921457,-0.0014061490073800087
1782952646675364000,3.685364013671875,-0.000559263804461807,0.0062762717716395855,-0.0021704763639718294
1782952646685292000,3.6952919921875,0.0013036173768341541,0.003573962254449725,0.002017344580963254
1782952646695219000,3.705218994140625,0.0012279836228117347,0.0026466494891792536,-0.00023995080846361816
1782952646705147100,3.715147216796875,-0.001674595638178289,0.00475374236702919,-0.002886067610234022
1782952646715075000,3.725074951171875,0.001070857048034668,0.005615541245788336,-0.0013073458103463054
1782952646725002000,3.735001953125,-0.00020213393145240843,0.002670884132385254,0.0014927018200978637
1782952646734930000,3.744929931640625,0.001356347929686308,0.00683207344263792,-0.0009954896522685885
1782952646744858000,3.754858154296875,-0.0011859056539833546,0.005319664254784584,-0.0003448793722782284
1782952646754785000,3.764784912109375,-0.0010309095960110426,0.005419000051915646,-0.0018402442801743746
1782952646764713000,3.774712890625,-0.00003488740912871435,0.004487959202378988,-0.0004756405542138964
1782952646774641200,3.78464111328125,-0.0001179780374513939,0.0038336203433573246,0.0005755090969614685
1782952646784568000,3.794568115234375,0.0020666129421442747,0.006150304339826107,-0.002025866648182273
1782952646794496000,3.80449609375,-0.0016463662032037973,0.0027545075863599777,0.0011286477092653513
1782952646804423200,3.814423095703125,-0.0015512913232669234,0.005613677203655243,-0.0004892227007076144
1782952646814351000,3.82435107421875,0.0004753742541652173,0.002502039773389697,0.0007925567333586514
1782952646824279000,3.834279052734375,0.000025566347176209092,0.004737497307360172,0.0005097290268167853
1782952646834206200,3.844206298828125,0.0017299894243478775,0.005757487844675779,-0.00009187905379803851
1782952646844134100,3.854134033203125,0.0008335694437846541,0.007169229444116354,0.0007187871960923076
1782952646854062000,3.86406201171875,-0.0021931130904704332,0.005362540949136019,-0.001067661214619875
1782952646863989000,3.873989013671875,0.0007134608458727598,0.004171841777861118,0.0015081481542438269
1782952646873917200,3.883917236328125,0.00011584750609472394,0.0037148434203118086,0.0004269047058187425
1782952646883844000,3.893843994140625,-0.0012170645641162992,0.003022687742486596,0.001285241567529738
1782952646893772000,3.90377197265625,-0.0003278351214248687,0.0049646650440990925,-0.0009861685102805495
1782952646903700200,3.9137001953125,-0.002573678968474269,0.0060059609822928905,0.00046631949953734875
1782952646913627100,3.923627197265625,0.0015033544041216373,0.005125786177814007,-0.0024671524297446012
1782952646923555000,3.93355517578125,-0.0021576930303126574,0.0032410670537501574,0.002526541007682681
1782952646933483000,3.94348291015625,0.0002767024270724505,0.005085039883852005,0.00003888214996550232
1782952646943410200,3.95341015625,-0.0016937704058364034,0.006714095361530781,-0.00011611382069531828
1782952646953338000,3.963338134765625,0.0013203952694311738,0.002377670258283615,0.00014753911818843335
1782952646963265000,3.97326513671875,0.00047617321251891553,0.0046818372793495655,0.0021430456545203924
1782952646973193200,3.983193115234375,-0.0015941682504490018,0.006887200754135847,0.0017411747248843312
1782952646983121200,3.99312109375,-0.000060453756304923445,0.0051742554642260075,0.0018969696247950196
1782952646993048000,4.003048095703125,-0.0013510215794667602,0.0067844027653336525,0.00028309403569437563
1782952647002976000,4.01297607421875,-0.0007065366371534765,0.005291700828820467,-0.0011558119440451264
1782952647012904200,4.022904296875,0.00063356600003317,0.004262389149516821,0.000008788431841821875
1782952647022830800,4.032830810546875,0.00009827064059209079,0.006115416996181011,-0.002139050979167223
1782952647032759000,4.042759033203125,0.0010346380295231938,0.004533232655376196,0.00015233281010296196
1782952647042687200,4.052687255859375,-0.001412806916050613,0.004321777727454901,-0.00130947632715106
1782952647052614000,4.06261376953125,-0.0020756677258759737,0.006042712368071079,0.0015504923649132252
1782952647062541800,4.072541748046875,0.0007952199084684253,0.0025686188600957394,0.0019915117882192135
1782952647072468700,4.08246875,-0.0003914846747647971,0.004323109518736601,0.00040533312130719423
1782952647082396700,4.092396728515625,-0.0010362359462305903,0.004726844374090433,-0.0016319850692525506
1782952647092324600,4.10232470703125,-0.0004777711001224816,0.0033332123421132565,0.003062102710828185
1782952647102251800,4.112251708984375,-0.001894839107990265,0.005260275676846504,0.00031132352887652814
1782952647112179700,4.1221796875,0.000007723167072981596,0.0041585261933505535,0.0003150519623886794
1782952647122107600,4.132107666015625,-0.0013305152533575892,0.0049494849517941475,-0.0020567593164741993
1782952647132034800,4.142034912109375,-0.0008580705034546554,0.002466619713231921,0.0015273229219019413
1782952647141962800,4.151962646484375,-0.003689276985824108,0.003921770956367254,0.00015712650201749057
1782952647151890000,4.161889892578125,-0.0006945523782633245,0.006197708658874035,-0.0011880361707881093
1782952647161817900,4.17181787109375,-0.004036819562315941,0.005285575985908508,0.0014034858904778957
1782952647171745800,4.181745849609375,-0.0022596921771764755,0.0028091021813452244,0.0032258869614452124
1782952647181672700,4.191672607421875,-0.0011550129856914282,0.0035782232880592346,-0.0006327670416794717
1782952647191601000,4.201600830078125,0.0009257147903554142,0.00768668157979846,0.0006404902087524533
1782952647201528800,4.21152880859375,0.0012237224727869034,0.004579305648803711,0.0002868224401026964
1782952647211455700,4.221455810546875,-0.002686863299459219,0.0032527849543839693,-0.0013547500129789114
1782952647221384000,4.231384033203125,-0.00004660531703848392,0.005741509143263102,-0.0010178601369261742
1782952647231312000,4.241311767578125,-0.0020064255222678185,0.005953496787697077,0.0002860235108528286
1782952647241238800,4.25123876953125,-0.002430134452879429,0.004282895475625992,0.0016668725293129683
1782952647251166700,4.261166748046875,0.0004751079250127077,0.006176669616252184,0.0004442152567207813
1782952647261093600,4.27109375,-0.004679706413298845,0.004866394214332104,0.0008527441532351077
1782952647271021800,4.281021728515625,0.0017566210590302944,0.003001648932695389,0.0004599279200192541
1782952647280949800,4.29094970703125,-0.0016136092599481344,0.0054855793714523315,0.000050600061513250694
1782952647290876700,4.300876708984375,0.0034386736806482077,0.0036333505995571613,0.0006820355774834752
1782952647300804600,4.3108046875,-0.001401089015416801,0.002204298507422209,-0.001487109111621976
1782952647310732800,4.32073291015625,-0.00016431703988928348,0.004406998865306377,0.0025390577502548695
1782952647320659700,4.33065966796875,-0.0014969628537073731,0.004541754722595215,0.0012450277572497725
1782952647330587600,4.340587646484375,-0.0013401026371866465,0.005529255140572786,0.0022383867762982845
1782952647340514600,4.3505146484375,0.00008468852320220321,0.0073226275853812695,0.0011230550007894635
1782952647350442800,4.36044287109375,-0.0012855078093707561,0.0070770843885838985,-0.0014980280539020896
1782952647360370700,4.37037060546875,0.0008546083699911833,0.005701827816665173,0.0011281149927526712
1782952647370297600,4.380297607421875,0.0021582257468253374,0.00433056615293026,0.0031470574904233217
1782952647380225500,4.3902255859375,-0.0024921861477196217,0.007498396094888449,-0.0008423578692600131
1782952647390153700,4.40015380859375,0.0008825715631246567,0.005390770733356476,0.0012258529895916581
1782952647400080600,4.41008056640625,-0.001609348226338625,0.006222742144018412,-0.00005858954318682663
1782952647410008600,4.420008544921875,-0.0012492889072746038,0.004628574009984732,-0.0015925703337416053
1782952647419935700,4.429935791015625,-0.0008207862265408039,0.004141747951507568,0.0011808456620201468
1782952647429863700,4.43986376953125,0.002662362065166235,0.003638677066192031,-0.0003866909828502685
1782952647439791600,4.44979150390625,0.0005776396137662232,0.004625111818313599,-0.0003603257064241916
1782952647449718800,4.45971875,0.001306280493736267,0.00407437002286315,-0.0011859056539833546
1782952647459646700,4.469646728515625,-0.000003728425554072601,0.00675217853859067,0.0012085424968972802
1782952647469574700,4.47957470703125,0.0009321063989773393,0.004802744835615158,-0.00008149272616719827
1782952647479501800,4.489501708984375,-0.0010897654574364424,0.005195028148591518,0.0032314795535057783
1782952647489429800,4.4994296875,-0.002469549188390374,0.004412325099110603,-0.0012865731259807944
1782952647499357700,4.509357666015625,0.00021971078240312636,0.004995291121304035,0.0014652712270617485
1782952647509284600,4.51928466796875,-0.0007898935582488775,0.0035958001390099525,-0.0009595369338057935
1782952647519212800,4.529212890625,-0.0013736584223806858,0.005882390309125185,0.0011241203173995018
1782952647529139700,4.5391396484375,0.00036139096482656896,0.0049188584089279175,-0.00006950850365683436
1782952647539067600,4.549067626953125,-0.002686863299459219,0.005012335255742073,-0.00002370213405811228
1782952647548995800,4.558995849609375,-0.005763613153249025,0.00404454255476594,0.0014253237750381231
1782952647558922800,4.5689228515625,-0.0011544802691787481,0.005918342620134354,-0.003180346917361021
1782952647568850700,4.5788505859375,-0.0006956176948733628,0.005013933405280113,-0.0017901768442243338
1782952647578777900,4.58877783203125,-0.0019747340120375156,0.005697567015886307,-0.0015968313673511147
1782952647588705800,4.598705810546875,-0.00010599380766507238,0.0038394792936742306,0.001008272753097117
1782952647598633700,4.6086337890625,-0.0013488910626620054,0.005204349290579557,0.0010572749888524413
1782952647608561000,4.618560791015625,0.000036751622246811166,0.005253351293504238,0.0009928264189511538
1782952647618488800,4.62848876953125,-0.0005946838646195829,0.00529463030397892,0.0008660599705763161
1782952647628416800,4.638416748046875,-0.0020221380982548,0.003968908917158842,-0.001062068622559309
1782952647638344000,4.648343994140625,-0.0026727484073489904,0.005550027824938297,-0.0009427590412087739
1782952647648272000,4.65827197265625,-0.0006487460341304541,0.002124669961631298,0.0007797735743224621
1782952647658199800,4.66819970703125,-0.0019952403381466866,0.006532734259963036,0.0011981561547145247
1782952647668126700,4.678126708984375,0.0008466189028695226,0.006336991675198078,0.0011121360585093498
1782952647678055000,4.688054931640625,-0.0016642092959955335,0.006443251855671406,0.001475391210988164
1782952647687981800,4.69798193359375,0.00267754215747118,0.005706089083105326,-0.0001382180635118857
1782952647697909800,4.70790966796875,-0.00021225394448265433,0.0033009881153702736,0.00033103092573583126
1782952647707837700,4.717837646484375,-0.0002892192860599607,0.002721750643104315,0.0009664611425250769
1782952647717764600,4.7277646484375,-0.0015683355741202831,0.007839014753699303,0.0023015039041638374
1782952647727692800,4.73769287109375,0.0005752427969127893,0.004324973560869694,-0.00004713794987765141
1782952647737620700,4.747620849609375,-0.000984836951829493,0.004097007215023041,0.0005723133217543364
1782952647747547600,4.757547607421875,-0.0022003035992383957,0.009416138753294945,-0.0027393274940550327
1782952647757475600,4.7674755859375,-0.0024687503464519978,0.004465055651962757,-0.00358781055547297
1782952647767402800,4.77740283203125,-0.0016674051294103265,0.00430260319262743,-0.0012341088149696589
1782952647777330700,4.78733056640625,-0.00058323226403445,0.008250739425420761,-0.0015635418239980936
1782952647787258600,4.797258544921875,-0.0004146541759837419,0.002636529505252838,0.00021784658019896597
1782952647797185500,4.807185546875,-0.0023608922492712736,0.004819522611796856,0.0011257182341068983
1782952647807113700,4.81711376953125,-0.0004676510870922357,0.005857622716575861,0.0025888588279485703
1782952647817041700,4.827041748046875,-0.0009978864109143615,0.00469568558037281,0.000371777277905494
1782952647826968600,4.836968505859375,0.0020450414158403873,0.0052384380251169205,0.0012093414552509785
1782952647836896800,4.846896728515625,-0.00112438655924052,0.003293264890089631,-0.0013787185307592154
1782952647846823700,4.85682373046875,-0.002111886627972126,0.0035033884923905134,0.0016053534345701337
1782952647856751600,4.866751708984375,-0.0005430185701698065,0.004448011517524719,0.0023393207229673862
1782952647866679600,4.876679443359375,-0.0020538298413157463,0.0051289820112288,0.00004846953015658073
1782952647876606700,4.886606689453125,-0.00012197277828818187,0.005642971955239773,0.0004117247008252889
1782952647886534700,4.89653466796875,-0.003698065411299467,0.005265069659799337,-0.0002884203568100929
1782952647896462600,4.906462646484375,-0.0016357135027647018,0.006503173150122166,-0.002292981604114175
1782952647906389800,4.9163896484375,-0.0013816480059176683,0.0073231603018939495,-0.0005241101025603712
1782952647916317700,4.926317626953125,0.0000601874417043291,0.003697799053043127,-0.00010998855577781796
1782952647926244600,4.93624462890625,-0.0022833943367004395,0.0030133668333292007,0.0006854976527392864
1782952647936172800,4.9461728515625,-0.0031406658235937357,0.004338289611041546,0.004122839774936438
1782952647946100700,4.956100830078125,0.0012112056137993932,0.005900499876588583,0.0005856291390955448
1782952647956027600,4.966027587890625,0.002341451123356819,0.004248008131980896,-0.00011904330312972888
1782952647965955800,4.975955810546875,0.0012072109384462237,0.005567338317632675,0.0005587312043644488
1782952647975883800,4.9858837890625,-0.0012783173006027937,0.005113269202411175,0.0018229337874799967
1782952647985810700,4.995810791015625,-0.000294545607175678,0.005864280741661787,0.0005925533478148282
1782952647995738600,5.005738525390625,-0.0023209447972476482,0.004992628004401922,-0.00009427589975530282
1782952648005665800,5.015665771484375,-0.0036093820817768574,0.003585680155083537,-0.003691940102726221
1782952648015593700,5.02559375,-0.0013483584625646472,0.005804093088954687,-0.0001893507578643039
1782952648025521700,5.035521728515625,0.003424292430281639,0.0052107409574091434,0.0014120079576969147
1782952648035448800,5.04544873046875,-0.0011371697764843702,0.004595017991960049,0.0004324973560869694
1782952648045376800,5.055376708984375,-0.0007858988246880472,0.004790227860212326,-0.00016112125013023615
1782952648055304700,5.0653046875,-0.0005161206354387105,0.005264536943286657,0.00046818371629342437
1782952648065232100,5.075232177734375,-0.0014929680619388819,0.00749093946069479,-0.0005352954030968249
1782952648075160000,5.08516015625,-0.0008609999786131084,0.007474694401025772,0.0014215953415259719
1782952648085088000,5.095087890625,-0.0016351809026673436,0.002983805723488331,-0.001097755040973425
1782952648095015200,5.10501513671875,-0.0014351775171235204,0.0044293696992099285,0.0026351979468017817
1782952648104943000,5.114943115234375,-0.002606435678899288,0.0054299188777804375,-0.00039494677912443876
1782952648114869800,5.124869873046875,0.0012181298807263374,0.0057167415507137775,0.0015603461069986224
1782952648124797700,5.134797607421875,-0.004052532371133566,0.00549356872215867,0.0011052117915824056
1782952648134726100,5.14472607421875,0.0015640745405107737,0.005852296482771635,0.00025220136740244925
1782952648144652800,5.15465283203125,-0.0016176040517166257,0.004267183132469654,0.0015736619243398309
1782952648154580700,5.164580810546875,-0.0030487868934869766,0.0033726270776242018,-0.0009241168736480176
1782952648164508000,5.1745078125,-0.002234125742688775,0.005588111001998186,0.0033366745337843895
1782952648174435800,5.184435791015625,-0.0010061422362923622,0.005618470720946789,0.0002719087351579219
1782952648184363800,5.19436376953125,-0.0007571366732008755,0.005531385540962219,-0.00033662354690022767
1782952648194291000,5.204291015625,-0.003689010627567768,0.004156395327299833,0.00138031633105129
1782952648204219000,5.214218994140625,0.00009400958515470847,0.003847468877211213,0.0018245317041873932
1782952648214146800,5.224146728515625,0.00017710021347738802,0.006090649403631687,0.0023989754263311625
1782952648224074000,5.234073974609375,0.00018109494703821838,0.0038224351592361927,0.00018988338706549257
1782952648234002000,5.244001953125,-0.0009946906939148903,0.004727643448859453,0.002606702037155628
1782952648243928800,5.2539287109375,-0.001621332485228777,0.0049377670511603355,0.00010412959818495438
1782952648253857000,5.26385693359375,-0.000010918960470007733,0.004965996369719505,0.0010964233661070466
1782952648263785000,5.273784912109375,0.0014032195322215557,0.004123372491449118,0.0036333505995571613
1782952648273711900,5.2837119140625,0.0015225291717797518,0.004511128645390272,0.001002680161036551
1782952648283639800,5.293639892578125,-0.0015488944482058287,0.005252819042652845,-0.0009635316673666239
1782952648293568000,5.303568115234375,-0.0012663330417126417,0.003960653208196163,0.0007001450285315514
1782952648303493000,5.3134931640625,-0.0016133430181071162,0.0059774648398160934,0.0009677927591837943
1782952648313421000,5.323421142578125,0.001136370818130672,0.0054608117789030075,0.0017411747248843312
1782952648323349000,5.333348876953125,0.0014082795241847634,0.007292001508176327,-0.00009321063407696784
1782952648333276200,5.343276123046875,0.00041039311327040195,0.006340187508612871,-0.0013486248208209872
1782952648343204000,5.3532041015625,-0.0013574132462963462,0.0044983453117311,0.0008839031797833741
1782952648353130800,5.363130859375,0.0018855180824175477,0.00213638786226511,0.002150502521544695
1782952648363059000,5.373058837890625,-0.0009217200567945838,0.004735632799565792,0.000731836655177176
1782952648372987100,5.382987060546875,0.00002609897819638718,0.003802461316809058,0.002014148747548461
1782952648382913800,5.392913818359375,-0.0025917883031070232,0.005540173966437578,-0.0009723200928419828
1782952648392841700,5.402841796875,0.0001358212175546214,0.00748960766941309,0.00012250541476532817
1782952648402770000,5.41277001953125,0.00015286543930415064,0.006690925918519497,0.00012596751912496984
1782952648412696800,5.42269677734375,-0.0032205607276409864,0.005053880624473095,-0.0010210559703409672
1782952648422624800,5.432624755859375,0.00024234765442088246,0.005654423497617245,0.0024021712597459555
1782952648432552000,5.442552001953125,-0.0034378746058791876,0.0031033814884722233,0.0025963156949728727
1782952648442479900,5.45247998046875,-0.0006141249323263764,0.00762969022616744,-0.0030370689928531647
1782952648452407800,5.46240771484375,-0.00020346550445538014,0.006314621306955814,-0.00005459480235003866
1782952648462335000,5.4723349609375,-0.0012175972806289792,0.004283428192138672,0.0005587312043644488
1782952648472263000,5.482262939453125,-0.001115864492021501,0.005381982307881117,0.0011046791914850473
1782952648482190800,5.49219091796875,-0.0012500877492129803,0.005019792355597019,-0.0008921589469537139
1782952648492117800,5.50211767578125,-0.003614175831899047,0.004382231738418341,-0.00017976337403524667
1782952648502046000,5.5120458984375,-0.0010066748363897204,0.0026442527305334806,0.0007257114048115909
1782952648511972900,5.521972900390625,-0.0010586065473034978,0.003753725439310074,-0.0006942860782146454
1782952648521900800,5.53190087890625,-0.0001507349224993959,0.004983573220670223,0.0013467605458572507
1782952648531829000,5.5418291015625,-0.0003270361921750009,0.0054847802966833115,0.0009635316673666239
1782952648541756000,5.551755859375,0.00016192019393201917,0.006842459551990032,-0.0011821772204712033
1782952648551683800,5.561683837890625,-0.000811997801065445,0.006050701718777418,-0.0003326288133393973
1782952648561611800,5.57161181640625,-0.0019632822368294,0.006839796435087919,-0.0014809839194640517
1782952648571539000,5.5815390625,-0.001184574095532298,0.007555121555924416,0.0003195793251506984
1782952648581467000,5.591466796875,-0.003748665563762188,0.0032562471460551023,0.00037044569035060704
1782952648591394000,5.60139404296875,-0.0015536881983280182,0.004072772338986397,-0.0005049353349022567
1782952648601322000,5.611322021484375,0.00155288923997432,0.004290086217224598,0.0004575310740619898
1782952648611250000,5.62125,-0.001960619119927287,0.004747350700199604,0.0007605988066643476
1782952648621176800,5.6311767578125,-0.00155288923997432,0.003722300287336111,-0.00027084347675554454
1782952648631105000,5.64110498046875,-0.0005299690528772771,0.0036732980515807867,0.0014839133946225047
1782952648641033000,5.651032958984375,0.0002383529208600521,0.004756405483931303,0.0009867012267932296
1782952648650960000,5.6609599609375,0.00042344260145910084,0.0024743429385125637,0.0017861821688711643
1782952648660888000,5.67088818359375,0.0015845808666199446,0.003355050226673484,-0.0009776464430615306
1782952648670815000,5.68081494140625,-0.0016311861108988523,0.005012335255742073,0.0006788397440686822
1782952648680743000,5.690742919921875,-0.0015417039394378662,0.0034373418893665075,0.0011757856700569391
1782952648690670800,5.7006708984375,-0.001558748190291226,0.006372944451868534,-0.00018029600323643535
1782952648700598000,5.710597900390625,-0.0020240023732185364,0.005252819042652845,0.0017219999572262168
1782952648710526000,5.72052587890625,0.002026133006438613,0.005334311630576849,0.0015877765836194158
1782952648720454000,5.730453857421875,0.0023499734234064817,0.005307679995894432,0.0014631407102569938
1782952648730381000,5.740381103515625,-0.0004090615548193455,0.005733519326895475,0.0003448793722782284
1782952648740309000,5.75030908203125,-0.0009350358741357923,0.003724963404238224,0.0010554107138887048
1782952648750236200,5.760236083984375,-0.000592020689509809,0.006988933775573969,0.0008069378091022372
1782952648760164000,5.7701640625,-0.0026410568971186876,0.006125803105533123,0.0009203884401358664
1782952648770092000,5.780092041015625,-0.004743356257677078,0.005175320897251368,-0.0014860439114272594
1782952648780019000,5.79001904296875,-0.0019803266040980816,0.005648298189043999,0.001344896387308836
1782952648789947100,5.799947021484375,0.001427987008355558,0.006935404147952795,-0.00011345066013745964
1782952648799875000,5.809875,-0.0005054679932072759,0.00430286955088377,0.0013632721966132522
1782952648809801700,5.8198017578125,0.0022804648615419865,0.0038626487366855145,-0.0007922904333099723
1782952648819730000,5.82972998046875,-0.0023406522814184427,0.006913299672305584,-0.00005459480235003866
1782952648829656800,5.83965673828125,-0.0007552724564447999,0.005572398193180561,-0.0008463526028208435
1782952648839584800,5.849584716796875,-0.0008375641773454845,0.0065045044757425785,0.002519350266084075
1782952648849512700,5.8595126953125,-0.0014357101172208786,0.006078665144741535,-0.0007624630234204233
1782952648859439900,5.86943994140625,0.0005142564186826348,0.002810700098052621,0.00022184131375979632
1782952648869367800,5.879367919921875,-0.0006615291931666434,0.003733485471457243,-0.0015342470724135637
1782952648879295700,5.889295654296875,-0.0007970841252245009,0.004044010303914547,0.00019254654762335122
1782952648889223000,5.899222900390625,-0.0008860336965881288,0.004425108432769775,0.00224903947673738
1782952648899150800,5.90915087890625,-0.0033755565527826548,0.005306348204612732,-0.002674346324056387
1782952648909077800,5.919077880859375,-0.003410177771002054,0.005626194179058075,-0.0004596615908667445
1782952648919006000,5.929005859375,-0.0008934905636124313,0.002965429797768593,-0.0008878979133442044
1782952648928934000,5.938933837890625,-0.0010673949727788568,0.005495965480804443,0.001461010193452239
1782952648938860800,5.94886083984375,-0.0026141589041799307,0.005447762086987495,0.0000697748182574287
1782952648948789000,5.9587890625,-0.0015760586829856038,0.005407814867794514,0.0009760485263541341
1782952648958717000,5.968717041015625,0.00141041015740484,0.0037491980474442244,0.0005017395596951246
1782952648968643800,5.978643798828125,-0.0016671388875693083,0.006727145053446293,-0.00045034053619019687
1782952648978571800,5.98857177734375,-0.0013640711549669504,0.004108458757400513,0.0004825647920370102
1782952648988499000,5.9984990234375,-0.0022114890161901712,0.006502640433609486,-0.000322775129461661
1782952648998427000,6.008427001953125,-0.0019259981345385313,0.0038602519780397415,0.0005520732956938446
1782952649008354800,6.018354736328125,0.000284159294096753,0.005438707303255796,0.0006205165409483016
1782952649018282000,6.028281982421875,-0.002748914761468768,0.007253918331116438,-0.000892425247002393
1782952649028210000,6.0382099609375,-0.0006884271278977394,0.00887738075107336,0.0006524744676426053
1782952649038137900,6.048137939453125,0.00026498452643863857,0.004531901329755783,0.0005512743373401463
1782952649048065000,6.05806494140625,0.0033004553988575935,0.006159092765301466,-0.0010333064710721374
1782952649057993000,6.067992919921875,-0.0005198490689508617,0.0054999603889882565,0.0035689021460711956
1782952649067919600,6.077919677734375,-0.0005688511882908642,0.00626029260456562,0.001458080718293786
1782952649077847800,6.087847900390625,-0.002612827345728874,0.003305515507236123,0.0032690302468836308
1782952649087775700,6.097775634765625,-0.0008064051507972181,0.005795837379992008,0.0026762105990201235
1782952649097702700,6.10770263671875,-0.0014719291357323527,0.0041763694025576115,0.001107076066546142
1782952649107630800,6.117630859375,-0.0033633061684668064,0.0038149782922118902,0.0005507417372427881
1782952649117558800,6.127558837890625,-0.0012897689593955874,0.0037236318457871675,0.002832005498930812
1782952649127485700,6.137485595703125,0.000009321063771494664,0.004791293293237686,0.0014990933705121279
1782952649137413600,6.14741357421875,-0.0020242687314748764,0.0047090016305446625,0.0013246563030406833
1782952649147340800,6.1573408203125,-0.0014434333425015211,0.005664010997861624,0.0014008227735757828
1782952649157268700,6.167268798828125,0.00042637207661755383,0.005627791862934828,0.0004878911131527275
1782952649167196700,6.17719677734375,0.0013321131700649858,0.003763046581298113,-0.0010966897243633866
1782952649177123800,6.187123779296875,-0.0024703482631593943,0.003451723139733076,-0.0015646071406081319
1782952649187051800,6.1970517578125,-0.0009688580175861716,0.005666407756507397,-0.0013310478534549475
1782952649196979700,6.206979736328125,0.0013305152533575892,0.0067937239073216915,-0.0013435647124424577
1782952649206907000,6.216906982421875,-0.002502838848158717,0.003585680155083537,-0.0008780442294664681
1782952649216834800,6.226834716796875,-0.0012929646763950586,0.0059774648398160934,0.0009086705395020545
1782952649226761500,6.236761474609375,-0.0008127967594191432,0.00586587842553854,0.0014511564513668418
1782952649236689700,6.246689697265625,0.0008966863388195634,0.005873335525393486,-0.0011094729416072369
1782952649246617900,6.256617919921875,-0.0008133294177241623,0.0043707797303795815,0.0014050838071852922
1782952649256544500,6.26654443359375,-0.0007720504072494805,0.004345746245235205,-0.0009510148083791137
1782952649266472700,6.27647265625,-0.0006111954571679235,0.0057015614584088326,0.002010420197620988
1782952649276400600,6.286400634765625,-0.0018935075495392084,0.005059473216533661,0.00026258768048137426
1782952649286327600,6.29632763671875,-0.00009747169679030776,0.006077866069972515,-0.0015310513554140925
1782952649296255500,6.30625537109375,-0.0026823359075933695,0.0056770602241158485,0.00045353634050115943
1782952649306182700,6.3161826171875,0.0004564658156596124,0.003859186777845025,-0.0009214537567459047
1782952649316110600,6.326110595703125,-0.0018072210950776935,0.006106095854192972,0.00007776429993100464
1782952649326038500,6.33603857421875,-0.004741225857287645,0.00475560687482357,0.002129463478922844
1782952649335965700,6.345965576171875,-0.0008689894457347691,0.0033742249943315983,0.00210682675242424
1782952649345893600,6.3558935546875,0.00015206649550236762,0.00461579067632556,-0.00021305288828443736
1782952649355820500,6.365820556640625,-0.0004886900424025953,0.004875182639807463,0.0010538127971813083
1782952649365748700,6.375748779296875,-0.000999484327621758,0.00446825148537755,-0.0016016251174733043
1782952649375676700,6.3856767578125,-0.002424275502562523,0.005301021970808506,0.0024493092205375433
1782952649385603600,6.395603515625,0.0009859022684395313,0.0032615733798593283,-0.0012213257141411304
1782952649395531800,6.40553173828125,-0.0006921555614098907,0.005550027824938297,0.0021252024453133345
1782952649405459700,6.415459716796875,-0.0008356999605894089,0.004472779110074043,0.0014170679496601224
1782952649415386600,6.42538671875,0.0015217302134260535,0.0031369375064969063,0.0032197616528719664
1782952649425314600,6.435314453125,0.002314020646736026,0.004079164005815983,0.001389104756526649
1782952649435241700,6.44524169921875,0.00036724991514347494,0.003829625668004155,0.001749430550262332
1782952649445169700,6.455169677734375,0.000005592638444795739,0.0034735610242933035,0.0006380933918990195
1782952649455097600,6.46509765625,-0.0006538060260936618,0.003728159237653017,0.0014024205738678575
1782952649465024800,6.475024658203125,-0.0016000272007659078,0.004257595632225275,0.001639441936276853
1782952649474952700,6.48495263671875,0.001820536912418902,0.006646717432886362,0.004583300091326237
1782952649484880600,6.494880615234375,-0.000322775129461661,0.0028690234757959843,0.0025185514241456985
1782952649494807800,6.504807861328125,-0.00019148127466905862,0.0032887374982237816,0.0036517265252768993
1782952649504735700,6.51473583984375,-0.00008841694943839684,0.005360676907002926,-0.00006950850365683436
1782952649514662700,6.52466259765625,-0.0008695221040397882,0.004447212442755699,0.001966478070244193
1782952649524590800,6.5345908203125,0.00011957593233091757,0.005361742340028286,-0.00024341292737517506
1782952649534518800,6.544518798828125,-0.002282329136505723,0.004156128969043493,0.0034818167332559824
1782952649544445700,6.55444580078125,-0.0015241270884871483,0.005554821342229843,-0.00043010051012970507
1782952649554373600,6.56437353515625,-0.001874332781881094,0.006500776391476393,-0.0014452975010499358
1782952649564301800,6.5743017578125,-0.0018490327056497335,0.004067179746925831,0.0046386937610805035
1782952649574228700,6.584228759765625,-0.0012737899087369442,0.0037081853952258825,0.0009872338268905878
1782952649584156700,6.59415673828125,-0.0017526262672618032,0.007855792529881,-0.0014570154016837478
1782952649594083800,6.604083740234375,-0.00341523764654994,0.005562278442084789,-0.0012330436147749424
1782952649604011800,6.61401171875,-0.0015451660146936774,0.005850964691489935,-0.00006604639202123508
1782952649613939700,6.623939697265625,-0.0020658141002058983,0.004447478801012039,-0.0017568873008713126
1782952649623867000,6.633866943359375,0.00043516053119674325,0.005318598821759224,0.0021555626299232244
1782952649633794800,6.643794921875,-0.0016724651213735342,0.003070891136303544,0.001600293442606926
1782952649643721500,6.653721435546875,-0.0008828379213809967,0.004418716765940189,0.0022450448013842106
1782952649653649700,6.663649658203125,0.00008868326403899118,0.005132710561156273,-0.00018642126815393567
1782952649663577900,6.673577880859375,-0.0014176006661728024,0.0029667613562196493,-0.0010969560826197267
1782952649673504500,6.68350439453125,-0.0010436928132548928,0.005143895745277405,-0.0005054679932072759
1782952649683432700,6.6934326171875,-0.0031526500824838877,0.002439189236611128,0.00105328019708395
1782952649693360600,6.703360595703125,-0.002520682057365775,0.004517520312219858,0.0008839031797833741
1782952649703287600,6.71328759765625,-0.0006079996819607913,0.003168096300214529,0.00019760655413847417
1782952649713215500,6.723215576171875,-0.005400624126195908,0.007782289292663336,0.0004958806093782187
1782952649723142700,6.733142578125,-0.0009446232579648495,0.004321777727454901,0.0033305492252111435
1782952649733070600,6.743070556640625,-0.000535561703145504,0.005051217507570982,0.0020652813836932182
1782952649742998500,6.75299853515625,-0.002575809368863702,0.004824316129088402,-0.00012756542128045112
1782952649752925700,6.76292578125,-0.0012066783383488655,0.005083441734313965,0.000630636524874717
1782952649762853600,6.772853515625,0.00012863067968282849,0.007683219853788614,0.0012865731259807944
1782952649772781600,6.782781494140625,0.00005619269722956233,0.00526613462716341,0.00020426444825716317
1782952649782708700,6.792708740234375,-0.0003430151555221528,0.006627010181546211,0.0007731156656518579
1782952649792636700,6.80263671875,-0.000592287047766149,0.0040765004232525826,0.003350256709381938
1782952649802563600,6.8125634765625,-0.00018908442871179432,0.005453088786453009,0.0026013758033514023
1782952649812491800,6.82249169921875,-0.0006617955514229834,0.006783603690564632,-0.00040959418402053416
1782952649822419700,6.832419677734375,0.00040293627534992993,0.005338838789612055,0.00023808660625945777
1782952649832346600,6.8423466796875,-0.0007403587806038558,0.0060112872160971165,0.0036242958158254623
1782952649842274600,6.852274658203125,0.0007731156656518579,0.003897269954904914,0.00001864212754298933
1782952649852201700,6.86220166015625,-0.001407214323990047,0.004258128348737955,0.0031936627347022295
1782952649862129700,6.872129638671875,-0.000999484327621758,0.005368666257709265,-0.0013379721203818917
1782952649872057600,6.8820576171875,-0.0006314354832284153,0.006341252941638231,0.00015686018741689622
1782952649881984800,6.89198486328125,-0.003457315731793642,0.007674963679164648,-0.0012580773327499628
1782952649891912700,6.90191259765625,-0.001318264752626419,0.006480003707110882,0.002225070958957076
1782952649901840600,6.911840576171875,0.00021358551748562604,0.0017630126094445586,0.000015978966985130683
1782952649911767800,6.921767822265625,-0.0009036105475388467,0.005015797447413206,0.0011590076610445976
1782952649921695700,6.93169580078125,-0.0010961571242660284,0.0037268276792019606,-0.00010279801790602505
1782952649931622700,6.94162255859375,-0.0034091125708073378,0.005543902516365051,0.002751844236627221
1782952649941550800,6.95155078125,-0.003975300583988428,0.005791842471808195,0.0027300063520669937
1782952649951478800,6.961478759765625,-0.0012719257501885295,0.0038991342298686504,0.0018010957865044475
1782952649961405700,6.97140576171875,-0.0022445120848715305,0.007836351171135902,0.002728408435359597
1782952649971333600,6.981333740234375,0.0005403553950600326,0.003236006945371628,0.0007515440811403096
1782952649981261800,6.99126171875,0.000264718197286129,0.0054546864703297615,0.00023941817926242948
1782952649991188700,7.001188720703125,-0.0018879148410633206,0.0057676080614328384,0.004915129859000444
1782952650001116700,7.01111669921875,-0.0004695153038483113,0.005397428758442402,0.0010892328573390841
1782952650011043800,7.0210439453125,-0.0010751180816441774,0.004263987299054861,0.002326803747564554
1782952650020971800,7.0309716796875,-0.0017680726014077663,0.005815278738737106,-0.0011041465913876891
1782952650030899700,7.040899658203125,0.0012370382901281118,0.003197657410055399,-0.0012298477813601494
1782952650040827000,7.050826904296875,-0.0008298410102725029,0.004505003336817026,0.00021145498612895608
1782952650050754800,7.0607548828125,0.000003994741746282671,0.005023787263780832,-0.001201884588226676
1782952650060681500,7.070681396484375,-0.0015923039754852653,0.006508499383926392,0.00004713794987765141
1782952650070610000,7.08060986328125,-0.0008913599886000156,0.0031846079509705305,-0.0001573928166180849
1782952650080538000,7.0905380859375,-0.0012239888310432434,0.009969810023903847,0.0007920240750536323
1782952650090465000,7.100465087890625,-0.0035151063930243254,0.004339354578405619,0.0005195827106945217
1782952650100393000,7.11039306640625,-0.000051132694352418184,0.0027182884514331818,0.00037763622822239995
1782952650110321200,7.120321044921875,-0.0014700648607686162,0.005342567339539528,0.0006775081856176257
1782952650120248000,7.130248046875,-0.0027710190042853355,0.004731371998786926,0.0011949603212997317
1782952650130176000,7.140176025390625,-0.0014117417158558965,0.0021523667965084314,0.0013377057621255517
1782952650140103000,7.15010302734375,-0.0002263686910737306,0.0054395063780248165,-0.0003528688393998891
1782952650150031000,7.160031005859375,-0.0017118799732998013,0.0033100428991019726,0.0010274475207552314
1782952650159959000,7.169958984375,-0.0011435613268986344,0.004038417246192694,0.0010298443958163261
1782952650169886000,7.179885986328125,-0.0014868428697809577,0.005387841258198023,0.0006503439508378506
1782952650179814000,7.18981396484375,-0.0008157262345775962,0.005541239399462938,-0.00012303804396651685
1782952650189742000,7.1997421875,0.0008849684381857514,0.003905525663867593,0.0018738001817837358
1782952650199669000,7.2096689453125,-0.00043116576853208244,0.0024104269687086344,-0.000464188982732594
1782952650209597000,7.219596923828125,-0.0005616606795229018,0.003981958609074354,-0.00025832661776803434
1782952650219523800,7.22952392578125,-0.00126713200006634,0.003718305379152298,0.0015270565636456013
1782952650229451800,7.23945166015625,-0.0022359900176525116,0.006314354948699474,-0.0003352919884491712
1782952650239380000,7.2493798828125,0.001312139444053173,0.005392102058976889,0.0006106628570705652
1782952650249307000,7.259306884765625,-0.0007739146240055561,0.0028519791085273027,0.0019225359428673983
1782952650259234800,7.26923486328125,-0.0006793724023737013,0.004817924462258816,-0.000854075769893825
1782952650269162000,7.279161865234375,-0.00047883635852485895,0.0033627734519541264,0.0018410432385280728
1782952650279090000,7.28908984375,-0.0005938849062658846,0.005875199567526579,0.0011299792677164078
1782952650289017900,7.299017822265625,-0.0007795072160661221,0.005543902516365051,0.0019017633749172091
1782952650298945000,7.308945068359375,0.0015385081060230732,0.007837416604161263,0.00046631949953734875
1782952650308873000,7.318873046875,0.0013755226973444223,0.0031992553267627954,-0.00043569316039793193
1782952650318801000,7.32880078125,-0.0026903252582997084,0.006041381042450666,-0.0014261227333918214
1782952650328728000,7.33872802734375,-0.00105301383882761,0.005437642335891724,0.0006511429091915488
1782952650338656000,7.348656005859375,0.0020671456586569548,0.006216883193701506,-0.004546815063804388
1782952650348583000,7.3585830078125,-0.0015869776252657175,0.005666940473020077,0.0012002866715192795
1782952650358510800,7.3685107421875,0.0008141283178701997,0.005380916874855757,0.00024447820032946765
1782952650368439000,7.37843896484375,-0.005311408545821905,0.007315969560295343,0.0031164311803877354
1782952650378366000,7.388365966796875,-0.003677292726933956,0.005379851907491684,0.0025683525018393993
1782952650388294000,7.3982939453125,0.0013142699608579278,0.003026682650670409,-0.00003861583536490798
1782952650398221000,7.408220947265625,-0.0005315669695846736,0.0028461201582103968,-0.000952080066781491
1782952650408149000,7.41814892578125,-0.000218645524000749,0.005869074258953333,0.00028336033574305475
1782952650418077000,7.428076904296875,-0.0012306467397138476,0.007059773895889521,-0.002432531211525202
1782952650428004000,7.438004150390625,0.00011052118497900665,0.007745005190372467,0.0024951156228780746
1782952650437932000,7.44793212890625,-0.0016162724932655692,0.004406466148793697,0.0005765743553638458
1782952650447860000,7.45785986328125,-0.0018157431622967124,0.0028852687682956457,0.001984321279451251
1782952650457787100,7.467787109375,-0.0014303837670013309,0.0054972972720861435,0.0041007352992892265
1782952650467715000,7.477715087890625,-0.000609863898716867,0.006462959107011557,-0.0013251889031380415
1782952650477642000,7.48764208984375,-0.001743038883432746,0.0029547770973294973,0.0020626182667911053
1782952650487570000,7.49756982421875,-0.0037169738207012415,0.004630970768630505,0.003099120454862714
1782952650497498000,7.507498046875,-0.0018378474051132798,0.005645102355629206,0.0005717806634493172
1782952650507425000,7.517425048828125,-0.0012812467757612467,0.005598230753093958,0.0009438242996111512
1782952650517353000,7.52735302734375,0.001228782464750111,0.0029859361238777637,-0.0011736550368368626
1782952650527280000,7.537280029296875,-0.0023555660154670477,0.005601959303021431,-0.00015686018741689622
1782952650537208000,7.5472080078125,0.0008594020619057119,0.003751861397176981,0.0007145261042751372
1782952650547136000,7.557135986328125,-0.0038341530598700047,0.0041705104522407055,-0.0004822984628845006
1782952650557063000,7.56706298828125,0.001246625673957169,0.005754292011260986,0.0004444815858732909
1782952650566991000,7.5769912109375,-0.0010226538870483637,0.0030093719251453876,0.0014106763992458582
1782952650576919000,7.5869189453125,-0.001186970854178071,0.008985505439341068,-0.0012551478575915098
1782952650586846000,7.596845947265625,-0.001404018490575254,0.004011253360658884,0.00012170646368758753
1782952650596774000,7.60677392578125,-0.0015448997728526592,0.004018443636596203,-0.0010130665032193065
1782952650606700800,7.61670068359375,-0.002633866388350725,0.005078115500509739,0.0022418489679694176
1782952650616629000,7.62662890625,-0.002410160843282938,0.004960137419402599,0.0011715245200321078
1782952650626557000,7.636556884765625,0.002189384773373604,0.0068296766839921474,0.0012298477813601494
1782952650636483800,7.64648388671875,0.0012405004817992449,0.005184908397495747,0.0013962953817099333
1782952650646411800,7.656411865234375,0.0008807073463685811,0.007191866636276245,-0.002624012529850006
1782952650656340000,7.666340087890625,-0.0022064289078116417,0.00777536490932107,-0.00039840888348408043
1782952650666267000,7.676266845703125,-0.0012721919920295477,0.004099670331925154,-0.001264735241420567
1782952650676194800,7.68619482421875,-0.0015507587231695652,0.004601942375302315,-0.0013851100811734796
1782952650686122000,7.6961220703125,-0.0026069683954119682,0.00700890738517046,0.0019052254501730204
1782952650696050000,7.7060498046875,0.0005121259018778801,0.003197657410055399,0.000006125270374468528
1782952650705977900,7.715977783203125,0.0005283711361698806,0.0033744913525879383,-0.0003515372518450022
1782952650715905000,7.725905029296875,-0.0014745922526344657,0.00381417921744287,0.0015451660146936774
1782952650725833000,7.7358330078125,-0.0019166769925504923,0.0046149916015565395,0.0005459480453282595
1782952650735760000,7.745759765625,-0.001591505017131567,0.002365685999393463,0.0008724515791982412
1782952650745688000,7.75568798828125,-0.00036458674003370106,0.003965713083744049,0.0004138552176300436
1782952650755616000,7.765615966796875,0.0024823325220495462,0.004727110732346773,0.0001294296234846115
1782952650765543000,7.77554296875,-0.0026551715563982725,0.004637895151972771,0.0015076154377311468
1782952650775470800,7.785470947265625,-0.0025182850658893585,0.004653075244277716,0.0013752563390880823
1782952650785399000,7.79539892578125,-0.0013102752855047584,0.006447513122111559,0.0002759034978225827
1782952650795326000,7.805325927734375,0.00007270430069183931,0.0049492185935378075,0.0006570018595084548
1782952650805254000,7.81525390625,0.00043036683928221464,0.002688727341592312,0.0013920343481004238
1782952650815181000,7.82518115234375,-0.00026844663079828024,0.002716158051043749,0.002005093963816762
1782952650825109000,7.83510888671875,0.0005715143634006381,0.0046874298714101315,0.0008929579053074121
1782952650835037000,7.845036865234375,0.0010820423485711217,0.004415520932525396,-0.0011241203173995018
1782952650844964000,7.854964111328125,-0.0018261295044794679,0.006473079323768616,0.0014879080699756742
1782952650854892000,7.86489208984375,0.00006178533658385277,0.005240568425506353,0.0016753945965319872
1782952650864819000,7.87481884765625,-0.0006660565850324929,0.005084240809082985,0.002499110298231244
1782952650874747100,7.8847470703125,-0.0007848335662856698,0.005409678909927607,0.0023001721128821373
1782952650884675000,7.894675048828125,-0.0004724447790067643,0.004846953321248293,0.0015361113473773003
1782952650894602000,7.90460205078125,0.0005811017472296953,0.00424374733120203,0.0031108383554965258
1782952650904530200,7.9145302734375,-0.00361763802357018,0.007345530670136213,-0.0005225121858529747
1782952650914458000,7.9244580078125,-0.000336090917699039,0.003778226673603058,0.0017688715597614646
1782952650924385000,7.934385009765625,-0.0032621060963720083,0.0038213697262108326,0.002549710450693965
1782952650934313000,7.94431298828125,-0.002270611235871911,0.006201436743140221,0.001662877737544477
1782952650944240000,7.954240234375,-0.004397677723318338,0.006881341803818941,0.00013129384024068713
1782952650954168000,7.96416796875,0.0005182511522434652,0.0038932752795517445,0.0007462177309207618
1782952650964096000,7.974095947265625,-0.002587793627753854,0.003923369105905294,-0.0008799084462225437
1782952650974023000,7.98402294921875,0.0011976235546171665,0.0029792783316224813,0.002688993699848652
1782952650983951000,7.993951171875,-0.0011677960865199566,0.006864031311124563,0.002487925114110112
1782952650993877800,8.003877685546875,-0.00017337177996523678,0.0065316688269376755,-0.00020053602929692715
1782952651003806000,8.013805908203125,-0.0013065468519926071,0.006856574676930904,0.001219727797433734
1782952651013734000,8.02373388671875,-0.0021411816123872995,0.005559348501265049,-0.0009827064350247383
1782952651023660800,8.033660888671875,-0.00398701848462224,0.0038219024427235126,0.0007534082396887243
1782952651033589000,8.043589111328124,-0.0014114753575995564,0.005032309330999851,0.001285241567529738
1782952651043517000,8.053516845703125,-0.0004135889175813645,0.004232828039675951,0.002246909076347947
1782952651053443800,8.06344384765625,-0.0009763148264028132,0.005293565336614847,-0.0009065400226972997
1782952651063371800,8.073371826171876,-0.003376089269295335,0.0028242822736501694,-0.001026115962304175
1782952651073298400,8.08329833984375,-0.0005012069013901055,0.00484215933829546,0.0010759170399978757
1782952651083226400,8.093226318359376,-0.002545981900766492,0.005953230429440737,0.0017331852577626705
1782952651093154600,8.103154541015625,-0.0033662356436252594,0.004988633096218109,0.001567802974022925
1782952651103081500,8.11308154296875,0.0008876316132955253,0.003483947366476059,0.002639192622154951
1782952651113009400,8.123009521484375,0.0003539340978022665,0.00446931691840291,-0.00016058860637713224
1782952651122936600,8.1329365234375,-0.00038056570338085294,0.0026841999497264624,0.0005496764206327498
1782952651132864500,8.142864501953126,0.0013006879016757011,0.005219529382884502,0.0011733887949958444
1782952651142792400,8.15279248046875,-0.0017598168924450874,0.006216350477188826,-0.0011619371362030506
1782952651152719600,8.1627197265625,-0.0012128035305067897,0.005179049447178841,0.0018378474051132798
1782952651162647600,8.1726474609375,-0.001967543503269553,0.0036570527590811253,-0.0003374225052539259
1782952651172575500,8.182575439453124,0.00034674355993047357,0.007802795618772507,0.0007491472060792148
1782952651182502400,8.19250244140625,-0.0011198592837899923,0.00398781755939126,-0.00044368262751959264
1782952651192430600,8.2024306640625,-0.001588575541973114,0.005817675497382879,0.0011281149927526712
1782952651202357500,8.212357421875,-0.0007089334540069103,0.00503923324868083,0.0008844357798807323
1782952651212285400,8.222285400390625,-0.0022572954185307026,0.0043840957805514336,-0.0002711098059080541
1782952651222213600,8.232213623046874,0.0010109359864145517,0.005873601883649826,0.0008423578692600131
1782952651232140500,8.242140625,-0.00105301383882761,0.006167082116007805,0.0015459649730473757
1782952651242068500,8.252068359375,-0.003629622282460332,0.006828078534454107,0.00001757686368364375
1782952651251995600,8.26199560546875,-0.00033928672201000154,0.0057289921678602695,-0.0005427522119134665
1782952651261923600,8.271923583984375,-0.0021020330023020506,0.006302104331552982,-0.00017683389887679368
1782952651271851500,8.2818515625,-0.0005717806634493172,0.004836300387978554,0.0037063213530927896
1782952651281778700,8.29177880859375,-0.0007310376968234777,0.00567040266469121,-0.00020453077740967274
1782952651291706600,8.30170654296875,0.0014919028617441654,0.003932689782232046,0.0019238675013184547
1782952651301634600,8.311634521484375,-0.0008026767172850668,0.00526773277670145,-0.00008894957863958552
1782952651311561500,8.3215615234375,0.0008609999786131084,0.004832039587199688,-0.00038775624125264585
1782952651321489700,8.33148974609375,-0.0038341530598700047,0.004573180340230465,0.00019520970818120986
1782952651331416600,8.34141650390625,-0.0007898935582488775,0.00833915639668703,0.00021544973424170166
1782952651341344500,8.351344482421876,-0.0002359560749027878,0.00418329332023859,0.00253532943315804
1782952651351272700,8.361272705078125,-0.002089516259729862,0.0056861150078475475,-0.0016287893522530794
1782952651361199600,8.37119970703125,-0.0007965514669194818,0.0030154972337186337,0.0015568839153274894
1782952651371127600,8.38112744140625,0.00033955302205868065,0.005507417023181915,0.0020991035271435976
1782952651381054700,8.3910546875,-0.0022684806026518345,0.006742857396602631,0.002871420234441757
1782952651390982700,8.400982666015626,0.00011957593233091757,0.005486910697072744,-0.0011238539591431618
1782952651400910600,8.41091064453125,-0.0018548916559666395,0.004960936494171619,0.0014391721924766898
1782952651410837800,8.420837646484374,-0.001240766723640263,0.004489823244512081,0.0005866943974979222
1782952651420765700,8.430765625,-0.002243713242933154,0.004839496221393347,0.0006649913266301155
1782952651430693600,8.440693603515625,0.0003603257064241916,0.005564142484217882,-0.00027510453946888447
1782952651440620500,8.45062060546875,0.0013129384024068713,0.005360144190490246,-0.0010000169277191162
1782952651450548700,8.460548828125,0.0002335592289455235,0.0027105652261525393,0.0014836470363661647
1782952651460475400,8.470475341796876,-0.0005938849062658846,0.0057316552847623825,0.0011374361347407103
1782952651470403600,8.480403564453125,-0.00037816885742358863,0.0054365769028663635,-0.0019342538435012102
1782952651480331800,8.490331787109374,-0.0007302387384697795,0.003234142903238535,0.0017832526937127113
1782952651490258400,8.500258544921875,0.0009299758239649236,0.006329002324491739,-0.0000021305288555595325
1782952651500186400,8.510186279296875,0.00042051312630064785,0.006222475785762072,-0.00018801917030941695
1782952651510113500,8.520113525390625,-0.0020839234348386526,0.004501541145145893,-0.00014647385978605598
1782952651520041500,8.53004150390625,0.0015022892039269209,0.00267727579921484,-0.00025992453447543085
1782952651529969400,8.539969482421874,0.0007305050967261195,0.007010505069047213,-0.000010120012120751198
1782952651539896600,8.549896484375,0.0014239922165870667,0.004176635295152664,-0.0000601874417043291
1782952651549824500,8.559824462890624,-0.001564873498864472,0.002930009737610817,-0.0010610034223645926
1782952651559752400,8.56975244140625,-0.0014626081101596355,0.005687713157385588,0.0012756541837006807
1782952651569679600,8.5796796875,-0.0016418388113379478,0.006555370986461639,-0.0037297571543604136
1782952651579607600,8.589607666015626,-0.0011033476330339909,0.004497013986110687,0.0024439829867333174
1782952651589534500,8.599534423828125,-0.0011531487107276917,0.005861617624759674,0.0006916229031048715
1782952651599462400,8.60946240234375,-0.0024200144689530134,0.0036192359402775764,0.0005635248962789774
1782952651609390600,8.619390625,-0.0020903151016682386,0.006111688446253538,0.0003211772127542645
1782952651619317500,8.6293173828125,-0.002159024588763714,0.003805124433711171,0.002269279444590211
1782952651629245400,8.639245361328125,-0.0027806065045297146,0.0016753945965319872,0.001472461735829711
1782952651639172600,8.649172607421875,-0.0027204190846532583,0.006149771623313427,-0.000598145998083055
1782952651649100500,8.6591005859375,-0.0011105381418019533,0.0032839439809322357,-0.00014327807002700865
1782952651659028500,8.669028564453125,-0.0011339739430695772,0.006897853687405586,0.0012503541074693203
1782952651668955600,8.67895556640625,0.00010599380766507238,0.004797418136149645,0.0008093346259556711
1782952651678883600,8.688883544921875,-0.00008735168376006186,0.006907973438501358,0.0024082965683192015
1782952651688810500,8.698810546875,-0.003091397462412715,0.007282946724444628,0.0020333235152065754
1782952651698738700,8.70873876953125,-0.0006231797160580754,0.004793423693627119,-0.0005070658517070115
1782952651708666600,8.71866650390625,-0.0001483380765421316,0.006708769127726555,0.0036583843175321817
1782952651718593500,8.728593505859376,-0.002168878447264433,0.008559665642678738,-0.001115598133765161
1782952651728521500,8.738521484375,-0.0005699164466932416,0.005665875039994717,0.0014239922165870667
1782952651738449700,8.74844970703125,0.0013936321483924985,0.007724765222519636,-0.0012386362068355083
1782952651748376600,8.75837646484375,-0.002242914168164134,0.006684800609946251,-0.001106809708289802
1782952651758304500,8.768304443359375,0.000222373942960985,0.005548696033656597,-0.0020442423410713673
1782952651768231700,8.778231689453126,-0.0002897519152611494,0.005026982631534338,0.0016990967560559511
1782952651778159600,8.78815966796875,-0.0011920308461412787,0.005334311630576849,0.0035388083197176456
1782952651788087600,8.798087646484374,0.00180881901178509,0.005042695440351963,-0.000877511571161449
1782952651798014700,8.8080146484375,0.001184041379019618,0.003555053612217307,-0.00034674355993047357
1782952651807942700,8.817942626953124,0.001273257308639586,0.005288505461066961,-0.00007536746124969795
1782952651817869600,8.82786962890625,-0.0011515507940202951,0.007662180811166763,0.0006258428329601884
1782952651827797800,8.8377978515625,-0.000598145998083055,0.004190484061837196,-0.0020479708909988403
1782952651837725700,8.8477255859375,-0.0011432950850576162,0.003913515247404575,-0.00013369068619795144
1782952651847652600,8.857652587890625,-0.002523611532524228,0.003581951605156064,-0.0007597998483106494
1782952651857580500,8.86758056640625,0.0007115966291166842,0.00544350128620863,0.0011920308461412787
1782952651867507500,8.877507568359375,-0.0024114924017339945,0.003719370812177658,0.00023276027059182525
1782952651877435400,8.887435302734374,-0.0023284016642719507,0.002083390951156616,0.0017369136912748218
1782952651887363600,8.897363525390626,0.000773381965700537,0.0035127094015479088,-0.001547030289657414
1782952651897290500,8.90729052734375,-0.0005328985280357301,0.0054674698039889336,0.0011065434664487839
1782952651907218400,8.917218505859376,-0.00047058056225068867,0.0034818167332559824,0.0016921724891290069
1782952651917146400,8.927146484375,-0.0011318434262648225,0.005766009911894798,-0.0014692660188302398
1782952651927073500,8.937073486328124,-0.0007821703911758959,0.004037085920572281,0.0006285060080699623
1782952651937001500,8.94700146484375,-0.0020130835473537445,0.005410744342952967,-0.0005824333056807518
1782952651946928400,8.956928466796874,-0.001913481275551021,0.004566255956888199,-0.000916393706575036
1782952651956856600,8.966856689453126,-0.0012474246323108673,0.005280782002955675,-0.0008554073283448815
1782952651966784500,8.976784423828125,-0.0007427555974572897,0.004099137615412474,0.0011283813510090113
1782952651976711400,8.98671142578125,-0.0035657063126564026,0.002008023438975215,-0.0005105279851704836
1782952651986639600,8.9966396484375,-0.0021760689560323954,0.003245860803872347,0.0016471651615574956
1782952651996566500,9.00656640625,-0.00026258768048137426,0.004077033139765263,0.0016703346045687795
1782952652006494500,9.016494384765625,-0.0010029464028775692,0.0031672974582761526,-0.00040000680019147694
1782952652016422400,9.02642236328125,-0.0012777847005054355,0.004536428488790989,0.0008982842555269599
1782952652026349600,9.036349609375,0.0007629956235177815,0.004778776317834854,0.001597363967448473
1782952652036277500,9.046277587890625,0.0008631304954178631,0.003468500915914774,-0.0007536745979450643
1782952652046205400,9.056205322265624,-0.0010186590952798724,0.0037326866295188665,0.0006175870657898486
1782952652056132600,9.066132568359375,-0.0027236149180680513,0.005195294506847858,0.0021638183388859034
1782952652066060800,9.076060791015625,-0.001088700257241726,0.006278668530285358,0.0011171960504725575
1782952652075987700,9.08598779296875,-0.0008546083699911833,0.00549276964738965,0.002804841147735715
1782952652085916000,9.095916015625,-0.00041678472189232707,0.005790244787931442,0.0020748688839375973
1782952652095843800,9.10584375,0.0003888215287588537,0.0032959282398223877,-0.00016058860637713224
1782952652105770800,9.115770751953125,-0.00008948221511673182,0.004750280175358057,0.0003920173039659858
1782952652115698700,9.12569873046875,-0.0024501082953065634,0.00436092633754015,0.0013904364313930273
1782952652125625900,9.1356259765625,-0.00030360036180354655,0.0054094125516712666,0.0008380967774428427
1782952652135553800,9.1455537109375,-0.0019382486352697015,0.009521067142486572,0.0028277444653213024
1782952652145481700,9.155481689453126,-0.0010487528052181005,0.004870122764259577,0.0013741911388933659
1782952652155409000,9.165408935546875,0.000060986389144090936,0.004861600697040558,0.00040320257539860904
1782952652165336800,9.1753369140625,-0.00018855179951060563,0.004319114610552788,-0.00038535939529538155
1782952652175264000,9.185263916015625,-0.002153431996703148,0.004495948553085327,0.0013957626651972532
1782952652185192000,9.19519189453125,-0.0013294500531628728,0.00538411270827055,0.002234125742688775
1782952652195119900,9.205119873046876,-0.001680987305007875,0.006468551699072123,0.002546514617279172
1782952652205046800,9.215046875,0.00012650014832615852,0.0026969832833856344,0.0023529028985649347
1782952652214975000,9.22497509765625,-0.00002157160452043172,0.0027047062758356333,0.0005779059720225632
1782952652224903000,9.23490283203125,0.0008042746339924634,0.0016058861510828137,0.0014002900570631027
1782952652234829800,9.244829833984374,-0.0006988134700804949,0.006450176239013672,0.00033396040089428425
1782952652244758000,9.254758056640625,-0.0008506136364303529,0.003477555699646473,0.0008010788587853312
1782952652254685000,9.264684814453124,0.0009976201690733433,0.0036037894897162914,0.002263953210785985
1782952652264612900,9.27461279296875,0.0009025452891364694,0.0046999468468129635,-0.0007968177669681609
1782952652274540800,9.284540771484375,-0.002679938916116953,0.0063002402894198895,0.0010900318156927824
1782952652284467700,9.2944677734375,-0.0014090784825384617,0.004514590837061405,-0.00224903947673738
1782952652294396000,9.30439599609375,-0.0008780442294664681,0.0022564963437616825,0.0012769857421517372
1782952652304322800,9.31432275390625,0.00036432043998502195,0.006259493995457888,0.0023129554465413094
1782952652314250800,9.324250732421875,0.00025353292585350573,0.004661863669753075,-0.00030413299100473523
1782952652324178700,9.3341787109375,0.0010189254535362124,0.0031558459158986807,0.0018865832826122642
1782952652334105900,9.34410595703125,-0.0008815063047222793,0.0027947211638092995,0.00005805691034765914
1782952652344033800,9.35403369140625,-0.00020586235041264445,0.003985154442489147,0.00475507415831089
1782952652353960700,9.363960693359376,0.0017297230660915375,0.001151284552179277,0.0005451490869745612
1782952652363888600,9.373888671875,0.0002902845444623381,0.005617139395326376,-0.0005118595436215401
1782952652373816800,9.38381689453125,-0.0006487460341304541,0.004631503485143185,-0.0001030643325066194
1782952652383743700,9.39374365234375,-0.003114833263680339,0.0062634884379804134,0.0011922972043976188
1782952652393671700,9.403671630859375,0.0009888317435979843,0.003935087006539106,0.0014745922526344657
1782952652403599600,9.413599609375,-0.0001930791768245399,0.0016892430139705539,0.0014759238110855222
1782952652413526800,9.42352685546875,-0.002409894485026598,0.004671450704336166,0.00044554684427566826
1782952652423454700,9.433454833984374,0.002429868094623089,0.003948935307562351,0.001213868847116828
1782952652433382000,9.4433818359375,0.0004948153509758413,0.005753759294748306,0.0022327941842377186
1782952652443309800,9.453309814453124,-0.0034402713645249605,0.005542570725083351,0.0007395598222501576
1782952652453237800,9.46323779296875,-0.0020967067684978247,0.0029523803386837244,-0.00020532972121145576
1782952652463165000,9.4731650390625,-0.00023142869758885354,0.004799815360456705,0.00038003307417966425
1782952652473092900,9.4830927734375,0.0016820525052025914,0.0052054147236049175,0.0007597998483106494
1782952652483019800,9.493019775390625,0.0005219795857556164,0.0036858150269836187,-0.0013544837711378932
1782952652492947700,9.50294775390625,0.0006191849242895842,0.006570284720510244,-0.00021651499264407903
1782952652502876000,9.5128759765625,0.0008663262706249952,0.0044171190820634365,0.0006106628570705652
1782952652512802800,9.522802734375,0.00017417073831893504,0.004758269991725683,-0.00027510453946888447
1782952652522730800,9.532730712890626,-0.0016556872287765145,0.0033217607997357845,0.0031305458396673203
1782952652532658000,9.542657958984375,-0.001948368619196117,0.0065135592594742775,0.00020293287525419146
1782952652542585900,9.5525859375,-0.0003787015157286078,0.004727643448859453,-0.0000756337758502923
1782952652552513800,9.562513671875,0.0017555557424202561,0.005763879511505365,0.000731836655177176
1782952652562441000,9.57244091796875,-0.0025094966404139996,0.006007825024425983,-0.00009374327055411413
1782952652572369000,9.582368896484375,-0.0014226606581360102,0.003979561384767294,-0.001130245509557426
1782952652582295800,9.5922958984375,-0.0008700547041371465,0.007495732977986336,-0.0005187837523408234
1782952652592224000,9.60222412109375,-0.0005366269615478814,0.0041185785084962845,0.0006815029191784561
1782952652602152000,9.61215185546875,0.0006761765689589083,0.005284244194626808,0.00031904669594950974
1782952652612078800,9.622078857421876,-0.004249606281518936,0.004608334042131901,0.0005946838646195829
1782952652622006800,9.6320068359375,-0.0020564929582178593,0.0046213832683861256,0.00005725796290789731
1782952652631935000,9.64193505859375,-0.00281948852352798,0.00523710623383522,-0.00005299690383253619
1782952652641862000,9.65186181640625,-0.0010724549647420645,0.005546032916754484,0.0002282329078298062
1782952652651789800,9.661789794921875,-0.0014855111949145794,0.005400091875344515,0.0017925737192854285
1782952652661716700,9.671716796875,-0.0005195827106945217,0.004040281753987074,0.0015635418239980936
1782952652671645000,9.68164501953125,0.0010660634143278003,0.0029372002463787794,0.0007685882737860084
1782952652681572900,9.69157275390625,-0.0012231898726895452,0.0076187714003026485,0.0015851134667173028
1782952652691499800,9.701499755859375,-0.0006202502408996224,0.004832305945456028,-0.00039281626231968403
1782952652701427700,9.711427734375,-0.000028762138754245825,0.004060521721839905,0.0009784454014152288
1782952652711354600,9.721354736328125,-0.0012540825409814715,0.005082376766949892,0.0006897587445564568
1782952652721282800,9.73128271484375,-0.002430400811135769,0.0037918086163699627,0.0011536814272403717
1782952652731210800,9.741210693359376,-0.0024764735717326403,0.006111954804509878,0.00023675501870457083
1782952652741137700,9.7511376953125,-0.0001627191377338022,0.005828327964991331,-0.00016351809608750045
1782952652751065900,9.76106591796875,-0.0014314490836113691,0.006619286723434925,0.002999251941218972
1782952652760992800,9.77099267578125,-0.001439971150830388,0.005804093088954687,0.0003150519623886794
1782952652770920700,9.780920654296875,-0.0009752495680004358,0.005625395104289055,0.0015281217638403177
1782952652780848600,9.7908486328125,-0.0015877765836194158,0.0037768951151520014,-0.001543834456242621
1782952652790775800,9.80077587890625,-0.0007619303651154041,0.004698615055531263,-0.0014716627774760127
1782952652800703700,9.810703857421874,-0.0006178533658385277,0.005739644635468721,0.0012330436147749424
1782952652810631000,9.820630859375,0.0005795038305222988,0.002856240142136812,-0.0013185309944674373
1782952652820558800,9.830558837890624,-0.0023004384711384773,0.006878678686916828,0.000016777914424892515
1782952652830486800,9.84048681640625,-0.0003374225052539259,0.004798217210918665,0.0012450277572497725
1782952652840413700,9.85041357421875,-0.0010863033821806312,0.005628590937703848,0.00036458674003370106
1782952652850342000,9.860341796875,-0.003591006388887763,0.005318066570907831,0.0012503541074693203
1782952652860269800,9.870269775390625,-0.002371012233197689,0.004545216914266348,0.0009712548344396055
1782952652870196700,9.88019677734375,0.00036991306114941835,0.0016136092599481344,0.00048123320448212326
1782952652880125000,9.890125,-0.001306014135479927,0.0052205948159098625,0.000006125270374468528
1782952652890051800,9.9000517578125,0.001243962557055056,0.00452950457111001,-0.0002109223569277674
1782952652899979800,9.909979736328125,0.00043782367720268667,0.0021065603941679,0.0010167949367314577
1782952652909907700,9.91990771484375,-0.0006005428149364889,0.004096474498510361,-0.0005179848521947861
1782952652919835000,9.9298349609375,0.0010644654976204038,0.006132194772362709,-0.0009448895580135286
1782952652929762800,9.9397626953125,-0.0019081549253314734,0.006558566819876432,-0.00025992453447543085
1782952652939690000,9.94968994140625,-0.001990446588024497,0.004274107050150633,-0.00013022858183830976
1782952652949618000,9.959617919921875,0.0010029464028775692,0.0038448055274784565,0.0007046724203974009
1782952652959545900,9.9695458984375,-0.0008080030675046146,0.00449994346126914,0.0011715245200321078
1782952652969472800,9.97947265625,-0.0015904398169368505,0.006423810962587595,0.0019707391038537025
1782952652979401000,9.98940087890625,0.000015978966985130683,0.0052139367908239365,0.0008831042214296758
1782952652989328000,9.999327880859376,-0.0016407734947279096,0.006881608162075281,0.0013166668359190226
1782952652999255800,10.009255859375,-0.0013054815353825688,0.007663512136787176,-0.00029587719473056495
1782952653009184000,10.01918408203125,-0.0007504787645302713,0.004878911189734936,0.0025904567446559668
1782952653019111000,10.02911083984375,0.00041571943438611925,0.005175587255507708,0.001377919572405517
1782952653029038800,10.039038818359375,-0.0005478122038766742,0.006163353566080332,-0.00040772996726445854
1782952653038965800,10.0489658203125,-0.0006340986583381891,0.005981726106256247,-0.0015211976133286953
1782952653048893700,10.058893798828125,-0.00013528858835343271,0.006851514335721731,-0.003722300287336111
1782952653058822000,10.06882177734375,-0.0005491438205353916,0.0070616379380226135,-0.00041199102997779846
1782952653068748500,10.07874853515625,-0.0008929579053074121,0.0034021881874650717,0.0001651159836910665
1782952653078676500,10.088676513671874,0.0014913701452314854,0.005829127039760351,0.0019323896849527955
1782952653088604400,10.0986044921875,-0.0005523395957425237,0.0052136704325675964,0.0009840379934757948
1782952653098531600,10.108531494140625,-0.0003528688393998891,0.005943376570940018,-0.0000428768944402691
1782952653108459500,10.11845947265625,-0.0010034791193902493,0.004054396413266659,0.0012711267918348312
1782952653118386400,10.128386474609375,0.0019861855544149876,0.00444028852507472,0.001710814656689763
1782952653128314400,10.138314453125,0.00035712990211322904,0.006563360337167978,-0.00026498452643863857
1782952653138242600,10.14824267578125,0.0008434231276623905,0.0030221552588045597,-0.00018242653459310532
1782952653148169500,10.15816943359375,-0.00041199102997779846,0.0018748653819784522,0.0016343819443136454
1782952653158097400,10.168097412109375,-0.002597647253423929,0.0073356772772967815,-0.0005526058957912028
1782952653168024600,10.178024658203125,-0.0011403656098991632,0.006385994143784046,0.0010000169277191162
1782952653177952500,10.187952392578126,-0.0018378474051132798,0.005293565336614847,0.002231995342299342
1782952653187880400,10.19788037109375,-0.0009443568997085094,0.0067905280739068985,0.0005302353529259562
1782952653197807600,10.2078076171875,-0.0015651397407054901,0.003176884725689888,0.002103364560753107
1782952653207735600,10.217735595703125,-0.0014879080699756742,0.003430151380598545,-0.0002972087822854519
1782952653217662500,10.227662353515624,-0.000535561703145504,0.0041305627673864365,-0.0010191916953772306
1782952653227590700,10.237590576171876,-0.0009435579413548112,0.003582484321668744,0.0024082965683192015
1782952653237518600,10.2475185546875,-0.0024319987278431654,0.007835285738110542,0.001961151836439967
1782952653247445500,10.257445556640626,0.001213868847116828,0.0030088394414633512,0.00033902039285749197
1782952653257373700,10.267373779296875,-0.0008349010022357106,0.004847751930356026,0.00025060345069505274
1782952653267300600,10.277300537109374,-0.001829591696150601,0.00478516798466444,0.0023614249657839537
1782952653277228500,10.287228515625,-0.0022738068364560604,0.004325506277382374,-0.00020426444825716317
1782952653287156500,10.297156494140625,-0.0014594122767448425,0.006873086094856262,-0.000853809411637485
1782952653297083600,10.307083740234376,-0.002148372121155262,0.0037585191894322634,0.0027632960118353367
1782952653307011600,10.317011474609375,-0.0015563513152301311,0.004318049177527428,0.002252235310152173
1782952653316938800,10.326938720703126,-0.001561677665449679,0.004939631093293428,0.00025060345069505274
1782952653326866700,10.33686669921875,-0.001865011639893055,0.003594202222302556,0.0003049319493584335
1782952653336794600,10.346794677734374,-0.0022266688756644726,0.0065322015434503555,-0.00034434671397320926
1782952653346721500,10.356721435546875,-0.0007835020078346133,0.002828276949003339,0.00196434766985476
1782952653356649700,10.366649658203125,-0.0004519384237937629,0.004275438841432333,0.0015877765836194158
1782952653366577700,10.37657763671875,0.0004673847579397261,0.003082609036937356,0.004270378965884447
1782952653376504600,10.386504638671875,0.0006817692192271352,0.005830458365380764,0.0011659319279715419
1782952653386432800,10.396432861328124,-0.0025454494170844555,0.004800613969564438,0.0002700445184018463
1782952653396359400,10.406359375,-0.0022679478861391544,0.007814779877662659,-0.001841842196881771
1782952653406287600,10.41628759765625,0.0021819279063493013,0.003990214318037033,0.002709766384214163
1782952653416215600,10.426215576171876,-0.0008402272942475975,0.00512791657820344,-0.00044821001938544214
1782952653426142500,10.436142578125,-0.002100435085594654,0.00646748673170805,0.00242107966914773
1782952653436070400,10.4460703125,0.0021811288315802813,0.005048288032412529,-0.000059921123465755954
1782952653445997600,10.45599755859375,-0.000985103310085833,0.003011236200109124,0.0019329222850501537
1782952653455925500,10.465925537109374,-0.00012303804396651685,0.004176635295152664,0.0008631304954178631
1782952653465853400,10.475853515625,-0.001193362521007657,0.0028613002505153418,0.0033838124945759773
1782952653475780600,10.485780517578124,-0.00040000680019147694,0.004430168308317661,0.0010226538870483637
1782952653485708500,10.49570849609375,0.0002258360618725419,0.005450691562145948,-0.00036432043998502195
1782952653495635500,10.505635498046875,0.0004005394293926656,0.003183542750775814,0.0014831144362688065
1782952653505563400,10.5155634765625,-0.001677791471593082,0.005144960712641478,0.0015105449128895998
1782952653515491600,10.52549169921875,0.0020639498252421618,0.005736182443797588,0.0028796761762350798
1782952653525418500,10.53541845703125,0.0013347762869670987,0.006389455869793892,0.0024466461036354303
1782952653535346400,10.545346435546875,0.00017656758427619934,0.004006193019449711,0.00145222176797688
1782952653545273600,10.555273681640625,0.0017947042360901833,0.005305549595504999,0.000261788722127676
1782952653555201500,10.565201416015626,-0.00016165387933142483,0.004022438544780016,0.0015904398169368505
1782952653565129500,10.57512939453125,-0.001930525409989059,0.005531119182705879,0.002147839404642582
1782952653575056600,10.585056640625,-0.001050617080181837,0.005006742663681507,0.0014713965356349945
1782952653584984600,10.594984619140625,-0.0009177253232337534,0.004537493921816349,-0.00011105381418019533
1782952653594911500,10.604911376953124,-0.0029443909879773855,0.0038980687968432903,0.0036759611684828997
1782952653604839700,10.614839599609375,0.00007057376933516935,0.004521781112998724,-0.00047617321251891553
1782952653614767600,10.624767578125,-0.0013869742397218943,0.00293347192928195,0.00019654128118418157
1782952653624694500,10.634694580078126,0.0023177489638328552,0.002275937469676137,0.0013427657540887594
1782952653634622500,10.64462255859375,-0.002659698948264122,0.005320463329553604,0.0028967203106731176
1782952653644549600,10.654549560546876,-0.0014253237750381231,0.004294347018003464,-0.0011587414192035794
1782952653654477600,10.6644775390625,-0.00032197617110796273,0.004205664154142141,0.0011249192757532
1782952653664405500,10.674405517578125,-0.0012442287988960743,0.006478938274085522,0.0013230583863332868
1782952653674332700,10.684332763671875,-0.0023270701058208942,0.0018021611031144857,-0.00037976677413098514
1782952653684260600,10.694260498046875,0.00025726135936565697,0.006465089973062277,-0.0007344998302869499
1782952653694187500,10.7041875,0.002531068166717887,0.003462908323854208,0.0006631271098740399
1782952653704115700,10.71411572265625,-0.002347842790186405,0.006548180244863033,-0.0014439659425988793
1782952653714043600,10.724043701171874,-0.0002234392159152776,0.00361683894880116,-0.0004040015337523073
1782952653723970600,10.733970458984375,-0.0006556702428497374,0.005368666257709265,0.0012724583502858877
1782952653733898800,10.743898681640625,0.0012961605098098516,0.005317800212651491,-0.0005408879951573908
1782952653743825700,10.75382568359375,-0.002679938916116953,0.0065740132704377174,-0.00021411814668681473
1782952653753753600,10.763753662109375,0.00009640643111197278,0.003466636873781681,0.0014106763992458582
1782952653763681500,10.773681640625,0.0013515542959794402,0.004568919073790312,-0.000365918327588588
1782952653773608400,10.7836083984375,-0.00013635384675581008,0.002891660202294588,0.001094559207558632
1782952653783536600,10.79353662109375,-0.0001984054979402572,0.004031759686768055,0.0014958975370973349
1782952653793463600,10.803463623046875,0.000723048229701817,0.0040823593735694885,0.002674346324056387
1782952653803391500,10.8133916015625,-0.0015779229579493403,0.004602475091814995,-0.00038482676609419286
1782952653813319400,10.8233193359375,-0.0036477316170930862,0.0028818065766245127,-0.0006668555433861911
1782952653823246600,10.83324658203125,0.00010759170982055366,0.00566827179864049,0.00014620754518546164
1782952653833174500,10.843174560546874,0.0007866977830417454,0.003427488263696432,0.0003808320325333625
1782952653843102500,10.8531025390625,-0.00021518341964110732,0.0037555897142738104,0.0020066918805241585
1782952653853029400,10.863029296875,0.001805623178370297,0.003947337158024311,-0.0000929443194763735
1782952653862957600,10.87295751953125,-0.00227886694483459,0.005842708982527256,0.002764627570286393
1782952653872884500,10.882884521484375,-0.000949150591623038,0.003973968792706728,0.0016359798610210419
1782952653882812400,10.8928125,-0.0018154769204556942,0.005256281234323978,0.0014974954538047314
1782952653892740600,10.90274072265625,0.00047084689140319824,0.00586614478379488,0.002716158051043749
1782952653902667500,10.91266748046875,-0.0005376922199502587,0.0054152715019881725,0.0012455604737624526
1782952653912595500,10.922595458984375,0.00034115093876607716,0.0044107274152338505,0.0001882854849100113
1782952653922522600,10.932522705078124,-0.0009744506096467376,0.005889580585062504,-0.0012154667638242245
1782952653932450600,10.942450439453125,0.0000601874417043291,0.0037816886324435472,-0.0004796353168785572
1782952653942378500,10.95237841796875,-0.000472977408207953,0.004841094370931387,-0.0025398568250238895
1782952653952305700,10.9623056640625,0.00018322547839488834,0.005045358557254076,-0.00025273399660363793
1782952653962233600,10.972233642578125,0.001969407545402646,0.005531918257474899,-0.0016072177095338702
1782952653972160500,10.982160400390624,0.0012088088551536202,0.0035180358681827784,0.0008367652189917862
1782952653982088400,10.99208837890625,0.0002969424531329423,0.0016365124611184,0.0022684806026518345
1782952653992016600,11.0020166015625,0.0004106594424229115,0.003624029690399766,0.001252484624274075
1782952654001943600,11.011943603515626,-0.002062085550278425,0.004720719531178474,0.0036195022985339165
1782952654011871500,11.02187158203125,-0.002067678142338991,0.006731672212481499,0.0012157330056652427
1782952654021798700,11.031798583984376,0.0013542174128815532,0.005322327371686697,0.0019214707426726818
1782952654031726600,11.0417265625,-0.0005147890187799931,0.005592904519289732,0.002379534300416708
1782952654041654500,11.051654541015624,-0.0031941954512149096,0.006082926411181688,0.0011853729374706745
1782952654051581700,11.061581787109375,0.0006759102689102292,0.00449994346126914,0.003187004942446947
1782952654061509600,11.071509521484375,-0.0005073322099633515,0.006223807577043772,0.0003174488083459437
1782952654071436300,11.081436279296875,0.0007107976707629859,0.006570284720510244,0.002638926263898611
1782952654081364200,11.0913642578125,-0.0009233179152943194,0.005504487548023462,-0.0001579254458192736
1782952654091292200,11.101292236328124,-0.0018221348291262984,0.003082342678681016,0.003352919826284051
1782952654101219000,11.111218994140625,-0.0007669904152862728,0.003817108692601323,0.0030280142091214657
1782952654111147300,11.121147216796874,-0.0007539408979937434,0.004473311826586723,-0.0014913701452314854
1782952654121074200,11.13107421875,0.00021385183208622038,0.00370126124471426,0.001591505017131567
1782952654131002000,11.141002197265625,-0.0010221211705356836,0.0021640846971422434,0.0002665824140422046
1782952654140930000,11.150929931640626,-0.0035872780717909336,0.004819256253540516,-0.0003075950953643769
1782952654150857200,11.160857177734375,0.0006759102689102292,0.005938050337135792,-0.0010309095960110426
1782952654160785200,11.17078515625,0.0006703176186420023,0.004459995776414871,-0.000005592638444795739
1782952654170712000,11.180712158203125,-0.0022082931827753782,0.003974767867475748,0.00017683389887679368
1782952654180640000,11.190639892578124,-0.0012245214311406016,0.005636846646666527,0.001478320686146617
1782952654190568200,11.200568115234375,0.0025334651581943035,0.004414722323417664,0.0003834952076431364
1782952654200495000,11.2104951171875,-0.004503138829022646,0.007244330830872059,0.0007677893154323101
1782952654210423000,11.220423095703126,-0.0014061490073800087,0.0027270768769085407,0.002746518002822995
1782952654220350000,11.230349853515625,-0.0004809668753296137,0.00299259414896369,0.003656253917142749
1782952654230278000,11.24027783203125,0.0015662050573155284,0.005335643421858549,-0.0006285060080699623
1782952654240206000,11.2502060546875,-0.0030890004709362984,0.006175337824970484,-0.0010351707460358739
1782952654250133000,11.260133056640624,-0.002433863002806902,0.004178499802947044,-0.00020959076937288046
1782952654260061000,11.27006103515625,-0.0014112089993432164,0.0073042516596615314,0.00307595101185143
1782952654269988000,11.279988037109375,0.001261805766262114,0.003924434073269367,-0.0016828514635562897
1782952654279916000,11.289916015625,0.000996821210719645,0.003469566348940134,0.00361790438182652
1782952654289844000,11.299843994140625,0.002049302449449897,0.006473345682024956,0.0028399948496371508
1782952654299771100,11.309771240234374,-0.0002913498319685459,0.005750829819589853,0.0028996497858315706
1782952654309699000,11.319698974609375,0.0005017395596951246,0.005687180440872908,0.0003605920064728707
1782952654319626000,11.3296259765625,-0.0004857605672441423,0.005498362239450216,0.00086872314568609
1782952654329554200,11.33955419921875,-0.0006311691831797361,0.05180487409234047,0.0175800584256649
1782952654339482000,11.349482177734375,0.0008231831016018987,-0.007728759665042162,-0.005350024439394474
1782952654349409000,11.359408935546876,-0.0021859225817024708,0.01323883980512619,0.005215800832957029
1782952654359337200,11.369337158203125,-0.0007747135823592544,-0.009097624570131302,-0.0028160265646874905
1782952654369264000,11.37926416015625,-0.0005006743012927473,-0.010582603514194489,-0.0049643986858427525
1782952654379192000,11.389192138671875,-0.0012093414552509785,-0.007497331127524376,-0.003084206720814109
1782952654389120000,11.3991201171875,-0.0022298647090792656,0.0004114583716727793,-0.0007275756215676665
1782952654399047200,11.409047119140626,-0.00033928672201000154,0.005049886181950569,0.0007701861904934049
