time,seconds_elapsed,z,y,x
1782952643062943500,0.072943603515625,0.0010655093938112259,0.0009251418523490429,-0.00011002569226548076
1782952643072871400,0.082871337890625,-0.0017652055248618126,0.0005969591438770294,-0.0022940838243812323
1782952643082799400,0.09279931640625,-0.0003555945004336536,-0.0020339777693152428,-0.0004144246340729296
1782952643092726500,0.1027265625,0.0010009283432736993,0.0005793347954750061,-0.0027922913432121277
1782952643102654500,0.112654541015625,0.0006504564080387354,0.000012613832950592041,-0.0011275492142885923
1782952643112581400,0.122581298828125,-0.0017549378098919988,0.001440863125026226,-0.0023372189607471228
1782952643122509600,0.132509521484375,0.00006693060277029872,0.002034748438745737,0.002806943142786622
1782952643132437500,0.1424375,-0.0008337180479429662,-0.0011510530021041632,0.0029677303973585367
1782952643142364400,0.152364501953125,0.0007066543330438435,0.0016761589795351028,-0.001181208179332316
1782952643152292600,0.162292724609375,0.0004239341360516846,-0.0007688994519412518,-0.002046967623755336
1782952643162220500,0.172220458984375,-0.00043520162580534816,0.0009813299402594566,0.0025989168789237738
1782952643172147500,0.1821474609375,-0.00034230301389470696,-0.00024040276184678078,0.0007189451134763658
1782952643182075400,0.192075439453125,0.0009061868768185377,-0.001990099437534809,0.0027794328052550554
1782952643192003600,0.202003662109375,0.0002448101877234876,0.00007803225889801979,-0.0027314918115735054
1782952643201930500,0.211930419921875,-0.0012068789219483733,0.0016479655168950558,0.000016624049749225378
1782952643211858400,0.2218583984375,0.0034442516043782234,-0.0004811286926269531,-0.0020612450316548347
1782952643221786600,0.23178662109375,-0.00009242643136531115,-0.00039457622915506363,-0.0006281980313360691
1782952643231713500,0.241713623046875,-0.0022744478192180395,-0.0016855907160788774,0.000542789523024112
1782952643241641500,0.251641357421875,-0.0011854812037199736,-0.0014501672703772783,0.0002578312414698303
1782952643251568400,0.261568359375,0.0013902524951845407,0.0007654530927538872,-0.0019424856873229146
1782952643261496600,0.27149658203125,-0.00028168002609163523,-0.0010737257543951273,-0.0031377123668789864
1782952643271424500,0.281424560546875,-0.002638597972691059,0.00037133367732167244,0.003578046103939414
1782952643281351400,0.291351318359375,-0.00280158338136971,0.001063489355146885,-0.00044891959987580776
1782952643291279400,0.301279296875,0.0006554345018230379,0.00003936607390642166,-0.00036995825939811766
1782952643301207600,0.31120751953125,-0.0010455264709889889,-0.00003014272078871727,-0.0011236327700316906
1782952643311134500,0.321134521484375,0.0014129445189610124,-0.0027438264805823565,-0.0009207554976455867
1782952643321062400,0.3310625,0.0022284043952822685,0.00007859151810407639,-0.0016185037093237042
1782952643330990600,0.340990478515625,0.0004850378318224102,-0.00020603789016604424,0.0018719860818237066
1782952643340917200,0.350917236328125,0.00007251417264342308,0.0004365830682218075,0.004352454096078873
1782952643350845400,0.360845458984375,-0.00020519504323601723,0.00009430805221199989,-0.00046126192319206893
1782952643360773400,0.3707734375,0.001039300113916397,0.0002237376756966114,0.00040826015174388885
1782952643370700300,0.3807001953125,0.00047611742047593,0.0004921788349747658,0.0007988075958564878
1782952643380628200,0.390628173828125,0.0007365745841525495,-0.000318220816552639,-0.0011990958591923118
1782952643390556400,0.400556396484375,0.001172667252831161,0.00006445078179240227,-0.0018324486445635557
1782952643400483300,0.4104833984375,0.0015902509912848473,0.0009499518200755119,0.001328989746980369
1782952643410411300,0.420411376953125,0.0001887017861008644,-0.0015716729685664177,0.0005149439675733447
1782952643420338400,0.43033837890625,-0.000032873242162168026,-0.0020339975599199533,-0.0023479540832340717
1782952643430266400,0.440266357421875,-0.001785045606084168,0.0004239054396748543,-0.000373287417460233
1782952643440194300,0.4501943359375,-0.0007533370517194271,0.00131606450304389,-0.00218796543776989
1782952643450121500,0.46012158203125,-0.0026939064264297485,0.0009483993053436279,-0.00002228521043434739
1782952643460049400,0.47004931640625,-0.0009231705917045474,0.002051746938377619,-0.0021120677702128887
1782952643469977300,0.479977294921875,-0.0004207948804832995,0.0007440652698278427,-0.001928958110511303
1782952643479904500,0.489904541015625,-0.0005795192555524409,-0.0005989666096866131,-0.0004458436742424965
1782952643489832400,0.49983251953125,-0.00041074142791330814,-0.000459201168268919,-0.000189041078556329
1782952643499760400,0.509760498046875,0.0004097785276826471,0.0020657419227063656,0.001828569918870926
1782952643509687300,0.519687255859375,0.0008287051459774375,-0.0008674808777868748,-0.003380922833457589
1782952643519615500,0.529615478515625,-0.00036439101677387953,-0.002649668138474226,-0.000036525074392557144
1782952643529543400,0.53954345703125,-0.002522322814911604,-0.0003186534158885479,-0.001761558698490262
1782952643539470300,0.54947021484375,0.0017270168755203485,-0.00026432471349835396,0.0038350741378962994
1782952643549398500,0.5593984375,-0.00128922238945961,0.0030724937096238136,-0.0034726911690086126
1782952643559325400,0.569325439453125,0.001373938750475645,0.004134828224778175,-0.0005916834925301373
1782952643569253400,0.57925341796875,-0.0017394889146089554,0.0009451312944293022,-0.0011724760988727212
1782952643579181300,0.589181396484375,-0.0003839398268610239,-0.002591813215985894,0.00012208649422973394
1782952643589108500,0.5991083984375,0.0002220385940745473,0.0004343511536717415,-0.0019231992773711681
1782952643599036400,0.609036376953125,-0.001599829993210733,-0.00071719940751791,0.002994061214849353
1782952643608964400,0.61896435546875,-0.003254939569160342,0.00026788003742694855,-0.0017457484500482678
1782952643618891500,0.6288916015625,-0.0006764669669792056,0.00009104609489440918,-0.0011630489025264978
1782952643628819500,0.6388193359375,-0.001540324417874217,-0.002054300159215927,0.0018996404251083732
1782952643638747400,0.648747314453125,-0.0018130321986973286,0.0015367064625024796,0.0004495491739362478
1782952643648674600,0.658674560546875,0.0003271342138759792,0.00033949920907616615,-0.000057976983953267336
1782952643658602500,0.6686025390625,0.0011311426060274243,0.0005757217295467854,-0.0010558634530752897
1782952643668530400,0.678530517578125,0.0002665113424882293,0.0006341636180877686,-0.00047446013195440173
1782952643678457600,0.68845751953125,0.002402899321168661,-0.0003349608741700649,-0.0006978993187658489
1782952643688385500,0.698385498046875,0.0023117675445973873,-0.0008398243226110935,-0.0009617108153179288
1782952643698313500,0.7083134765625,0.0007942984229885042,-0.00018734997138381004,-0.0007609085296280682
1782952643708240400,0.718240478515625,0.0027623658534139395,-0.0013903409708291292,0.0016012444393709302
1782952643718168600,0.72816845703125,-0.00020253140246495605,-0.0003367946483194828,0.0010371870594099164
1782952643728096500,0.738096435546875,0.00036073685623705387,0.0011223936453461647,-0.0021794820204377174
1782952643738023400,0.7480234375,0.00016073347069323063,-0.000853405799716711,-0.002695069881156087
1782952643747951600,0.75795166015625,0.00045689797843806446,-9.94652509689331e-7,-0.0011395843466743827
1782952643757878500,0.76787841796875,0.0030114019755274057,-0.0017006238922476768,0.000715839967597276
1782952643767806500,0.777806396484375,-0.0005286505911499262,0.00009185215458273888,-0.0007204535068012774
1782952643777734400,0.787734375,-0.0025196298956871033,-0.0028069985564798117,0.0004063299857079983
1782952643787661600,0.79766162109375,0.0018584153149276972,0.0030254609882831573,0.0012125209905207157
1782952643797589500,0.807589599609375,0.0017795857274904847,0.00038307253271341324,-0.0022775516845285892
1782952643807517400,0.817517333984375,-0.00007031887071207166,-0.0004935041069984436,-0.0013480677735060453
1782952643817444400,0.8274443359375,0.0011938835959881544,-0.0004184027202427387,-0.0012921413872390985
1782952643827372500,0.83737255859375,0.00034879485610872507,0.00023522460833191872,0.0005247648223303258
1782952643837300500,0.847300537109375,0.0006545257638208568,-0.0018332526087760925,0.000983893871307373
1782952643847227400,0.857227294921875,0.0008149649947881699,0.0021502343006432056,0.0016154503682628274
1782952643857155300,0.8671552734375,-0.0017358106561005116,-0.0005142586305737495,0.0015179786132648587
1782952643867083500,0.87708349609375,0.0001350254169665277,-0.001508258981630206,0.0003401153371669352
1782952643877010400,0.887010498046875,0.0001723096356727183,0.000990318600088358,0.000250100449193269
1782952643886938400,0.8969384765625,0.00168232386931777,-0.001115903491154313,-0.0002986385952681303
1782952643896865300,0.906865234375,-0.0017563498113304377,0.0025882874615490437,-0.002070972230285406
1782952643906793500,0.91679345703125,0.000013602722901850939,0.00031153904274106026,0.0006694267503917217
1782952643916721400,0.926721435546875,0.000623466563411057,-0.0005246936343610287,-0.0004285945324227214
1782952643926648300,0.9366484375,0.00033230046392418444,0.0028112404979765415,0.0010240765986964107
1782952643936576300,0.946576171875,-0.0007587966392748058,-0.000011177733540534973,-0.0012076523853465915
1782952643946504400,0.95650439453125,-0.0008011182071641088,-0.002442018361762166,-0.0003044800250791013
1782952643956431400,0.966431396484375,-0.0009638373740017414,-0.002444947836920619,0.0014121936401352286
1782952643966359300,0.976359375,0.00015340634854510427,0.000730948057025671,-0.0010484898230060935
1782952643976287500,0.98628759765625,0.001453028991818428,0.0004989868029952049,-0.0008817759226076305
1782952643986214400,0.99621435546875,-0.0007211882621049881,0.0012321649119257927,-0.0014128033071756363
1782952643996142300,1.006142333984375,0.00016750855138525367,-0.0012011653743684292,-0.0019491639686748385
1782952644006069500,1.016069580078125,-0.00028023921186104417,0.0009482861496508121,-0.0001508534187451005
1782952644015997400,1.02599755859375,0.0006715744966641068,-0.000574775505810976,-0.0016659258399158716
1782952644025925400,1.03592529296875,0.000661799218505621,-0.0039686583913862705,-0.0010196681832894683
1782952644035852500,1.0458525390625,-0.00005618901923298836,0.0005962662398815155,-0.0006151340203359723
1782952644045780500,1.055780517578125,-0.00013976515037938952,-0.000045293476432561874,0.0016304468736052513
1782952644055708700,1.065708740234375,-0.0012748043518513441,0.0013398169539868832,0.0010679871775209904
1782952644065635300,1.07563525390625,-0.0002477503730915487,-0.0006619193591177464,-0.0012296692002564669
1782952644075563800,1.085563720703125,0.0012779745738953352,0.0007314463146030903,-0.000804362294729799
1782952644085491700,1.09549169921875,0.001878924435004592,-0.0005012238398194313,0.0026148264296352863
1782952644095418400,1.10541845703125,-0.0014058186206966639,-0.0012176141608506441,0.0016547568375244737
1782952644105346600,1.1153466796875,-0.000022804888430982828,-0.00029245903715491295,-0.003338596550747752
1782952644115274800,1.125274658203125,-0.0005695518921129405,0.00042126793414354324,-0.003177209058776498
1782952644125201400,1.135201416015625,0.0001556652132421732,0.003147061914205551,0.00017990329070016742
1782952644135129300,1.14512939453125,-0.001582313678227365,0.00004234863445162773,-0.0008853611652739346
1782952644145056500,1.155056396484375,0.0014083684654906392,0.0004872693680226803,-0.0009774891659617424
1782952644154984400,1.164984375,-0.0005072432686574757,0.0003927270881831646,-0.0016557963099330664
1782952644164912400,1.174912353515625,-0.003897778457030654,0.000940756406635046,-0.0017053476767614484
1782952644174839600,1.184839599609375,-0.0015374189242720604,0.0008571329526603222,0.00188406091183424
1782952644184767500,1.194767578125,0.0013736528344452381,-0.0004076673649251461,0.00005046813748776913
1782952644194695400,1.2046953125,-0.001711086486466229,0.00011324696242809296,0.001944774528965354
1782952644204622600,1.21462255859375,-0.0010771880624815822,0.0013164621777832508,0.00013695965753868222
1782952644214550500,1.224550537109375,-0.0016407129587605596,0.0011505470611155033,0.0023583024740219116
1782952644224478500,1.234478515625,0.00015517958672717214,0.0010921242646872997,-0.0009046664927154779
1782952644234405600,1.244405517578125,0.003115283092483878,0.00034803710877895355,-0.0009858928387984633
1782952644244333600,1.25433349609375,-0.0011271783150732517,0.001286365557461977,0.00041111744940280914
1782952644254261500,1.264261474609375,0.00022331063519231975,0.0020112781785428524,0.0002718342002481222
1782952644264188400,1.2741884765625,-0.0008730647386983037,0.00007704552263021469,0.0008037040242925286
1782952644274116600,1.28411669921875,-0.0019026428926736116,0.0017007747665047646,-0.0012309510493651032
1782952644284043500,1.29404345703125,-0.0006187416729517281,-0.0009497632272541523,-0.0009719691588543355
1782952644293971500,1.303971435546875,0.001514716655947268,0.0014753113500773907,-0.0009983344934880733
1782952644303899600,1.313899658203125,0.0032597738318145275,-0.0009678422939032316,-0.0006349978502839804
1782952644313826600,1.32382666015625,-0.0010457586031407118,-0.00020591216161847115,-0.001800663536414504
1782952644323754500,1.33375439453125,0.0003566948289517313,0.0016576554626226425,-0.0010084810201078653
1782952644333682400,1.343682373046875,-0.00009098253212869167,-0.0008920552209019661,-0.0010417704470455647
1782952644343609600,1.353609619140625,0.0004886735114268959,0.0011297515593469143,-0.000002157525159418583
1782952644353537500,1.36353759765625,-0.0016581006348133087,0.0010325461626052856,0.0005493831704370677
1782952644363465500,1.373465576171875,-0.0009094028500840068,-0.00005778484046459198,-0.0012039036955684423
1782952644373392600,1.383392578125,0.0031292808707803488,0.000733440276235342,0.0010091832373291254
1782952644383320600,1.393320556640625,-0.001478204969316721,0.00002241833135485649,-0.0009535974822938442
1782952644393247500,1.40324755859375,0.00029546034056693316,0.00008580135181546211,0.0004517525667324662
1782952644403175700,1.41317578125,-0.0006122920312918723,0.0008833170868456364,-0.00005300133489072323
1782952644413103600,1.423103515625,-0.0019183061085641384,0.0026854784227907658,0.0014306457014754415
1782952644423030500,1.433030517578125,0.000504129973705858,-0.0004851329140365124,-0.0001572712790220976
1782952644432958700,1.442958740234375,-0.0014532934874296188,-0.000548515934497118,0.0017170615028589964
1782952644442886700,1.45288671875,-0.0006963603082112968,-0.001128908945247531,-0.0011848392896354198
1782952644452813600,1.4628134765625,-0.001925941789522767,-0.0017225274350494146,-0.00014753808500245214
1782952644462741500,1.472741455078125,-0.0008206364000216126,-0.0005053388886153698,-0.0000373257789760828
1782952644472669700,1.482669677734375,-0.0007846837397664785,0.001184703316539526,-0.002596889855340123
1782952644482596600,1.4925966796875,-0.0008362040389329195,-0.001359752845019102,-0.00014102651039138436
1782952644492524500,1.502524658203125,-0.0004798730369657278,-0.002647657413035631,-0.0014124196022748947
1782952644502451700,1.51245166015625,0.000892773037776351,-0.002860746346414089,0.0016150632873177528
1782952644512379600,1.522379638671875,-0.00046250957529991865,0.0014431881718337536,0.0017657980788499117
1782952644522307600,1.5323076171875,-0.0008795004105195403,0.000957234762609005,-0.0006486839847639203
1782952644532234800,1.54223486328125,-0.0028667510487139225,-0.0006174924783408642,-0.0024396597873419523
1782952644542162700,1.55216259765625,-0.000219020526856184,-0.00035758502781391144,-0.00001765735214576125
1782952644552090600,1.562090576171875,0.00024010846391320229,-0.00016290787607431412,0.0002414682530798018
1782952644562017500,1.572017578125,-0.0012931583914905787,0.0019622468389570713,0.0003182094660587609
1782952644571945700,1.58194580078125,0.00014920980902388692,0.0005441135726869106,-0.0004844673094339669
1782952644581873700,1.591873779296875,0.0001569152227602899,0.0009742733091115952,0.0016627935692667961
1782952644591800600,1.601800537109375,0.00312314392067492,-0.0017722444608807564,-0.0004347122157923877
1782952644601728800,1.611728759765625,-0.0008899334934540093,0.0009404541924595833,0.00018846418242901564
1782952644611655400,1.621655517578125,0.002615319099277258,0.0003921091556549072,-0.0026925434358417988
1782952644621583400,1.631583251953125,0.00029841469950042665,0.0026750420220196247,-0.001659114146605134
1782952644631511600,1.641511474609375,0.00008136703399941325,-0.00046588992699980736,0.0016464012442156672
1782952644641438500,1.6514384765625,-0.0008507337770424783,0.00174391595646739,-0.00336645869538188
1782952644651366400,1.661366455078125,0.00006699154619127512,-0.0025871829129755497,0.001824574894271791
1782952644661294300,1.67129443359375,0.00011279952013865113,-0.00095201819203794,-0.0010413294658064842
1782952644671221500,1.681221435546875,0.0007136086351238191,0.0007121912203729153,-0.00004690513014793396
1782952644681149400,1.6911494140625,-0.0004695155075751245,0.00015316903591156006,-0.0012512379325926304
1782952644691077400,1.701077392578125,-0.0015691346488893032,-0.0021219695918262005,-0.0025721658021211624
1782952644701004500,1.711004638671875,0.0008032467449083924,-0.00024084746837615967,-0.0019216982182115316
1782952644710932500,1.720932373046875,0.0015766287688165903,-0.001260039396584034,0.001409650081768632
1782952644720859600,1.730859619140625,-0.0008274715510196984,0.0011274050921201706,-0.0017516600200906396
1782952644730787600,1.74078759765625,-0.0017499907407909632,-0.0008420026861131191,-0.0011125013697892427
1782952644740715500,1.750715576171875,0.0018945103511214256,-0.00007870979607105255,-0.0013958194758743048
1782952644750642400,1.760642333984375,0.002023673616349697,0.001608668826520443,0.000837507366668433
1782952644760570600,1.770570556640625,-0.00041277153650298715,-0.0005035982467234135,0.0016258866526186466
1782952644770498600,1.78049853515625,0.0007797919679433107,-0.00010039564222097397,-0.0021566010545939207
1782952644780425500,1.790425537109375,-0.0015437827678397298,0.0021527311764657497,-0.00030468549812212586
1782952644790353700,1.800353759765625,-0.0003594750305637717,0.001871501561254263,0.00038826902164146304
1782952644800281600,1.810281494140625,-0.000885963614564389,-0.0004488001577556133,-0.0014268453232944012
1782952644810208500,1.82020849609375,-0.0005735747399739921,-0.0010251081548631191,-0.0008643857436254621
1782952644820136400,1.830136474609375,-0.0022895438596606255,0.00012625660747289658,-0.0020904073026031256
1782952644830063600,1.840063720703125,0.00324823334813118,-0.0011280921753495932,-0.00033059046836569905
1782952644839991600,1.849991455078125,0.0013932372676208615,0.0011318675242364407,-0.0016159792430698872
1782952644849919500,1.85991943359375,-0.0019271918572485447,0.00007299473509192467,0.0001616808003745973
1782952644859846700,1.8698466796875,0.0021617135498672724,-0.002333002397790551,-0.00010294787352904677
1782952644869774600,1.879774658203125,0.00044344199704937637,-0.0020749419927597046,-0.002152250148355961
1782952644879702500,1.88970263671875,-0.0018732959870249033,0.000994514673948288,0.0033128554932773113
1782952644889629700,1.899629638671875,0.0005600344156846404,-0.0002728835679590702,0.0005554184899665415
1782952644899557600,1.9095576171875,0.000055869168136268854,-0.0005981065332889557,-0.00170692871324718
1782952644909485600,1.919485595703125,-0.0009574635769240558,-0.0012164926156401634,-0.0022912262938916683
1782952644919412700,1.929412841796875,-0.0011416313936933875,-0.001286280807107687,-0.0011926820734515786
1782952644929340700,1.939340576171875,-0.0010351049713790417,-0.0005539115518331528,-0.0006896109553053975
1782952644939267600,1.949267578125,0.001125219278037548,0.0009660678915679455,0.0014155020471662283
1782952644949195500,1.959195556640625,0.00009297812357544899,0.0019277352839708328,0.001171290292404592
1782952644959123700,1.969123779296875,-0.0010275628883391619,0.00028186244890093803,0.00010483292862772942
1782952644969050600,1.979050537109375,0.0009575573494657874,-0.001943741226568818,-0.0005553647060878575
1782952644978978600,1.988978515625,0.0022844073828309774,0.0007211733609437943,0.0017048718873411417
1782952644988906500,1.998906494140625,0.0008702687919139862,0.0003999960608780384,-0.0015649574343115091
1782952644998833700,2.008833740234375,-0.0009914003312587738,0.0005723582580685616,0.0015999008901417255
1782952645008761600,2.01876171875,-0.0006670273724012077,-0.0009640194475650787,-0.0018041515722870827
1782952645018689500,2.028689453125,-0.0019783980678766966,-0.0018291352316737175,-0.0010521691292524338
1782952645028616700,2.03861669921875,-0.00030087289633229375,-0.0008328468538820744,-0.0010995734483003616
1782952645038544600,2.048544677734375,0.0002756091416813433,0.0005096476525068283,0.001160500105470419
1782952645048471600,2.058471435546875,0.0012426029425114393,0.0007703714072704315,-0.0022856304422020912
1782952645058399200,2.068399169921875,0.0018891242798417807,-0.0000601448118686676,0.0022802783641964197
1782952645068327400,2.078327392578125,-0.0012302362592890859,0.0011891438625752926,0.0009979663882404566
1782952645078254300,2.08825439453125,-0.0011713297571986914,-0.0007710151840001345,-0.000032311887480318546
1782952645088182300,2.098182373046875,-0.00047944061225280166,0.0001323288306593895,0.001230026362463832
1782952645098110200,2.108110107421875,-0.0006939336890354753,0.0007319566793739796,-0.0031735398806631565
1782952645108037000,2.118037109375,0.0000762524432502687,0.0013317004777491093,-0.00017135828966274858
1782952645117965300,2.12796533203125,-0.0012099517043679953,0.0006911773234605789,-0.00009249430149793625
1782952645127893200,2.137893310546875,0.0007938107009977102,0.001973755657672882,-0.002105843974277377
1782952645137820200,2.147820068359375,-0.0008195189293473959,0.0008960063569247723,0.0004886818933300674
1782952645147748400,2.157748291015625,-0.000027494796086102724,0.00015671271830797195,0.0019049509428441525
1782952645157675300,2.16767529296875,-0.00010819098679348826,0.001021259929984808,0.0008574632229283452
1782952645167603200,2.177603271484375,-0.0002240384928882122,0.0008151312358677387,-0.00022910645930096507
1782952645177531100,2.18753125,-0.00026358303148299456,0.00124255008995533,0.0007182555855251849
1782952645187458300,2.197458251953125,-0.0005368234124034643,-0.0006919698789715767,0.0015741956885904074
1782952645197386200,2.20738623046875,0.0002917517558671534,-0.0002131960354745388,0.00006581551861017942
1782952645207314200,2.217314208984375,0.0005777752376161516,0.0015506157651543617,-0.0013294145464897156
1782952645217241300,2.227241455078125,-0.0007715493557043374,-0.0017189939972013235,0.000748682941775769
1782952645227169300,2.237169189453125,0.0017986674793064594,-0.0019501564092934132,-0.0005717122694477439
1782952645237097200,2.24709716796875,0.0003003916353918612,-0.000051054637879133224,0.0004733380628749728
1782952645247024400,2.2570244140625,-0.0016058989567682147,-0.0017626683693379164,-0.0009871394140645862
1782952645256952300,2.266952392578125,-0.0012107384391129017,0.000016037840396165848,0.0003053209511563182
1782952645266879200,2.276879150390625,-0.0011990205384790897,0.00017476221546530724,0.0018654006998986006
1782952645276807400,2.286807373046875,0.00009383819997310638,-0.0005533294752240181,-0.0010959258070215583
1782952645286735400,2.2967353515625,-0.0014449363807216287,0.0004751831293106079,0.0028341009747236967
1782952645296662300,2.306662353515625,-0.00045068218605592847,0.002349254209548235,-0.0009675603359937668
1782952645306590200,2.316590087890625,-0.0003643957315944135,0.0011548264883458614,-0.0007025757804512978
1782952645316518400,2.326518310546875,0.0006461723824031651,0.0007272539660334587,0.0013975956244394183
1782952645326445300,2.3364453125,0.0007385840290226042,-0.0009273681789636612,-0.0012045791372656822
1782952645336373200,2.346373291015625,-0.0010385445784777403,-0.0010424484498798847,0.0019227827433496714
1782952645346300400,2.356300537109375,-0.0008071159827522933,0.0006494577974081039,0.00022901227930560708
1782952645356228400,2.366228271484375,0.0024560324382036924,0.0014899857342243195,0.000076771539170295
1782952645366156300,2.37615625,-0.001013800036162138,-0.00014413008466362953,0.0003854318638332188
1782952645376083500,2.38608349609375,0.0011782762594521046,-0.00045114802196621895,0.0015640414785593748
1782952645386011400,2.396011474609375,0.0005620207521133125,0.001209333073347807,0.000172806263435632
1782952645395939300,2.405939208984375,0.0016747298650443554,0.001954013016074896,0.0009980148170143366
1782952645405866500,2.415866455078125,0.0020792640279978514,-0.000832185847684741,0.002981537254527211
1782952645415794400,2.42579443359375,-0.001683445880189538,0.000424056313931942,-0.0001890687271952629
1782952645425722400,2.435722412109375,0.0025216853246092796,0.0011670785024762154,-0.0015440850984305143
1782952645435649300,2.445649169921875,-0.0008719875477254391,0.000424832571297884,-0.00041065795812755823
1782952645445577500,2.455577392578125,0.0003354896616656333,0.0008088601753115654,0.0002609912189655006
1782952645455504400,2.46550439453125,-0.0004414797876961529,-0.00010093767195940018,-0.0005835722549818456
1782952645465432300,2.475432373046875,0.000956413452513516,-0.0002671186812222004,-0.0006123344064690173
1782952645475360500,2.485360595703125,0.0006701058591715991,0.000443845521658659,0.0002838603686541319
1782952645485287400,2.495287353515625,-0.0006026187911629677,-0.0008421950042247772,0.00045696587767452
1782952645495215400,2.50521533203125,-0.0007917186012491584,0.00042400695383548737,-0.0016694862861186266
1782952645505143300,2.515143310546875,0.0013539902865886688,0.0005933837965130806,0.0036949189379811287
1782952645515070200,2.5250703125,-0.0024610746186226606,-0.0008228300139307976,-0.0014778788900002837
1782952645524998400,2.534998291015625,0.001104898052290082,0.0025580530054867268,-0.001231802860274911
1782952645534926300,2.54492626953125,0.0003263624384999275,-0.0007352447137236595,-0.0018478936981409788
1782952645544853200,2.554853271484375,-0.0007767188362777233,0.0009627868421375751,-0.0033869342878460884
1782952645554781200,2.56478125,0.003247090382501483,0.00020964303985238075,0.0009852454531937838
1782952645564708400,2.574708251953125,0.00012772995978593826,0.00019978918135166168,0.0014779302291572094
1782952645574636300,2.58463623046875,-0.0006751654436811805,-0.0006557288579642773,-0.0024253008887171745
1782952645584564200,2.594564208984375,0.0010622808476909995,0.0008905022405087948,0.00037075200816616416
1782952645594491100,2.6044912109375,0.000916654709726572,0.0021154265850782394,-0.000548021518625319
1782952645604419300,2.61441943359375,0.0002505980955902487,-0.0017940939869731665,-0.00020314217545092106
1782952645614347300,2.62434716796875,0.002051851712167263,0.0019793896935880184,-0.0016881832852959633
1782952645624274200,2.634274169921875,0.00022998329950496554,-0.0013218650128692389,-0.000471917592221871
1782952645634202400,2.644202392578125,-0.000838847947306931,0.0014178003184497356,0.000528066826518625
1782952645644129300,2.65412939453125,-0.0005821192171424627,0.0009690574370324612,-0.0008125685271807015
1782952645654057200,2.66405712890625,-0.0011514624347910285,0.0011715888977050781,0.0020186302717775106
1782952645663985200,2.673985107421875,-0.002303812187165022,-0.00013762107118964195,-0.0005728918476961553
1782952645673912300,2.683912353515625,0.0009126915247179568,0.0011967355385422707,-0.0018437751568853855
1782952645683840300,2.69384033203125,-0.0012183700455352664,0.0019072666764259338,-0.001696502324193716
1782952645693768200,2.703768310546875,0.00029695857665501535,0.002043522894382477,0.0024514079559594393
1782952645703695400,2.7136953125,-0.000018093385733664036,0.00038517266511917114,0.0010607053991407156
1782952645713623300,2.723623291015625,0.00005156249972060323,0.0006891186349093914,0.0002078097895719111
1782952645723551200,2.73355126953125,0.002014578552916646,-0.0008925327565521002,-0.0014220448210835457
1782952645733478400,2.743478515625,-0.00236076139844954,-0.00011475058272480965,0.001244209473952651
1782952645743406300,2.75340625,0.0033437295351177454,0.001589139923453331,0.0019030754920095205
1782952645753333200,2.763333251953125,-0.0005092357750982046,0.0009406828321516514,-0.0004504201060626656
1782952645763261400,2.773261474609375,0.000018602819181978703,0.0024821204133331776,-0.0021716211922466755
1782952645773189400,2.783189453125,0.0009165990632027388,-0.0004288596101105213,-0.00319849606603384
1782952645783116300,2.7931162109375,0.0008886358700692654,0.0000936524011194706,0.0004721389268524945
1782952645793044200,2.803044189453125,-0.0019317346159368753,0.002672538161277771,-0.0006236766930669546
1782952645802972400,2.812972412109375,-0.0006214593886397779,-0.0018804017454385757,-0.0028977501206099987
1782952645812899300,2.8228994140625,0.0006251183804124594,0.0002874797210097313,-0.0011980509152635932
1782952645822827300,2.8328271484375,0.0006450921064242721,0.00047842832282185555,0.0017111863708123565
1782952645832755200,2.842755126953125,0.0027901269495487213,-0.00020290492102503777,-0.0014120331034064293
1782952645842682400,2.852682373046875,0.0017911752220243216,0.0017723613418638706,0.000650585163384676
1782952645852610300,2.8626103515625,0.0011057744268327951,0.00018514273688197136,0.00024326529819518328
1782952645862537500,2.872537353515625,-0.0009336742223240435,-0.001430330565199256,0.0009324913844466209
1782952645872465400,2.88246533203125,0.0004872932913713157,0.0011764881201088428,0.0006363218417391181
1782952645882393300,2.892393310546875,0.0010846403893083334,-0.000197703018784523,0.000023528526071459055
1782952645892320500,2.902320556640625,0.000159010523930192,0.00016133207827806473,-0.0007552008028142154
1782952645902248400,2.91224853515625,-0.0022074745502322912,-0.0017955584917217493,0.0008994211675599217
1782952645912176400,2.92217626953125,0.0007921765209175646,-0.0015598670579493046,0.0017157383263111115
1782952645922103300,2.932103271484375,-0.0017791055142879486,-0.0007896807510405779,-0.0009399658883921802
1782952645932031500,2.942031494140625,-0.0017588420305401087,-0.0009824971202760935,-0.002274245722219348
1782952645941958400,2.95195849609375,-0.001396385719999671,0.0012447042390704155,-0.0006728869630023837
1782952645951886300,2.96188623046875,-0.001243624952621758,0.0022343392483890057,0.0008054556092247367
1782952645961814500,2.971814453125,0.0015476341359317303,-0.001037620473653078,0.000004643050488084555
1782952645971741200,2.9817412109375,0.001105978386476636,0.0005450034514069557,-0.0006415490061044693
1782952645981669400,2.99166943359375,0.0016492631984874606,0.00011863140389323235,-0.002401898382231593
1782952645991597300,3.001597412109375,-0.0015164832584559917,0.0008581057190895081,0.0005168621428310871
1782952646001524200,3.011524169921875,0.0002478610258549452,0.0006863321177661419,0.0004385652719065547
1782952646011452200,3.0214521484375,0.0005678224842995405,0.0002326183021068573,-0.0012090386589989066
1782952646021380400,3.03138037109375,0.00011801457731053233,0.0017317114397883415,-0.0003722734982147813
1782952646031307300,3.041307373046875,0.0011040326207876205,0.0011887815780937672,-0.0011945641599595547
1782952646041235200,3.051235107421875,0.0010302631417289376,0.00013097375631332397,0.0014062789268791676
1782952646051162400,3.061162353515625,-0.001240694196894765,0.0032686064951121807,0.0008259409805759788
1782952646061091000,3.071091064453125,-0.00021804036805406213,-0.0008129538036882877,0.00090104213450104
1782952646071019300,3.081019287109375,-0.000021080661099404097,-0.0014196159318089485,-0.002748994156718254
1782952646080946000,3.09094580078125,-0.000871427939273417,-0.0004355781711637974,-0.00008876255014911294
1782952646090873900,3.100873779296875,0.0004834254796151072,-0.001935639651492238,-0.0019451918778941035
1782952646100802000,3.110802001953125,-0.0009376372909173369,0.0009746630676090717,0.0006074480479583144
1782952646110729000,3.12072900390625,-0.000739525887183845,0.0013932576403021812,-0.0006873077363707125
1782952646120657000,3.130656982421875,0.0011862057726830244,-0.0007348740473389626,-0.0010252628708258271
1782952646130584000,3.140583984375,-0.0023380196653306484,-0.0003353087231516838,0.00043795182136818767
1782952646140512000,3.150511962890625,-0.0013569111470133066,0.0019092033617198467,-0.002066484885290265
1782952646150440000,3.16043994140625,-0.0021714847534894943,0.0029163467697799206,0.00003291206667199731
1782952646160367000,3.1703671875,0.00043947852100245655,-0.0016922533977776766,-0.0010427386732771993
1782952646170295000,3.180294921875,0.0003295517526566982,-0.0023799005430191755,0.0004008600953966379
1782952646180223000,3.190222900390625,0.00023980322293937206,-0.00016574840992689133,-0.0028900080360472202
1782952646190150100,3.200150146484375,0.0013139696093276143,-0.0008020976092666388,-0.0016515667084604502
1782952646200078000,3.210078125,-0.0008562403963878751,0.0006772885099053383,-0.0018499722937121987
1782952646210006000,3.220006103515625,-0.00015140458708629012,-0.0006451467052102089,-0.001776225515641272
1782952646219933000,3.229932861328125,0.0016803175676614046,-0.000010781921446323395,0.000592123600654304
1782952646229861000,3.239861083984375,0.00019335979595780373,0.0004173419438302517,-0.0008911940967664123
1782952646239788000,3.2497880859375,0.00011160073336213827,0.0007105562835931778,-0.001687745563685894
1782952646249716000,3.259716064453125,0.0031153704039752483,0.001163287553936243,-0.0009061625460162759
1782952646259644000,3.269643798828125,0.0003701839304994792,0.0007699388079345226,0.0016241068951785564
1782952646269571000,3.279571044921875,0.0003307806618977338,0.000058735720813274384,-0.002141288248822093
1782952646279499000,3.2894990234375,-0.004334811121225357,0.0001127980649471283,0.0007338603609241545
1782952646289427000,3.299427001953125,0.002359215635806322,0.0002974020317196846,-0.0010345616610720754
1782952646299354000,3.30935400390625,-0.0023362035863101482,-0.0007148655131459236,-0.0016082065412774682
1782952646309282000,3.319281982421875,-0.0006412874208763242,-0.0003381194546818733,-0.0025424794293940067
1782952646319210000,3.3292099609375,0.0008298426982946694,0.0011087758466601372,0.001708458410575986
1782952646329137200,3.33913720703125,0.001998665276914835,0.0009535686112940311,-0.00032159918919205666
1782952646339065000,3.349065185546875,-0.0009422635193914175,-0.0009705654811114073,0.0013199732638895512
1782952646348992000,3.358991943359375,-0.0019419805612415075,0.0011952919885516167,-0.0020130437333136797
1782952646358920200,3.368920166015625,-0.00028203229885548353,-0.0006257775239646435,-0.0021792249754071236
1782952646368848100,3.37884814453125,0.0014319217298179865,0.002108300570398569,0.0014734859578311443
1782952646378775000,3.388775146484375,-0.0026586935855448246,0.0017663505859673023,0.000538183783646673
1782952646388703200,3.398703125,-0.001161221181973815,-0.001577706541866064,-0.00210823817178607
1782952646398631200,3.408631103515625,0.0006510599050670862,-0.00020964071154594421,0.001988236326724291
1782952646408558000,3.41855810546875,0.00236188480630517,0.00007429299876093864,-0.0010768806096166372
1782952646418486000,3.428486083984375,0.001940040267072618,-0.00011372612789273262,0.0006696204072795808
1782952646428413200,3.4384130859375,-0.0028050418477505445,-0.001774343429133296,-0.0010396905709058046
1782952646438341000,3.448341064453125,-0.0010883682407438755,-0.00022624805569648743,-0.0007238396210595965
1782952646448269000,3.45826904296875,0.000268603180302307,-0.0019441936165094376,0.0003621317446231842
1782952646458196200,3.4681962890625,0.000441176031017676,-0.0010850578546524048,-0.00044826819794252515
1782952646468124200,3.478124267578125,0.0016934883315116167,-0.0015515864361077547,-0.0008169659995473921
1782952646478052000,3.488052001953125,0.00286314869299531,0.0010790838859975338,-0.00006622087676078081
1782952646487979300,3.497979248046875,0.0003915527486242354,-0.00016465969383716583,0.0006672203307971358
1782952646497907200,3.5079072265625,-0.003025549231097102,-0.0026752217672765255,0.0003380535636097193
1782952646507835100,3.517835205078125,0.0008265969227068126,-0.0012391998898237944,0.0014567533507943153
1782952646517762000,3.527761962890625,0.0008716043666936457,0.001222892664372921,-0.0026698147412389517
1782952646527690200,3.537690185546875,-0.001067995559424162,-0.0008288598619401455,0.0007558775250799954
1782952646537617000,3.547616943359375,0.0009200541535392404,-0.0020222223829478025,0.0017708081286400557
1782952646547544800,3.557544921875,0.0002529991907067597,0.0002871975302696228,0.0011215376434847713
1782952646557473000,3.56747314453125,-0.0014628753997385502,-0.0005740686319768429,-0.0018524142215028405
1782952646567400000,3.57739990234375,0.00007846154039725661,0.0001164083369076252,0.001022557495161891
1782952646577327900,3.587327880859375,-0.00021049141651019454,0.001249317079782486,0.000671552901621908
1782952646587256000,3.597256103515625,0.0031255653593689203,0.000057569704949855804,0.0011457628570497036
1782952646597183000,3.607182861328125,-0.0012582640629261732,0.0006426661275327206,-0.0008518742397427559
1782952646607111000,3.61711083984375,0.0004964630352333188,0.00035598548129200935,-0.0023510907776653767
1782952646617038000,3.6270380859375,-0.0029648474883288145,0.0006824890151619911,-0.0006495972047559917
1782952646626966000,3.636966064453125,0.000878727063536644,-0.0016732753720134497,0.0007624125573784113
1782952646636894000,3.64689404296875,0.0018124313792213798,-0.0007134720217436552,0.00009795383084565401
1782952646646821000,3.656821044921875,-0.002562247682362795,0.0007015825249254704,0.000492043502163142
1782952646656749000,3.6667490234375,-0.0006453043315559626,-0.00032080477103590965,0.00016154523473232985
1782952646666677000,3.676677001953125,-0.0006347231101244688,-0.0011227689683437347,0.000377874996047467
1782952646676604200,3.686604248046875,-0.0018872077343985438,0.00233667716383934,-0.0018663709051907063
1782952646686532000,3.696531982421875,-0.00048324884846806526,-0.0008792351000010967,0.0019351912196725607
1782952646696459000,3.706458984375,-0.000676061725243926,0.00043689925223588943,0.0010680658742785454
1782952646706387000,3.716386962890625,0.0010850683320313692,0.0009707161225378513,-0.0014126216992735863
1782952646716315100,3.726315185546875,0.0008677543373778462,0.002138778567314148,0.0018044768366962671
1782952646726242000,3.736241943359375,0.001265080296434462,-0.0026030358858406544,-0.0007770523661747575
1782952646736170000,3.746169921875,0.0025481912307441235,-0.0018602802883833647,0.0009026033221744001
1782952646746098000,3.756097900390625,-0.0010015853913500905,-0.0008282656781375408,0.0000588187831453979
1782952646756025000,3.766025146484375,0.00041601521661505103,0.0008181002922356129,-0.0032688009086996317
1782952646765953000,3.775953125,0.002074773423373699,0.0010516750626266003,-0.0008851537713780999
1782952646775881000,3.785880859375,0.0022494769655168056,0.0002252962440252304,0.0003452266100794077
1782952646785808100,3.79580810546875,0.0007636041264049709,0.0032154680229723454,0.0005629503284581006
1782952646795736000,3.805736083984375,0.00006186118116602302,0.002544884104281664,-0.0020163212902843952
1782952646805663200,3.815663330078125,-0.002061018953099847,0.0014136298559606075,-0.0006429395289160311
1782952646815591200,3.825591064453125,0.0011611396912485361,-0.000998395262286067,0.00008863082621246576
1782952646825519000,3.83551904296875,-0.0011664021294564009,-0.0035427259281277657,-0.000514839484822005
1782952646835446000,3.845446044921875,0.0030560395680367947,0.0004216553643345833,-0.0015183186624199152
1782952646845374200,3.855374267578125,-0.000841807690449059,-0.000052758026868104935,0.0017246233765035868
1782952646855302100,3.86530224609375,0.00015368190361186862,0.0013912077993154526,-0.000690331042278558
1782952646865229000,3.87522900390625,0.0009940711315721273,0.0009609726257622242,-0.0003550006076693535
1782952646875157000,3.885156982421875,-0.0012877251720055938,0.0005612322129309177,0.0002556621911935508
1782952646885084200,3.895084228515625,0.0023176465183496475,-0.000234995037317276,0.0008704369538463652
1782952646895012000,3.90501220703125,0.00016048605903051794,0.0023027309216558933,-0.0006678049103356898
1782952646904940000,3.91493994140625,-0.0008329607080668211,0.0003259326331317425,-0.0010635786456987262
1782952646914867200,3.9248671875,0.001289046136662364,-0.0007361357565969229,-0.0022657294757664204
1782952646924795100,3.934795166015625,-0.003090017009526491,0.00021482817828655243,-0.0004484348464757204
1782952646934723000,3.94472314453125,-0.00020927569130435586,0.0023011486046016216,-0.0001336492132395506
1782952646944650200,3.954650146484375,-0.0004473859444260597,-0.0007589834276586771,0.0017003577668219805
1782952646954578200,3.964578125,0.002122031757608056,-0.0029323892667889595,0.0013632015325129032
1782952646964504800,3.9745048828125,0.003212086157873273,-0.0012712914030998945,0.00042981270235031843
1782952646974433000,3.98443310546875,-0.0022689655888825655,-0.0017264254856854677,0.0012165105435997248
1782952646984361200,3.994361328125,-0.0005212214891798794,0.0020222635939717293,-0.0009178764885291457
1782952646994287900,4.004287841796875,-0.0020773063879460096,-0.00044302502647042274,0.0018768447916954756
1782952647004216000,4.014216064453125,-0.00005777698243036866,0.0015221675857901573,-0.0009044961770996451
1782952647014144000,4.02414404296875,0.0005137373809702694,0.0009469250217080116,-0.0004600146203301847
1782952647024071000,4.03407080078125,-0.0006001447327435017,0.0007236194796860218,-0.0011867559514939785
1782952647033998800,4.043998779296875,0.00014474141062237322,0.0007878015749156475,-0.000441337120719254
1782952647043927000,4.053927001953125,-0.0006481680320575833,-0.00018149660900235176,0.0007020834018476307
1782952647053854000,4.06385400390625,0.0002296098682563752,0.000412654597312212,0.00011618796270340681
1782952647063781600,4.07378173828125,0.0009051626548171043,0.0010038474574685097,-0.0007491507567465305
1782952647073708800,4.083708740234375,-0.0011321555357426405,-0.0011743521317839622,-0.0007821739418432117
1782952647083636700,4.09363671875,-0.0013009889516979456,0.000603946391493082,0.0008269516401924193
1782952647093564700,4.103564697265625,-0.000841061060782522,-0.0029774722643196583,0.0027790486346930265
1782952647103491800,4.113491943359375,-0.0012740062084048986,0.001913738902658224,0.0031900363974273205
1782952647113419800,4.123419677734375,-0.0008132794173434377,0.0002695033326745033,0.0019109202548861504
1782952647123347700,4.13334765625,-0.002602145541459322,0.0022728336043655872,-0.0011615040712058544
1782952647133275000,4.14327490234375,0.0015995234716683626,-0.0029546853620558977,0.0014073812635615468
1782952647143202800,4.153202880859375,0.000934338488150388,-0.0002872282639145851,-0.0005237809964455664
1782952647153129700,4.163129638671875,-0.001958120847120881,0.0016243886202573776,-0.0011432322207838297
1782952647163058000,4.173057861328125,-0.0013085828395560384,-0.000273148063570261,-0.001453177072107792
1782952647172985900,4.18298583984375,0.0010307378834113479,-0.0011634430848062038,0.0018198478501290083
1782952647182912800,4.192912841796875,0.0008397704223170877,-0.0005064727738499641,-0.0003430031647440046
1782952647192840700,4.2028408203125,0.0026131693739444017,0.0025377869606018066,-0.0003983969218097627
1782952647202769000,4.212768798828125,0.0038298917934298515,0.00010664854198694229,-0.0014151334762573242
1782952647212695800,4.22269580078125,-0.0023624903988093138,-0.0005977572873234749,0.0007494839373975992
1782952647222623700,4.232623779296875,0.0004951874725520611,0.00021325098350644112,0.0006320162210613489
1782952647232552000,4.242552001953125,-0.00017513014608994126,0.003299588803201914,0.00038194539956748486
1782952647242478600,4.252478515625,-0.00044622470159083605,0.001066842582076788,0.00025158055359497666
1782952647252406800,4.26240673828125,0.0009093242697417736,-0.0008082888089120388,0.0016838285373523831
1782952647262333700,4.272333740234375,-0.0024673487059772015,-0.0007213226053863764,0.0006058773142285645
1782952647272261600,4.28226171875,0.0007260475540533662,-0.0003759106621146202,-0.000015438185073435307
1782952647282189600,4.292189453125,-0.0004886321257799864,0.0007905908860266209,-0.0003520827158354223
1782952647292116700,4.30211669921875,0.001125509850680828,-0.00017400598153471947,0.0027630168478935957
1782952647302044700,4.312044677734375,-0.0014738667523488402,-0.00196814420633018,0.000133879657369107
1782952647311972600,4.32197265625,0.0009373592911288142,0.000571446493268013,0.002614880446344614
1782952647321899800,4.331899658203125,-0.000004449684638530016,0.0010223854333162308,0.0003408551565371454
1782952647331827700,4.34182763671875,0.0020890613086521626,0.0005520712584257126,-0.001005372847430408
1782952647341754600,4.351754638671875,0.0000629710266366601,0.0011654309928417206,0.0040561845526099205
1782952647351682600,4.3616826171875,-0.0013042958453297615,0.0030522807501256466,-0.00029595301020890474
1782952647361610800,4.37161083984375,0.0023527005687355995,0.00023239804431796074,0.001882228534668684
1782952647371537700,4.38153759765625,0.0018999632447957993,0.00007660314440727234,0.0029043499380350113
1782952647381465600,4.391465576171875,-0.002687077270820737,0.0040828813798725605,0.0016569140134379268
1782952647391393500,4.4013935546875,-0.0006460307049565017,-0.0012453047093003988,0.000016140402294695377
1782952647401320700,4.41132080078125,-0.0015329368179664016,0.0003029853105545044,-0.00038627441972494125
1782952647411248600,4.42124853515625,0.0004481888026930392,-0.00009142886847257614,0.0008955049561336637
1782952647421175800,4.43117578125,0.0004339523729868233,-0.0012098653241991997,-0.000801313784904778
1782952647431103700,4.441103759765625,0.0024718032218515873,-0.0003723013214766979,0.0002780653885565698
1782952647441031700,4.45103173828125,0.0013180864043533802,0.0002564750611782074,-0.0015416215173900127
1782952647450958800,4.460958740234375,0.0010086271213367581,0.001658362802118063,0.0019023783970624208
1782952647460886800,4.47088671875,0.00042166432831436396,-0.0008199280127882957,0.000029354356229305267
1782952647470814700,4.480814697265625,0.001787333283573389,0.002452564425766468,-0.0006457569543272257
1782952647480741600,4.49074169921875,0.0004087382694706321,0.0005396022461354733,-0.000058860809076577425
1782952647490669800,4.500669921875,0.000845763017423451,-0.001485731452703476,0.0003757670638151467
1782952647500597800,4.51059765625,-0.0006648706621490419,-0.0004996196366846561,0.0009046954219229519
1782952647510524700,4.520524658203125,-0.0012502335011959076,0.00012036412954330444,-0.00040904193883761764
1782952647520452900,4.530452880859375,0.00044883869122713804,0.00029690610244870186,-0.003879161551594734
1782952647530379800,4.5403798828125,0.0009220823994837701,-0.0006828708574175835,-0.0016375790582969785
1782952647540307700,4.5503076171875,0.0010693974327296019,0.00042101088911294937,0.00024054211098700762
1782952647550235600,4.560235595703125,-0.0005719087203033268,-0.001761183375492692,-0.0008108738693408668
1782952647560162800,4.570162841796875,-0.0019101393409073353,0.001988631673157215,-0.003897192655131221
1782952647570090800,4.5800908203125,0.0028310862835496664,-0.000013000331819057465,0.0017705466598272324
1782952647580018000,4.590017822265625,0.000191164028365165,0.0006973915733397007,-0.0009965668432414532
1782952647589945900,4.59994580078125,0.00040235271444544196,0.0011764941737055779,-0.0006298496155068278
1782952647599873800,4.609873779296875,-0.0004313673125579953,0.002721872180700302,0.0009139164467342198
1782952647609800700,4.61980078125,-0.001376523170620203,0.0021599452011287212,-0.00015454378444701433
1782952647619729000,4.62972900390625,0.000059364771004766226,0.003132229670882225,-0.0003582139906939119
1782952647629656800,4.63965673828125,-0.0004165420541539788,-0.00029419315978884697,-0.00004236306995153427
1782952647639583700,4.649583740234375,-0.0011364675592631102,-0.0008708140812814236,-0.0011840772349387407
1782952647649512000,4.659511962890625,-0.0019532591104507446,-0.0008798686321824789,-0.0007574388291686773
1782952647659439900,4.66943994140625,-0.0016400560270994902,0.002175659406930208,-0.0020700469613075256
1782952647669366800,4.67936669921875,0.0010721073485910892,-0.00010906672105193138,-0.0022418207954615355
1782952647679294700,4.689294677734375,-0.0007153624901548028,-0.0002447129227221012,0.002248716540634632
1782952647689221600,4.6992216796875,-0.0004240126581862569,-0.0007829377427697182,0.0005805123364552855
1782952647699149600,4.709149658203125,-0.002876144601032138,0.0012548384256660938,-0.0021468051709234715
1782952647709077800,4.719077880859375,0.0006496142013929784,0.0004367153160274029,0.0009448584169149399
1782952647719004700,4.729004638671875,-0.00014916714280843735,-0.00023068953305482864,0.0024828538298606873
1782952647728932600,4.7389326171875,0.0010937300976365805,-0.0011209840886294842,0.0014436885248869658
1782952647738860500,4.748860595703125,0.0007991429883986712,0.0005871877074241638,0.002761782379820943
1782952647748787700,4.75878759765625,0.0013458899920806289,0.003177910577505827,-0.0028068874962627888
1782952647758715600,4.768715576171875,0.000673843314871192,0.000010160263627767563,-0.0024408684112131596
1782952647768642600,4.778642578125,-0.00011871341848745942,0.0017627864144742489,0.0004886087263002992
1782952647778570800,4.78857080078125,-0.00015604228246957064,0.00007246434688568115,0.00004064821405336261
1782952647788498700,4.798498779296875,-0.000826093542855233,-0.0017014674376696348,0.0006201520445756614
1782952647798425600,4.808425537109375,0.00041654607048258185,-0.0008079609833657742,-0.0008399124490097165
1782952647808353500,4.818353515625,0.002710859291255474,0.0015060598962008953,0.0009297581273131073
1782952647818281700,4.82828173828125,0.00047817023005336523,0.0005303388461470604,-0.0015584698412567377
1782952647828208600,4.838208740234375,-0.000427038234192878,0.0002736104652285576,-0.00003194593591615558
1782952647838136600,4.848136474609375,-0.0018594111315906048,-0.000028807204216718674,-0.0026275445707142353
1782952647848063700,4.858063720703125,-0.0036735564935952425,-0.000926292734220624,0.0019195365021005273
1782952647857991700,4.86799169921875,-0.001534250215627253,0.00015798723325133324,-0.0010444691870361567
1782952647867919600,4.877919677734375,0.00009560445323586464,0.0008418872021138668,-0.00036190106766298413
1782952647877846800,4.8878466796875,-0.0012602134374901652,0.0009213252924382687,0.0005831476300954819
1782952647887774700,4.897774658203125,-0.003135344944894314,0.0014656754210591316,-0.0007574877236038446
1782952647897702700,4.90770263671875,0.0003528686356730759,0.00047346996143460274,-0.0005707936361432076
1782952647907629800,4.9176298828125,0.002117479220032692,0.0016668327152729034,-0.0018712151795625687
1782952647917557800,4.927557861328125,-0.0015365902800112963,0.0012362608686089516,0.0014398663770407438
1782952647927484700,4.937484619140625,-0.0027240938507020473,-0.002508143661543727,0.0014007179997861385
1782952647937412900,4.947412841796875,0.000996594550088048,-0.0012346329167485237,0.0010727825574576855
1782952647947340800,4.9573408203125,-0.00039757031481713057,0.00045647425577044487,0.0016932990401983261
1782952647957267700,4.967267822265625,0.002333216369152069,-0.0002811127342283726,0.002004065550863743
1782952647967195600,4.977195556640625,0.002492739586159587,0.0006965333595871925,0.0005414573824964464
1782952647977123800,4.987123779296875,-0.0019729977939277887,0.00019029341638088226,-0.00029632411315105855
1782952647987050800,4.99705078125,-0.000057918543461710215,-0.0007388836238533258,0.0019327416084706783
1782952647996978700,5.006978759765625,-0.0001821804908104241,0.0019010207615792751,-0.00017748857499100268
1782952648006905900,5.01690576171875,-0.00023038371000438929,0.0011731786653399467,-0.0022134752944111824
1782952648016833800,5.026833740234375,0.0008918782696127892,-0.0022628384176641703,-0.00004232762148603797
1782952648026761700,5.03676171875,0.001319848233833909,0.00234922394156456,-0.001045007724314928
1782952648036689000,5.04668896484375,0.0001107204589061439,0.0005130507051944733,-0.0006456720875576138
1782952648046616800,5.056616943359375,-0.00048502872232347727,0.0011761775240302086,0.0005167977651581168
1782952648056544800,5.066544677734375,-0.0030419179238379,0.002604365348815918,-0.0004007165553048253
1782952648066472000,5.076471923828125,-0.00025705050211399794,0.0019766581244766712,-0.0007352096145041287
1782952648076400000,5.086400146484375,-0.0003674756153486669,0.00022010598331689835,0.0003416262334212661
1782952648086328000,5.096328125,0.001107915653847158,-0.0007644647266715765,-0.0006727718282490969
1782952648096254700,5.106254638671875,-0.0018297862261533737,-0.00013773655518889427,0.003315448295325041
1782952648106183200,5.11618310546875,0.0015303241088986397,0.0010673440992832184,0.0002855697530321777
1782952648116109800,5.12610986328125,-0.001178315607830882,0.000023140106350183487,-0.0020621612202376127
1782952648126037800,5.136037841796875,0.000609730661381036,0.0009722905233502388,0.0006180441123433411
1782952648135966000,5.145966064453125,0.0012487414060160518,0.0005865362472832203,-0.0012843669392168522
1782952648145892900,5.155892822265625,0.00176086719147861,-0.0021498617716133595,-0.0011674541747197509
1782952648155820800,5.16582080078125,-0.003183424472808838,-0.0013950839638710022,-0.001548591535538435
1782952648165748000,5.175748046875,0.0009428774937987328,0.002049448434263468,-0.0010287424083799124
1782952648175676000,5.185676025390625,0.0022241855040192604,0.002277418039739132,0.002997160889208317
1782952648185603800,5.195603759765625,-0.00130610098131001,0.0013064295053482056,-0.000888124923221767
1782952648195531000,5.205531005859375,0.00002547440817579627,-0.0008374634198844433,-0.0017252459656447172
1782952648205459000,5.215458984375,0.0009677007328718901,-0.00024863844737410545,-0.00010071764700114727
1782952648215387000,5.225386962890625,0.001657052431255579,-0.0013598285149782896,0.0029531633481383324
1782952648225313800,5.235313720703125,0.0003579625044949353,0.0002726893872022629,0.0016130608273670077
1782952648235242000,5.245241943359375,0.0007407069206237793,-0.0008242886979132891,-0.0014802986988797784
1782952648245169000,5.2551689453125,-0.0024548200890421867,0.0016013183631002903,-0.0007878767792135477
1782952648255096800,5.265096923828125,0.002724661957472563,0.000015344470739364624,-0.0003583543002605438
1782952648265025000,5.27502490234375,0.0020716546569019556,0.00031388504430651665,-0.0005509008769877255
1782952648274952000,5.284951904296875,0.0004276885010767728,-0.000013150274753570557,0.00014622072922065854
1782952648284880000,5.2948798828125,-0.000337703968398273,0.0021248352713882923,-0.00009000164573080838
1782952648294807800,5.304807861328125,0.0006715600029565394,-0.000003955326974391937,0.0020548354368656874
1782952648304734000,5.31473388671875,-0.003284565871581435,0.0006700907833874226,0.0008806476835161448
1782952648314662000,5.324661865234375,0.0006820535054430366,-0.0010848320089280605,0.0028746293392032385
1782952648324590000,5.334590087890625,-0.0004910689312964678,0.002188991755247116,0.001974480925127864
1782952648334517000,5.34451708984375,0.0014242653269320726,0.0015516933053731918,-0.000880932086147368
1782952648344445000,5.35444482421875,-0.001445823349058628,0.00008801976218819618,-0.0019307502079755068
1782952648354372000,5.3643720703125,-0.0002877581864595413,-0.0012115798890590668,0.00006088323425501585
1782952648364300000,5.374300048828125,-0.0014001606032252312,-0.001956732477992773,0.0019211012404412031
1782952648374228000,5.38422802734375,-0.00007048773113638163,0.0008504660800099373,0.0018678830238059163
1782952648384155100,5.394155029296875,0.0014967825263738632,-0.0008816537447273731,-0.0005641155876219273
1782952648394083000,5.4040830078125,0.000212398124858737,0.0012027132324874401,0.00013035204028710723
1782952648404011000,5.414010986328125,-0.001013454981148243,0.002264515496790409,-0.0006981573533266783
1782952648413938000,5.42393798828125,-0.0019438921008259058,-0.00024338066577911377,0.0020886296406388283
1782952648423866000,5.4338662109375,0.000620465783867985,-0.0007525773253291845,-0.0004240629496052861
1782952648433792800,5.443792724609375,-0.0012975786812603474,0.0014263526536524296,0.0006611384451389313
1782952648443720700,5.453720703125,0.0007163036498241127,0.0011544437147676945,-0.0023548915050923824
1782952648453649200,5.463649169921875,0.00002348260022699833,0.0011829393915832043,-0.0013246273156255484
1782952648463575800,5.473575927734375,0.00018460382125340402,-0.001412577461451292,0.0009473154786974192
1782952648473503700,5.483503662109375,-0.00044444878585636616,0.0006544473581016064,0.0005047813756391406
1782952648483432000,5.493431884765625,-0.0006926553323864937,0.00009252037853002548,0.00045098550617694855
1782952648493358800,5.50335888671875,0.002270355587825179,-0.00039815157651901245,0.0007553045870736241
1782952648503286800,5.513286865234375,-0.0016428933013230562,-0.0004559420049190521,-0.0001546975690871477
1782952648513214000,5.5232138671875,0.00035891178413294256,-0.0029898397624492645,-0.00004868736141361296
1782952648523142000,5.533141845703125,0.0002531842910684645,0.00045762211084365845,0.00026663090102374554
1782952648533069800,5.54306982421875,-0.0016169295413419604,0.0014780121855437756,-0.0020742055494338274
1782952648542997000,5.5529970703125,0.002789802849292755,0.00240852078422904,-0.00015699598588980734
1782952648552925000,5.562925048828125,0.0006161573110148311,0.0006956350989639759,0.002769589191302657
1782952648562852900,5.572852783203125,-0.0015324809355661273,-0.00019199633970856667,0.0002571630757302046
1782952648572779800,5.58277978515625,0.0008956856327131391,0.0002493280917406082,-0.0017741634510457516
1782952648582708000,5.5927080078125,-0.0017887807916849852,0.0014629303477704525,-0.0009373982902616262
1782952648592635000,5.602634765625,-0.001749088754877448,-0.0007160424720495939,0.0024406451266258955
1782952648602562800,5.612562744140625,-0.0014865011908113956,0.0021476545371115208,-0.0012627465184777975
1782952648612491000,5.622490966796875,0.0008420100202783942,0.001493056770414114,-0.0004012571880593896
1782952648622418000,5.63241796875,-0.00260971300303936,-0.0019368284847587347,0.0009383128490298986
1782952648632345900,5.642345947265625,0.0013538384810090065,0.002216349821537733,-0.00030009064357727766
1782952648642273800,5.652273681640625,0.00005847692955285311,-0.002655104734003544,0.0012581248302012682
1782952648652201000,5.662200927734375,0.0008842046372592449,-0.00082219741307199,0.00018037814879789948
1782952648662129000,5.67212890625,0.0015105800703167915,0.0007519973441958427,-0.0011429465375840664
1782952648672056000,5.68205615234375,-0.0012049528304487467,0.00045846495777368546,0.00013247947208583355
1782952648681984000,5.69198388671875,0.0010217161616310477,-0.0037229640875011683,0.00010424997890368104
1782952648691912000,5.701911865234375,0.000031818170100450516,0.00018589524552226067,-0.001689005410298705
1782952648701838800,5.7118388671875,0.0009796371450647712,0.00019281962886452675,0.0013014581054449081
1782952648711769900,5.721769775390625,0.00006635009776800871,0.0016173701733350754,-0.000496295397169888
1782952648721696800,5.73169677734375,0.0007667614845559001,-0.00039278389886021614,0.0007780271698720753
1782952648731625000,5.741625,-0.0027638438623398542,0.0016836798749864101,0.000013275595847517252
1782952648741553000,5.751552978515625,0.0009113185224123299,0.0007039029151201248,-0.0013912755530327559
1782952648751479800,5.761479736328125,-0.0000025460030883550644,0.002708194311708212,0.0004355061682872474
1782952648761407700,5.77140771484375,0.0005284883081912994,-0.0005946578457951546,0.002471226267516613
1782952648771336000,5.7813359375,-0.0011163057060912251,0.0016916743479669094,0.002646493259817362
1782952648781262800,5.791262939453125,0.0008509713225066662,-0.001197588862851262,0.000924226944334805
1782952648791190800,5.801190673828125,0.0017932618502527475,0.0018838495016098022,-0.0010619806125760078
1782952648801118000,5.811117919921875,-0.0005631031817756593,-0.0008309767581522465,0.0006855856045149267
1782952648811046000,5.8210458984375,0.0015177710447460413,-0.0011304025538265705,0.0005580534343607724
1782952648820973800,5.830973876953125,-0.0019483331125229597,-0.0005642143078148365,0.001890166662633419
1782952648830901000,5.84090087890625,-0.0012967895017936826,0.000059335026890039444,-0.0024454216472804546
1782952648840829000,5.850828857421875,-0.0014110392658039927,0.0016942494548857212,0.0003024278557859361
1782952648850755800,5.860755859375,0.002169461455196142,-0.0017931400798261166,0.0006898674182593822
1782952648860684000,5.87068408203125,0.0031044972129166126,0.000731536652892828,-0.00310753402300179
1782952648870612000,5.880612060546875,0.000056007003877311945,-0.001023211283609271,-0.0029154480434954166
1782952648880539000,5.890538818359375,0.0028539239428937435,-0.000014405697584152222,-0.0002791850420180708
1782952648890466800,5.900466796875,-0.0009496479760855436,-0.00015678862109780312,0.0003387364558875561
1782952648900395000,5.91039501953125,-0.0010740176076069474,0.0015923758037388325,-0.0010106873232871294
1782952648910322000,5.920322021484375,0.000014259072486311197,0.0005910159088671207,-0.0020632161758840084
1782952648920249900,5.930249755859375,-0.0004406088846735656,0.0006264359690248966,-0.002690923400223255
1782952648930177000,5.940177001953125,0.00043772198841907084,0.001958165317773819,-0.0009145796066150069
1782952648940105000,5.95010498046875,0.0003748713934328407,0.000290759839117527,-0.000626159249804914
1782952648950033000,5.960032958984375,0.0015975791029632092,0.00002768728882074356,0.00036957801785320044
1782952648959960000,5.9699599609375,0.002493200358003378,0.0011819014325737953,-0.0023652222007513046
1782952648969888000,5.979887939453125,0.0021727439016103745,0.0007619387470185757,-0.0017687680665403605
1782952648979816000,5.98981591796875,0.00006991188274696469,-0.0017347750253975391,-0.00203029066324234
1782952648989743000,5.9997431640625,-0.0003023443277925253,-0.0017498612869530916,-0.0018028649501502514
1782952648999671000,6.009671142578125,-0.0013103507226333022,0.0008075721561908722,0.0006826632306911051
1782952649009598000,6.019597900390625,0.0016030666884034872,0.0015580100007355213,0.0019662745762616396
1782952649019526000,6.02952587890625,0.00297486106865108,-0.0017522992566227913,-0.00008755535236559808
1782952649029454000,6.0394541015625,-0.0001037237816490233,-0.0003920239396393299,0.003661986207589507
1782952649039381000,6.049381103515625,0.0012672715820372105,-0.0006476873531937599,0.0011090799234807491
1782952649049309000,6.059308837890625,0.0008933680946938694,-0.0008127486798912287,-0.0007083205273374915
1782952649059236900,6.06923681640625,-0.0004467345424927771,0.0011920789256691933,-0.0019440272590145469
1782952649069163800,6.079163818359375,0.0015941007295623422,-0.0027396660298109055,-0.00047904247185215354
1782952649079091700,6.089091796875,0.00029847287805750966,0.0018132738769054413,0.0005649166996590793
1782952649089018600,6.0990185546875,0.0014226660132408142,0.0007320023141801357,0.0008301043417304754
1782952649098946600,6.108946533203125,-0.00008841155795380473,-0.0018504650797694921,-0.0004988131113350391
1782952649108874800,6.118874755859375,0.001420854590833187,-0.00031157443299889565,0.0003708934527821839
1782952649118801700,6.1288017578125,-0.002404776168987155,0.0009478344582021236,0.002777858404442668
1782952649128729600,6.1387294921875,-0.0006580834742635489,0.0007710782811045647,0.0008647273061797023
1782952649138657500,6.148657470703125,-0.0005744602531194687,-0.0009804829023778439,0.001173387630842626
1782952649148584700,6.158584716796875,-0.002324983011931181,0.0000015133991837501526,0.0006873212405480444
1782952649158512600,6.1685126953125,-0.00007301411824300885,-0.0017564394511282444,-0.003925806377083063
1782952649168439600,6.178439453125,0.0012149468529969454,-0.0007753130048513412,-0.0007331404485739768
1782952649178367500,6.188367431640625,-0.0033161556348204613,-0.00015745963901281357,-0.002084162086248398
1782952649188295700,6.198295654296875,-0.00027643697103485465,0.0014462047256529331,-0.0010187850566580892
1782952649198222600,6.20822265625,-0.0006793732172809541,-0.0005572913214564323,-0.0009250417351722717
1782952649208150500,6.218150634765625,0.0011810441501438618,-0.0007222341373562813,-0.0009578996105119586
1782952649218078700,6.22807861328125,-0.0007076696492731571,0.0003864401951432228,-0.0023246337659657
1782952649228005600,6.238005615234375,0.001357546541839838,-0.0016248568426817656,-0.0007418069872073829
1782952649237933600,6.24793359375,0.001518401550129056,-0.0011047415900975466,-0.0020994865335524082
1782952649247860700,6.25786083984375,-0.0013688572216778994,-0.0015169009566307068,-0.0000918699661269784
1782952649257788700,6.26778857421875,0.00010893068974837661,-0.0010231509804725647,-0.0012295723427087069
1782952649267716600,6.277716552734375,-0.0019993665628135204,0.00010532885789871216,-0.00045981831499375403
1782952649277643800,6.287643798828125,0.000976715818978846,0.0005713822320103645,0.001496007083915174
1782952649287571700,6.29757177734375,-0.0002453193301334977,-0.0015764248091727495,-0.001955092651769519
1782952649297499600,6.307499755859375,0.000331255083438009,-0.0000331229530274868,0.00006811076309531927
1782952649307426800,6.3174267578125,0.0013524270616471767,-0.001272112363949418,0.0019197666551917791
1782952649317354800,6.327354736328125,-0.0005261668120510876,0.0014123539440333843,0.003124580718576908
1782952649327281700,6.33728173828125,-0.0017226721392944455,-0.0015514865517616272,0.0032018544152379036
1782952649337209600,6.347209716796875,-0.0019176156492903829,-0.0005645188502967358,0.0008359021740034223
1782952649347137800,6.3571376953125,0.00023389840498566628,-0.0015277133788913488,0.0002631026436574757
1782952649357064700,6.367064697265625,0.0010767888743430376,0.0008938987739384174,-0.0015853974036872387
1782952649366992600,6.37699267578125,-0.0011635129339993,0.0001229722984135151,0.000025179237127304077
1782952649376920600,6.386920654296875,-0.00002474518259987235,0.000998619943857193,0.0012552933767437935
1782952649386847700,6.39684765625,0.0004946557455696166,-0.0008813000749796629,-0.0001764707558322698
1782952649396775700,6.406775634765625,-0.0005706087104044855,-0.0011649266816675663,-0.0019032643176615238
1782952649406702800,6.416702880859375,0.0003785521839745343,0.00174736138433218,0.001592300133779645
1782952649416630800,6.426630859375,-0.00021533266408368945,0.000931901391595602,0.000026894122129306197
1782952649426558700,6.436558837890625,-0.0004148637526668608,0.0010541523806750774,0.0010261472780257463
1782952649436486000,6.44648583984375,-0.0004785133642144501,0.0001771734096109867,-0.0008303422946482897
1782952649446413800,6.456413818359375,-0.00021404679864645004,-0.003917571157217026,0.0030798367224633694
1782952649456340700,6.4663408203125,0.0007633333443664014,-0.0017196645494550467,-0.0001223480503540486
1782952649466268700,6.4762685546875,-0.00021286227274686098,-0.0004620226100087166,0.0017064992571249604
1782952649476196900,6.48619677734375,0.001361065893433988,-0.000023666303604841232,0.0017328645335510373
1782952649486123800,6.496123779296875,-0.0032015815377235413,-0.0008486583828926086,-0.0004871993151027709
1782952649496051700,6.5060517578125,-0.0002915451768785715,0.003013724461197853,0.0029333648271858692
1782952649505980000,6.51597998046875,-0.0006691161543130875,-0.0006507597863674164,-0.0010835608700290322
1782952649515906600,6.525906494140625,-0.0006448813946917653,0.00003234110772609711,0.0009447025950066745
1782952649525834800,6.535834716796875,-0.0028103357180953026,0.0029178177937865257,-0.0016138581559062004
1782952649535761700,6.54576171875,0.0013234229991212487,0.00043681729584932327,0.0002777851768769324
1782952649545689600,6.555689697265625,0.0007275922689586878,-0.0002892250195145607,0.0001270908978767693
1782952649555617500,6.565617431640625,0.0004817824810743332,-0.0020053659100085497,0.001676251762546599
1782952649565544700,6.575544677734375,0.0011957690585404634,-0.0008977225515991449,0.00013497151667252183
1782952649575472600,6.58547265625,-0.0017587419133633375,0.0003534303978085518,-0.00042988493805751204
1782952649585400600,6.595400634765625,0.002831290243193507,0.001131775788962841,-0.0016031238483265042
1782952649595327500,6.605327392578125,0.0002453607157804072,0.0020508323796093464,-0.00021188851678743958
1782952649605255700,6.615255615234375,-0.0012222352670505643,0.001890829298645258,-0.0016534660244360566
1782952649615182600,6.6251826171875,0.0013365299673750997,-0.0007518252823501825,0.0008477747905999422
1782952649625110500,6.635110595703125,0.00030966917984187603,-0.0015942500904202461,0.0004380279569886625
1782952649635038700,6.645038818359375,-0.000740415183827281,0.000826030969619751,0.0010476255556568503
1782952649644965600,6.654965576171875,-0.00011213577818125486,0.0005234717391431332,0.0017508028540760279
1782952649654893600,6.6648935546875,-0.00037818553391844034,0.00040123239159584045,-0.001908646896481514
1782952649664821500,6.674821533203125,-0.00179909891448915,-0.0008374764584004879,-0.0004260370333213359
1782952649674748700,6.684748779296875,-0.0004459466435946524,-0.00022494932636618614,-0.0003709095763042569
1782952649684676600,6.694676513671875,0.000245508155785501,-0.00017489539459347725,0.00025765527971088886
1782952649694603800,6.704603759765625,0.0021842895075678825,0.0004080706275999546,0.0017468947917222977
1782952649704531700,6.71453173828125,-0.0010112650925293565,-0.0007260809652507305,-0.001401952700689435
1782952649714459600,6.724459716796875,0.0003133912687189877,0.001073150895535946,-0.00011431428720243275
1782952649724386800,6.73438671875,-0.0017226478084921837,-0.0017246778588742018,-0.0015809935284778476
1782952649734314800,6.744314697265625,0.00031147460686042905,0.001134758349508047,0.0013223846908658743
1782952649744241700,6.75424169921875,-0.0006695807678624988,0.0010074442252516747,0.0016498458571732044
1782952649754169600,6.764169677734375,-0.0014895680360496044,0.0011483258567750454,-0.000540870416443795
1782952649764097800,6.774097900390625,-0.0015585434157401323,-0.0014003789983689785,0.00040617960621602833
1782952649774024700,6.784024658203125,0.0016721374122425914,-0.0009891870431602001,0.0028296562377363443
1782952649783952600,6.79395263671875,0.0022557885386049747,0.0012598433531820774,0.00047850393457338214
1782952649793880600,6.803880615234375,0.0006211402360349894,0.00211711460724473,-0.0006962164188735187
1782952649803807700,6.813807861328125,-0.00035259040305390954,-0.0008870158344507217,-0.00042829467565752566
1782952649813735700,6.823735595703125,0.0023763508070260286,0.0019162273965775967,0.0005634664557874203
1782952649823662800,6.833662841796875,0.0018445546738803387,0.0013635409995913506,0.0005701781483367085
1782952649833590800,6.8435908203125,0.0009382810676470399,-0.0007403560448437929,-0.00042078414116986096
1782952649843518700,6.853518798828125,-0.0014881202951073647,-0.0009123585186898708,-0.0018843344878405333
1782952649853446000,6.86344580078125,0.002045628149062395,0.00014678062871098518,0.0020006848499178886
1782952649863373800,6.873373779296875,-0.00022866472136229277,-0.0005475622601807117,0.0009992648847401142
1782952649873301800,6.8833017578125,-0.00010536040645092726,-0.0008128131739795208,0.0033106221817433834
1782952649883228700,6.893228759765625,0.000718871015124023,0.0019979127682745457,-0.0013756060507148504
1782952649893156900,6.903156982421875,-0.002878527157008648,0.0028346781618893147,0.0007336176349781454
1782952649903083800,6.913083740234375,-0.0008315484737977386,0.0005767019465565681,0.0001419507898390293
1782952649913011700,6.92301171875,-0.0011553888907656074,-0.0005330373533070087,-0.0002521970309317112
1782952649922940000,6.93293994140625,0.0008523984579369426,0.00035536615177989006,-0.0038316783029586077
1782952649932866600,6.942866455078125,-0.0017841309309005737,-0.0005335970781743526,0.0008922368288040161
1782952649942794800,6.952794677734375,0.0005374068859964609,-0.0034782513976097107,-0.0004925516550429165
1782952649952721700,6.9627216796875,-0.0018120339373126626,-0.0008228134829550982,0.0013104083482176065
1782952649962649600,6.972649658203125,0.002012103796005249,-0.00006765080615878105,-0.00030431387131102383
1782952649972577500,6.98257763671875,0.003304801881313324,-0.0003219824284315109,0.00021367095177993178
1782952649982504700,6.992504638671875,-0.00127221061848104,0.0007110633887350559,0.0005165658076293766
1782952649992432600,7.0024326171875,-0.0017161595169454813,-0.0010029471013695002,0.0010302895680069923
1782952650002360600,7.012360595703125,0.0004582873953040689,0.001178013626486063,0.00042167530045844615
1782952650012287700,7.022287841796875,-0.0012487989151850343,0.001178013626486063,0.0007934526074677706
1782952650022215700,7.032215576171875,-0.001408332958817482,0.00027914438396692276,-0.0016374202677980065
1782952650032142600,7.042142578125,0.000410872366046533,-0.0006218026392161846,-0.0011529912007972598
1782952650042070500,7.052070556640625,0.0008012759499251842,-0.0007445451337844133,-0.002062929095700383
1782952650051998700,7.061998779296875,-0.00034308439353480935,0.002205172087997198,0.0009152840357273817
1782952650061926000,7.07192578125,-0.0006812737556174397,-0.00029689911752939224,-0.0006972160190343857
1782952650071853800,7.081853759765625,-0.0005992483347654343,-0.00023245066404342651,0.0013177316868677735
1782952650081781800,7.09178173828125,0.000624175532720983,0.0011577452532947063,0.005447985138744116
1782952650091709000,7.101708984375,0.00023082667030394077,-0.001262269215658307,-0.0014671788085252047
1782952650101636900,7.111636962890625,-0.0009858853882178664,0.0005354010500013828,-0.003784947795793414
1782952650111564000,7.12156396484375,-0.0007736313855275512,0.0005660275928676128,-0.001996368868276477
1782952650121492000,7.131491943359375,0.000007170950993895531,-0.0012393477372825146,0.000420713156927377
1782952650131420000,7.141419921875,0.0011528627946972847,-0.0006497236900031567,-0.0011694603599607944
1782952650141346800,7.151346923828125,-0.0010288965422660112,0.000299250241369009,0.0013252689968794584
1782952650151275000,7.16127490234375,-0.0013772380771115422,0.0004971232265233994,-0.0014524080324918032
1782952650161202000,7.171201904296875,-0.0006188164697960019,-0.0007886651437729597,0.0005183296743780375
1782952650171129900,7.1811298828125,-0.0004768699873238802,0.0005037668161094189,0.0019638934172689915
1782952650181058000,7.19105810546875,-0.0026341783814132214,-0.0003448380157351494,0.0006602200446650386
1782952650190985000,7.20098486328125,0.001062555704265833,0.0003880639560520649,0.0009339930256828666
1782952650200913000,7.210912841796875,0.0022337529808282852,-0.00001733284443616867,0.0012352894991636276
1782952650210840800,7.2208408203125,-0.0028281172271817923,-0.002850403543561697,0.0006456655100919306
1782952650220768000,7.23076806640625,-0.0012470713118091226,-0.00040167663246393204,-0.0013829718809574842
1782952650230696000,7.240696044921875,-0.00041509990114718676,-0.000047742389142513275,0.0008008202421478927
1782952650240623000,7.250623046875,0.00033117824932560325,0.0010760682635009289,0.00033020396949723363
1782952650250551000,7.260551025390625,-0.0014049364253878593,-0.00007601501420140266,0.0018527330830693245
1782952650260479000,7.27047900390625,-0.00006926874630153179,-0.0010004828218370676,0.0004615308134816587
1782952650270406000,7.280406005859375,0.001717978622764349,-0.0009144626092165709,0.0010559484362602234
1782952650280334000,7.290333984375,0.003472256939858198,-0.000241860281676054,0.00309204775840044
1782952650290261000,7.300260986328125,0.0005113545339554548,0.00013417797163128853,0.0005455331411212683
1782952650300189000,7.31018896484375,0.0010629759635776281,0.0001760600134730339,0.00024334766203537583
1782952650310117000,7.3201171875,0.00001582101685926318,-0.0026213242672383785,0.00003349059261381626
1782952650320044000,7.3300439453125,-0.0018627367680892348,-0.001824069069698453,-0.0010901123750954866
1782952650329972000,7.339971923828125,0.0016297325491905212,-0.0007886320818215609,0.0020015512127429247
1782952650339900000,7.34989990234375,0.0032543702982366085,-0.0005333046428859234,-0.0011233011027798057
1782952650349827000,7.3598271484375,-0.0014791324501857162,0.0009804358705878258,0.001564627280458808
1782952650359755000,7.369755126953125,0.0004536753403954208,0.001496325246989727,0.0004028962575830519
1782952650369682200,7.37968212890625,0.000027835892979055643,-0.0019111891742795706,0.003977923654019833
1782952650379610000,7.389610107421875,-0.0014548469334840775,-0.000009881798177957535,0.0008289976976811886
1782952650389538000,7.3995380859375,-0.00033498770790174603,0.0008292803540825844,-0.004236334934830666
1782952650399465000,7.40946484375,0.000014918041415512562,-0.00000916793942451477,-0.0020426479168236256
1782952650409393200,7.41939306640625,-0.0016833797562867403,0.0018430603668093681,0.001897765207104385
1782952650419321000,7.429321044921875,-0.0009154731524176896,0.0032060211524367332,-0.001359037822112441
1782952650429248000,7.439248046875,0.002619873033836484,0.001109314151108265,-0.0015489213401451707
1782952650439176200,7.44917626953125,-0.0010501197539269924,-0.000017205718904733658,0.0025409506633877754
1782952650449102800,7.459102783203125,-0.0002205449272878468,0.0003124936483800411,0.00264321593567729
1782952650459030800,7.46903076171875,0.0021297214552760124,-0.0015560677275061607,0.001846224069595337
1782952650468959000,7.478958984375,0.0031758109107613564,-0.0017419562209397554,0.00029892759630456567
1782952650478886000,7.488885986328125,-0.0017026076093316078,0.00043192924931645393,0.0020276543218642473
1782952650488813800,7.498813720703125,-0.00009139522444456816,0.0007576337084174156,0.00039939756970852613
1782952650498741000,7.508740966796875,-0.0019765200559049845,0.00064118392765522,-0.0006293538026511669
1782952650508669000,7.5186689453125,-0.0018644009251147509,0.00414696941152215,0.00047772220568731427
1782952650518596900,7.528596923828125,0.00002089270856231451,-0.000984823564067483,-0.0008650648524053395
1782952650528524000,7.53852392578125,0.00020038976799696684,0.00029056426137685776,-0.0016030267579481006
1782952650538452000,7.548451904296875,0.0014957832172513008,0.00038865068927407265,0.0005168457864783704
1782952650548380000,7.5583798828125,0.00030854594660922885,0.001654184889048338,0.0002795581240206957
1782952650558306800,7.568306884765625,0.0004287312622182071,0.002207349054515362,-0.0005606114282272756
1782952650568235000,7.578235107421875,0.0010095667093992233,-0.000019852537661790848,-0.000046355038648471236
1782952650578162000,7.588161865234375,0.0029659620486199856,-0.0019809685181826353,-0.0020134979858994484
1782952650588089900,7.59808984375,-0.0002660503378137946,-0.0028872420080006123,-0.0019125642720609903
1782952650598018000,7.60801806640625,0.00011745543451979756,0.0016039684414863586,0.001011739019304514
1782952650607945000,7.617945068359375,-0.0007624529534950852,0.0015882556326687336,0.0014458342920988798
1782952650617873000,7.627872802734375,-0.0005659699672833085,-0.0002802233211696148,0.0030990634113550186
1782952650627800000,7.637800048828125,0.0028809593059122562,-0.002362016122788191,-0.000510851270519197
1782952650637728000,7.64772802734375,0.0006553519633598626,0.0019842018373310566,0.0009665279067121446
1782952650647656000,7.657656005859375,-0.0013979452196508646,0.003014845307916403,-0.002723814221099019
1782952650657583000,7.6675830078125,-0.0015142090851441026,0.001892095897346735,0.001751285046339035
1782952650667511000,7.677510986328125,0.00037077622255310416,0.0019831759855151176,-0.0008077464299276471
1782952650677439000,7.68743896484375,-0.0013880658661946654,-0.001439288491383195,0.0017689072992652655
1782952650687366000,7.697365966796875,0.0005874670459888875,-0.000448059756308794,0.0021084602922201157
1782952650697294000,7.707294189453125,-0.00047996838111430407,0.000580234918743372,-0.0018179956823587418
1782952650707221000,7.717220947265625,0.002357629593461752,0.00033788755536079407,-0.00046857199049554765
1782952650717149000,7.72714892578125,0.0023755566217005253,-0.00004499545320868492,0.004318230785429478
1782952650727077000,7.7370771484375,0.0007449029944837093,-0.0017848385032266378,0.0003037819406017661
1782952650737004000,7.747004150390625,-0.0009023755555972457,0.00019165826961398125,-0.0018151449039578438
1782952650746932000,7.756931884765625,0.0003304017009213567,0.0011024591512978077,0.0009313730406574905
1782952650756859100,7.766859130859375,0.0018146720249205828,0.001107785850763321,-0.0006947033107280731
1782952650766787000,7.776787109375,0.0012277114437893033,-0.0005763969384133816,0.000787345867138356
1782952650776715000,7.786715087890625,0.0011644208570942283,-0.0003517717123031616,0.0016573220491409302
1782952650786642200,7.79664208984375,0.001437394879758358,0.00086236372590065,-0.001627953490242362
1782952650796570000,7.806570068359375,0.0008854373591020703,0.0005468437448143959,-0.0006131261470727623
1782952650806498000,7.816498046875,0.0009107374353334308,-0.00008911918848752975,0.0006484133191406727
1782952650816425000,7.826425048828125,-0.0004497047048062086,-0.0007252912037074566,-0.0003398912667762488
1782952650826353200,7.836353271484375,0.00018492661183699965,0.0005231988616287708,-0.001050422666594386
1782952650836279800,7.84627978515625,0.0024053920060396194,-0.0030125032644718885,-0.0013558927457779646
1782952650846207700,7.856207763671875,-0.0020455489866435528,0.0007574674673378468,0.00007449107943102717
1782952650856136200,7.86613623046875,-0.002116895280778408,-0.0003559174947440624,0.002150182379409671
1782952650866062800,7.876062744140625,0.00011776329483836889,0.001048367004841566,-0.0016067391261458397
1782952650875990800,7.88599072265625,-0.0003841501893475652,0.0009263083338737488,0.0027136087883263826
1782952650885918000,7.89591796875,0.00034182751551270485,0.0010504117235541344,-0.0013373256660997868
1782952650895846000,7.905845947265625,-0.0005785530665889382,0.00022491300478577614,0.0010561470407992601
1782952650905773800,7.91577392578125,0.0009975056163966656,0.0005724555812776089,-0.001568131847307086
1782952650915701000,7.925700927734375,0.00052890699589625,-0.0010068824049085379,0.0005745458765886724
1782952650925629000,7.93562890625,0.0005840344238094985,-0.0009299169760197401,-0.0003567615058273077
1782952650935556900,7.945556884765625,0.000224428775254637,-0.0017816652543842793,-0.0018364565912634134
1782952650945484000,7.955484130859375,0.0003304225392639637,0.002187243662774563,0.000976906856521964
1782952650955412000,7.965411865234375,-0.00030706380493938923,0.0003884914331138134,-0.0021637524478137493
1782952650965339000,7.9753388671875,0.00013315671822056174,-0.00015852181240916252,-0.00009873733506537974
1782952650975266800,7.985266845703125,-0.00019660335965454578,-0.000928826630115509,0.002570251002907753
1782952650985195000,7.995195068359375,0.00014747708337381482,0.0002882378175854683,0.0003462450113147497
1782952650995122000,8.005121826171875,0.0004194901557639241,-0.0008570854552090168,0.000632702256552875
1782952651005049900,8.0150498046875,0.00012547720689326525,-0.0022062428761273623,0.0022532357834279537
1782952651014977000,8.02497705078125,0.0013856522273272276,0.00013341568410396576,0.0019406198989599943
1782952651024905000,8.034905029296874,-0.001665265066549182,-0.000011726748198270798,0.003868748666718602
1782952651034833000,8.0448330078125,-0.0006490317173302174,0.003266897052526474,0.002666567452251911
1782952651044760000,8.054760009765625,0.0001477860496379435,-0.0001858915202319622,-0.0010629233438521624
1782952651054688000,8.06468798828125,0.0003011678345501423,0.0014650756493210793,-0.002728696446865797
1782952651064615400,8.074615478515625,0.00007613073103129864,0.0005803736858069897,-0.0015156264416873455
1782952651074542600,8.08454248046875,-0.0018234947929158807,0.00016226386651396751,0.0004995430936105549
1782952651084470500,8.094470458984375,0.0012833488872274756,0.0030432716012001038,0.0003200460341759026
1782952651094397400,8.1043974609375,0.0013632741756737232,0.0017420514486730099,-0.0020317398011684418
1782952651104325600,8.11432568359375,-0.00009107805090025067,-0.0000854097306728363,0.001020509167574346
1782952651114253600,8.124253662109375,0.0009834279771894217,0.0002387440763413906,-0.0010507733095437288
1782952651124180500,8.134180419921876,-0.00032098835799843073,-0.0012294566258788109,0.0009671038133092225
1782952651134108400,8.1441083984375,-0.0006632586009800434,0.0019633620977401733,-0.00098998355679214
1782952651144036600,8.15403662109375,0.0002589941141195595,-0.0007365508936345577,-0.00041314278496429324
1782952651153963500,8.163963623046875,-0.00020523177227005363,0.0024841851554811,0.0018429688643664122
1782952651163891500,8.173891357421875,0.0011199571890756488,0.0010191802866756916,-0.0008636016864329576
1782952651173818600,8.183818603515626,0.001267008949071169,0.0007726037874817848,0.001915952656418085
1782952651183746600,8.19374658203125,-0.0037117707543075085,0.0006700721569359303,-0.0029115593060851097
1782952651193674500,8.203674560546874,-0.0008773950976319611,0.0004923660308122635,0.0022715269587934017
1782952651203601700,8.2136015625,0.002122123260051012,0.0016729454509913921,0.0006464661564677954
1782952651213529600,8.223529541015624,0.00030265742680057883,-0.0011215638369321823,-0.00036590229137800634
1782952651223456500,8.23345654296875,0.0012289048172533512,0.0010782070457935333,-0.001860202057287097
1782952651233384700,8.243384765625,0.0010316791012883186,-0.0009796982631087303,-0.00031345675233751535
1782952651243312600,8.253312744140626,-0.0002546277828514576,0.0009830514900386333,-0.0009616701863706112
1782952651253239600,8.263239501953125,0.0015546968206763268,0.0005019800737500191,0.00028210197342559695
1782952651263167700,8.273167724609374,0.00034455640707165003,0.000273214653134346,0.0010328469797968864
1782952651273095700,8.283095703125,-0.0006568076787516475,-0.0007550432346761227,0.0012509346706792712
1782952651283022600,8.293022705078124,0.0026780026964843273,0.0004186118021607399,0.0030549601651728153
1782952651292950500,8.302950439453125,0.00002742256037890911,0.0008216463029384613,-0.0007282935548573732
1782952651302877700,8.312877685546875,-0.0002775093889795244,-0.00016398960724473,-0.0006689050351269543
1782952651312805600,8.3228056640625,0.0004074736498296261,0.001871863380074501,0.00033113075187429786
1782952651322733600,8.332733642578125,0.001314546330831945,0.0010265763849020004,0.0028558075428009033
1782952651332660700,8.34266064453125,0.0011447906726971269,0.0008752262219786644,0.001085486263036728
1782952651342588700,8.352588623046875,0.00046248879516497254,-0.0017818096093833447,0.0002660315949469805
1782952651352515600,8.362515625,0.0020183578599244356,-0.0010625089053064585,-0.00020737526938319206
1782952651362443500,8.372443603515626,-0.000015764555428177118,0.00188374612480402,-0.0018068698700517416
1782952651372371700,8.382371826171875,0.0005017458461225033,-0.00041557755321264267,0.0013284392189234495
1782952651382298400,8.39229833984375,0.0033116471022367477,0.0021857982501387596,0.00024506525369361043
1782952651392226600,8.4022265625,0.0010553152533248067,-0.00042599625885486603,-0.0005676149157807231
1782952651402154500,8.412154541015624,-0.0008022396359592676,0.0012336857616901398,0.0011836797930300236
1782952651412081400,8.422081298828125,-0.00047363259363919497,0.0015676110051572323,0.0025976067408919334
1782952651422009300,8.43200927734375,-0.0025943079963326454,0.00027624424546957016,0.0005403149407356977
1782952651431936500,8.4419365234375,-0.001588316634297371,0.003109271638095379,-0.0006157215102575719
1782952651441864400,8.451864501953125,0.00037523190258070827,0.0005931169725954533,0.00026205641916021705
1782952651451792400,8.46179248046875,-0.0003936694120056927,0.000931889284402132,-0.001078049885109067
1782952651461719600,8.471719482421875,-0.002810487989336252,0.0004221606068313122,-0.002711100270971656
1782952651471647500,8.4816474609375,0.0017157222609966993,0.0008957171812653542,-0.0010811137035489082
1782952651481574700,8.49157470703125,-0.001143980072811246,0.00030103325843811035,0.00020279624732211232
1782952651491502600,8.501502685546875,0.00032032938906922936,0.0009120563045144081,-0.001389055047184229
1782952651501430500,8.511430419921876,0.003978181164711714,0.00033308519050478935,0.0012746386928483844
1782952651511357400,8.521357421875,-0.0020051654428243637,0.0004677567631006241,0.0018136489670723677
1782952651521285600,8.53128564453125,0.001528583001345396,-0.00002732500433921814,-0.0024367559235543013
1782952651531212500,8.541212646484375,-0.00002393551403656602,0.00118333101272583,-0.0008549191406928003
1782952651541140500,8.551140380859374,0.0012043144088238478,-0.0034702769480645657,-0.0027801182586699724
1782952651551068700,8.561068603515626,-0.00002989609492942691,-0.0016937353648245335,-0.0025312653742730618
1782952651560995600,8.57099560546875,0.002156292786821723,0.0021412167698144913,0.0017662777099758387
1782952651570923500,8.580923583984376,0.00019275164231657982,-0.0002919440157711506,-0.0032631114590913057
1782952651580851500,8.5908515625,-0.00025652366457507014,0.000858008861541748,-0.0018074276158586144
1782952651590778600,8.600778564453124,-0.0006304720882326365,0.0010274583473801613,-0.0003930617240257561
1782952651600706600,8.61070654296875,-0.0013063823571428657,-0.000766979530453682,-0.0030988333746790886
1782952651610633700,8.6206337890625,0.0014503393322229385,0.0012582284398376942,0.00097779487259686
1782952651620561700,8.630561767578126,0.0005568488268181682,-0.00021236902102828026,0.0017895265482366085
1782952651630489600,8.640489501953125,0.00019719538977369666,0.0008398490026593208,-0.00042860882240347564
1782952651640416500,8.65041650390625,-0.0011128135956823826,-0.0008030550088733435,-0.00015403691213577986
1782952651650344700,8.6603447265625,-0.0006021449225954711,0.0001711081713438034,0.0020005025435239077
1782952651660271600,8.670271728515624,-0.000914001080673188,0.002068077679723501,0.0006849009077996016
1782952651670199600,8.680199462890625,0.003363189287483692,-0.0008199093863368034,0.0008525061421096325
1782952651680127700,8.690127685546875,-0.0009247662965208292,0.001727404072880745,0.0011318718316033483
1782952651690054700,8.7000546875,-0.0007080248324200511,0.005852140486240387,0.0017155949026346207
1782952651699982600,8.709982666015625,0.0010845488868653774,0.004445991478860378,0.0005283577484078705
1782952651709910500,8.71991064453125,-0.00012619030894711614,0.0013562659732997417,-0.00006708753062412143
1782952651719837700,8.729837646484375,0.00008233520202338696,0.0020100721158087254,0.0009947147918865085
1782952651729765600,8.739765625,0.0005355156026780605,0.0019433610141277313,-0.0025923429057002068
1782952651739692500,8.749692626953125,-0.0007489270064979792,0.00035611726343631744,-0.00042106775799766183
1782952651749620700,8.759620849609375,0.0010770983062684536,0.0005681565962731838,-0.0012624419759958982
1782952651759548700,8.769548583984376,0.001259524840861559,-0.0005812635645270348,-0.0026321057230234146
1782952651769475600,8.7794755859375,0.0009404400479979813,-0.00006592040881514549,-0.0020655537955462933
1782952651779403500,8.789403564453124,0.0023481869138777256,0.0017634048126637936,-0.0005315729649737477
1782952651789330400,8.799330322265625,0.0009704477852210402,0.001058598980307579,-0.0009693639003671706
1782952651799258400,8.80925830078125,0.0003201038343831897,-0.0009832466021180153,0.00004024046938866377
1782952651809186600,8.8191865234375,0.0004126819549128413,0.0022862982004880905,0.0008610615623183548
1782952651819113500,8.829113525390625,-0.00066536566009745,0.0007315445691347122,-0.001943779643625021
1782952651829041400,8.83904150390625,0.0014582608127966523,-0.0004300796426832676,-0.00047355168499052525
1782952651838968600,8.848968505859375,-0.001309828832745552,0.000752896536141634,0.00027239974588155746
1782952651848896500,8.858896484375,-0.0022283513098955154,-0.00006994279101490974,-0.0009082728065550327
1782952651858824400,8.868824462890625,0.0004675665404647589,0.0003609568811953068,-0.0014124092413112521
1782952651868751600,8.878751708984375,-0.00002782209776341915,0.0010349825024604797,0.001080812537111342
1782952651878679600,8.888679443359376,-0.0007900188211351633,0.0006466936320066452,0.0030614053830504417
1782952651888607500,8.898607421875,-0.002455728827044368,-0.0016295798122882843,0.0001552325556986034
1782952651898534700,8.90853466796875,0.0008567107724957168,0.0006045461632311344,0.001409581396728754
1782952651908462600,8.918462646484375,-0.0007594923372380435,0.0005900394171476364,-0.0014827584382146597
1782952651918389500,8.928389404296874,0.0002676888252608478,-0.0017271770630031824,0.0011236773570999503
1782952651928317400,8.9383173828125,-0.0011769935954362154,0.0009685112163424492,0.00009363389108330011
1782952651938245600,8.94824560546875,-0.0000060015590861439705,0.0008942093700170517,-0.0016816293355077505
1782952651948172500,8.958172607421876,0.0015203356742858887,0.00007069576531648636,0.00003263942198827863
1782952651958100500,8.9681005859375,-0.00007143570110201836,0.0009538000449538231,-0.001346611650660634
1782952651968027600,8.978027587890624,0.00007611577166244388,0.0004603159613907337,-0.0010919224005192518
1782952651977955600,8.98795556640625,0.002126217121258378,0.000374828465282917,-0.0003403784066904336
1782952651987883500,8.997883544921875,-0.0009845368331298232,-0.0004364526830613613,0.0013398888986557722
1782952651997810700,9.007810791015626,0.0014924692222848535,0.0002775406464934349,0.0003862109733745456
1782952652007738600,9.017738525390625,0.0028806887567043304,-0.0014866245910525322,0.000005372741725295782
1782952652017666600,9.02766650390625,-0.00016729900380596519,-0.002889844123274088,0.0019231151090934873
1782952652027593700,9.03759375,0.0002252844860777259,-0.00004769815132021904,-0.0008269185200333595
1782952652037521700,9.047521728515624,-0.002895940328016877,0.0005629649385809898,-0.0018724756082519889
1782952652047448600,9.057448486328125,-0.0005559150013141334,0.0014467989094555378,-0.00008672504918649793
1782952652057376500,9.06737646484375,-0.0018928218632936478,0.0023312349803745747,0.0012384639121592045
1782952652067305000,9.077304931640626,0.0010055757593363523,-0.00008109491318464279,0.00035151903284713626
1782952652077231900,9.08723193359375,0.0015350121539086103,0.0007825684733688831,0.0009707040153443813
1782952652087159800,9.097159912109374,-0.00019309710478410125,0.0006279251538217068,0.0009462406160309911
1782952652097087000,9.1070869140625,0.00020211597438901663,-0.0015894228126853704,0.00035528518492355943
1782952652107015000,9.117014892578124,0.0007177008083090186,0.0008358201012015343,-0.0010357059072703123
1782952652116942800,9.12694287109375,-0.0002149382489733398,0.002289906144142151,0.0016996266786009073
1782952652126870000,9.1368701171875,-0.0023091332986950874,-0.0004677330143749714,-0.0012263546232134104
1782952652136798000,9.1467978515625,0.000732995627913624,0.001896621659398079,0.0012069757794961333
1782952652146724600,9.156724609375,-0.002980957506224513,0.0009463690221309662,-0.0025021040346473455
1782952652156652800,9.16665283203125,-0.0007825182401575148,0.00035434821620583534,-0.00006025168113410473
1782952652166581000,9.1765810546875,-0.00005453336052596569,0.00039743632078170776,-0.0032195725943893194
1782952652176507600,9.186507568359374,-0.0018484387546777725,-0.0007399998139590025,-0.0006078106234781444
1782952652186435600,9.196435546875,0.0029753264971077442,0.0009948327206075191,-0.0011151204816997051
1782952652196364000,9.206364013671875,0.0011521262349560857,0.002415629103779793,0.00137493503279984
1782952652206290700,9.216290771484376,-0.001315766479820013,0.0005321926437318325,0.0002050307230092585
1782952652216218600,9.226218505859375,-0.0032319107558578253,-0.0001469133421778679,0.0009453895036131144
1782952652226145800,9.236145751953124,-0.0011491631157696247,-0.0009133073035627604,0.0007839054451324046
1782952652236073700,9.24607373046875,-0.0013265297748148441,-0.0003734845668077469,0.00015513307880610228
1782952652246001700,9.256001708984375,0.00033404483110643923,-0.0006991634145379066,0.0010969503782689571
1782952652255928800,9.2659287109375,0.002958856290206313,-0.0009319237433373928,-0.0009688636055216193
1782952652265856800,9.275856689453125,0.0021493856329470873,-0.0007054109591990709,-0.0015178797766566277
1782952652275783700,9.28578369140625,-0.0018815750954672694,0.0001822207123041153,-0.0003333056520204991
1782952652285712000,9.2957119140625,-0.00008969433838501573,0.00023355195298790932,-0.00160885788500309
1782952652295639800,9.305639892578125,0.0013771747471764684,-0.0017856566701084375,-0.0005507840542122722
1782952652305564000,9.31556396484375,-0.000046827131882309914,0.002363568637520075,0.0022958528716117144
1782952652315491800,9.325491943359374,-0.00044923077803105116,0.0007118759676814079,-0.0006389504997059703
1782952652325419800,9.335419677734375,0.001493239775300026,-0.0003609927371144295,0.0005616328562609851
1782952652335346700,9.3453466796875,0.0008093399228528142,0.001164466142654419,0.0009406007011421025
1782952652345275000,9.35527490234375,-0.0027485371101647615,-0.0003727213479578495,0.001238143304362893
1782952652355201800,9.365201904296875,0.001873378991149366,-0.0017485104035586119,-0.0003405786701478064
1782952652365129700,9.375129638671876,0.0006534747080877423,0.0018922998569905758,-0.000764762400649488
1782952652375057700,9.3850576171875,0.0009003497543744743,-0.00013969186693429947,0.000666420382913202
1782952652384984800,9.39498486328125,-0.002627828624099493,0.0017529181204736233,-0.0010393534321337938
1782952652394912800,9.404912841796875,0.0033791973255574703,0.0012346669100224972,-0.001391689758747816
1782952652404839700,9.414839599609374,0.0021515325643122196,-0.002941860817372799,0.00008829013677313924
1782952652414767600,9.424767578125,0.003074850421398878,0.0011732554994523525,0.0006709898007102311
1782952652424695800,9.43469580078125,0.0008217098657041788,-0.0016446162480860949,0.0020513352937996387
1782952652434622700,9.444622802734376,0.0032401264179497957,-0.0003279494121670723,0.0016803567996248603
1782952652444550700,9.454550537109375,-0.0005248564993962646,0.001077796332538128,0.001133208628743887
1782952652454477800,9.464477783203124,-0.0008955685188993812,-0.0023662038147449493,0.0002120212884619832
1782952652464405800,9.47440576171875,0.0005388148711062968,0.0007740543223917484,0.0007916506147012115
1782952652474333700,9.484333740234375,0.0006037959828972816,-0.00014233915135264397,0.00023531628539785743
1782952652484260900,9.4942607421875,0.0025029086973518133,0.0002027442678809166,-0.0027331679593771696
1782952652494188800,9.504188720703125,0.0003084639902226627,0.0014602886512875557,0.001136138802394271
1782952652504116700,9.51411669921875,0.003348887898027897,0.002176981419324875,-0.0010499689960852265
1782952652514044000,9.5240439453125,0.00009583664359524846,-0.0013048353139311075,-0.0013618251541629434
1782952652523971800,9.533971923828124,-0.00011751340935006738,-0.0016631411854177713,-0.0009109281236305833
1782952652533898800,9.543898681640625,0.0006550695979967713,0.0016772616654634476,0.0010510226711630821
1782952652543827000,9.553826904296875,-0.0008408104185946286,0.001098832581192255,-0.0020454959012567997
1782952652553755000,9.5637548828125,0.0033121227752417326,0.0011734012514352798,-0.0012374927755445242
1782952652563681800,9.573681884765625,0.0010906521929427981,0.001135378610342741,-0.000004417146556079388
1782952652573609700,9.583609619140624,0.0003412386868149042,0.00006292341277003288,-0.0010976447956636548
1782952652583537000,9.593536865234375,-0.0003685828414745629,0.001041751354932785,0.0007572771864943206
1782952652593464800,9.60346484375,0.0002444768906570971,0.000795409083366394,0.00037804298335686326
1782952652603392800,9.613392822265626,-0.0016475474694743752,-0.0005440809763967991,0.0019334729295223951
1782952652613320000,9.62331982421875,-0.0007772265234962106,0.0004636594094336033,0.0016288072802126408
1782952652623248000,9.633247802734376,0.00022861140314489603,0.0010165106505155563,-0.00016356012201867998
1782952652633174800,9.6431748046875,-0.0008584909955970943,-0.0004247925244271755,-0.0009004567982628942
1782952652643103000,9.65310302734375,0.0008929382893256843,-0.0001529068686068058,0.001240632962435484
1782952652653031000,9.663031005859375,-0.0022892728447914124,0.0007080929353833199,0.0007221155101433396
1782952652662957800,9.672957763671874,0.0020010611042380333,0.0005545546300709248,0.0017626394983381033
1782952652672888800,9.682888916015624,-0.00001415301812812686,0.0005721314810216427,0.0000813858350738883
1782952652682815700,9.692815673828125,-0.0005809649592265487,-0.00032794103026390076,0.001701767323538661
1782952652692743700,9.70274365234375,0.0009849737398326397,-0.0006469879299402237,0.000015986384823918343
1782952652702672000,9.712671875,-0.0016879504546523094,0.0008871606551110744,-0.0013355802511796355
1782952652712598800,9.722598876953125,-0.000639463949482888,0.002710361033678055,-0.0008530154591426253
1782952652722526700,9.732526611328124,-0.0029733895789831877,0.00012633390724658966,0.00024240196216851473
1782952652732454000,9.742453857421875,0.0008274739957414567,0.0008065053261816502,0.0007148467702791095
1782952652742381800,9.7523818359375,0.0008335699094459414,0.0019567846320569515,-0.0020336201414465904
1782952652752309800,9.762309814453126,0.0022114894818514585,0.0006611566059291363,0.0011432648170739412
1782952652762237000,9.77223681640625,0.0005914248176850379,-0.0003884970210492611,-0.002908291295170784
1782952652772164900,9.782164794921876,-0.000005389563739299774,0.0015936936251819134,-0.00168856349773705
1782952652782091800,9.792091796875,0.00023141142446547747,-0.0002896469086408615,0.00071582110831514
1782952652792020000,9.80202001953125,-0.001225071493536234,0.0017447415739297867,-0.0015633120201528072
1782952652801948000,9.811947998046875,-0.0003160816850140691,-0.0006125695072114468,0.000925392028875649
1782952652811874800,9.821874755859374,0.0006735489587299526,-0.0004083053208887577,-0.0004735664988402277
1782952652821802800,9.831802734375,-0.0015272387536242604,-0.0011613545939326286,0.0011459345696493983
1782952652831730000,9.84172998046875,-0.0006345470901578665,-0.0011488376185297966,0.0020426209084689617
1782952652841657900,9.851657958984376,0.00035897118505090475,0.0021822447888553143,-0.0006405846797861159
1782952652851585800,9.861585693359375,0.0008039854001253843,0.0012293658219277859,0.00006488669896498322
1782952652861513000,9.871512939453124,0.0003545012732502073,-0.00011479249224066734,0.0023322668857872486
1782952652871441000,9.88144091796875,-0.000341116392519325,-0.001195502933114767,-0.0019279917469248176
1782952652881368800,9.891368896484375,0.00021201546769589186,-0.0009680686052888632,-0.0020108765456825495
1782952652891296000,9.9012958984375,-0.0004460516502149403,0.000186944380402565,-0.0021568178199231625
1782952652901224000,9.911223876953125,0.0009471109369769692,-0.0007768869400024414,0.0008288056124001741
1782952652911150600,9.921150634765626,0.0016413970151916146,0.0014441893436014652,0.0009422563016414642
1782952652921079000,9.9310791015625,0.00020517490338534117,-0.00063277967274189,0.001869815168902278
1782952652931007000,9.941007080078125,-0.0003378436667844653,-0.00030467845499515533,0.002047980669885874
1782952652940933600,9.95093359375,-0.000011725525837391615,0.0017559234984219074,-0.00020098552340641618
1782952652950861600,9.960861572265625,0.0007203774293884635,-0.0017567859031260014,0.0032017354387789965
1782952652960788700,9.970788818359376,0.001722361776046455,-0.0001011379063129425,-0.0009200830245390534
1782952652970716700,9.980716552734375,0.00013298721751198173,0.0008392240852117538,-0.003076178254559636
1782952652980644600,9.99064453125,-0.000025389192160218954,-0.00042760884389281273,0.0032083839178085327
1782952652990571800,10.00057177734375,0.0010207004379481077,0.0004919804632663727,0.0010914370650425553
1782952653000499700,10.010499755859374,0.0011035704519599676,-0.00023357011377811432,-0.0005432605394162238
1782952653010427000,10.020427001953125,-0.001799541525542736,0.0008463417179882526,-0.0017403513193130493
1782952653020354800,10.030354736328125,0.0005061163101345301,0.0018302635289728642,0.003149421652778983
1782952653030282800,10.04028271484375,-0.00016473396681249142,0.0010456964373588562,0.0024034702219069004
1782952653040209700,10.050209716796875,-0.0028473404236137867,-0.0010871433187276125,0.00014671747339889407
1782952653050137900,10.060137939453124,0.001499204896390438,0.0012420574203133583,-0.00028684514109045267
1782952653060064800,10.070064697265625,0.0003171668795403093,0.001918836496770382,0.0007281221332959831
1782952653069992400,10.079992431640624,0.0014388903509825468,-0.0011504567228257656,-0.0005802888772450387
1782952653079920600,10.089920654296876,0.0022789184004068375,0.0009739995002746582,-0.0006293199257925153
1782952653089847600,10.09984765625,0.0021428307518363,0.001018740702420473,-0.002120956312865019
1782952653099775500,10.109775390625,0.00035079248482361436,0.003094276413321495,-0.0006824767333455384
1782952653109703400,10.119703369140625,0.0026709383819252253,-0.0006290888413786888,0.001981216948479414
1782952653119630600,10.129630615234374,0.001176340039819479,-0.00020212354138493538,-0.0001017274335026741
1782952653129558500,10.13955859375,0.000008011236786842346,0.0011294572614133358,0.0004961522063240409
1782952653139485700,10.149485595703124,-0.0018033593660220504,-0.0008999763522297144,-0.0017657342832535505
1782952653149413600,10.15941357421875,0.0003735085774678737,-0.0029348977841436863,-0.000016303732991218567
1782952653159341600,10.169341552734375,0.000039485166780650616,0.00034150201827287674,0.0021095010451972485
1782952653169268700,10.179268798828126,0.0006642627995461226,-0.0017003437969833612,-0.0003161058702971786
1782952653179196700,10.18919677734375,-0.0034509303513914347,-0.0009472500532865524,0.00015723088290542364
1782952653189123600,10.19912353515625,0.00022290053311735392,0.0004775412380695343,-0.0009189525153487921
1782952653199051500,10.209051513671875,-0.0012749977177008986,-0.0017163786105811596,0.001704920083284378
1782952653208979700,10.218979736328125,0.004288345575332642,-0.0011275536380708218,-0.000946523156017065
1782952653218906600,10.22890673828125,-0.00023800658527761698,0.0015058773569762707,-0.00026790820993483067
1782952653228834600,10.23883447265625,0.0009697368950583041,0.0018848455511033535,-0.0005970749189145863
1782952653238761700,10.24876171875,0.0008459576638415456,-0.0004241829738020897,0.001127159339375794
1782952653248689700,10.258689697265625,-0.000646211439743638,-0.0007909000851213932,-0.000004417786840349436
1782952653258617600,10.26861767578125,-0.0005254180869087577,0.0009478856809437275,0.00020157964900135994
1782952653268544800,10.278544677734375,-0.0008521879790350795,0.0012152669951319695,-0.0015217518666759133
1782952653278472700,10.28847265625,-0.0003722541150636971,0.0007003531791269779,0.000034743978176265955
1782952653288399400,10.2983994140625,0.0001601118128746748,0.0012593506835401058,-0.0025216243229806423
1782952653298327600,10.30832763671875,-0.0014605571050196886,0.0013666274026036263,0.0010696619283407927
1782952653308255700,10.318255859375,-0.000896233192179352,0.0018768887966871262,-0.0013615377247333527
1782952653318182400,10.328182373046875,-0.0011464765993878245,0.0008841115050017834,-0.00031104133813641965
1782952653328110300,10.3381103515625,-0.0011760377092286944,-0.000014705117791891098,0.00019469298422336578
1782952653338037500,10.34803759765625,-0.0003203880041837692,-0.00047253211960196495,0.004200214985758066
1782952653347965400,10.35796533203125,0.00020904844859614968,-0.0027892158832401037,0.000834245583973825
1782952653357893400,10.367893310546876,-0.0010406716028228402,0.0017495318315923214,0.00037585734389722347
1782952653367820500,10.377820556640625,0.0017306137597188354,0.0010637682862579823,0.0010509686544537544
1782952653377748500,10.38774853515625,0.002620418556034565,-0.00005707284435629845,-0.0006199462804943323
1782952653387676400,10.397676513671875,-0.002082990249618888,0.0011839605867862701,-0.00016081728972494602
1782952653397603600,10.407603515625,-0.0009018832934089005,-0.00041170790791511536,0.00034072028938680887
1782952653407531500,10.417531494140626,0.000359656143700704,0.00011772895231842995,-0.0003117542073596269
1782952653417458400,10.42745849609375,-0.001184980385005474,0.0011207424104213715,-0.001935957232490182
1782952653427386600,10.43738671875,-0.0022811375092715025,-0.0006470638327300549,0.0019855473656207323
1782952653437314600,10.447314453125,0.000291945762000978,0.0006134137511253357,-0.000030376773793250322
1782952653447241500,10.457241455078124,-0.0016652113990858197,0.001595321111381054,0.00037122791400179267
1782952653457169400,10.46716943359375,-0.0008574925013817847,0.0014142976142466068,0.0007754994439892471
1782952653467096600,10.4770966796875,-0.00047719309804961085,-0.00014338502660393715,-0.00038057874189689755
1782952653477024500,10.4870244140625,0.0008340419735759497,0.0024419324472546577,0.0003703520051203668
1782952653486952400,10.496952392578125,-0.00028262147679924965,0.0014730743132531643,-0.0010142254177480936
1782952653496879600,10.506879638671874,0.002009011572226882,-0.00039060553535819054,-0.0004186953301541507
1782952653506807600,10.5168076171875,0.00004200090188533068,0.00009249197319149971,-0.001651739003136754
1782952653516734700,10.526734619140624,0.0021116232965141535,0.0000871601514518261,0.001116687897592783
1782952653526662700,10.53666259765625,0.0013180014211684465,-0.001654547406360507,0.0013949882704764605
1782952653536590600,10.546590576171875,0.0021134137641638517,0.0005680602043867111,0.0006455173133872449
1782952653546517500,10.556517578125,0.0018055522814393044,0.001100426074117422,-0.0002498374378774315
1782952653556445700,10.56644580078125,0.0021340548992156982,0.0010047312825918198,0.00017751211998984218
1782952653566372600,10.57637255859375,-0.001468935632146895,-0.0006506899371743202,-0.0006616499158553779
1782952653576300500,10.586300537109375,0.00002092996146529913,-0.001576110953465104,0.0004744146135635674
1782952653586228700,10.596228759765625,-0.0001383270719088614,-0.00043547898530960083,-0.0022201717365533113
1782952653596155600,10.60615576171875,-0.00015541032189503312,0.0003911028616130352,0.0037753870710730553
1782952653606083600,10.61608349609375,-0.0008457016665488482,0.00004169624298810959,0.0013271430507302284
1782952653616010800,10.6260107421875,-0.003387532662600279,-0.000599623192101717,0.00030834152130410075
1782952653625938700,10.635938720703125,0.0018205451779067516,0.0011463453993201256,-0.0016112650046125054
1782952653635866600,10.64586669921875,-0.0026247031055390835,-0.0006076046265661716,0.0004918272607028484
1782952653645793800,10.655793701171875,-0.0017136359820142388,-0.0013831171672791243,0.0009701309027150273
1782952653655721700,10.6657216796875,-0.0006852743681520224,-0.00026943255215883255,0.00044940580846741796
1782952653665648400,10.6756484375,-0.0007449290715157986,-0.0001812819391489029,-0.0021754056215286255
1782952653675576600,10.68557666015625,0.0008232614491134882,-0.0004353448748588562,0.0002664206549525261
1782952653685504800,10.6955048828125,0.00035507773282006383,-0.002116598654538393,-0.0018766251159831882
1782952653695431400,10.705431396484375,0.0014498261734843254,-0.001840963028371334,-0.0009112617699429393
1782952653705359400,10.715359375,-0.00004979985533282161,-0.0003975299187004566,-0.0005275002913549542
1782952653715286500,10.72528662109375,-0.0007621019030921161,-0.0011755144223570824,-0.0013181098038330674
1782952653725214500,10.73521435546875,-0.0006811417988501489,-0.00026178406551480293,0.0019634373020380735
1782952653735142400,10.745142333984376,-0.002862387802451849,0.0013768351636826992,-0.0003684987605083734
1782952653745069600,10.755069580078125,0.0025691292248666286,-0.0008839224465191364,-0.002097422955557704
1782952653754997500,10.76499755859375,0.0004181549302302301,-0.002793829422444105,0.00039950257632881403
1782952653764925400,10.774925537109375,0.00021495571127161384,0.0003529619425535202,-0.0019344917964190245
1782952653774852600,10.7848525390625,-0.0008296053856611252,-0.00042153242975473404,-0.0005356812616810203
1782952653784780500,10.794780517578126,-0.0011606363113969564,0.0011318894103169441,0.0008092150674201548
1782952653794707500,10.80470751953125,0.0005447167786769569,0.00020185252651572227,-0.002107198815792799
1782952653804635600,10.8146357421875,-0.001814577728509903,0.0038605034351348877,-0.000724219367839396
1782952653814562600,10.8245625,0.001229015993885696,0.003392439801245928,0.00013266061432659626
1782952653824490500,10.834490478515624,0.0032114731147885323,0.0002357945777475834,-0.003100417088717222
1782952653834418400,10.84441845703125,0.002330213086679578,0.0007512550801038742,-0.0004411049303598702
1782952653844345600,10.854345703125,0.0027432695496827364,-0.0006975042633712292,0.001210853923112154
1782952653854273500,10.8642734375,0.0015486329793930054,0.0017639389261603355,-0.0007278998964466155
1782952653864201500,10.874201416015625,-0.0017451646272093058,0.0006225081160664558,-0.00224909745156765
1782952653874128600,10.884128662109376,0.0005848093423992395,0.0017577395774424076,-0.001166168600320816
1782952653884056600,10.894056640625,0.0006985262734815478,0.00035292236134409904,0.00045250076800584793
1782952653893983500,10.9039833984375,-0.0004942010855302215,0.0030210111290216446,-0.0008807764970697463
1782952653903911700,10.91391162109375,0.001521545578725636,-0.0004264507442712784,-0.0006221835501492023
1782952653913839600,10.923839599609375,0.0007466989918611944,-0.0005993056111037731,-0.0004894293961115181
1782952653923766500,10.9337666015625,-0.0017337691970169544,0.00008725747466087341,-0.0012705344706773758
1782952653933694700,10.94369482421875,-0.0009247507550753653,-0.0011072177439928055,-0.0019865853246301413
1782952653943621600,10.95362158203125,-0.00013778667198494077,-0.0004659285768866539,-0.0010763168102130294
1782952653953549600,10.963549560546875,0.0002442860568407923,0.00024931225925683975,-0.0012081274762749672
1782952653963477500,10.9734775390625,0.0012807883322238922,0.0016698422841727734,0.0000297097722068429
1782952653973404700,10.98340478515625,-0.00042087369365617633,-0.000339483842253685,-0.0031789205968379974
1782952653983332600,10.99333251953125,0.0008380024810321629,-0.0014822464436292648,0.00010049587581306696
1782952653993259800,11.003259765625,0.0004307499621063471,-0.0005257758311927319,0.0007894043810665607
1782952654003187700,11.013187744140625,0.00036710043787024915,-0.0007145940326154232,0.000004837114829570055
1782952654013115600,11.02311572265625,-0.0009609748958609998,-0.002642834559082985,-0.000529687327798456
1782952654023042600,11.03304248046875,0.0023117836099117994,0.0005431049503386021,-0.0008980025304481387
1782952654032970800,11.042970703125,0.00020860950462520123,0.00022606318816542625,-0.00041176765807904303
1782952654042897400,11.0528974609375,-0.00046410493087023497,0.0015485892072319984,0.0004992997273802757
1782952654052825300,11.062825439453125,0.0011240598978474736,0.0018229144625365734,-0.0010763449827209115
1782952654062753300,11.072753173828126,0.0006675941403955221,0.0005339444614946842,-0.0008358614868484437
1782952654072680000,11.082679931640625,0.0012038282584398985,0.0015100720338523388,0.002673538401722908
1782952654082607900,11.09260791015625,0.0016389887314289808,-0.0013959691859781742,-0.0022818055003881454
1782952654092535000,11.10253515625,0.00022019882453605533,0.000441619660705328,0.00015933439135551453
1782952654102463000,11.112462890625,0.0010753398528322577,0.0004541361704468727,0.0015178128378465772
1782952654112391000,11.122390869140625,0.0006608180701732635,0.000340102706104517,0.0004366472130641341
1782952654122318000,11.132318115234375,0.0007463055080734193,0.0021230890415608883,-0.0016656521474942565
1782952654132246000,11.14224609375,-0.00005147873889654875,-0.0014102745335549116,0.002551248762756586
1782952654142173000,11.1521728515625,-0.0027513913810253143,0.003364240750670433,0.0002026068978011608
1782952654152101000,11.16210107421875,0.001174606615677476,-0.001707958523184061,0.0005008589942008257
1782952654162029000,11.172029052734375,-0.0008640432497486472,0.000022829975932836533,-0.0016922540962696075
1782952654171956000,11.1819560546875,-0.0014825384132564068,0.002121345605701208,-0.0025694717187434435
1782952654181884200,11.19188427734375,0.0020048709120601416,-0.00010212743654847145,0.0012604203075170517
1782952654191811000,11.20181103515625,-0.000564736663363874,0.00043528294190764427,-0.0006997924065217376
1782952654201739000,11.211739013671876,-0.0008054864592850208,0.0003846827894449234,0.00009755801875144243
1782952654211667000,11.2216669921875,-0.0009358591632917523,0.0010347324423491955,0.0012210975401103497
1782952654221594000,11.231593994140624,-0.00108393095433712,-0.00001961318776011467,-0.00012433150550350547
1782952654231522000,11.24152197265625,-0.0016190593596547842,0.0011679762974381447,0.00010086252586916089
1782952654241449200,11.25144921875,-0.00006830075290054083,0.0007187011651694775,-0.0009356397204101086
1782952654251377200,11.261377197265626,-0.0028087713290005922,0.00042715342715382576,-0.0009208088158629835
1782952654261305000,11.27130517578125,-0.0016108814161270857,0.0031470400281250477,-0.0009205425158143044
1782952654271232300,11.281232177734376,0.0027282165829092264,-0.0005010263994336128,-0.0019853925332427025
1782952654281160200,11.29116015625,0.001566279330290854,-0.0003859777934849262,0.0006916169077157974
1782952654291087000,11.301087158203124,0.0015156434383243322,0.0012609814293682575,0.0014897524379193783
1782952654301015000,11.31101513671875,-0.00004630058538168669,0.0028860424645245075,0.002598692663013935
1782952654310943200,11.320943115234375,-0.0010064354864880443,-0.0013473783619701862,-0.000038602505810558796
1782952654320870100,11.3308701171875,0.001966717652976513,0.0026593473739922047,-0.00013074791058897972
1782952654330798000,11.340798095703125,-0.00027695822063833475,0.04387344792485237,0.01749681681394577
1782952654340725200,11.350725341796876,0.0003073393309023231,-0.010435066185891628,-0.00840775016695261
1782952654350653200,11.360653076171875,0.0010679736733436584,0.0056302957236766815,0.003246550913900137
1782952654360581000,11.3705810546875,-0.0003781226696446538,-0.015827326104044914,-0.004875025246292353
1782952654370508300,11.38050830078125,0.00044428950059227645,-0.01419580727815628,-0.006992893759161234
1782952654380436200,11.390436279296875,0.0005747844115830958,-0.00845243502408266,-0.0034434327390044928
1782952654390363100,11.400363037109376,-0.00010166910942643881,-0.006629409268498421,-0.0011860559461638331
1782952654400291300,11.410291259765625,0.002804904943332076,-0.0027036434039473534,0.0012720415834337473
