time,seconds_elapsed,z,y,x
1782968842288803300,0.07580322265625,-1.029663324356079,-0.0115919578820467,-1.1636292934417725
1782968842298729500,0.0857294921875,-1.094079613685608,0.0840059369802475,-1.138208270072937
1782968842308655600,0.095655517578125,-1.157668948173523,0.1807142198085785,-1.1176493167877197
1782968842318581200,0.105581298828125,-1.1925978660583496,0.2939552664756775,-1.1033155918121338
1782968842328508400,0.11550830078125,-1.17910635471344,0.38574156165122986,-1.0972943305969238
1782968842338434600,0.1254345703125,-1.1026482582092285,0.461456835269928,-1.0918697118759155
1782968842348360400,0.1353603515625,-1.0064136981964111,0.5444611310958862,-1.0754823684692383
1782968842358287400,0.145287353515625,-0.9127745628356934,0.6198443174362183,-1.0700169801712036
1782968842368213500,0.155213623046875,-0.840968906879425,0.6758667826652527,-1.0560184717178345
1782968842378139400,0.165139404296875,-0.7954360246658325,0.6945453882217407,-1.0474292039871216
1782968842388066600,0.175066650390625,-0.7712135910987854,0.6409904956817627,-1.0449175834655762
1782968842397992400,0.184992431640625,-0.7708895206451416,0.5199924111366272,-1.0150233507156372
1782968842407918300,0.19491845703125,-0.7630884051322937,0.3875589668750763,-0.918246328830719
1782968842417845500,0.204845458984375,-0.7637462019920349,0.3055908679962158,-0.7555400133132935
1782968842427771400,0.214771484375,-0.7928966283798218,0.24663273990154266,-0.585574209690094
1782968842437697500,0.224697509765625,-0.84070885181427,0.22814294695854187,-0.43498578667640686
1782968842447623400,0.23462353515625,-0.8928916454315186,0.24540947377681732,-0.270704060792923
1782968842457550600,0.244550537109375,-0.9318963289260864,0.28730180859565735,-0.10408153384923935
1782968842467476500,0.2544765625,-0.9265663027763367,0.39326009154319763,0.003819422796368599
1782968842477402400,0.26440234375,-0.8517181873321533,0.5612826347351074,-0.011054066009819508
1782968842487329500,0.27432958984375,-0.6812471747398376,0.7623929381370544,-0.1753547340631485
1782968842497255400,0.28425537109375,-0.4522046744823456,0.952795684337616,-0.3555636405944824
1782968842507181300,0.294181396484375,-0.30402639508247375,0.9178504347801208,-0.47906816005706787
1782968842517108500,0.3041083984375,-0.12573733925819397,0.7523048520088196,-0.5121787190437317
1782968842527034600,0.31403466796875,0.19677217304706573,0.6556012630462646,-0.40972021222114563
1782968842536960300,0.323960205078125,0.47419100999832153,0.44766965508461,-0.1880679726600647
1782968842546887400,0.333887451171875,0.6480323672294617,0.20922601222991943,0.11314745992422104
1782968842556813600,0.3438134765625,0.7727583050727844,0.09146184474229813,0.49561387300491333
1782968842566739200,0.3537392578125,0.8239668607711792,-0.00992656871676445,0.8383745551109314
1782968842576665300,0.363665283203125,0.7849124073982239,-0.14681170880794525,1.0333497524261475
1782968842586592500,0.373592529296875,0.7303993701934814,-0.21572253108024597,1.121715784072876
1782968842596518400,0.383518310546875,0.7441737651824951,-0.14473624527454376,1.157629132270813
1782968842606444300,0.3934443359375,0.8225274682044983,-0.009950879961252213,1.144819974899292
1782968842616371500,0.403371337890625,0.8943353295326233,0.10466944426298141,1.089687705039978
1782968842626297600,0.413297607421875,0.9188753366470337,0.20971417427062988,1.0202271938323975
1782968842636223200,0.42322314453125,0.9041552543640137,0.2917991876602173,0.9400996565818787
1782968842646150400,0.433150390625,0.8626726269721985,0.30729883909225464,0.8573474884033203
1782968842656076500,0.44307666015625,0.8284808397293091,0.24943527579307556,0.8210222721099854
1782968842666002400,0.45300244140625,0.8174128532409668,0.1397334188222885,0.8553467988967896
1782968842675928300,0.46292822265625,0.853182315826416,-0.01834995672106743,0.9412955045700073
1782968842685855500,0.47285546875,0.923839807510376,-0.19860464334487915,1.0539336204528809
1782968842695781400,0.482781494140625,1.0234774351119995,-0.3091048002243042,1.1694128513336182
1782968842705707300,0.492707275390625,1.1310452222824097,-0.3817306458950043,1.2423899173736572
1782968842715634400,0.502634521484375,1.2186131477355957,-0.43146225810050964,1.2488374710083008
1782968842725560300,0.512560302734375,1.2755769491195679,-0.4533369243144989,1.1778481006622314
1782968842735486500,0.522486572265625,1.2751058340072632,-0.46341991424560547,1.0515679121017456
1782968842745413400,0.532413330078125,1.2177492380142212,-0.45538806915283203,0.9004467725753784
1782968842755339300,0.54233935546875,1.1068283319473267,-0.4425484240055084,0.7707905173301697
1782968842765265200,0.55226513671875,0.976626455783844,-0.40910759568214417,0.6893799901008606
1782968842775192300,0.5621923828125,0.8531894683837891,-0.3440132737159729,0.63608717918396
1782968842785118500,0.572118408203125,0.7688941359519958,-0.2567266523838043,0.5881502628326416
1782968842795044400,0.58204443359375,0.7294026613235474,-0.16371041536331177,0.5478619933128357
1782968842804970200,0.59197021484375,0.6972794532775879,-0.10043493658304214,0.5085449814796448
1782968842814897400,0.6018974609375,0.6707514524459839,-0.06798911094665527,0.4734977185726166
1782968842824823300,0.6118232421875,0.6605795621871948,-0.04140680283308029,0.44197899103164673
1782968842834749200,0.621749267578125,0.6690036654472351,-0.03338536620140076,0.3968578279018402
1782968842844676400,0.63167626953125,0.6869894862174988,-0.027981851249933243,0.3409196436405182
1782968842854602200,0.641602294921875,0.6860060095787048,-0.016622137278318405,0.2690073549747467
1782968842864528400,0.6515283203125,0.6667667627334595,-0.05106164142489433,0.2730630338191986
1782968842874455600,0.66145556640625,0.5763455033302307,-0.09728240221738815,0.33501508831977844
1782968842884381200,0.671381103515625,0.47257569432258606,-0.14614516496658325,0.41574057936668396
1782968842894307300,0.681307373046875,0.4440769553184509,-0.1633414626121521,0.5112053155899048
1782968842904234500,0.691234375,0.463990181684494,-0.13920383155345917,0.5855408906936646
1782968842914160000,0.70116015625,0.46991652250289917,-0.11464148759841919,0.6092478036880493
1782968842924086300,0.711086181640625,0.4506191909313202,-0.1034657210111618,0.5922443270683289
1782968842934012400,0.721012451171875,0.4139802157878876,-0.09839080274105072,0.5409166812896729
1782968842943939300,0.730939208984375,0.3594153821468353,-0.10745716094970703,0.4614828824996948
1782968842953865200,0.740865234375,0.29045042395591736,-0.1498056799173355,0.3732728660106659
1782968842963791400,0.750791259765625,0.22105368971824646,-0.18451201915740967,0.300055593252182
1782968842973718500,0.760718505859375,0.1382104754447937,-0.2016364187002182,0.23960529267787933
1782968842983644200,0.77064404296875,0.04800700023770332,-0.21944257616996765,0.15496106445789337
1782968842993570300,0.7805703125,-0.04906895011663437,-0.2229803204536438,0.04384146258234978
1782968843003497500,0.79049755859375,-0.15447229146957397,-0.2159733772277832,-0.0846070796251297
1782968843013423400,0.80042333984375,-0.2704463005065918,-0.19282516837120056,-0.20085033774375916
1782968843023349200,0.810349365234375,-0.39563363790512085,-0.1226896420121193,-0.2848970293998718
1782968843033276400,0.8202763671875,-0.5189300179481506,-0.027001196518540382,-0.33461958169937134
1782968843043202300,0.830202392578125,-0.6049285531044006,0.09890453517436981,-0.3393269181251526
1782968843053128200,0.840128173828125,-0.6403491497039795,0.26121991872787476,-0.2867598533630371
1782968843063055400,0.850055419921875,-0.6181004047393799,0.3804391622543335,-0.18949002027511597
1782968843072981200,0.859981201171875,-0.5623979568481445,0.44147375226020813,-0.07367207854986191
1782968843082907400,0.869907470703125,-0.516609251499176,0.4240970313549042,-0.008546816185116768
1782968843092833300,0.879833251953125,-0.5009471774101257,0.3368646502494812,-0.019596537575125694
1782968843102760200,0.88976025390625,-0.5282304883003235,0.18588393926620483,-0.08760455250740051
1782968843112686300,0.899686279296875,-0.5893580317497253,0.023880131542682648,-0.21277418732643127
1782968843122612200,0.9096123046875,-0.692267119884491,-0.1157669797539711,-0.36943066120147705
1782968843132539400,0.919539306640625,-0.8191624879837036,-0.21322216093540192,-0.5330933332443237
1782968843142465300,0.92946533203125,-0.9374326467514038,-0.24738812446594238,-0.6769834160804749
1782968843152391400,0.939391357421875,-1.0278128385543823,-0.20137110352516174,-0.7783118486404419
1782968843162318300,0.949318359375,-1.0826152563095093,-0.08704075217247009,-0.8220101594924927
1782968843172244200,0.959244140625,-1.1056609153747559,0.041885800659656525,-0.7917689085006714
1782968843182170400,0.96917041015625,-1.1020052433013916,0.1465328484773636,-0.7097352147102356
1782968843192097500,0.97909765625,-1.0713759660720825,0.21944540739059448,-0.6073768734931946
1782968843202023200,0.989023193359375,-1.0292723178863525,0.24755050241947174,-0.5388831496238708
1782968843211949300,0.99894921875,-0.9885807633399963,0.1921927034854889,-0.5187536478042603
1782968843221875500,1.00887548828125,-0.9578364491462708,0.0892689973115921,-0.5455806255340576
1782968843231802000,1.018802001953125,-0.9367066621780396,-0.022306539118289948,-0.6080296039581299
1782968843241728300,1.028728271484375,-0.9386972188949585,-0.15820787847042084,-0.7147396206855774
1782968843251654400,1.038654296875,-0.9454616904258728,-0.3247164189815521,-0.8576986789703369
1782968843261581300,1.048581298828125,-0.9434882402420044,-0.4698151648044586,-0.9910992980003357
1782968843271507200,1.058507080078125,-0.9516489505767822,-0.554552435874939,-1.0862255096435547
1782968843281433300,1.068433349609375,-0.965269148349762,-0.5633831024169922,-1.1486772298812866
1782968843291360300,1.0783603515625,-0.975802481174469,-0.4927334785461426,-1.181791067123413
1782968843301286100,1.0882861328125,-0.9905583262443542,-0.3611462414264679,-1.1872442960739136
1782968843311212300,1.09821240234375,-0.9966311454772949,-0.22604890167713165,-1.1919546127319336
1782968843321138400,1.108138427734375,-0.9801881909370422,-0.12277558445930481,-1.1966432332992554
1782968843331065300,1.1180654296875,-0.9454720616340637,-0.0767819955945015,-1.1814733743667603
1782968843340991200,1.1279912109375,-0.8927779197692871,-0.08458593487739563,-1.1211354732513428
1782968843350917400,1.13791748046875,-0.8360320925712585,-0.11874576658010483,-1.0251429080963135
1782968843360844300,1.14784423828125,-0.7887132167816162,-0.160088911652565,-0.9216466546058655
1782968843370770400,1.1577705078125,-0.7507272362709045,-0.16602909564971924,-0.8401342034339905
1782968843380696300,1.1676962890625,-0.7272760272026062,-0.11548978835344315,-0.7975105047225952
1782968843390623200,1.177623291015625,-0.7107572555541992,0.007762109395116568,-0.7747372984886169
1782968843400549400,1.18754931640625,-0.7164499759674072,0.1625279039144516,-0.7623192667961121
1782968843410475300,1.197475341796875,-0.7606297135353088,0.31650710105895996,-0.7488042712211609
1782968843420402200,1.207402099609375,-0.8242619633674622,0.4275028705596924,-0.7292771339416504
1782968843430328300,1.217328369140625,-0.8850312829017639,0.47939029335975647,-0.6699512600898743
1782968843440254500,1.22725439453125,-0.9482963681221008,0.4537568986415863,-0.6042332649230957
1782968843450180400,1.237180419921875,-1.0003150701522827,0.448249489068985,-0.6030412316322327
1782968843460107300,1.247107177734375,-1.0246171951293945,0.5256761908531189,-0.6837279200553894
1782968843470033400,1.257033447265625,-1.000764012336731,0.6059345602989197,-0.7684795260429382
1782968843479959300,1.266959228515625,-0.9316897988319397,0.6474547982215881,-0.7812443971633911
1782968843489886200,1.27688623046875,-0.7304751873016357,0.5638414025306702,-0.6293230056762695
1782968843499812400,1.286812255859375,-0.37292739748954773,0.41559162735939026,-0.32656362652778625
1782968843509738500,1.296738525390625,-0.02371852844953537,0.24472375214099884,0.008231664076447487
1782968843519665200,1.3066650390625,0.3096397817134857,0.10233815014362335,0.308348149061203
1782968843529591300,1.31659130859375,0.5871603488922119,0.02595922164618969,0.5430362820625305
1782968843539517400,1.326517333984375,0.8123587369918823,-0.027207020670175552,0.7089489698410034
1782968843549444400,1.3364443359375,0.9564841985702515,-0.08879289031028748,0.8105621337890625
1782968843559370200,1.346370361328125,1.0137364864349365,-0.1432328075170517,0.8366365432739258
1782968843569296400,1.35629638671875,1.0134429931640625,-0.15164947509765625,0.7893632650375366
1782968843579222500,1.366222412109375,0.9698166847229004,-0.13254980742931366,0.6838529706001282
1782968843589149200,1.376149169921875,0.9042177200317383,-0.09490682184696198,0.5722334980964661
1782968843599075300,1.386075439453125,0.8349552750587463,-0.03317200765013695,0.49400168657302856
1782968843609001500,1.39600146484375,0.7984931468963623,0.024906475096940994,0.46377187967300415
1782968843618928400,1.405928466796875,0.8045383095741272,0.08462318778038025,0.4946434497833252
1782968843628854300,1.415854248046875,0.8483957648277283,0.1524709314107895,0.5920781493186951
1782968843638780400,1.425780517578125,0.9174767732620239,0.22135987877845764,0.7220177054405212
1782968843648707300,1.435707275390625,1.0012462139129639,0.29590415954589844,0.84112149477005
1782968843658633200,1.44563330078125,1.0808510780334473,0.3739938735961914,0.9080979228019714
1782968843668559400,1.455559326171875,1.1485209465026855,0.41006532311439514,0.9229893088340759
1782968843678486300,1.465486328125,1.189448356628418,0.3435203731060028,0.8989468216896057
1782968843688412400,1.475412353515625,1.2187920808792114,0.1883065551519394,0.9082039594650269
1782968843698338300,1.48533837890625,1.2868236303329468,0.006879765540361404,0.9790286421775818
1782968843708264400,1.495264404296875,1.3896945714950562,-0.2003495842218399,1.088236689567566
1782968843718191400,1.50519140625,1.5051586627960205,-0.3614138066768646,1.188481330871582
1782968843728117200,1.5151171875,1.6019738912582397,-0.4596612751483917,1.2503604888916016
1782968843738043400,1.52504345703125,1.6750383377075195,-0.5024872422218323,1.252874732017517
1782968843747970300,1.53497021484375,1.7035073041915894,-0.5111244320869446,1.2159720659255981
1782968843757896700,1.544896728515625,1.6855038404464722,-0.4953402280807495,1.14681875705719
1782968843767822600,1.554822509765625,1.615218997001648,-0.4797537922859192,1.0583155155181885
1782968843777749500,1.56474951171875,1.5396263599395752,-0.46924012899398804,0.9763475656509399
1782968843787675600,1.574675537109375,1.476732611656189,-0.461767315864563,0.8983001708984375
1782968843797601800,1.584601806640625,1.4247820377349854,-0.4571782946586609,0.8221365213394165
1782968843807527400,1.59452734375,1.3911561965942383,-0.4732949435710907,0.7254709601402283
1782968843817454600,1.60445458984375,1.3617044687271118,-0.5190274715423584,0.639796257019043
1782968843827380700,1.614380615234375,1.3278554677963257,-0.5646106600761414,0.5704017281532288
1782968843837306600,1.624306640625,1.2988154888153076,-0.5911155939102173,0.5206712484359741
1782968843847233500,1.634233642578125,1.2746078968048096,-0.5621243715286255,0.4876997172832489
1782968843857159700,1.64415966796875,1.2618215084075928,-0.4970526099205017,0.47716546058654785
1782968843867085600,1.65408544921875,1.2511276006698608,-0.4082929193973541,0.49318915605545044
1782968843877012500,1.664012451171875,1.2259783744812012,-0.30352744460105896,0.5059720873832703
1782968843886938600,1.673938720703125,1.1944100856781006,-0.2129024714231491,0.5022745728492737
1782968843896864800,1.68386474609375,1.1891149282455444,-0.16056020557880402,0.5393549203872681
1782968843906791700,1.693791748046875,1.1328994035720825,-0.12107778340578079,0.5712430477142334
1782968843916717600,1.703717529296875,1.0576270818710327,-0.09103553742170334,0.5943653583526611
1782968843926643700,1.713643798828125,0.9648987054824829,-0.08574064075946808,0.6022653579711914
1782968843936569600,1.723569580078125,0.8646652698516846,-0.10874266922473907,0.5779839754104614
1782968843946496500,1.73349658203125,0.7732692956924438,-0.13189591467380524,0.5260578989982605
1782968843956422700,1.743422607421875,0.6999830007553101,-0.1686204969882965,0.4515797197818756
1782968843966348500,1.7533486328125,0.6191693544387817,-0.20541472733020782,0.35120490193367004
1782968843976275700,1.763275634765625,0.516153872013092,-0.22454658150672913,0.22629804909229279
1782968843986201600,1.77320166015625,0.3813619911670685,-0.22057127952575684,0.07725982367992401
1782968843996127500,1.78312744140625,0.23603348433971405,-0.16617266833782196,-0.04925926774740219
1782968844006054700,1.7930546875,0.06547480076551437,-0.058605462312698364,-0.09912589937448502
1782968844015980500,1.80298046875,-0.08565985411405563,0.1363925188779831,-0.07406102865934372
1782968844025906700,1.81290673828125,-0.19009971618652344,0.3368161618709564,-0.010916142724454403
1782968844035832600,1.82283251953125,-0.26220449805259705,0.5076337456703186,0.05739213526248932
1782968844045759700,1.832759765625,-0.3093475103378296,0.6132879853248596,0.11498912423849106
1782968844055685600,1.842685546875,-0.33775463700294495,0.6318667531013489,0.1478896141052246
1782968844065611500,1.852611572265625,-0.3450314402580261,0.568656325340271,0.12819208204746246
1782968844075538700,1.86253857421875,-0.36404749751091003,0.42041918635368347,0.04898932948708534
1782968844085464600,1.872464599609375,-0.4031493663787842,0.2549135684967041,-0.073182113468647
1782968844095390500,1.882390380859375,-0.4681669771671295,0.10630005598068237,-0.20305286347866058
1782968844105317600,1.892317626953125,-0.5419536232948303,0.03889545053243637,-0.32372891902923584
1782968844115243800,1.902243896484375,-0.5948050618171692,0.0453307144343853,-0.41360631585121155
1782968844125169400,1.91216943359375,-0.6872974038124084,0.029765870422124863,-0.4703654646873474
1782968844135096600,1.9220966796875,-0.7637975215911865,0.16886675357818604,-0.4458180367946625
1782968844145022700,1.932022705078125,-0.785721480846405,0.37352192401885986,-0.40507033467292786
1782968844154948400,1.9419482421875,-0.7992904782295227,0.4911269247531891,-0.3890795111656189
1782968844164874500,1.95187451171875,-0.8614718317985535,0.5180208683013916,-0.3822202682495117
1782968844174801700,1.9618017578125,-0.8410192131996155,0.645721971988678,-0.28415554761886597
1782968844184727600,1.9717275390625,-0.7884353995323181,0.7175647020339966,-0.25795137882232666
1782968844194653400,1.9816533203125,-0.7860317230224609,0.6350274682044983,-0.33574163913726807
1782968844204580600,1.99158056640625,-0.8495451807975769,0.48028820753097534,-0.45064425468444824
1782968844214506800,2.0015068359375,-0.9227468371391296,0.3413676619529724,-0.5394201278686523
1782968844224432400,2.011432373046875,-0.9034857749938965,0.3102952241897583,-0.6083655953407288
1782968844234359600,2.021359619140625,-0.8606204986572266,0.22298067808151245,-0.7373887896537781
1782968844244285700,2.03128564453125,-0.852959156036377,0.07784772664308548,-0.8731405138969421
1782968844254211600,2.041211669921875,-0.8667122721672058,-0.029904119670391083,-0.9798799157142639
1782968844264138800,2.051138671875,-0.8691306710243225,-0.16011592745780945,-1.055329442024231
1782968844274064600,2.061064697265625,-0.8748757839202881,-0.30532804131507874,-1.0751274824142456
1782968844283990500,2.070990478515625,-0.88832688331604,-0.4219798445701599,-1.0614562034606934
1782968844293916700,2.080916748046875,-0.9071361422538757,-0.5011703372001648,-1.0603471994400024
1782968844303843600,2.090843505859375,-0.9399478435516357,-0.5089518427848816,-1.0888971090316772
1782968844313769500,2.10076953125,-0.9906706809997559,-0.45362284779548645,-1.1337484121322632
1782968844323695600,2.110695556640625,-1.0697933435440063,-0.36325618624687195,-1.1873506307601929
1782968844333622800,2.120622802734375,-1.1651841402053833,-0.26369184255599976,-1.2471493482589722
1782968844343548400,2.13054833984375,-1.2652331590652466,-0.14827071130275726,-1.291699767112732
1782968844353474600,2.140474609375,-1.3636828660964966,-0.032993197441101074,-1.3008254766464233
1782968844363401700,2.150401611328125,-1.4374529123306274,0.08525994420051575,-1.2625752687454224
1782968844373327600,2.16032763671875,-1.4801832437515259,0.20100468397140503,-1.179485559463501
1782968844383253500,2.17025341796875,-1.4889719486236572,0.28822240233421326,-1.0547534227371216
1782968844393179600,2.1801796875,-1.4622777700424194,0.32931920886039734,-0.9097987413406372
1782968844403106800,2.19010693359375,-1.3912632465362549,0.3004550635814667,-0.7511539459228516
1782968844413032400,2.200032470703125,-1.2837486267089844,0.2391255497932434,-0.6009078025817871
1782968844422958600,2.20995849609375,-1.1457713842391968,0.18541306257247925,-0.4826575517654419
1782968844432885800,2.2198857421875,-0.9963797926902771,0.1532723307609558,-0.4167852997779846
1782968844442811400,2.229811279296875,-0.8448006510734558,0.13820016384124756,-0.4124315679073334
1782968844452737500,2.239737548828125,-0.7204098701477051,0.14004158973693848,-0.45035117864608765
1782968844462664700,2.249664794921875,-0.6497615575790405,0.16868841648101807,-0.5203712582588196
1782968844472590600,2.259590576171875,-0.6156172752380371,0.21616101264953613,-0.5888637900352478
1782968844482516500,2.2695166015625,-0.5756429433822632,0.28466761112213135,-0.6077693104743958
1782968844492443600,2.279443603515625,-0.47686508297920227,0.33860599994659424,-0.5421461462974548
1782968844502369500,2.28936962890625,-0.30115771293640137,0.3277565538883209,-0.3809679448604584
1782968844512295400,2.29929541015625,-0.09891130030155182,0.2751920819282532,-0.153790682554245
1782968844522221600,2.3092216796875,0.019374333322048187,0.2315884232521057,0.031420186161994934
1782968844532148500,2.3191484375,0.24810859560966492,0.15365584194660187,0.2955513894557953
1782968844542074600,2.32907470703125,0.41377905011177063,0.07793446630239487,0.5125673413276672
1782968844552000500,2.33900048828125,0.535605251789093,0.014938757754862309,0.6194519400596619
1782968844561927700,2.348927734375,0.6488473415374756,0.014972315169870853,0.6656745076179504
1782968844571853600,2.358853515625,0.7342411875724792,0.023693140596151352,0.6541570425033569
1782968844581779500,2.368779541015625,0.797396719455719,0.041760023683309555,0.6074473261833191
1782968844591706600,2.37870654296875,0.8508255481719971,0.06520790606737137,0.5487980246543884
1782968844601632500,2.388632568359375,0.8908962607383728,0.09267707914113998,0.5113584995269775
1782968844611558700,2.39855859375,0.9281582832336426,0.11313224583864212,0.5043091177940369
1782968844621484500,2.408484619140625,0.979160487651825,0.10505595058202744,0.5207921862602234
1782968844631411500,2.418411376953125,1.053308367729187,0.07928617298603058,0.5761512517929077
1782968844641337600,2.428337646484375,1.1493134498596191,0.03778453543782234,0.670342743396759
1782968844651263500,2.438263427734375,1.252049207687378,0.0027367258444428444,0.7820473909378052
1782968844661190400,2.4481904296875,1.3437684774398804,0.0015564127825200558,0.8767153024673462
1782968844671116500,2.458116455078125,1.3890509605407715,0.062473442405462265,0.9497905373573303
1782968844681042700,2.468042724609375,1.3795220851898193,0.16367116570472717,1.0117969512939453
1782968844690969600,2.477969482421875,1.3285466432571411,0.26267874240875244,1.0462781190872192
1782968844700895500,2.4878955078125,1.2600592374801636,0.33268260955810547,1.0508239269256592
1782968844710821600,2.497821533203125,1.1951712369918823,0.3238745331764221,1.0282357931137085
1782968844720748500,2.50774853515625,1.1581755876541138,0.23209774494171143,1.0136100053787231
1782968844730674400,2.51767431640625,1.1753860712051392,0.07908011972904205,0.9942184686660767
1782968844740600600,2.5276005859375,1.212017297744751,-0.11872883141040802,0.9497165083885193
1782968844750526700,2.537526611328125,1.237817406654358,-0.2892697751522064,0.8490758538246155
1782968844760454100,2.5474541015625,1.2278635501861572,-0.4075210690498352,0.7045796513557434
1782968844770380300,2.55738037109375,1.1652494668960571,-0.4736635088920593,0.5466510653495789
1782968844780306200,2.56730615234375,1.0552111864089966,-0.49052903056144714,0.4202742576599121
1782968844790233000,2.577233154296875,0.9296672344207764,-0.43856900930404663,0.3643295466899872
1782968844800159200,2.5871591796875,0.8001417517662048,-0.33354806900024414,0.39305680990219116
1782968844810085000,2.597085205078125,0.679128885269165,-0.19807885587215424,0.47485971450805664
1782968844820012000,2.607011962890625,0.5853070616722107,-0.08816221356391907,0.5596854090690613
1782968844829938200,2.616938232421875,0.530214786529541,-0.015247678384184837,0.6290494203567505
1782968844839864300,2.6268642578125,0.5035094022750854,-0.005372411571443081,0.6716229915618896
1782968844849790200,2.636790283203125,0.5233327746391296,-0.07152236253023148,0.7071158289909363
1782968844859717000,2.646717041015625,0.6033154726028442,-0.19112065434455872,0.7432985901832581
1782968844869643300,2.656643310546875,0.7097179293632507,-0.3036631643772125,0.7867122888565063
1782968844879569200,2.666569091796875,0.8024615049362183,-0.4016355276107788,0.8073459267616272
1782968844889496000,2.67649609375,0.8377613425254822,-0.4453567564487457,0.7908115386962891
1782968844899422200,2.686422119140625,0.8073352575302124,-0.42591407895088196,0.7420772910118103
1782968844909348400,2.696348388671875,0.7289137840270996,-0.3676557242870331,0.6398000717163086
1782968844919275300,2.706275146484375,0.6083612442016602,-0.28398051857948303,0.4961042106151581
1782968844929201200,2.716201171875,0.4755783975124359,-0.2020104080438614,0.3178730607032776
1782968844939127300,2.726127197265625,0.33062705397605896,-0.12811647355556488,0.11787205189466476
1782968844949054200,2.73605419921875,0.18538352847099304,-0.05976823717355728,-0.08908242732286453
1782968844958980000,2.74597998046875,0.044356901198625565,0.0034506795927882195,-0.26627424359321594
1782968844968906200,2.75590625,-0.08208081871271133,0.0692116990685463,-0.39742428064346313
1782968844978832100,2.76583203125,-0.16242438554763794,0.11836300045251846,-0.44478487968444824
1782968844988759300,2.77575927734375,-0.20335888862609863,0.1628643125295639,-0.39923763275146484
1782968844998685200,2.785685302734375,-0.20274583995342255,0.20039623975753784,-0.2796609103679657
1782968845008611300,2.795611328125,-0.1524912267923355,0.23242321610450745,-0.10983669012784958
1782968845018538200,2.805538330078125,-0.0674935057759285,0.26502588391304016,0.06460728496313095
1782968845028464000,2.815464111328125,0.021405555307865143,0.2668215036392212,0.20267188549041748
1782968845038390300,2.825390380859375,0.07593484222888947,0.20856380462646484,0.2795887887477875
1782968845048317200,2.835317138671875,0.08363533020019531,0.11474764347076416,0.2962508797645569
1782968845058243300,2.845243408203125,0.03548138588666916,-0.0021797753870487213,0.251112699508667
1782968845068169200,2.855169189453125,-0.05064789578318596,-0.09775830805301666,0.14335204660892487
1782968845078096100,2.86509619140625,-0.16578352451324463,-0.14439743757247925,-0.013166455551981926
1782968845088022300,2.875022216796875,-0.29689091444015503,-0.12494784593582153,-0.18042995035648346
1782968845097948200,2.8849482421875,-0.4343779385089874,-0.039388205856084824,-0.3291504681110382
1782968845107874000,2.8948740234375,-0.572044849395752,0.10098738968372345,-0.46376627683639526
1782968845117801200,2.90480126953125,-0.7114389538764954,0.2724473178386688,-0.5746584534645081
1782968845127727400,2.914727294921875,-0.8244409561157227,0.43158823251724243,-0.6509567499160767
1782968845137653000,2.924653076171875,-0.8862167000770569,0.5301185846328735,-0.6389062404632568
1782968845147580200,2.934580078125,-0.8780201077461243,0.5774677395820618,-0.5305880904197693
1782968845157506300,2.94450634765625,-0.811176598072052,0.5597574710845947,-0.36978933215141296
1782968845167432200,2.95443212890625,-0.7245209217071533,0.4956914186477661,-0.258588582277298
1782968845177359000,2.964359130859375,-0.6601778864860535,0.4102462828159332,-0.24273718893527985
1782968845187285200,2.97428515625,-0.6277115345001221,0.3166620135307312,-0.30966082215309143
1782968845197211400,2.98421142578125,-0.640062689781189,0.23197725415229797,-0.43376103043556213
1782968845207137000,2.994136962890625,-0.6962518692016602,0.1673816740512848,-0.6081532835960388
1782968845217064200,3.004064208984375,-0.765238881111145,0.11030587553977966,-0.7964539527893066
1782968845226990300,3.013990234375,-0.8319230079650879,0.055878009647130966,-0.9631068706512451
1782968845236916000,3.023916015625,-0.87285977602005,-0.008148375898599625,-1.09588623046875
1782968845246843100,3.033843017578125,-0.8976886868476868,-0.07310108095407486,-1.1862754821777344
1782968845256769300,3.043769287109375,-0.9125104546546936,-0.118163101375103,-1.2371162176132202
1782968845266695200,3.053695068359375,-0.9266455173492432,-0.13711434602737427,-1.2539175748825073
1782968845276622000,3.0636220703125,-0.9353788495063782,-0.12897039949893951,-1.2351443767547607
1782968845286548200,3.07354833984375,-0.9047880172729492,-0.08120459318161011,-1.184295415878296
1782968845296474000,3.08347412109375,-0.8660216927528381,0.00832289457321167,-1.0880415439605713
1782968845306401300,3.0934013671875,-0.8318652510643005,0.057215604931116104,-0.9655413627624512
1782968845316327200,3.1033271484375,-0.8226805329322815,0.09412755072116852,-0.850500226020813
1782968845326253000,3.113253173828125,-0.8378677368164062,0.13011282682418823,-0.7696632742881775
1782968845336179200,3.12317919921875,-0.8735204935073853,0.16528545320034027,-0.7585805058479309
1782968845346106000,3.133106201171875,-0.9279320240020752,0.20470409095287323,-0.8042663931846619
1782968845356032300,3.1430322265625,-0.9803704619407654,0.21631866693496704,-0.8660139441490173
1782968845365958100,3.152958251953125,-1.0203343629837036,0.18478772044181824,-0.8994232416152954
1782968845375885300,3.16288525390625,-1.0243419408798218,0.16930675506591797,-0.8752758502960205
1782968845385811200,3.172811279296875,-0.9735603928565979,0.18900220096111298,-0.813838541507721
1782968845395737000,3.182737060546875,-0.8748987913131714,0.22193139791488647,-0.7263692021369934
1782968845405664300,3.192664306640625,-0.746314287185669,0.23978875577449799,-0.6161704063415527
1782968845415590400,3.20259033203125,-0.600314736366272,0.21121490001678467,-0.49643173813819885
1782968845425516000,3.21251611328125,-0.46738380193710327,0.13085828721523285,-0.3806760013103485
1782968845435443200,3.222443115234375,-0.35643836855888367,-0.0028012427501380444,-0.29262498021125793
1782968845445369300,3.232369384765625,-0.2778569161891937,-0.1657104194164276,-0.22501108050346375
1782968845455295000,3.242294921875,-0.22539664804935455,-0.2616731524467468,-0.21689137816429138
1782968845465221000,3.25222119140625,-0.21850885450839996,-0.24366742372512817,-0.27936020493507385
1782968845475148300,3.262148193359375,-0.2520095407962799,-0.15276014804840088,-0.37695732712745667
1782968845485074200,3.27207421875,-0.3079184293746948,-0.05439428240060806,-0.4230342209339142
1782968845495000000,3.282,-0.42487967014312744,0.06950023025274277,-0.4861322343349457
1782968845504927200,3.29192724609375,-0.40398308634757996,0.09369383752346039,-0.5042960047721863
1782968845514853000,3.30185302734375,-0.2826553285121918,0.23770053684711456,-0.40949952602386475
1782968845524779000,3.311779052734375,-0.15746955573558807,0.30472567677497864,-0.27796974778175354
1782968845534706200,3.3217060546875,-0.055857978761196136,0.22391285002231598,-0.06535253673791885
1782968845544632300,3.33163232421875,0.03697684779763222,0.11624757945537567,0.2534303069114685
1782968845554558200,3.34155810546875,0.03890018165111542,0.0013446896336972713,0.620715320110321
1782968845564484000,3.351484130859375,-0.02777550369501114,-0.13210995495319366,0.8724542856216431
1782968845574411300,3.361411376953125,-0.11029966920614243,-0.3078482449054718,0.9638603329658508
1782968845584337200,3.371337158203125,-0.2247135043144226,-0.43042445182800293,0.9372192621231079
1782968845594263000,3.381262939453125,-0.2904725670814514,-0.4273034930229187,0.8610161542892456
1782968845604190200,3.391190185546875,-0.28015127778053284,-0.3111535608768463,0.7939018607139587
1782968845614116000,3.4011162109375,-0.2191276103258133,-0.10128821432590485,0.7627825736999512
1782968845624042200,3.411042236328125,-0.07704251259565353,0.13278236985206604,0.7658421993255615
1782968845633969200,3.42096923828125,0.11450641602277756,0.35678964853286743,0.7483537197113037
1782968845643895000,3.43089501953125,0.42183980345726013,0.44200825691223145,0.6734272241592407
1782968845653821200,3.4408212890625,0.7054235935211182,0.5231323838233948,0.5755179524421692
1782968845663748400,3.450748291015625,0.8973320126533508,0.5563868284225464,0.48441851139068604
1782968845673674000,3.460674072265625,1.0290498733520508,0.37895825505256653,0.49121037125587463
1782968845683600100,3.47060009765625,1.1775048971176147,0.035198185592889786,0.611197292804718
1782968845693526300,3.4805263671875,1.3271338939666748,-0.3135291635990143,0.7622805237770081
1782968845703453200,3.490453125,1.4648795127868652,-0.511467456817627,0.9052870273590088
1782968845713379000,3.500379150390625,1.4693483114242554,-0.5897271037101746,1.0070136785507202
1782968845723305200,3.51030517578125,1.3745555877685547,-0.7177250385284424,1.0402532815933228
1782968845733232400,3.520232421875,1.2619590759277344,-0.7465526461601257,1.0051213502883911
1782968845743158000,3.530157958984375,1.148395299911499,-0.6319701671600342,0.8929221034049988
1782968845753084200,3.540084228515625,1.045200228691101,-0.46133288741111755,0.7289400696754456
1782968845763010800,3.5500107421875,0.9914644360542297,-0.2510892450809479,0.5596359372138977
1782968845772936700,3.559936767578125,1.004984736442566,-0.0056722830049693584,0.4456915259361267
1782968845782862800,3.56986279296875,1.0396112203598022,0.18065878748893738,0.390451580286026
1782968845792788700,3.579788818359375,1.039345383644104,0.28624460101127625,0.35633543133735657
1782968845802716000,3.5897158203125,1.0636862516403198,0.29357674717903137,0.3823683261871338
1782968845812641800,3.599641845703125,1.0954843759536743,0.2001732885837555,0.4585754871368408
1782968845822567700,3.609567626953125,1.1069233417510986,0.0439213290810585,0.5322116613388062
1782968845832494800,3.619494873046875,1.0882529020309448,-0.12154006958007812,0.5949772596359253
1782968845842420700,3.629420654296875,1.041474461555481,-0.2658511698246002,0.6515166759490967
1782968845852347000,3.639346923828125,0.9817667007446289,-0.374315083026886,0.7017350792884827
1782968845862273800,3.649273681640625,0.9245539903640747,-0.43289732933044434,0.7436621785163879
1782968845872199700,3.65919970703125,0.8533560037612915,-0.4055463969707489,0.7258318066596985
1782968845882125800,3.669125732421875,0.7910008430480957,-0.3079582154750824,0.6962602734565735
1782968845892053000,3.679052978515625,0.7304033041000366,-0.17555570602416992,0.6785966157913208
1782968845901978600,3.688978515625,0.6657929420471191,-0.07721197605133057,0.7005311250686646
1782968845911904800,3.69890478515625,0.6004467010498047,-0.019377175718545914,0.7427148222923279
1782968845921831000,3.708830810546875,0.5234160423278809,-0.011668922379612923,0.7818491458892822
1782968845931757600,3.718757568359375,0.4324108064174652,-0.026910459622740746,0.792985200881958
1782968845941683700,3.72868359375,0.3271474540233612,-0.08295341581106186,0.7450288534164429
1782968845951609900,3.73860986328125,0.21610800921916962,-0.15939438343048096,0.6392757892608643
1782968845961536800,3.748536865234375,0.10567266494035721,-0.20634181797504425,0.4895826280117035
1782968845971462700,3.758462646484375,-0.005806722678244114,-0.20339369773864746,0.2920517027378082
1782968845981388800,3.768388916015625,-0.12025119364261627,-0.16238409280776978,0.07312730699777603
1782968845991316000,3.77831591796875,-0.22598640620708466,-0.09523142129182816,-0.1276039332151413
1782968846001241600,3.78824169921875,-0.3052179515361786,-0.006276552099734545,-0.2758733928203583
1782968846011167700,3.798167724609375,-0.34816035628318787,0.11465839296579361,-0.34861472249031067
1782968846021095000,3.808094970703125,-0.36952587962150574,0.2743160128593445,-0.446969211101532
1782968846031020800,3.818020751953125,-0.3166530728340149,0.42149853706359863,-0.479504257440567
1782968846040946700,3.82794677734375,-0.2153194099664688,0.4819485545158386,-0.41333213448524475
1782968846050872800,3.837872802734375,-0.15196894109249115,0.4741063416004181,-0.29326939582824707
1782968846060799700,3.8477998046875,-0.11890450119972229,0.3888104259967804,-0.17463484406471252
1782968846070725600,3.8577255859375,-0.11812338978052139,0.2389809936285019,-0.08720461279153824
1782968846080651800,3.86765185546875,-0.14911364018917084,0.06222401559352875,-0.055643606930971146
1782968846090578700,3.87757861328125,-0.20134195685386658,-0.1138298362493515,-0.074985072016716
1782968846100504800,3.8875048828125,-0.2709875702857971,-0.247774139046669,-0.15604187548160553
1782968846110430700,3.8974306640625,-0.36163491010665894,-0.31008249521255493,-0.2836081087589264
1782968846120357600,3.907357666015625,-0.45033130049705505,-0.29376864433288574,-0.43427228927612305
1782968846130283800,3.91728369140625,-0.5269666910171509,-0.23264536261558533,-0.560763418674469
1782968846140210000,3.9272099609375,-0.5968471765518188,-0.13233453035354614,-0.6497037410736084
1782968846150136800,3.93713671875,-0.6611228585243225,-0.024980124086141586,-0.7142310738563538
1782968846160062700,3.947062744140625,-0.7132163047790527,0.0773521438241005,-0.7552817463874817
1782968846169988900,3.95698876953125,-0.7564154267311096,0.17369146645069122,-0.777893602848053
1782968846179914800,3.966914794921875,-0.7881675362586975,0.2513549029827118,-0.7949250340461731
1782968846189841700,3.976841552734375,-0.8233042359352112,0.30215364694595337,-0.8328531980514526
1782968846199767800,3.986767822265625,-0.8522355556488037,0.28115230798721313,-0.809741199016571
1782968846209694000,3.99669384765625,-0.8873922228813171,0.19846753776073456,-0.7489641308784485
1782968846219620600,4.00662060546875,-0.9264799356460571,0.08556422591209412,-0.6906160116195679
1782968846229545000,4.016544921875,-0.9673858284950256,-0.014137862250208855,-0.6663082838058472
1782968846239471900,4.026471923828125,-1.002763271331787,-0.10052015632390976,-0.7029970288276672
1782968846249397800,4.036397705078125,-1.0319174528121948,-0.19044257700443268,-0.7907109260559082
1782968846259324000,4.046323974609375,-1.0604568719863892,-0.30306342244148254,-0.9324931502342224
1782968846269250800,4.056250732421875,-1.0889021158218384,-0.439909964799881,-1.0876595973968506
1782968846279176700,4.0661767578125,-1.0998413562774658,-0.6022536754608154,-1.2316195964813232
1782968846289102800,4.076102783203125,-1.0923415422439575,-0.7387606501579285,-1.3932665586471558
1782968846299029800,4.08602978515625,-1.0119651556015015,-0.8727067112922668,-1.450113296508789
1782968846308956000,4.095955810546875,-0.9130980372428894,-0.9423736333847046,-1.4793713092803955
1782968846318881800,4.1058818359375,-0.829704225063324,-0.8768432140350342,-1.4676833152770996
1782968846328808000,4.115807861328125,-0.7682459354400635,-0.6815903782844543,-1.4174423217773438
1782968846338734800,4.12573486328125,-0.7490677237510681,-0.3824039101600647,-1.3294225931167603
1782968846348660700,4.13566064453125,-0.7843290567398071,-0.043435946106910706,-1.178273320198059
1782968846358587000,4.1455869140625,-0.8494284749031067,0.2579512298107147,-0.9909693002700806
1782968846368513800,4.155513671875,-0.9046512842178345,0.48795780539512634,-0.796088457107544
1782968846378440000,4.16543994140625,-0.9190388917922974,0.6364319324493408,-0.6305224895477295
1782968846388365800,4.17536572265625,-0.8912778496742249,0.6875358819961548,-0.5426748991012573
1782968846398292700,4.185292724609375,-0.8430656790733337,0.6753014922142029,-0.5090140104293823
1782968846408219000,4.195218994140625,-0.8013653755187988,0.6221932768821716,-0.4999549984931946
1782968846418144800,4.205144775390625,-0.7497538924217224,0.5324927568435669,-0.49940401315689087
1782968846428070700,4.215070556640625,-0.675280749797821,0.44873496890068054,-0.49536746740341187
1782968846437997800,4.224997802734375,-0.5839260816574097,0.40816205739974976,-0.5084152817726135
1782968846447924000,4.234924072265625,-0.4874861240386963,0.5166632533073425,-0.5128316283226013
1782968846457849900,4.244849853515625,-0.32528021931648254,0.3993052542209625,-0.5005866885185242
1782968846467776800,4.25477685546875,-0.12358678877353668,0.4275243580341339,-0.39102473855018616
1782968846477703000,4.264702880859375,0.03847748413681984,0.6106747388839722,-0.31918731331825256
1782968846487628800,4.27462890625,0.16217944025993347,0.6680001020431519,-0.29818400740623474
1782968846497555700,4.2845556640625,0.2542097270488739,0.6057721376419067,-0.20255954563617706
1782968846507481900,4.29448193359375,0.3086002767086029,0.41931599378585815,-0.05748651549220085
1782968846517408000,4.304407958984375,0.3618451952934265,0.16833536326885223,0.10389255732297897
1782968846527334700,4.314334716796875,0.43062904477119446,-0.059628039598464966,0.2592352628707886
1782968846537260800,4.3242607421875,0.5055037140846252,-0.19403286278247833,0.38008978962898254
1782968846547187000,4.33418701171875,0.5554102659225464,-0.17848266661167145,0.46954163908958435
1782968846557112600,4.344112548828125,0.5573349595069885,-0.0417068675160408,0.5320195555686951
1782968846567039700,4.354039794921875,0.5119911432266235,0.13853693008422852,0.5597425699234009
1782968846576966000,4.3639658203125,0.4803255796432495,0.31046491861343384,0.58351731300354
1782968846586891800,4.373891845703125,0.509509265422821,0.4397299587726593,0.5977527499198914
1782968846596818700,4.383818603515625,0.5783591866493225,0.488079696893692,0.6037886738777161
1782968846606744800,4.393744873046875,0.6348671913146973,0.4515821635723114,0.6134889721870422
1782968846616670700,4.403670654296875,0.6539687514305115,0.35216283798217773,0.6532802581787109
1782968846626598000,4.413597900390625,0.6372693777084351,0.23611263930797577,0.6745812892913818
1782968846636525800,4.42352587890625,0.6111398339271545,0.04289377108216286,0.7191706895828247
1782968846646453000,4.433452880859375,0.6812153458595276,0.056291598826646805,0.8106689453125
1782968846656378600,4.443378662109375,0.7380185127258301,-0.00400457251816988,0.8639021515846252
1782968846666304800,4.4533046875,0.7557032704353333,-0.06255976110696793,0.8885329365730286
1782968846676231000,4.46323095703125,0.7668175101280212,-0.04607288911938667,0.9153689742088318
1782968846686157800,4.47315771484375,0.8444398641586304,0.10781414061784744,0.9434275031089783
1782968846696083700,4.483083740234375,0.8910474181175232,0.1914592683315277,0.9496592879295349
1782968846706009900,4.493009765625,0.8981998562812805,0.2336975485086441,0.946873664855957
1782968846715937000,4.50293701171875,0.9638014435768127,0.3379603624343872,0.9772685766220093
1782968846725862700,4.512862548828125,1.0608315467834473,0.3537934124469757,1.0067851543426514
1782968846735788800,4.522788818359375,1.1309568881988525,0.24816887080669403,1.0341248512268066
1782968846745716000,4.532716064453125,1.1731466054916382,0.08396526426076889,1.0354182720184326
1782968846755641300,4.542641357421875,1.2165589332580566,-0.0838552713394165,1.0190719366073608
1782968846765567000,4.55256689453125,1.2367987632751465,-0.3013332486152649,0.9533105492591858
1782968846775494100,4.562494140625,1.216971516609192,-0.5605795979499817,0.8583618998527527
1782968846785420300,4.572420166015625,1.1480424404144287,-0.7639545798301697,0.7444164156913757
1782968846795346200,4.58234619140625,1.0337228775024414,-0.8806275725364685,0.6415322422981262
1782968846805273000,4.592273193359375,0.8800371885299683,-0.8966771364212036,0.5475165247917175
1782968846815199200,4.60219921875,0.7122635841369629,-0.7909411787986755,0.4296375811100006
1782968846825125000,4.612125,0.5605523586273193,-0.6320734620094299,0.35104289650917053
1782968846835051000,4.622051025390625,0.4271808862686157,-0.4645436406135559,0.28674688935279846
1782968846844978200,4.631978271484375,0.3245599865913391,-0.2861938774585724,0.20449569821357727
1782968846854904000,4.641904052734375,0.274964302778244,-0.11646933108568192,0.10321623086929321
1782968846864830200,4.651830322265625,0.26925501227378845,0.010987159796059132,0.04418966546654701
1782968846874757000,4.661757080078125,0.29593926668167114,0.057024769484996796,0.017604298889636993
1782968846884683000,4.67168310546875,0.31532812118530273,0.004252367187291384,0.03455478698015213
1782968846894609200,4.681609130859375,0.32517313957214355,-0.1116795614361763,0.09700210392475128
1782968846904536300,4.691536376953125,0.3238407373428345,-0.2439688891172409,0.16429539024829865
1782968846914462200,4.701462158203125,0.32197511196136475,-0.3913946747779846,0.24933253228664398
1782968846924388000,4.71138818359375,0.32703697681427,-0.5633968114852905,0.34720686078071594
1782968846934315300,4.721315185546875,0.3150064945220947,-0.6753761768341064,0.39961010217666626
1782968846944241400,4.731241455078125,0.2817627787590027,-0.688848614692688,0.38651612401008606
1782968846954167000,4.7411669921875,0.21709328889846802,-0.640002965927124,0.3215327560901642
1782968846964093200,4.75109326171875,0.1096549853682518,-0.539526641368866,0.2238597422838211
1782968846974020400,4.761020263671875,-0.026108909398317337,-0.41301894187927246,0.10714205354452133
1782968846983946000,4.770946044921875,-0.16906660795211792,-0.2920278012752533,-0.017159923911094666
1782968846993872100,4.7808720703125,-0.29619431495666504,-0.1797504872083664,-0.11898138374090195
1782968847003799300,4.79079931640625,-0.39636802673339844,-0.08559469133615494,-0.18642672896385193
1782968847013725200,4.80072509765625,-0.48094043135643005,-0.0027117969002574682,-0.21390490233898163
1782968847023651000,4.810651123046875,-0.5575805902481079,0.06765983253717422,-0.20565523207187653
1782968847033578200,4.820578125,-0.6152328848838806,0.13595309853553772,-0.1628633290529251
1782968847043504000,4.830504150390625,-0.6324992179870605,0.19099290668964386,-0.08820320665836334
1782968847053430000,4.840429931640625,-0.6190541386604309,0.2102476805448532,-0.009272764436900616
1782968847063356200,4.850356201171875,-0.5829318165779114,0.18611492216587067,0.047801706939935684
1782968847073283000,4.860282958984375,-0.5380727648735046,0.12813535332679749,0.11176592111587524
1782968847083209200,4.870209228515625,-0.4992150664329529,0.0592188686132431,0.16346001625061035
1782968847093135000,4.880135009765625,-0.48452505469322205,-0.043651241809129715,0.18902625143527985
1782968847103062300,4.890062255859375,-0.5077601075172424,-0.1448148787021637,0.18556706607341766
1782968847112988200,4.89998828125,-0.5489892363548279,-0.21273282170295715,0.14481258392333984
1782968847122914000,4.9099140625,-0.6157645583152771,-0.23091955482959747,0.06315074861049652
1782968847132841200,4.91984130859375,-0.6766449213027954,-0.2233714461326599,-0.052227865904569626
1782968847142767000,4.92976708984375,-0.7306482195854187,-0.149488165974617,-0.18719100952148438
1782968847152693200,4.939693359375,-0.7806738615036011,0.001850120723247528,-0.30771803855895996
1782968847162620200,4.9496201171875,-0.830369770526886,0.20849810540676117,-0.4081335663795471
1782968847172546000,4.959546142578125,-0.8622844219207764,0.3994646668434143,-0.48391181230545044
1782968847182472200,4.96947216796875,-0.8524085879325867,0.5328390002250671,-0.5159030556678772
1782968847192398000,4.979398193359375,-0.8022772073745728,0.5908995270729065,-0.5014702677726746
1782968847202325000,4.989324951171875,-0.7575235366821289,0.5563734769821167,-0.48486918210983276
1782968847212251100,4.999251220703125,-0.7132582068443298,0.47172603011131287,-0.5110300183296204
1782968847222177300,5.00917724609375,-0.6804952025413513,0.32564473152160645,-0.526676595211029
1782968847232104000,5.01910400390625,-0.681105375289917,0.1418599933385849,-0.5713208913803101
1782968847242030000,5.029030029296875,-0.7151198387145996,-0.039657339453697205,-0.6519571542739868
1782968847251956200,5.038956298828125,-0.7684765458106995,-0.1737150400876999,-0.7487127184867859
1782968847261883100,5.048883056640625,-0.8082391619682312,-0.24217399954795837,-0.8467796444892883
1782968847271809000,5.05880908203125,-0.8257057666778564,-0.22431404888629913,-0.9517795443534851
1782968847281735200,5.068735107421875,-0.8445484042167664,-0.15211547911167145,-1.0627011060714722
1782968847291662300,5.078662353515625,-0.8995625376701355,-0.057003192603588104,-1.1720037460327148
1782968847301588000,5.088587890625,-0.9723568558692932,0.027436325326561928,-1.2728805541992188
1782968847311514000,5.09851416015625,-1.0366777181625366,0.0643957108259201,-1.3554831743240356
1782968847321440300,5.108440185546875,-1.0547107458114624,0.10046077519655228,-1.465447187423706
1782968847331367200,5.1183671875,-1.036873459815979,0.08173658698797226,-1.5163670778274536
1782968847341293000,5.12829296875,-0.9936426877975464,0.003525400534272194,-1.499394178390503
1782968847351219200,5.13821923828125,-0.925911009311676,0.0005997661501169205,-1.3984699249267578
1782968847361146000,5.14814599609375,-0.8507302403450012,-0.00010703690350055695,-1.2667641639709473
1782968847371072000,5.158072021484375,-0.761821448802948,-0.030887357890605927,-1.1117944717407227
1782968847380998100,5.167998046875,-0.6531703472137451,0.003583799581974745,-0.8989982604980469
1782968847390925000,5.177925048828125,-0.5471731424331665,0.06472118943929672,-0.6770513653755188
1782968847400851200,5.187851318359375,-0.48593345284461975,0.09690708667039871,-0.5258082747459412
1782968847410777000,5.197777099609375,-0.4501662254333496,0.1326674520969391,-0.4494433104991913
1782968847420704000,5.2077041015625,-0.40894606709480286,0.1764351725578308,-0.41535165905952454
1782968847430630100,5.217630126953125,-0.3464237153530121,0.24924549460411072,-0.40664738416671753
1782968847440556300,5.227556396484375,-0.2855910062789917,0.344711035490036,-0.4068649709224701
1782968847450482200,5.237482177734375,-0.24831770360469818,0.454204261302948,-0.41885650157928467
1782968847460409000,5.2474091796875,-0.20474280416965485,0.5459783673286438,-0.4803880453109741
1782968847470335200,5.257335205078125,-0.16455212235450745,0.605711042881012,-0.5574061274528503
1782968847480261000,5.26726123046875,-0.12467421591281891,0.5551030039787292,-0.5620461702346802
1782968847490188000,5.27718798828125,-0.06737574189901352,0.3648383617401123,-0.4213710129261017
1782968847500114200,5.2871142578125,0.036935217678546906,0.06357599049806595,-0.18113282322883606
1782968847510040300,5.297040283203125,0.19755962491035461,-0.21699970960617065,0.08732857555150986
1782968847519967000,5.306967041015625,0.40647634863853455,-0.3640730679035187,0.3500078618526459
1782968847529893000,5.31689306640625,0.6257308125495911,-0.36299556493759155,0.5680928826332092
1782968847539819300,5.3268193359375,0.832246720790863,-0.25600388646125793,0.726425290107727
1782968847549745200,5.3367451171875,0.9955915212631226,-0.07783021777868271,0.7965943813323975
1782968847559672000,5.346672119140625,1.1041052341461182,0.12073054164648056,0.7595162391662598
1782968847569598200,5.35659814453125,1.1621360778808594,0.24957837164402008,0.7614014148712158
1782968847579524400,5.3665244140625,1.1774061918258667,0.2667906880378723,0.7754610776901245
1782968847589451000,5.376450927734375,1.1425259113311768,0.19905848801136017,0.7772639989852905
1782968847599377200,5.386377197265625,1.0847822427749634,0.08400141447782516,0.7890130877494812
1782968847609303300,5.39630322265625,1.0353600978851318,-0.04025837406516075,0.7908198833465576
1782968847619230200,5.406230224609375,1.0345736742019653,-0.1387910693883896,0.7871734499931335
1782968847629156000,5.416156005859375,1.095544457435608,-0.1963917464017868,0.7915257215499878
1782968847639082200,5.426082275390625,1.1803832054138184,-0.22332189977169037,0.8083526492118835
1782968847649009200,5.436009033203125,1.253326416015625,-0.1924833357334137,0.8390065431594849
1782968847658935000,5.44593505859375,1.3020857572555542,-0.12407045066356659,0.8623971343040466
1782968847668861200,5.455861083984375,1.3040317296981812,-0.032579947263002396,0.876316487789154
1782968847678787300,5.465787353515625,1.2553974390029907,0.049802277237176895,0.8512668013572693
1782968847688714200,5.47571435546875,1.1648434400558472,0.1115623489022255,0.778022289276123
1782968847698640100,5.48564013671875,1.0389922857284546,0.1457536220550537,0.6658027768135071
1782968847708566300,5.495566162109375,0.8858979940414429,0.15466462075710297,0.5386708974838257
1782968847718493200,5.5054931640625,0.6939610242843628,0.11227136105298996,0.39313584566116333
1782968847728419000,5.515419189453125,0.4768461287021637,0.00863722525537014,0.27071240544319153
1782968847738345200,5.52534521484375,0.3256390392780304,-0.1107189953327179,0.19415637850761414
1782968847748272000,5.535272216796875,0.27551138401031494,-0.24584904313087463,0.18120890855789185
1782968847758198500,5.545198486328125,0.28753742575645447,-0.39495888352394104,0.25997215509414673
1782968847768124700,5.555124755859375,0.3247789442539215,-0.5345405340194702,0.4109886884689331
1782968847778051600,5.565051513671875,0.37883952260017395,-0.6462766528129578,0.5796149373054504
1782968847787977500,5.5749775390625,0.42701786756515503,-0.7079926133155823,0.7106063365936279
1782968847797903600,5.584903564453125,0.44215261936187744,-0.6964027881622314,0.7669417858123779
1782968847807829500,5.59482958984375,0.4116511940956116,-0.6061373949050903,0.7433255314826965
1782968847817756700,5.604756591796875,0.34931594133377075,-0.4675493538379669,0.6617031097412109
1782968847827682600,5.6146826171875,0.2770771384239197,-0.3095439672470093,0.5343210697174072
1782968847837608400,5.6246083984375,0.2007826417684555,-0.15675896406173706,0.36370962858200073
1782968847847535600,5.63453564453125,0.10518169403076172,-0.02345683053135872,0.15971685945987701
1782968847857461500,5.64446142578125,-0.0086617860943079,0.04682531952857971,-0.03791819140315056
1782968847867387600,5.6543876953125,-0.04588840529322624,0.10135749727487564,-0.17527762055397034
1782968847877314600,5.664314453125,0.05135106295347214,0.09788074344396591,-0.21544528007507324
1782968847887240700,5.67424072265625,0.21633659303188324,0.0802537351846695,-0.1574709564447403
1782968847897166600,5.68416650390625,0.3951050043106079,0.04798740893602371,-0.020174618810415268
1782968847907093500,5.694093505859375,0.5357210636138916,-0.02937890589237213,0.17198991775512695
1782968847917019600,5.70401953125,0.599890410900116,-0.15985968708992004,0.4097960889339447
1782968847926945500,5.713945556640625,0.5958769917488098,-0.32488638162612915,0.63127201795578
1782968847936871400,5.723871337890625,0.5619643330574036,-0.4700595736503601,0.7558773159980774
1782968847946798600,5.733798583984375,0.5054851174354553,-0.5555464029312134,0.7462901473045349
1782968847956724700,5.743724853515625,0.4130636155605316,-0.5830217003822327,0.5909823179244995
1782968847966650400,5.753650390625,0.284354567527771,-0.5486202836036682,0.3391971290111542
1782968847976577500,5.76357763671875,0.1363227665424347,-0.4349704384803772,0.07478997111320496
1782968847986503700,5.773503662109375,-0.00009125663200393319,-0.26519596576690674,-0.11947309225797653
1782968847996429600,5.7834296875,-0.10861267894506454,-0.07890890538692474,-0.21476605534553528
1782968848006356500,5.7933564453125,-0.18168741464614868,0.12328189611434937,-0.2145005613565445
1782968848016282600,5.80328271484375,-0.22806663811206818,0.2955341041088104,-0.14604134857654572
1782968848026208500,5.81320849609375,-0.23887668550014496,0.3979954719543457,-0.05951503664255142
1782968848036135400,5.823135498046875,-0.23403745889663696,0.4227184057235718,0.023927656933665276
1782968848046061600,5.8330615234375,-0.23022468388080597,0.37253043055534363,0.07413779944181442
1782968848055987700,5.84298779296875,-0.24369601905345917,0.2937344014644623,0.07999222725629807
1782968848065913300,5.852913330078125,-0.27550897002220154,0.21743300557136536,0.03411918878555298
1782968848075840500,5.862840576171875,-0.3257513642311096,0.16257429122924805,-0.057905811816453934
1782968848085766700,5.8727666015625,-0.40189629793167114,0.16029822826385498,-0.17672960460186005
1782968848095692500,5.882692626953125,-0.4833892583847046,0.21983559429645538,-0.30292510986328125
1782968848105619500,5.892619384765625,-0.5678460597991943,0.3101336658000946,-0.40725427865982056
1782968848115545600,5.902545654296875,-0.6317960023880005,0.4090983271598816,-0.47886908054351807
1782968848125471500,5.912471435546875,-0.6689335703849792,0.48458921909332275,-0.5437107682228088
1782968848135398700,5.922398681640625,-0.7505282759666443,0.4184615910053253,-0.6654159426689148
1782968848145324500,5.932324462890625,-0.7618826627731323,0.49584123492240906,-0.6583442687988281
1782968848155250400,5.94225048828125,-0.7117047309875488,0.5946179628372192,-0.6444327235221863
1782968848165177600,5.952177490234375,-0.6578315496444702,0.6397037506103516,-0.6034569144248962
1782968848175103500,5.962103515625,-0.66606605052948,0.6284332275390625,-0.5699295997619629
1782968848185029600,5.972029541015625,-0.7290930151939392,0.6049594283103943,-0.568231999874115
1782968848194955500,5.98195556640625,-0.8183581233024597,0.46931692957878113,-0.6140674352645874
1782968848204882700,5.991882568359375,-0.8516416549682617,0.39134305715560913,-0.6116582751274109
1782968848214808600,6.00180859375,-0.8563746213912964,0.30092713236808777,-0.5927839279174805
1782968848224734500,6.011734375,-0.851195216178894,0.17216041684150696,-0.6169174909591675
1782968848234661600,6.02166162109375,-0.8644859790802002,0.06151992082595825,-0.7022417187690735
1782968848244587800,6.031587890625,-0.8764505982398987,-0.05496739223599434,-0.8230984807014465
1782968848254513400,6.041513427734375,-0.8563055992126465,-0.1502518355846405,-0.9466891288757324
1782968848264440600,6.051440673828125,-0.8531403541564941,-0.2501196265220642,-1.035080909729004
1782968848274366700,6.06136669921875,-0.8693262338638306,-0.3687101900577545,-1.0812796354293823
1782968848284292400,6.071292236328125,-0.8663361072540283,-0.48344185948371887,-1.0772274732589722
1782968848294218500,6.081218505859375,-0.8328322172164917,-0.5915424823760986,-1.0185370445251465
1782968848304145700,6.091145751953125,-0.7917871475219727,-0.6489474773406982,-0.9347293376922607
1782968848314071600,6.101071533203125,-0.7505142688751221,-0.6037874817848206,-0.8673936724662781
1782968848323997400,6.11099755859375,-0.727486789226532,-0.49090173840522766,-0.8464398384094238
1782968848333924600,6.120924560546875,-0.707690954208374,-0.3293996751308441,-0.8739274144172668
1782968848343850500,6.1308505859375,-0.6806499361991882,-0.14846591651439667,-0.904559314250946
1782968848353776400,6.1407763671875,-0.6603841185569763,0.027015889063477516,-0.9028232097625732
1782968848363703600,6.15070361328125,-0.6453211307525635,0.1749958097934723,-0.8583823442459106
1782968848373629700,6.160629638671875,-0.612635612487793,0.31031662225723267,-0.8424733877182007
1782968848383555600,6.1705556640625,-0.5682340860366821,0.40209686756134033,-0.7742315530776978
1782968848393482500,6.180482421875,-0.5366194844245911,0.4328063130378723,-0.6580075025558472
1782968848403408600,6.19040869140625,-0.5336625576019287,0.4274446368217468,-0.5354214906692505
1782968848413334500,6.20033447265625,-0.5186108946800232,0.3873523473739624,-0.42647024989128113
1782968848423260400,6.210260498046875,-0.48356392979621887,0.3261547088623047,-0.3482215702533722
1782968848433187600,6.2201875,-0.43013396859169006,0.26937371492385864,-0.29251545667648315
1782968848443113500,6.230113525390625,-0.34899863600730896,0.23562027513980865,-0.2804097831249237
1782968848453039600,6.24003955078125,-0.22155015170574188,0.21415892243385315,-0.31987836956977844
1782968848462966500,6.249966552734375,-0.07582759857177734,0.1962907761335373,-0.3717164993286133
1782968848472892400,6.259892333984375,0.0774248018860817,0.17422355711460114,-0.381078839302063
1782968848482818600,6.269818603515625,0.21213771402835846,0.1347401887178421,-0.29977890849113464
1782968848492745700,6.279745849609375,0.3348649740219116,0.07775652408599854,-0.10670480877161026
1782968848502671400,6.28967138671875,0.4403102695941925,0.04719306156039238,0.1114116683602333
1782968848512597500,6.299597412109375,0.5488580465316772,0.04985276237130165,0.34828492999076843
1782968848522524700,6.309524658203125,0.6431254744529724,0.030437709763646126,0.5859403610229492
1782968848532450600,6.319450439453125,0.6840664744377136,0.032007113099098206,0.7154064774513245
1782968848542376400,6.32937646484375,0.7011306285858154,0.005032025743275881,0.750423789024353
1782968848552302600,6.339302490234375,0.7130160331726074,-0.06969787180423737,0.7223700284957886
1782968848562229800,6.349229736328125,0.7508354187011719,-0.16917374730110168,0.6650190353393555
1782968848572155400,6.3591552734375,0.8100473284721375,-0.25162628293037415,0.6039186716079712
1782968848582081500,6.36908154296875,0.8719214797019958,-0.29130372405052185,0.5776477456092834
1782968848592008700,6.3790087890625,0.9326857328414917,-0.27875491976737976,0.6066176295280457
1782968848601934300,6.388934326171875,0.9867281317710876,-0.24377216398715973,0.6817923188209534
1782968848611860500,6.398860595703125,1.042526125907898,-0.18572457134723663,0.7914706468582153
1782968848621787600,6.40878759765625,1.1096222400665283,-0.08224847167730331,0.9130109548568726
1782968848631713500,6.418713623046875,1.155297040939331,0.01933940313756466,1.02117121219635
1782968848641639400,6.428639404296875,1.1823620796203613,0.0805487334728241,1.1068997383117676
1782968848651566600,6.438566650390625,1.1923880577087402,0.13080552220344543,1.1845346689224243
1782968848661492500,6.448492431640625,1.2155860662460327,0.1552429497241974,1.224951148033142
1782968848671418400,6.45841845703125,1.250246524810791,0.15081250667572021,1.2195366621017456
1782968848681344500,6.468344482421875,1.3080525398254395,0.13081172108650208,1.1842668056488037
1782968848691271400,6.478271484375,1.4005323648452759,0.07181310653686523,1.1377036571502686
1782968848701197600,6.488197509765625,1.5081532001495361,-0.03801477700471878,1.0954453945159912
1782968848711123500,6.49812353515625,1.6074949502944946,-0.18438051640987396,1.0499634742736816
1782968848721050600,6.508050537109375,1.6611522436141968,-0.36695584654808044,0.9999175667762756
1782968848730976500,6.5179765625,1.654256820678711,-0.563616156578064,0.9494235515594482
1782968848740902700,6.527902587890625,1.5787793397903442,-0.7472348809242249,0.8877000212669373
1782968848750829600,6.53782958984375,1.4769123792648315,-0.8722963929176331,0.8118683695793152
1782968848760756200,6.547756103515625,1.38282310962677,-0.947482705116272,0.7310214638710022
1782968848770682000,6.55768212890625,1.3001340627670288,-0.9572597146034241,0.6836991906166077
1782968848780609000,6.567609130859375,1.2243574857711792,-0.9215636253356934,0.6746192574501038
1782968848790535200,6.57753515625,1.1756776571273804,-0.8756754994392395,0.6754096746444702
1782968848800461000,6.5874609375,1.1536037921905518,-0.8257399201393127,0.6767786145210266
1782968848810387200,6.59738720703125,1.1651355028152466,-0.7807886600494385,0.6724587082862854
1782968848820314000,6.607314208984375,1.2007547616958618,-0.7328740358352661,0.6523311734199524
1782968848830240300,6.617240234375,1.2285315990447998,-0.6830377578735352,0.6197090148925781
1782968848840166100,6.627166259765625,1.2267935276031494,-0.6266860365867615,0.580398678779602
1782968848850093000,6.637093017578125,1.1817458868026733,-0.5672442317008972,0.5499861836433411
1782968848860019200,6.647019287109375,1.1018658876419067,-0.503302276134491,0.5466434955596924
1782968848869945300,6.6569453125,1.0034911632537842,-0.43454983830451965,0.5645761489868164
1782968848879872000,6.6668720703125,0.906191349029541,-0.3490094244480133,0.5808733105659485
1782968848889798100,6.676798095703125,0.801060140132904,-0.265911340713501,0.5681194067001343
1782968848899724300,6.686724365234375,0.6887580752372742,-0.18422794342041016,0.5282460451126099
1782968848909651200,6.696651123046875,0.5580072402954102,-0.09760304540395737,0.4632873237133026
1782968848919577000,6.7065771484375,0.4182455241680145,-0.029505139216780663,0.36189132928848267
1782968848929503200,6.716503173828125,0.2904849052429199,-0.03329028934240341,0.22117497026920319
1782968848939429400,6.726429443359375,0.15629999339580536,-0.0862756296992302,0.07689603418111801
1782968848949356000,6.73635595703125,0.023456469178199768,-0.12985213100910187,-0.03286828473210335
1782968848959282200,6.7462822265625,-0.09901098906993866,-0.1386559009552002,-0.09919530153274536
1782968848969208300,6.756208251953125,-0.21039235591888428,-0.10041316598653793,-0.12939848005771637
1782968848979135200,6.76613525390625,-0.28696590662002563,0.0166656281799078,-0.11961974203586578
1782968848989061000,6.77606103515625,-0.3267737925052643,0.18650366365909576,-0.07867150753736496
1782968848998987300,6.7859873046875,-0.3355470895767212,0.3655740022659302,-0.014422968029975891
1782968849008914200,6.7959140625,-0.3341289460659027,0.49460896849632263,0.044168442487716675
1782968849018840000,6.805840087890625,-0.3550091087818146,0.5644482374191284,0.09211431443691254
1782968849028766200,6.81576611328125,-0.40527015924453735,0.5647377371788025,0.11620660126209259
1782968849038692400,6.8256923828125,-0.4902811050415039,0.48669078946113586,0.07787568122148514
1782968849048619300,6.835619384765625,-0.5838105082511902,0.35680124163627625,-0.027064576745033264
1782968849058545200,6.845545166015625,-0.6833134889602661,0.2194165289402008,-0.17366597056388855
1782968849068471300,6.85547119140625,-0.8022438287734985,0.09682349860668182,-0.34885215759277344
1782968849078398200,6.865398193359375,-0.9336732625961304,0.0077460166066884995,-0.5309184789657593
1782968849088324000,6.875323974609375,-1.0512616634368896,-0.01526609156280756,-0.6915880441665649
1782968849098250200,6.885250244140625,-1.137395977973938,0.05981115996837616,-0.7881622314453125
1782968849108177200,6.89517724609375,-1.1863517761230469,0.2458319067955017,-0.8156306147575378
1782968849118103300,6.905103271484375,-1.2123258113861084,0.4507744014263153,-0.7895875573158264
1782968849128029200,6.915029296875,-1.2217117547988892,0.6495509147644043,-0.7239941358566284
1782968849137956000,6.9249560546875,-1.2384438514709473,0.8006449937820435,-0.6437379717826843
1782968849147882200,6.93488232421875,-1.2676390409469604,0.8436345458030701,-0.5919216871261597
1782968849157808000,6.94480810546875,-1.2851519584655762,0.7966140508651733,-0.581581175327301
1782968849167735000,6.954735107421875,-1.2742849588394165,0.6881653666496277,-0.5994917154312134
1782968849177661200,6.9646611328125,-1.2584609985351562,0.5448781847953796,-0.631274402141571
1782968849187587300,6.97458740234375,-1.246129035949707,0.4159125089645386,-0.6513530015945435
1782968849197513200,6.98451318359375,-1.2402883768081665,0.303745836019516,-0.6800042986869812
1782968849207440100,6.994440185546875,-1.2346597909927368,0.1980324536561966,-0.7271955013275146
1782968849217366300,7.0043662109375,-1.2314804792404175,0.11704309284687042,-0.8052629232406616
1782968849227292200,7.014292236328125,-1.2275981903076172,0.06124907359480858,-0.9076905250549316
1782968849237219000,7.024218994140625,-1.2246862649917603,0.02191418595612049,-1.0115971565246582
1782968849247145200,7.034145263671875,-1.226057529449463,-0.003485713619738817,-1.0844089984893799
1782968849257071400,7.0440712890625,-1.209253191947937,-0.03136923909187317,-1.1067091226577759
1782968849266998000,7.053998046875,-1.1754711866378784,-0.06435941159725189,-1.0762498378753662
1782968849276924200,7.063924072265625,-1.131269931793213,-0.11253233999013901,-1.0034599304199219
1782968849286850300,7.073850341796875,-1.0909507274627686,-0.15085071325302124,-0.9177054762840271
1782968849296776000,7.08377587890625,-1.054082989692688,-0.19091103971004486,-0.8440490961074829
1782968849306703000,7.093703125,-1.0263805389404297,-0.22914338111877441,-0.7991601824760437
1782968849316629200,7.103629150390625,-0.9950913190841675,-0.2514722943305969,-0.7680890560150146
1782968849326555100,7.11355517578125,-0.962922990322113,-0.2325364351272583,-0.7372301816940308
1782968849336482300,7.123482421875,-0.9390509724617004,-0.1726759523153305,-0.6938437819480896
1782968849346408200,7.133408203125,-0.9081940054893494,-0.0959063395857811,-0.6303891539573669
1782968849356334300,7.143334228515625,-0.8726603984832764,-0.006262096576392651,-0.550053596496582
1782968849366261200,7.15326123046875,-0.8260742425918579,0.1152890995144844,-0.47192898392677307
1782968849376187100,7.163187255859375,-0.7729142308235168,0.23445594310760498,-0.4005172848701477
1782968849386113300,7.17311328125,-0.7128067016601562,0.3390723466873169,-0.34034234285354614
1782968849396040200,7.183040283203125,-0.6560108661651611,0.4129278361797333,-0.29339882731437683
1782968849405966300,7.19296630859375,-0.6159034371376038,0.45581749081611633,-0.2682495415210724
1782968849415892200,7.202892333984375,-0.5843021273612976,0.472351610660553,-0.2530110478401184
1782968849425818000,7.212818115234375,-0.5567346811294556,0.5009923577308655,-0.3481876254081726
1782968849435745300,7.222745361328125,-0.47288188338279724,0.49759209156036377,-0.38575971126556396
1782968849445671200,7.232671142578125,-0.3724578320980072,0.49654972553253174,-0.4458041191101074
1782968849455597000,7.24259716796875,-0.275107741355896,0.4395816922187805,-0.4161878228187561
1782968849465524200,7.252524169921875,-0.17142874002456665,0.29773855209350586,-0.2663799524307251
1782968849475450400,7.262450439453125,-0.06477262824773788,0.1284303218126297,-0.040556713938713074
1782968849485376000,7.2723759765625,0.08111400157213211,0.0022745137102901936,0.17975354194641113
1782968849495303200,7.28230322265625,0.26500868797302246,-0.05436163768172264,0.3681735396385193
1782968849505229300,7.292229248046875,0.454004168510437,-0.04531541094183922,0.5080611705780029
1782968849515155200,7.3021552734375,0.619096040725708,-0.005110886413604021,0.5958518981933594
1782968849525082000,7.31208203125,0.7349941730499268,0.03805522620677948,0.6414918303489685
1782968849535008300,7.32200830078125,0.8070627450942993,0.06294535845518112,0.6531603336334229
1782968849544934400,7.331934326171875,0.8415243029594421,0.06449025869369507,0.631850004196167
1782968849554860000,7.341860107421875,0.8402000069618225,0.0101274149492383,0.5988430976867676
1782968849564787200,7.351787109375,0.8341253399848938,-0.05080597847700119,0.5808148384094238
1782968849574713300,7.36171337890625,0.8556551933288574,-0.0779767632484436,0.5869312882423401
1782968849584639000,7.371638916015625,0.8960326910018921,-0.07270157337188721,0.6236730217933655
1782968849594566100,7.381566162109375,0.9402501583099365,-0.014821077696979046,0.6970730423927307
1782968849604492300,7.3914921875,0.9884563088417053,0.0794774666428566,0.7892088294029236
1782968849614418200,7.401418212890625,1.0403081178665161,0.17262563109397888,0.8874658942222595
1782968849624345000,7.411344970703125,1.0824817419052124,0.26005294919013977,0.9522649049758911
1782968849634271200,7.421271240234375,1.1122446060180664,0.3207964301109314,0.9731032848358154
1782968849644197000,7.431197021484375,1.142325758934021,0.33261924982070923,0.9557163119316101
1782968849654124300,7.441124267578125,1.1505802869796753,0.2727506160736084,0.9134393334388733
1782968849664050200,7.45105029296875,1.1923162937164307,0.1815996766090393,0.8776693940162659
1782968849673976000,7.46097607421875,1.3103030920028687,0.04468097910284996,0.8830801248550415
1782968849683902200,7.470902099609375,1.4436718225479126,-0.14316749572753906,0.9120760560035706
1782968849693829000,7.4808291015625,1.5573853254318237,-0.3477223515510559,0.938021183013916
1782968849703755300,7.49075537109375,1.6284352540969849,-0.5340578556060791,0.9329262971878052
1782968849713681200,7.50068115234375,1.6483567953109741,-0.7098211646080017,0.889329195022583
1782968849723608300,7.5106083984375,1.618544578552246,-0.8569211363792419,0.8209096789360046
1782968849733534200,7.5205341796875,1.5416336059570312,-0.932647705078125,0.7350849509239197
1782968849743460000,7.530460205078125,1.4232609272003174,-0.9262880682945251,0.6373820900917053
1782968849753387300,7.54038720703125,1.2843348979949951,-0.8293744325637817,0.5269176959991455
1782968849763312600,7.550312744140625,1.1291128396987915,-0.6713741421699524,0.40290629863739014
1782968849773238800,7.56023876953125,0.9529019594192505,-0.5031270384788513,0.27591755986213684
1782968849783164700,7.57016455078125,0.7790476083755493,-0.3578678369522095,0.16673943400382996
1782968849793091800,7.580091796875,0.6377697587013245,-0.26799309253692627,0.1019858792424202
1782968849803017700,7.590017822265625,0.5357965230941772,-0.24939653277397156,0.08223801106214523
1782968849812943600,7.599943603515625,0.5032837390899658,-0.2983950078487396,0.11373509466648102
1782968849822870800,7.609870849609375,0.5110977292060852,-0.42026498913764954,0.1802573949098587
1782968849832796700,7.619796630859375,0.536685049533844,-0.5735889673233032,0.27169299125671387
1782968849842722600,7.62972265625,0.5662493109703064,-0.7276291251182556,0.39016130566596985
1782968849852649700,7.639649658203125,0.5857794284820557,-0.849441409111023,0.48719197511672974
1782968849862575900,7.649575927734375,0.5815852284431458,-0.895837664604187,0.5495895743370056
1782968849872501500,7.65950146484375,0.5523215532302856,-0.8485985398292542,0.5605504512786865
1782968849882428700,7.6694287109375,0.4955756664276123,-0.728328287601471,0.5317305326461792
1782968849892354800,7.679354736328125,0.3954574763774872,-0.5633876919746399,0.49407485127449036
1782968849902280400,7.689280517578125,0.25312110781669617,-0.3775555193424225,0.4634588956832886
1782968849912207600,7.69920751953125,0.07560025155544281,-0.20546111464500427,0.4084289073944092
1782968849922133800,7.7091337890625,-0.11205832660198212,-0.061619244515895844,0.3016603887081146
1782968849932059600,7.7190595703125,-0.26546281576156616,0.03250264748930931,0.1472557634115219
1782968849941985500,7.728985595703125,-0.37903493642807007,0.06139155104756355,-0.021789712831377983
1782968849951912700,7.73891259765625,-0.4461209774017334,0.08288733661174774,-0.15762941539287567
1782968849961838800,7.7488388671875,-0.48712992668151855,0.14092212915420532,-0.2221841663122177
1782968849971764500,7.758764404296875,-0.5060586929321289,0.24301990866661072,-0.21390241384506226
1782968849981691600,7.768691650390625,-0.5034948587417603,0.3669271767139435,-0.14070570468902588
1782968849991617800,7.77861767578125,-0.48047173023223877,0.4927101135253906,-0.044194385409355164
1782968850001543700,7.788543701171875,-0.43401023745536804,0.5667675733566284,0.049428775906562805
1782968850011470600,7.798470703125,-0.402620404958725,0.5803293585777283,0.10331130772829056
1782968850021396700,7.808396728515625,-0.3885088562965393,0.5172656774520874,0.09159179776906967
1782968850031322600,7.818322509765625,-0.4025917649269104,0.40251943469047546,0.016957217827439308
1782968850041249800,7.828249755859375,-0.4536498785018921,0.27875596284866333,-0.11279305815696716
1782968850051175700,7.83817578125,-0.5392561554908752,0.1676899492740631,-0.27745118737220764
1782968850061101600,7.8481015625,-0.6584030389785767,0.08620228618383408,-0.44739869236946106
1782968850071027700,7.85802783203125,-0.7819016575813293,0.06527817249298096,-0.5793930292129517
1782968850080954600,7.86795458984375,-0.892283022403717,0.11812087893486023,-0.6511439085006714
1782968850090880500,7.877880615234375,-0.9878144860267639,0.22991091012954712,-0.66195148229599
1782968850100806700,7.887806640625,-1.0336973667144775,0.3803933560848236,-0.6137900948524475
1782968850110733800,7.89773388671875,-1.0149474143981934,0.5084717273712158,-0.5168048143386841
1782968850120659700,7.90765966796875,-0.9573304653167725,0.6021236777305603,-0.4024803638458252
1782968850130585600,7.917585693359375,-0.8997865319252014,0.6454139947891235,-0.32030802965164185
1782968850140512800,7.9275126953125,-0.8844784498214722,0.6450973153114319,-0.3094671070575714
1782968850150439000,7.93743896484375,-0.909607470035553,0.5947762131690979,-0.34734275937080383
1782968850160364500,7.947364501953125,-0.9536130428314209,0.508551299571991,-0.4202510416507721
1782968850170291700,7.957291748046875,-1.0000882148742676,0.3951044976711273,-0.5245686173439026
1782968850180217900,7.9672177734375,-1.0350981950759888,0.25070658326148987,-0.6255506277084351
1782968850190143500,7.9771435546875,-1.057677149772644,0.07259326428174973,-0.7179085612297058
1782968850200069600,7.987069580078125,-1.0542739629745483,-0.1237565353512764,-0.7952648997306824
1782968850209996800,7.996996826171875,-1.0524890422821045,-0.28881964087486267,-0.8557763695716858
1782968850219922700,8.006922607421876,-1.0494966506958008,-0.4275761842727661,-0.9089146852493286
1782968850229846800,8.0168466796875,-1.0583148002624512,-0.518761157989502,-0.957805871963501
1782968850239772700,8.026772705078125,-1.0716862678527832,-0.5668413043022156,-1.0029802322387695
1782968850249699600,8.036699462890626,-1.088388442993164,-0.5722668170928955,-1.023846983909607
1782968850259625700,8.046625732421875,-1.1062816381454468,-0.5351381301879883,-1.0087188482284546
1782968850269551900,8.0565517578125,-1.1367067098617554,-0.4540192782878876,-0.9705085754394531
1782968850279478800,8.066478759765625,-1.16204035282135,-0.3145768940448761,-0.9263147115707397
1782968850289404700,8.07640478515625,-1.1735426187515259,-0.14410868287086487,-0.8956977725028992
1782968850299330800,8.086330810546874,-1.170994520187378,0.02798132412135601,-0.8908540606498718
1782968850309256400,8.09625634765625,-1.1603939533233643,0.18209344148635864,-0.8912758827209473
1782968850319183600,8.10618359375,-1.1446937322616577,0.2977273464202881,-0.8874883055686951
1782968850329109800,8.11610986328125,-1.1232848167419434,0.3649348318576813,-0.8698867559432983
1782968850339035600,8.12603564453125,-1.096038818359375,0.3872702121734619,-0.8389871120452881
1782968850348962800,8.135962890625,-1.0500940084457397,0.37507233023643494,-0.7915879487991333
1782968850358888700,8.145888671875,-0.9849948883056641,0.3509105145931244,-0.7293349504470825
1782968850368814600,8.155814697265624,-0.9022271633148193,0.3152329921722412,-0.6659404635429382
1782968850378741800,8.16574169921875,-0.8171048164367676,0.27629411220550537,-0.6029772162437439
1782968850388667600,8.175667724609376,-0.7397182583808899,0.2507633566856384,-0.5488113164901733
1782968850398593800,8.18559375,-0.6606029272079468,0.244129940867424,-0.5127571821212769
1782968850408520700,8.195520751953126,-0.5733321309089661,0.2558300197124481,-0.4907407760620117
1782968850418446800,8.20544677734375,-0.47215014696121216,0.2785646319389343,-0.46560370922088623
1782968850428372700,8.215372802734375,-0.35612723231315613,0.3089229464530945,-0.4033190906047821
1782968850438298600,8.225298583984374,-0.2130100578069687,0.31999585032463074,-0.2902609705924988
1782968850448225800,8.235225830078125,-0.05484810471534729,0.29996567964553833,-0.13242316246032715
1782968850458151700,8.245151611328126,0.10996481776237488,0.2537875175476074,0.05753372609615326
1782968850468077600,8.25507763671875,0.24699823558330536,0.1915045976638794,0.23613901436328888
1782968850478004700,8.265004638671876,0.35676175355911255,0.13106894493103027,0.3637579381465912
1782968850487931000,8.274930908203125,0.4315592348575592,0.1013600081205368,0.4303973913192749
1782968850497856500,8.2848564453125,0.5087035298347473,0.10203671455383301,0.44637662172317505
1782968850507783700,8.29478369140625,0.5882315039634705,0.1079598218202591,0.41997000575065613
1782968850517709800,8.304709716796875,0.6668562293052673,0.10316559672355652,0.39575761556625366
1782968850527635500,8.314635498046876,0.7519753575325012,0.08090951293706894,0.41055887937545776
1782968850537561600,8.3245615234375,0.8222612142562866,0.05397031456232071,0.45547524094581604
1782968850547488800,8.33448876953125,0.8836129307746887,0.036191582679748535,0.5186423659324646
1782968850557414700,8.34441455078125,0.9412749409675598,0.03873516619205475,0.580018937587738
1782968850567340500,8.354340576171875,1.0017715692520142,0.05530995875597,0.6446818113327026
1782968850577267700,8.364267822265624,1.069930911064148,0.09472447633743286,0.7004894018173218
1782968850587193600,8.374193603515625,1.1281391382217407,0.15675655007362366,0.7427805662155151
1782968850597119500,8.384119384765626,1.1597285270690918,0.22267934679985046,0.7677024602890015
1782968850607046700,8.394046630859375,1.1620360612869263,0.26594018936157227,0.7768878936767578
1782968850616972800,8.403972900390626,1.1436353921890259,0.2794085741043091,0.7665221095085144
1782968850626898700,8.413898681640624,1.1351734399795532,0.2643262445926666,0.7444038391113281
1782968850636825600,8.42382568359375,1.1813353300094604,0.23334437608718872,0.7178073525428772
1782968850646751700,8.433751708984374,1.2626210451126099,0.16808483004570007,0.6834375262260437
1782968850656677600,8.443677734375,1.3304038047790527,0.0641469731926918,0.652478814125061
1782968850666604800,8.453604736328124,1.363978385925293,-0.08322307467460632,0.6295921206474304
1782968850676530700,8.46353076171875,1.3669028282165527,-0.24940219521522522,0.6005042791366577
1782968850686456600,8.47345654296875,1.349879264831543,-0.41249215602874756,0.5779337882995605
1782968850696382700,8.4833828125,1.3303865194320679,-0.5749489665031433,0.5529162883758545
1782968850706309600,8.4933095703125,1.3244553804397583,-0.7481980323791504,0.5317614078521729
1782968850716235500,8.503235595703124,1.329857587814331,-0.9094026684761047,0.5312585830688477
1782968850726161700,8.51316162109375,1.3342875242233276,-1.0075608491897583,0.555823028087616
1782968850736088800,8.5230888671875,1.3260778188705444,-1.0353842973709106,0.5951938629150391
1782968850746014700,8.5330146484375,1.2961007356643677,-1.003962516784668,0.6033468246459961
1782968850755940600,8.542940673828125,1.2418789863586426,-0.9198727011680603,0.5771865844726562
1782968850765867500,8.552867431640625,1.1604374647140503,-0.8074375987052917,0.5141948461532593
1782968850775793700,8.562793701171875,1.0714576244354248,-0.6766734719276428,0.43699219822883606
1782968850785719600,8.572719482421874,0.9772843718528748,-0.5418100953102112,0.34443286061286926
1782968850795646500,8.582646484375,0.8570564985275269,-0.39316126704216003,0.2364499419927597
1782968850805572600,8.592572509765626,0.7405988574028015,-0.2498604953289032,0.13666458427906036
1782968850815498500,8.60249853515625,0.6853518486022949,-0.12663576006889343,0.10053481161594391
1782968850825424400,8.61242431640625,0.6603094935417175,-0.06771727651357651,0.14396828413009644
1782968850835351600,8.6223515625,0.6447656750679016,-0.07007523626089096,0.24858389794826508
1782968850845277400,8.63227734375,0.6404275894165039,-0.12525099515914917,0.39169371128082275
1782968850855203600,8.64220361328125,0.6108353137969971,-0.19739867746829987,0.5344974994659424
1782968850865130800,8.652130859375,0.5524078011512756,-0.28121358156204224,0.6194126009941101
1782968850875056400,8.662056396484376,0.48896515369415283,-0.3732372522354126,0.6006224155426025
1782968850884982500,8.671982421875,0.3989381492137909,-0.4594334363937378,0.46072787046432495
1782968850894909700,8.68190966796875,0.2672552466392517,-0.4990908205509186,0.2402074933052063
1782968850904835600,8.691835693359375,0.11430028825998306,-0.4662299156188965,0.004893688019365072
1782968850914761500,8.701761474609375,-0.03451608866453171,-0.38123032450675964,-0.16229769587516785
1782968850924688600,8.711688720703124,-0.16994479298591614,-0.23821426928043365,-0.2424771934747696
1782968850934614800,8.72161474609375,-0.26694774627685547,-0.02809351123869419,-0.21851806342601776
1782968850944540400,8.73154052734375,-0.3126888573169708,0.21394667029380798,-0.08969096094369888
1782968850954466600,8.741466552734375,-0.3054559528827667,0.4462305009365082,0.08825720101594925
1782968850964393700,8.751393798828126,-0.2653850018978119,0.5826401114463806,0.24860990047454834
1782968850974319400,8.7613193359375,-0.23276342451572418,0.6217778921127319,0.34273505210876465
1782968850984245500,8.77124560546875,-0.21853944659233093,0.5810921788215637,0.355237752199173
1782968850994172700,8.781172607421874,-0.2237749546766281,0.4723646342754364,0.2880201041698456
1782968851004098600,8.7910986328125,-0.2567909359931946,0.34023287892341614,0.15822526812553406
1782968851014024400,8.8010244140625,-0.3332444429397583,0.23559090495109558,0.0003461572341620922
1782968851023951600,8.81095166015625,-0.4510924220085144,0.16846203804016113,-0.15799400210380554
1782968851033877500,8.82087744140625,-0.5881294012069702,0.1517176777124405,-0.28252580761909485
1782968851043803400,8.830803466796874,-0.7300501465797424,0.19169576466083527,-0.3806033432483673
1782968851053730600,8.84073046875,-0.8578836917877197,0.2806205749511719,-0.45992374420166016
1782968851063656400,8.850656494140624,-0.9527228474617004,0.40104803442955017,-0.5017584562301636
1782968851073582600,8.86058251953125,-0.9936124682426453,0.512278139591217,-0.4997914433479309
1782968851083508500,8.870508544921876,-0.9892356991767883,0.5920869708061218,-0.4415878653526306
1782968851093435600,8.880435546875,-0.9475958347320557,0.6039287447929382,-0.3589553236961365
1782968851103361500,8.890361572265626,-0.8714158535003662,0.5346965789794922,-0.28355035185813904
1782968851113287400,8.900287353515624,-0.778121829032898,0.3991723358631134,-0.2441888004541397
1782968851123214600,8.910214599609375,-0.6931828260421753,0.24287350475788116,-0.24982710182666779
1782968851133140500,8.920140380859374,-0.6347165703773499,0.0782209038734436,-0.279529333114624
1782968851143066600,8.930066650390625,-0.6015070676803589,-0.058697570115327835,-0.3121783435344696
1782968851152993500,8.93999365234375,-0.6028485298156738,-0.1701500564813614,-0.3802516460418701
1782968851162919400,8.94991943359375,-0.6363795399665833,-0.2572022080421448,-0.4808501899242401
1782968851172845600,8.959845458984375,-0.6994200348854065,-0.3167443573474884,-0.6184850335121155
1782968851182772700,8.969772705078125,-0.7784022688865662,-0.36896800994873047,-0.7568758726119995
1782968851192698400,8.979698486328125,-0.8607423901557922,-0.3819112479686737,-0.8582669496536255
1782968851202624500,8.98962451171875,-0.9295234680175781,-0.34263843297958374,-0.9025315642356873
1782968851212550700,8.999550537109375,-0.9848179221153259,-0.2788994014263153,-0.9272030591964722
1782968851222477300,9.009477294921876,-1.0237009525299072,-0.17771503329277039,-0.9410138130187988
1782968851232403500,9.019403564453125,-1.0471277236938477,-0.046531982719898224,-0.9470714330673218
1782968851242329600,9.02932958984375,-1.050870656967163,0.07779872417449951,-0.9345155954360962
1782968851252256500,9.039256591796875,-1.0281823873519897,0.18149767816066742,-0.8864327669143677
1782968851262182400,9.049182373046875,-0.9719814658164978,0.2592126131057739,-0.8037205934524536
1782968851272108500,9.059108642578124,-0.8964848518371582,0.29086267948150635,-0.7069176435470581
1782968851282035700,9.06903564453125,-0.813180685043335,0.2731565535068512,-0.6170496940612793
1782968851291961300,9.07896142578125,-0.7291965484619141,0.2131192982196808,-0.5379559397697449
1782968851301887500,9.088887451171875,-0.6605004668235779,0.11181093752384186,-0.48119765520095825
1782968851311814700,9.098814697265626,-0.6121460199356079,-0.006394532509148121,-0.4560403525829315
1782968851321740500,9.108740478515625,-0.5799492597579956,-0.12193707376718521,-0.4582414925098419
1782968851331666400,9.11866650390625,-0.569979190826416,-0.21558819711208344,-0.48334842920303345
1782968851341593600,9.128593505859374,-0.5565923452377319,-0.24245841801166534,-0.5104472637176514
1782968851351519500,9.13851953125,-0.5245683193206787,-0.19055235385894775,-0.5307139158248901
1782968851361445400,9.1484453125,-0.5054851174354553,-0.09193838387727737,-0.5465649366378784
1782968851371371500,9.15837158203125,-0.5164759755134583,0.028081759810447693,-0.5638390183448792
1782968851381298400,9.16829833984375,-0.5589025020599365,0.13495974242687225,-0.5702071189880371
1782968851391224600,9.178224609375,-0.6126525402069092,0.23488207161426544,-0.5688326954841614
1782968851401150500,9.188150390625,-0.6693178415298462,0.30844154953956604,-0.567711591720581
1782968851411077400,9.198077392578124,-0.6997705698013306,0.35488468408584595,-0.5695907473564148
1782968851421003500,9.20800341796875,-0.6722394824028015,0.43297937512397766,-0.6060113310813904
1782968851430929700,9.2179296875,-0.5405957102775574,0.44892585277557373,-0.5282518267631531
1782968851440856600,9.227856689453125,-0.3753625452518463,0.420428603887558,-0.370047390460968
1782968851450782500,9.237782470703126,-0.2159542590379715,0.3887827694416046,-0.1669619083404541
1782968851460708600,9.24770849609375,-0.05262303352355957,0.3366003930568695,0.033618271350860596
1782968851470634500,9.257634521484375,0.11162582784891129,0.26625856757164,0.18688344955444336
1782968851480561400,9.2675615234375,0.25227120518684387,0.18188060820102692,0.253154993057251
1782968851490487600,9.277487548828125,0.36444008350372314,0.09023057669401169,0.2519856095314026
1782968851500413700,9.28741357421875,0.4446658790111542,0.020526299253106117,0.24620011448860168
1782968851510340400,9.29734033203125,0.4795394241809845,-0.007046207319945097,0.25983574986457825
1782968851520266500,9.3072666015625,0.48371240496635437,0.01684398390352726,0.27296945452690125
1782968851530192600,9.317192626953124,0.4716605544090271,0.10545533895492554,0.27805420756340027
1782968851540119600,9.32711962890625,0.4673518240451813,0.2265748381614685,0.2713053226470947
1782968851550045400,9.33704541015625,0.48774659633636475,0.34053468704223633,0.261237233877182
1782968851559971600,9.3469716796875,0.5327171087265015,0.41727766394615173,0.2729123532772064
1782968851569898500,9.3568984375,0.6051747798919678,0.4515722393989563,0.31491225957870483
1782968851579824400,9.366824462890625,0.7092970609664917,0.4384988844394684,0.39250579476356506
1782968851589750500,9.37675048828125,0.8352057337760925,0.3705986440181732,0.4871215224266052
1782968851599676700,9.3866767578125,0.9561242461204529,0.26170313358306885,0.5910040736198425
1782968851609603600,9.396603515625,1.0708726644515991,0.16576139628887177,0.7094060778617859
1782968851619529500,9.406529541015624,1.1712030172348022,0.07550352811813354,0.8193580508232117
1782968851629455600,9.41645556640625,1.2558276653289795,-0.026986893266439438,0.8915326595306396
1782968851639382500,9.426382568359376,1.3320426940917969,-0.14277425408363342,0.9310035109519958
1782968851649308400,9.436308349609375,1.4073693752288818,-0.26004335284233093,0.926436185836792
1782968851659234600,9.446234619140625,1.4641406536102295,-0.3906557261943817,0.9017727971076965
1782968851669161500,9.456161376953125,1.4809939861297607,-0.5235325694084167,0.8608114719390869
1782968851679087600,9.466087646484375,1.4576351642608643,-0.64194655418396,0.8164794445037842
1782968851689013500,9.476013427734374,1.3992594480514526,-0.7159696221351624,0.7791603207588196
1782968851698940400,9.4859404296875,1.3277932405471802,-0.7400517463684082,0.7389357686042786
1782968851708866600,9.495866455078126,1.2331324815750122,-0.7135578393936157,0.6764354109764099
1782968851718792400,9.50579248046875,1.117896556854248,-0.6649154424667358,0.5995768308639526
1782968851728718600,9.515718505859375,1.0008552074432373,-0.5975906848907471,0.5388101935386658
1782968851738645500,9.5256455078125,0.8985434174537659,-0.5402927994728088,0.518473207950592
1782968851748571600,9.535571533203125,0.8109320402145386,-0.5069870352745056,0.5211139917373657
1782968851758497500,9.54549755859375,0.7319505214691162,-0.4794052839279175,0.5199089050292969
1782968851768424400,9.555424560546875,0.6770731210708618,-0.4406224489212036,0.4889877438545227
1782968851778350600,9.5653505859375,0.6395923495292664,-0.4036971926689148,0.4466667175292969
1782968851788276500,9.5752763671875,0.6032090187072754,-0.36126798391342163,0.42234885692596436
1782968851798203400,9.585203369140626,0.5688566565513611,-0.31680718064308167,0.432233989238739
1782968851808129500,9.595129638671875,0.5597076416015625,-0.27394893765449524,0.46905404329299927
1782968851818055700,9.6050556640625,0.5712855458259583,-0.23765023052692413,0.5139592289924622
1782968851827982300,9.614982421875,0.5933316946029663,-0.224190354347229,0.5672562718391418
1782968851837908500,9.624908447265625,0.6008655428886414,-0.24535830318927765,0.6462765336036682
1782968851847834600,9.634834716796876,0.5940797924995422,-0.29460442066192627,0.7251960635185242
1782968851857760500,9.644760498046875,0.5733018517494202,-0.36933836340904236,0.7679840922355652
1782968851867687400,9.6546875,0.5424672365188599,-0.42614999413490295,0.756030261516571
1782968851877613600,9.664613525390624,0.529166042804718,-0.4113430082798004,0.7132514119148254
1782968851887539700,9.674539794921875,0.5014656782150269,-0.3737221360206604,0.6276454329490662
1782968851897466600,9.684466552734374,0.44832396507263184,-0.33152249455451965,0.5197927951812744
1782968851907392500,9.694392578125,0.37790676951408386,-0.26257485151290894,0.41251319646835327
1782968851917318700,9.704318603515626,0.2769961655139923,-0.1997281163930893,0.3032968044281006
1782968851927245600,9.71424560546875,0.021044807508587837,-0.2711450457572937,0.1447923630475998
1782968851937171500,9.72417138671875,-0.1552104502916336,-0.1091408059000969,0.058723919093608856
1782968851947097600,9.73409765625,-0.2353566735982895,0.13438981771469116,0.04458599537611008
1782968851957024500,9.7440244140625,-0.30901262164115906,0.3596457242965698,0.03998784348368645
1782968851966950700,9.75395068359375,-0.35736283659935,0.5505746603012085,0.07357136905193329
1782968851976876500,9.76387646484375,-0.383367657661438,0.6518549919128418,0.14798372983932495
1782968851986802700,9.773802734375,-0.39135074615478516,0.6445297002792358,0.217861607670784
1782968851996729600,9.7837294921875,-0.3780141770839691,0.6003281474113464,0.25423508882522583
1782968852006655500,9.793655517578125,-0.3598759174346924,0.5184910893440247,0.2298508882522583
1782968852016581600,9.80358154296875,-0.36899465322494507,0.4453617036342621,0.1474318653345108
1782968852026508500,9.813508544921875,-0.40187937021255493,0.4121291935443878,0.0031431340612471104
1782968852036434700,9.8234345703125,-0.4367560148239136,0.34557709097862244,-0.04398244991898537
1782968852046360600,9.833360595703125,-0.4941772520542145,0.05551331117749214,0.09515493363142014
1782968852056287500,9.84328759765625,-0.6632983684539795,-0.04685400053858757,0.04583987593650818
1782968852066213600,9.853213623046875,-0.7965512275695801,-0.04304701089859009,-0.0467398576438427
1782968852076139500,9.863139404296875,-0.8430401086807251,-0.046792514622211456,-0.15209847688674927
1782968852086066400,9.87306640625,-0.8580984473228455,-0.04711582511663437,-0.24757465720176697
1782968852095992600,9.88299267578125,-0.8433719277381897,0.011875210329890251,-0.30030566453933716
1782968852105918700,9.892918701171874,-0.8182053565979004,0.06970175355672836,-0.28395625948905945
1782968852115844600,9.9028447265625,-0.8002731800079346,0.11346453428268433,-0.2426721304655075
1782968852125771500,9.912771484375,-0.7961761951446533,0.15299329161643982,-0.18660593032836914
1782968852135697700,9.92269775390625,-0.8232959508895874,0.23901188373565674,-0.15689712762832642
1782968852145623600,9.93262353515625,-0.8752249479293823,0.357087105512619,-0.16278670728206635
1782968852155550500,9.942550537109375,-0.9339611530303955,0.45884713530540466,-0.24543005228042603
1782968852165476600,9.9524765625,-1.0019196271896362,0.5658133029937744,-0.3957101106643677
1782968852175402800,9.96240283203125,-1.065508484840393,0.623077392578125,-0.590326726436615
1782968852185329400,9.972329345703125,-1.1004196405410767,0.6145155429840088,-0.7670663595199585
1782968852195255600,9.982255615234376,-1.1299694776535034,0.5615513920783997,-0.8759557604789734
1782968852205181700,9.992181640625,-1.1159822940826416,0.4407504200935364,-0.9985964894294739
1782968852215108600,10.002108642578126,-0.9795690178871155,0.16007556021213531,-1.0885058641433716
1782968852225034500,10.012034423828124,-0.8726553916931152,-0.15375399589538574,-1.1188669204711914
1782968852234960600,10.021960693359375,-0.9237927794456482,-0.2815382182598114,-1.09027099609375
1782968852244886500,10.031886474609376,-1.0837422609329224,-0.26066407561302185,-1.0340487957000732
1782968852254813400,10.0418134765625,-1.2417453527450562,-0.19833774864673615,-0.9642709493637085
1782968852264739600,10.051739501953126,-1.4697140455245972,-0.04665049538016319,-0.9312123656272888
1782968852274665500,10.06166552734375,-1.7070366144180298,-0.12706658244132996,-0.9001307487487793
1782968852284592600,10.071592529296876,-1.8362030982971191,0.10625269263982773,-0.8409702181816101
1782968852294518500,10.0815185546875,-1.9182935953140259,0.10219228267669678,-0.8465022444725037
1782968852304444700,10.091444580078125,-1.9708534479141235,-0.028696224093437195,-0.8758292198181152
1782968852314371600,10.10137158203125,-2.0034127235412598,-0.14950767159461975,-0.8511552214622498
1782968852324297500,10.11129736328125,-2.015489339828491,-0.22288627922534943,-0.7646815776824951
1782968852334223600,10.1212236328125,-2.0093095302581787,-0.574613630771637,-0.6975694894790649
1782968852344150500,10.131150634765625,-1.9463533163070679,-0.7727320194244385,-0.6699647903442383
1782968852354076700,10.14107666015625,-1.8406955003738403,-0.8734994530677795,-0.5624924898147583
1782968852364002600,10.15100244140625,-1.7283061742782593,-0.9902715682983398,-0.41393017768859863
1782968852373928400,10.160928466796875,-1.6224660873413086,-1.0951610803604126,-0.24889692664146423
1782968852383855600,10.170855712890624,-1.5624759197235107,-1.1725006103515625,-0.11563421040773392
1782968852393781800,10.18078173828125,-1.5779435634613037,-1.190351128578186,-0.0474742166697979
1782968852403707400,10.190707275390626,-1.6859403848648071,-1.1349380016326904,-0.05622110143303871
1782968852413634600,10.200634521484375,-1.8517266511917114,-0.9763908982276917,-0.17677068710327148
1782968852423560700,10.210560791015626,-1.9914883375167847,-0.7650712132453918,-0.38284316658973694
1782968852433486300,10.220486328125,-1.9160767793655396,-0.39573055505752563,-0.623271107673645
1782968852443413500,10.23041357421875,-1.4773435592651367,-0.16634798049926758,-0.8697911500930786
1782968852453339600,10.240339599609374,-0.7620296478271484,0.041138939559459686,-1.0796523094177246
1782968852463265500,10.250265625,0.014806199818849564,0.22236651182174683,-1.1049031019210815
1782968852473191400,10.26019140625,0.423622190952301,0.17670786380767822,-0.875075101852417
1782968852483118600,10.27011865234375,0.6501514911651611,0.05153371021151543,-0.4811192750930786
1782968852493044700,10.280044677734375,0.8714194297790527,0.15975739061832428,0.015945153310894966
1782968852502970400,10.289970458984374,1.0178369283676147,0.3171371519565582,0.4180707633495331
1782968852512897500,10.2998974609375,1.1091971397399902,0.4166048765182495,0.690687358379364
1782968852522823700,10.30982373046875,1.171956181526184,0.45135486125946045,0.8063372373580933
1782968852532749600,10.31974951171875,1.1999431848526,0.4771093428134918,0.8329779505729675
1782968852542676500,10.329676513671876,1.1670560836791992,0.49769505858421326,0.790871798992157
1782968852552602600,10.3396025390625,1.1135144233703613,0.5273064970970154,0.6768931150436401
1782968852562528500,10.349528564453125,1.0778394937515259,0.5508256554603577,0.5488238334655762
1782968852572455700,10.35945556640625,1.0812941789627075,0.5764126777648926,0.48126503825187683
1782968852582381600,10.369381591796875,1.1501160860061646,0.574504554271698,0.46513453125953674
1782968852592307500,10.379307373046874,1.2660675048828125,0.5558444261550903,0.4688968062400818
1782968852602233600,10.389233642578125,1.447208285331726,0.5103757381439209,0.4848930835723877
1782968852612160500,10.399160400390626,1.5801122188568115,0.47400209307670593,0.5430047512054443
1782968852622086400,10.40908642578125,1.6522718667984009,0.44869381189346313,0.6991948485374451
1782968852632012500,10.419012451171875,1.6789511442184448,0.3893124759197235,0.9052897691726685
1782968852641939700,10.428939697265625,1.7126665115356445,0.2768605053424835,1.0749136209487915
1782968852651865600,10.438865478515625,1.7423522472381592,0.16735568642616272,1.2013976573944092
1782968852661791500,10.44879150390625,1.7299031019210815,0.1304091215133667,1.277726411819458
1782968852671718700,10.45871875,1.6951874494552612,0.12660658359527588,1.274680495262146
1782968852681644500,10.46864453125,1.662866234779358,0.14301645755767822,1.201138973236084
1782968852691570400,10.4785703125,1.6445761919021606,0.14759457111358643,1.0777984857559204
1782968852701497600,10.48849755859375,1.6423779726028442,0.1347285807132721,0.9190415740013123
1782968852711423700,10.498423828125,1.6217494010925293,0.07834435999393463,0.7677353024482727
1782968852721349400,10.508349365234375,1.5755736827850342,-0.045519523322582245,0.6780692934989929
1782968852731275500,10.518275634765626,1.4946014881134033,-0.18524466454982758,0.6958615779876709
1782968852741202700,10.52820263671875,1.3674012422561646,-0.3130306005477905,0.8166024088859558
1782968852751128300,10.53812841796875,1.2272166013717651,-0.4334736168384552,0.9583515524864197
1782968852761054500,10.548054443359375,1.107022762298584,-0.5013972520828247,1.0373398065567017
1782968852770981600,10.557981689453126,1.006761908531189,-0.493299275636673,1.01388680934906
1782968852780907500,10.567907470703124,0.9237110614776611,-0.4352884292602539,0.894939124584198
1782968852790833400,10.57783349609375,0.8418372273445129,-0.33778467774391174,0.7302608489990234
1782968852800760600,10.587760498046874,0.7422469854354858,-0.22754845023155212,0.5702086091041565
1782968852810686500,10.5976865234375,0.6469758749008179,-0.10568166524171829,0.43905961513519287
1782968852820612600,10.607612548828126,0.5665090680122375,0.01160953938961029,0.3416993319988251
1782968852830538500,10.61753857421875,0.4935567378997803,0.08937913924455643,0.2702743411064148
1782968852840465700,10.627465576171875,0.455702543258667,0.1512393057346344,0.21770115196704865
1782968852850391600,10.6373916015625,0.4217756390571594,0.14309222996234894,0.16491027176380157
1782968852860317400,10.6473173828125,0.35414254665374756,0.16189254820346832,0.16045933961868286
1782968852870244600,10.65724462890625,0.30396607518196106,0.15583869814872742,0.19161610305309296
1782968852880170500,10.66717041015625,0.27229949831962585,0.12814289331436157,0.22668062150478363
1782968852890096600,10.6770966796875,0.25591790676116943,0.1123514398932457,0.28865110874176025
1782968852900023800,10.68702392578125,0.3057304620742798,0.06470562517642975,0.3442954421043396
1782968852909949400,10.696949462890625,0.2974154055118561,0.030811579897999763,0.42970964312553406
1782968852919875600,10.70687548828125,0.3343358635902405,-0.006753104738891125,0.4746355712413788
1782968852929802800,10.716802734375,0.344142347574234,-0.06523232161998749,0.46051913499832153
1782968852939728400,10.726728271484374,0.31168293952941895,-0.14254841208457947,0.39026975631713867
1782968852949654500,10.736654541015625,0.25623586773872375,-0.2631321847438812,0.268220990896225
1782968852959581700,10.746581787109376,0.16893187165260315,-0.39244145154953003,0.1193939596414566
1782968852969507600,10.756507568359375,0.09339802712202072,-0.5821410417556763,-0.08434472978115082
1782968852979433500,10.76643359375,-0.04818892478942871,-0.6351893544197083,-0.22754476964473724
1782968852989359600,10.776359619140624,-0.16521207988262177,-0.6042173504829407,-0.32465338706970215
1782968852999286500,10.78628662109375,-0.24913467466831207,-0.4888913035392761,-0.35924357175827026
1782968853009212400,10.79621240234375,-0.2961154580116272,-0.31504979729652405,-0.3347870111465454
1782968853019138600,10.806138671875,-0.3231406807899475,-0.12057006359100342,-0.24281367659568787
1782968853029065700,10.816065673828126,-0.3309977352619171,0.0428466722369194,-0.1102980375289917
1782968853038991600,10.82599169921875,-0.3297433853149414,0.10527888685464859,-0.001078068045899272
1782968853048917500,10.83591748046875,-0.34871459007263184,0.05081469565629959,0.043853066861629486
1782968853058844700,10.8458447265625,-0.3629726469516754,-0.03832423314452171,0.026816824451088905
1782968853068770600,10.8557705078125,-0.39292529225349426,-0.13240964710712433,-0.05772685259580612
1782968853078696400,10.865696533203124,-0.46063509583473206,-0.22777770459651947,-0.19410920143127441
1782968853088622600,10.87562255859375,-0.5490599870681763,-0.3114829957485199,-0.3378659784793854
1782968853098549500,10.885549560546876,-0.6389975547790527,-0.37330108880996704,-0.4681882858276367
1782968853108475600,10.8954755859375,-0.7056149840354919,-0.4105454087257385,-0.570952296257019
1782968853118401500,10.905401611328125,-0.7378019690513611,-0.43306562304496765,-0.6399332284927368
1782968853128328400,10.915328369140624,-0.7498846650123596,-0.4442879259586334,-0.6698079109191895
1782968853138254600,10.925254638671875,-0.7624825239181519,-0.4818435609340668,-0.6510009169578552
1782968853148180500,10.935180419921876,-0.7528287172317505,-0.5225956439971924,-0.5776326656341553
1782968853158107400,10.945107421875,-0.7499493360519409,-0.6021397709846497,-0.4849010705947876
1782968853168033500,10.955033447265626,-0.7949067950248718,-0.7418886423110962,-0.42681199312210083
1782968853177959700,10.964959716796875,-0.8169468641281128,-0.783229649066925,-0.40360891819000244
1782968853187886600,10.974886474609375,-0.8399450182914734,-0.7100664377212524,-0.44320717453956604
1782968853197812500,10.9848125,-0.8912350535392761,-0.5763571262359619,-0.5628507137298584
1782968853207738600,10.994738525390625,-0.9611020684242249,-0.3947223722934723,-0.7096600532531738
1782968853217664500,11.00466455078125,-1.06179940700531,-0.1909487396478653,-0.8397541642189026
1782968853227591400,11.01459130859375,-1.167575716972351,-0.015144651755690575,-0.9613487124443054
1782968853237517600,11.024517578125,-1.2591623067855835,0.1333976835012436,-1.0705281496047974
1782968853247443700,11.034443603515625,-1.314703345298767,0.20746205747127533,-1.1622709035873413
1782968853257370400,11.044370361328125,-1.3423129320144653,0.23652087152004242,-1.1988621950149536
1782968853267296500,11.054296630859374,-1.3085789680480957,0.22587648034095764,-1.177473545074463
1782968853277222700,11.06422265625,-1.2296487092971802,0.14280050992965698,-1.1180334091186523
1782968853287149600,11.074149658203124,-1.1334166526794434,-0.005451389122754335,-1.0265061855316162
1782968853297075500,11.084075439453125,-1.0420777797698975,-0.18678735196590424,-0.9513874053955078
1782968853307001600,11.094001708984376,-0.9546306133270264,-0.34758514165878296,-0.9243161678314209
1782968853316927700,11.103927734375,-0.8876726031303406,-0.44598814845085144,-0.9559286832809448
1782968853326854400,11.1138544921875,-0.8418342471122742,-0.4587539732456207,-1.013154149055481
1782968853336780500,11.123780517578124,-0.8085236549377441,-0.4003013074398041,-1.0668681859970093
1782968853346706700,11.133706787109375,-0.7730488777160645,-0.3108540177345276,-1.069985270500183
1782968853356633600,11.143633544921874,-0.7488865256309509,-0.21083208918571472,-1.0042425394058228
1782968853366559500,11.1535595703125,-0.7617903351783752,-0.09443057328462601,-0.8437512516975403
1782968853376485600,11.163485595703126,-0.7160830497741699,0.04689273238182068,-0.6610013842582703
1782968853386412500,11.17341259765625,-0.6305790543556213,0.17160016298294067,-0.5092653632164001
1782968853396338700,11.183338623046875,-0.5871239900588989,0.273118257522583,-0.4340459704399109
1782968853406264600,11.1932646484375,-0.5766240358352661,0.34444254636764526,-0.434499055147171
1782968853416191500,11.20319140625,-0.6009560227394104,0.5658276677131653,-0.5590311288833618
1782968853426117600,11.21311767578125,-0.5867965817451477,0.6740387082099915,-0.6442800164222717
1782968853436043500,11.22304345703125,-0.5544362664222717,0.6371097564697266,-0.7092987298965454
1782968853445969700,11.2329697265625,-0.47787347435951233,0.6394290328025818,-0.8159438967704773
1782968853455896600,11.242896484375,-0.3988420367240906,0.6526846289634705,-0.9195858836174011
1782968853465822700,11.25282275390625,-0.34887996315956116,0.5085470080375671,-0.8924267888069153
1782968853475748600,11.26274853515625,-0.2635331153869629,0.2425488978624344,-0.7381405830383301
1782968853485675500,11.272675537109375,-0.06649010628461838,0.042304910719394684,-0.39721232652664185
1782968853495601700,11.2826015625,0.04195648431777954,-0.2315463423728943,-0.07246380299329758
1782968853505527600,11.292527587890625,0.12890231609344482,-0.3436029255390167,0.270130455493927
1782968853515454500,11.302454345703126,0.15509982407093048,-0.35397326946258545,0.5933341383934021
1782968853525380600,11.312380615234375,0.1230318620800972,-0.3089985251426697,0.8817030787467957
1782968853535306800,11.322306640625,0.15188801288604736,-0.37979280948638916,1.119655728340149
1782968853545232600,11.332232666015624,0.26043298840522766,-0.5069259405136108,1.2347254753112793
1782968853555159600,11.34215966796875,0.43872204422950745,-0.6072850227355957,1.279364824295044
1782968853565085700,11.352085693359374,0.564250648021698,-0.6787605285644531,1.2225092649459839
1782968853575011600,11.362011474609375,0.5919885635375977,-0.7221176028251648,1.119093894958496
1782968853584938500,11.3719384765625,0.5886634588241577,-0.6699047684669495,1.048986792564392
1782968853594864600,11.38186474609375,0.6535170674324036,-0.4533887505531311,1.0467455387115479
1782968853604790800,11.391790771484375,0.7753361463546753,-0.2084856927394867,1.0970090627670288
1782968853614717400,11.401717529296874,0.8820287585258484,-0.015696801245212555,1.1767067909240723
1782968853624643600,11.4116435546875,0.9798814654350281,0.1165744960308075,1.2933937311172485
1782968853634569700,11.42156982421875,1.105908751487732,0.2917769253253937,1.3918994665145874
1782968853644496600,11.43149658203125,1.2635644674301147,0.5021559596061707,1.4132531881332397
1782968853654422500,11.441422607421876,1.337895393371582,0.6568347811698914,1.3439744710922241
1782968853664348700,11.4513486328125,1.3104747533798218,0.7993524074554443,1.2473751306533813
1782968853674274600,11.461274658203125,1.372436761856079,0.9488247632980347,1.1554129123687744
1782968853684201500,11.471201416015624,1.4491493701934814,1.041206955909729,0.9614228010177612
1782968853694127600,11.481127685546875,1.518879771232605,1.1574838161468506,0.7338677048683167
1782968853704053800,11.4910537109375,1.5307234525680542,1.1816353797912598,0.461215615272522
1782968853713980700,11.500980712890625,1.465127944946289,1.0418647527694702,0.14331166446208954
1782968853723906600,11.510906494140626,1.3542137145996094,0.7945510149002075,-0.12753279507160187
1782968853733832700,11.520832763671875,1.2519065141677856,0.567303478717804,-0.2550324499607086
1782968853743759600,11.530759521484375,1.1695013046264648,0.40632012486457825,-0.24140122532844543
1782968853753685500,11.540685546875,1.0640734434127808,0.3615036606788635,-0.1472579538822174
1782968853763611600,11.550611572265625,0.9725308418273926,0.354936808347702,-0.007683714386075735
1782968853773537800,11.560537841796876,0.9034060835838318,0.3546079099178314,0.1593089997768402
1782968853783465000,11.57046484375,0.8624008297920227,0.2810181975364685,0.2549069821834564
1782968853793391000,11.58039111328125,0.8310101628303528,0.23714473843574524,0.29880014061927795
1782968853803316700,11.590316650390625,0.8133038282394409,0.24607686698436737,0.30912554264068604
1782968853813244000,11.600243896484375,0.771674633026123,0.3482258915901184,0.2850377857685089
1782968853823170000,11.610170166015624,0.6741474866867065,0.2507633864879608,0.19279299676418304
1782968853833096000,11.620095947265625,0.5908238291740417,0.12706540524959564,0.1287951022386551
1782968853843022800,11.63002294921875,0.5599151849746704,-0.04815647378563881,0.1219797432422638
1782968853852949000,11.639948974609375,0.5315743088722229,-0.22446386516094208,0.12473132461309433
1782968853862875000,11.649875,0.5783891081809998,-0.34308600425720215,0.17978119850158691
1782968853872800800,11.65980078125,0.6807308793067932,-0.3896010220050812,0.27033933997154236
1782968853882728000,11.66972802734375,0.7507424354553223,-0.3836110532283783,0.4057186543941498
1782968853892653800,11.67965380859375,0.7753375172615051,-0.40150055289268494,0.5481389164924622
1782968853902580000,11.689580078125,0.7608022093772888,-0.41714170575141907,0.6646004915237427
1782968853912507000,11.6995068359375,0.717066764831543,-0.42011433839797974,0.7314844131469727
1782968853922433000,11.70943310546875,0.65367192029953,-0.406525582075119,0.731054425239563
1782968853932359000,11.71935888671875,0.554756224155426,-0.37901777029037476,0.6657635569572449
1782968853942286000,11.7292861328125,0.42292100191116333,-0.3690791428089142,0.5187647938728333
1782968853952212000,11.7392119140625,0.26958736777305603,-0.33461862802505493,0.3362644910812378
1782968853962137900,11.749137939453124,0.10088430345058441,-0.27702638506889343,0.13178668916225433
1782968853972065000,11.75906494140625,-0.06026037782430649,-0.20213428139686584,-0.07492627948522568
1782968853981991000,11.768990966796874,-0.19986332952976227,-0.12218043953180313,-0.23562075197696686
1782968853991916800,11.778916748046875,-0.29406386613845825,-0.0148281529545784,-0.27323630452156067
1782968854001843000,11.788843017578126,-0.3269435465335846,0.15243035554885864,-0.18235468864440918
1782968854011770000,11.79877001953125,-0.2516908645629883,0.383549302816391,-0.031157169491052628
1782968854021695700,11.80869580078125,-0.18843570351600647,0.3964589834213257,0.08439425379037857
1782968854031622000,11.818621826171874,-0.2590576708316803,0.5385711193084717,0.2473251223564148
1782968854041549000,11.828549072265625,-0.25782158970832825,0.5143331289291382,0.30046701431274414
1782968854051474700,11.838474609375,-0.2476395070552826,0.41622012853622437,0.2405565083026886
1782968854061400800,11.84840087890625,-0.280577689409256,0.33006805181503296,0.1337980479001999
1782968854071328000,11.858327880859376,-0.3950970768928528,0.15538200736045837,-0.06097462773323059
1782968854081254000,11.86825390625,-0.4786820113658905,0.013784201815724373,-0.2557224929332733
1782968854091179800,11.8781796875,-0.5343316793441772,-0.09105033427476883,-0.42374134063720703
1782968854101106000,11.88810595703125,-0.6651990413665771,-0.07124775648117065,-0.5191687941551208
1782968854111033000,11.898033203125,-0.7219355702400208,0.012590156868100166,-0.533279299736023
1782968854120958700,11.907958740234376,-0.7195627689361572,0.12490859627723694,-0.5005106925964355
1782968854130884900,11.917884765625,-0.7549008131027222,0.19633670151233673,-0.4428010582923889
1782968854140812000,11.92781201171875,-0.7827999591827393,0.30652883648872375,-0.3654961585998535
1782968854150738000,11.937738037109375,-0.7548620700836182,0.49907249212265015,-0.2753974199295044
1782968854160663800,11.947663818359375,-0.7907518148422241,0.5546728372573853,-0.31174707412719727
1782968854170591000,11.957591064453124,-0.8697821497917175,0.4795764684677124,-0.39770618081092834
1782968854180516900,11.967516845703125,-0.9110954403877258,0.43472355604171753,-0.4661810100078583
1782968854190443000,11.977443115234376,-0.9239006638526917,0.33039766550064087,-0.5567370057106018
1782968854200369000,11.987368896484375,-0.9229106307029724,0.3118000626564026,-0.7451975345611572
1782968854210295800,11.9972958984375,-0.9228190183639526,0.11268137395381927,-0.9593982696533203
1782968854220222000,12.007221923828125,-0.9313015937805176,-0.12212569266557693,-1.0942354202270508
1782968854230147800,12.01714794921875,-0.9630709886550903,-0.2857537567615509,-1.2126777172088623
1782968854240074800,12.02707470703125,-0.9877625107765198,-0.4283432364463806,-1.3050602674484253
1782968854250001000,12.0370009765625,-0.9723055362701416,-0.4696933329105377,-1.289849877357483
1782968854259927000,12.046927001953126,-0.9898332953453064,-0.45998838543891907,-1.2452987432479858
1782968854269854000,12.05685400390625,-0.9663865566253662,-0.3523748517036438,-1.1357618570327759
1782968854279779800,12.06677978515625,-0.8811465501785278,-0.3130411207675934,-0.8822364807128906
1782968854289706000,12.0767060546875,-0.7863401174545288,-0.3658742606639862,-0.6667646169662476
1782968854299631900,12.0866318359375,-0.7256097197532654,-0.3336870074272156,-0.5480033755302429
1782968854309558800,12.096558837890624,-0.704643726348877,-0.2666288912296295,-0.49222350120544434
1782968854319485000,12.10648486328125,-0.7327656149864197,-0.26008036732673645,-0.5499804615974426
1782968854329411000,12.1164111328125,-0.7971518039703369,-0.29542529582977295,-0.7043167352676392
1782968854339337700,12.126337646484375,-0.853412389755249,-0.30774596333503723,-0.8914632201194763
1782968854349264000,12.136263916015626,-0.8630178570747375,-0.3084450364112854,-1.063551902770996
1782968854359190000,12.14618994140625,-0.8201418519020081,-0.32218247652053833,-1.1991666555404663
1782968854369117000,12.156116943359375,-0.7779589891433716,-0.13580939173698425,-1.3162391185760498
1782968854379042800,12.166042724609374,-0.8567759990692139,-0.12561798095703125,-1.6132161617279053
1782968854388969000,12.175968994140625,-0.8684803247451782,-0.07853062450885773,-1.7361050844192505
1782968854398895000,12.18589501953125,-0.9247494339942932,0.07403335720300674,-1.7745234966278076
1782968854408821800,12.19582177734375,-1.0261677503585815,0.2625369429588318,-1.745737910270691
1782968854418748000,12.205747802734376,-0.9889556169509888,0.08411917090415955,-1.593641757965088
1782968854428674000,12.215674072265625,-0.8552273511886597,-0.2597002387046814,-1.3688174486160278
1782968854438601000,12.22560107421875,-0.7513792514801025,-0.38351619243621826,-1.1600866317749023
1782968854448526800,12.23552685546875,-0.6505679488182068,-0.4474397599697113,-0.9745576977729797
1782968854458453000,12.245452880859375,-0.6704757213592529,-0.5619366765022278,-0.8428650498390198
1782968854468380000,12.2553798828125,-0.8010891079902649,-0.7103471755981445,-0.7626900672912598
1782968854478305800,12.265305908203125,-0.9289894700050354,-0.844024121761322,-0.6527714133262634
1782968854488232000,12.27523193359375,-0.9950526356697083,-0.9302697777748108,-0.5106885433197021
1782968854498158800,12.285158935546875,-1.0359169244766235,-0.7005946040153503,-0.27885642647743225
1782968854508085000,12.2950849609375,-1.0962148904800415,-0.263409286737442,-0.025824954733252525
1782968854518011000,12.305010986328124,-1.0585490465164185,-0.07401150465011597,0.21337391436100006
1782968854527937000,12.31493701171875,-0.947629451751709,0.03402015566825867,0.4315807819366455
1782968854537864000,12.324864013671874,-0.7495930790901184,0.060125790536403656,0.6035788655281067
1782968854547789800,12.334789794921875,-0.5269232988357544,-0.01247757114470005,0.7864459156990051
1782968854557716000,12.344716064453126,-0.28336301445961,0.007585886865854263,0.9287799000740051
1782968854567643000,12.354642822265625,-0.027448173612356186,0.024969138205051422,1.0402917861938477
1782968854577569000,12.364569091796875,0.19889706373214722,0.035144731402397156,1.1171458959579468
1782968854587495000,12.374494873046874,0.37937524914741516,0.09193051606416702,1.1743775606155396
1782968854597421800,12.384421875,0.5194754004478455,0.1771497279405594,1.2336610555648804
1782968854607348000,12.394347900390626,0.6227210760116577,0.2490880936384201,1.228444218635559
