time,seconds_elapsed,z,y,x
1782968842277636600,0.06463671875,-0.9852069020271301,-0.054548196494579315,-1.1483079195022583
1782968842287563300,0.074563232421875,-1.0223313570022583,-0.015663648024201393,-1.1619858741760254
1782968842297489400,0.084489501953125,-1.0844857692718506,0.07354239374399185,-1.1393424272537231
1782968842307415600,0.09441552734375,-1.1481918096542358,0.17388631403446198,-1.1184264421463013
1782968842317341400,0.104341552734375,-1.1884098052978516,0.28732284903526306,-1.103721261024475
1782968842327268400,0.114268310546875,-1.1811604499816895,0.38272979855537415,-1.0959688425064087
1782968842337194500,0.124194580078125,-1.1175651550292969,0.45672574639320374,-1.0880807638168335
1782968842347120600,0.13412060546875,-1.0185108184814453,0.5434505343437195,-1.0743365287780762
1782968842357047300,0.14404736328125,-0.9243302345275879,0.6186797618865967,-1.0706764459609985
1782968842366973400,0.153973388671875,-0.8524693250656128,0.6779665350914001,-1.057775855064392
1782968842376899600,0.163899658203125,-0.800822377204895,0.6993644833564758,-1.0495094060897827
1782968842386826500,0.173826416015625,-0.7732996940612793,0.6591147780418396,-1.0425151586532593
1782968842396752400,0.18375244140625,-0.7700825929641724,0.5458422899246216,-1.0193440914154053
1782968842406678500,0.193678466796875,-0.7640265822410583,0.40346330404281616,-0.9343540668487549
1782968842416605400,0.20360546875,-0.7584749460220337,0.31820327043533325,-0.7724698185920715
1782968842426531300,0.21353125,-0.7835935950279236,0.2578592300415039,-0.6031215786933899
1782968842436457500,0.22345751953125,-0.8353241682052612,0.23550918698310852,-0.4527597427368164
1782968842446383400,0.23338330078125,-0.8865399360656738,0.2471381574869156,-0.2904486060142517
1782968842456310500,0.243310546875,-0.9303058385848999,0.28516650199890137,-0.12255680561065674
1782968842466236400,0.253236328125,-0.9346025586128235,0.383038729429245,-0.0019289276096969843
1782968842476162600,0.26316259765625,-0.8656794428825378,0.5437442660331726,0.0030748858116567135
1782968842486089500,0.27308935546875,-0.705848217010498,0.740292489528656,-0.14955566823482513
1782968842496015400,0.283015380859375,-0.48234453797340393,0.9423198699951172,-0.337012380361557
1782968842505941500,0.29294140625,-0.31933191418647766,0.9380524158477783,-0.4690937101840973
1782968842515868400,0.302868408203125,-0.15900030732154846,0.774154007434845,-0.5142665505409241
1782968842525794600,0.312794677734375,0.15517334640026093,0.6723536252975464,-0.428316205739975
1782968842535720400,0.322720458984375,0.4455716013908386,0.4876847267150879,-0.21766121685504913
1782968842545647400,0.3326474609375,0.6288490295410156,0.23389558494091034,0.06975724548101425
1782968842555573500,0.342573486328125,0.7585892081260681,0.10936164110898972,0.44851601123809814
1782968842565499400,0.35249951171875,0.8229303359985352,0.013016466051340103,0.8067178130149841
1782968842575425300,0.36242529296875,0.794021487236023,-0.12585006654262543,1.017267107963562
1782968842585352400,0.3723525390625,0.7307729721069336,-0.21289123594760895,1.117322325706482
1782968842595278600,0.382278564453125,0.7389262914657593,-0.154684379696846,1.157518982887268
1782968842605204200,0.392204345703125,0.8114422559738159,-0.020671723410487175,1.147047758102417
1782968842615131400,0.40213134765625,0.8881562352180481,0.09606048464775085,1.0994242429733276
1782968842625057500,0.4120576171875,0.9178810715675354,0.1996539831161499,1.0284249782562256
1782968842634983400,0.4219833984375,0.9057048559188843,0.28974711894989014,0.9518119096755981
1782968842644910300,0.431910400390625,0.8655033707618713,0.31554490327835083,0.8685199618339539
1782968842654836500,0.44183642578125,0.8315134644508362,0.26612064242362976,0.8220371007919312
1782968842664762600,0.4517626953125,0.8175371885299683,0.16184082627296448,0.8511230945587158
1782968842674688300,0.461688232421875,0.8463789820671082,0.008927981369197369,0.9296714663505554
1782968842684615400,0.471615478515625,0.9125403761863708,-0.17536570131778717,1.0400536060333252
1782968842694541600,0.48154150390625,1.0078741312026978,-0.2924635410308838,1.1577938795089722
1782968842704467500,0.491467529296875,1.1168237924575806,-0.36961665749549866,1.2410972118377686
1782968842714394400,0.501394287109375,1.2094274759292603,-0.4201565384864807,1.2534431219100952
1782968842724320500,0.511320556640625,1.2711976766586304,-0.44795939326286316,1.1930292844772339
1782968842734246400,0.521246337890625,1.2750022411346436,-0.4541557729244232,1.0695569515228271
1782968842744173600,0.531173583984375,1.2258716821670532,-0.4508984684944153,0.9207128286361694
1782968842754099500,0.541099365234375,1.1247889995574951,-0.44091135263442993,0.7874045968055725
1782968842764025300,0.551025390625,0.9920453429222107,-0.4115515947341919,0.6986566185951233
1782968842773952300,0.5609521484375,0.866498589515686,-0.34737128019332886,0.6447345018386841
1782968842783878400,0.57087841796875,0.7750160694122314,-0.262965589761734,0.5940998196601868
1782968842793804300,0.58080419921875,0.7340734601020813,-0.16676954925060272,0.5528584122657776
1782968842803730200,0.590730224609375,0.702643632888794,-0.09982912242412567,0.515548050403595
1782968842813657300,0.6006572265625,0.6731352806091309,-0.06542987376451492,0.47829732298851013
1782968842823583500,0.61058349609375,0.6595773696899414,-0.0379127599298954,0.4462054371833801
1782968842833509400,0.62050927734375,0.6700223088264465,-0.03056296892464161,0.4066236913204193
1782968842843436300,0.630436279296875,0.6857038140296936,-0.025909626856446266,0.3557157516479492
1782968842853362400,0.640362548828125,0.6826499700546265,-0.01158661488443613,0.27989184856414795
1782968842863288300,0.650288330078125,0.6742503046989441,-0.04015514254570007,0.2702232301235199
1782968842873215500,0.660215576171875,0.59064120054245,-0.08441554754972458,0.32425904273986816
1782968842883141400,0.670141357421875,0.4812640845775604,-0.13619379699230194,0.4093123972415924
1782968842893067300,0.6800673828125,0.44157686829566956,-0.15770255029201508,0.4965783357620239
1782968842902994400,0.689994384765625,0.4619010388851166,-0.137013241648674,0.5797044038772583
1782968842912920300,0.69992041015625,0.4701342284679413,-0.11046845465898514,0.6154218912124634
1782968842922846200,0.70984619140625,0.45455923676490784,-0.09967625886201859,0.5977960228919983
1782968842932772400,0.7197724609375,0.41881030797958374,-0.09520640969276428,0.5478740334510803
1782968842942699500,0.729699462890625,0.36434465646743774,-0.10217137634754181,0.47351163625717163
1782968842952625200,0.739625244140625,0.3039628267288208,-0.13909371197223663,0.3817436397075653
1782968842962551300,0.74955126953125,0.2310345470905304,-0.17740753293037415,0.31143271923065186
1782968842972478500,0.759478515625,0.14970053732395172,-0.19368503987789154,0.2502572536468506
1782968842982404400,0.769404296875,0.05976319685578346,-0.21268297731876373,0.16554315388202667
1782968842992330200,0.779330322265625,-0.038604117929935455,-0.22034062445163727,0.06012272462248802
1782968843002257400,0.78925732421875,-0.14142850041389465,-0.21333624422550201,-0.06611031293869019
1782968843012183600,0.79918359375,-0.2564142048358917,-0.193592369556427,-0.18780158460140228
1782968843022109200,0.809109130859375,-0.38064801692962646,-0.1292988657951355,-0.27350425720214844
1782968843032036400,0.819036376953125,-0.5026530027389526,-0.03502509370446205,-0.3295976221561432
1782968843041962500,0.82896240234375,-0.5963033437728882,0.08841375261545181,-0.33907899260520935
1782968843051888000,0.83888818359375,-0.6368816494941711,0.24626809358596802,-0.2963312566280365
1782968843061815300,0.848815185546875,-0.6234635710716248,0.3737325668334961,-0.19836688041687012
1782968843071741400,0.858741455078125,-0.569791853427887,0.44012224674224854,-0.0827779695391655
1782968843081667300,0.868667236328125,-0.52159583568573,0.4385360777378082,-0.015872173011302948
1782968843091593200,0.87859326171875,-0.503603994846344,0.35432666540145874,-0.011519769206643105
1782968843101520400,0.888520263671875,-0.5199078917503357,0.21386727690696716,-0.07621833682060242
1782968843111446300,0.8984462890625,-0.5818732380867004,0.050444796681404114,-0.19543500244617462
1782968843121372200,0.9083720703125,-0.6770713925361633,-0.09501679241657257,-0.34566420316696167
1782968843131299300,0.91829931640625,-0.8017504811286926,-0.20007316768169403,-0.5120055079460144
1782968843141225200,0.92822509765625,-0.925825834274292,-0.24203260242938995,-0.6611361503601074
1782968843151151400,0.9381513671875,-1.0211595296859741,-0.2068043053150177,-0.765707790851593
1782968843161078500,0.94807861328125,-1.079805612564087,-0.10032180696725845,-0.8202900886535645
1782968843171004400,0.95800439453125,-1.1047865152359009,0.03146151825785637,-0.7982186079025269
1782968843180930300,0.967930419921875,-1.103106141090393,0.1402876079082489,-0.7242850065231323
1782968843190857500,0.977857421875,-1.0752856731414795,0.217445507645607,-0.6191924214363098
1782968843200783400,0.987783447265625,-1.03425931930542,0.2532130777835846,-0.5432054996490479
1782968843210709200,0.997709228515625,-0.9953367710113525,0.2087193876504898,-0.5192013382911682
1782968843220635400,1.007635498046875,-0.9583063125610352,0.10991425067186356,-0.5390008687973022
1782968843230562600,1.0175625,-0.939944326877594,-0.0019411781104281545,-0.5964612364768982
1782968843240488200,1.02748828125,-0.9405632615089417,-0.1335817575454712,-0.6981189250946045
1782968843250414300,1.037414306640625,-0.9418402314186096,-0.29990309476852417,-0.8380259275436401
1782968843260341500,1.047341552734375,-0.9416822791099548,-0.4515051245689392,-0.9757595658302307
1782968843270267100,1.05726708984375,-0.9494432806968689,-0.5430901646614075,-1.0765002965927124
1782968843280193300,1.067193359375,-0.9627335071563721,-0.5599493384361267,-1.1417264938354492
1782968843290120400,1.077120361328125,-0.9753829836845398,-0.49864763021469116,-1.1776479482650757
1782968843300046300,1.08704638671875,-0.9880759119987488,-0.3711863160133362,-1.1879721879959106
1782968843309972200,1.09697216796875,-0.9977455735206604,-0.23704583942890167,-1.187912106513977
1782968843319898400,1.1068984375,-0.9847128391265869,-0.1286676973104477,-1.1956908702850342
1782968843329825300,1.1168251953125,-0.9508808851242065,-0.07557838410139084,-1.1819294691085815
1782968843339751200,1.126751220703125,-0.8993526697158813,-0.07354159653186798,-1.127338171005249
1782968843349677300,1.13667724609375,-0.8414478302001953,-0.10844631493091583,-1.0363507270812988
1782968843359604500,1.1466044921875,-0.7945317625999451,-0.14727972447872162,-0.9345972537994385
1782968843369530400,1.1565302734375,-0.7548293471336365,-0.1614309698343277,-0.8469496965408325
1782968843379456300,1.166456298828125,-0.7280206084251404,-0.12020044028759003,-0.7979797124862671
1782968843389383400,1.176383544921875,-0.7133106589317322,-0.004936435259878635,-0.7764230370521545
1782968843399309300,1.186309326171875,-0.7130818963050842,0.14704057574272156,-0.7605199813842773
1782968843409235200,1.196235107421875,-0.7522921562194824,0.30238035321235657,-0.7476412057876587
1782968843419162400,1.206162353515625,-0.8163792490959167,0.4236045181751251,-0.7313439846038818
1782968843429088300,1.216088134765625,-0.8761759996414185,0.48413604497909546,-0.6780112385749817
1782968843439014400,1.226014404296875,-0.943452000617981,0.4636813700199127,-0.611939013004303
1782968843448940300,1.235940185546875,-0.996512770652771,0.4478755295276642,-0.594079852104187
1782968843458867200,1.2458671875,-1.0237758159637451,0.5193377137184143,-0.6683903336524963
1782968843468793300,1.25579345703125,-1.0073747634887695,0.6035716533660889,-0.7577433586120605
1782968843478719200,1.26571923828125,-0.9386788010597229,0.6430098414421082,-0.7758752107620239
1782968843488646100,1.275646240234375,-0.7697163820266724,0.5838658213615417,-0.6575459241867065
1782968843498572300,1.285572265625,-0.41573116183280945,0.4395659267902374,-0.3663337826728821
1782968843508498400,1.29549853515625,-0.06797239184379578,0.2692621052265167,-0.03502615913748741
1782968843518425300,1.30542529296875,0.27047809958457947,0.12445138394832611,0.27511730790138245
1782968843528351200,1.315351318359375,0.5579538345336914,0.035905271768569946,0.5226719975471497
1782968843538277400,1.32527734375,0.7884530425071716,-0.012855877168476582,0.6936621069908142
1782968843548204500,1.33520458984375,0.9424668550491333,-0.07841891050338745,0.8031768798828125
1782968843558130200,1.345130126953125,1.0085420608520508,-0.1324363350868225,0.8386065363883972
1782968843568056300,1.355056396484375,1.0159645080566406,-0.14762833714485168,0.7993571162223816
1782968843577982500,1.364982421875,0.9741308093070984,-0.13159771263599396,0.6997511386871338
1782968843587909000,1.3749091796875,0.9103675484657288,-0.09544529765844345,0.5865143537521362
1782968843597835300,1.384835205078125,0.8429674506187439,-0.03651992604136467,0.5051196217536926
1782968843607761400,1.394761474609375,0.801647424697876,0.02107013203203678,0.46694082021713257
1782968843617688300,1.404688232421875,0.8015073537826538,0.08288183063268661,0.48690226674079895
1782968843627614200,1.4146142578125,0.8410100340843201,0.14891330897808075,0.5764244198799133
1782968843637540400,1.424540283203125,0.908493161201477,0.2200855016708374,0.7082341313362122
1782968843647467300,1.43446728515625,0.9871163368225098,0.2913314402103424,0.8306061029434204
1782968843657393400,1.444393310546875,1.0701779127120972,0.3681415319442749,0.9069786667823792
1782968843667319300,1.4543193359375,1.1415400505065918,0.41603875160217285,0.9224691987037659
1782968843677246200,1.46424609375,1.1873575448989868,0.3643001914024353,0.9027578234672546
1782968843687172400,1.47417236328125,1.2161657810211182,0.21446169912815094,0.9017982482910156
1782968843697098200,1.48409814453125,1.2743300199508667,0.03658171370625496,0.9708191752433777
1782968843707024400,1.4940244140625,1.3724589347839355,-0.1708204746246338,1.0729186534881592
1782968843716951300,1.503951416015625,1.4879504442214966,-0.3401850163936615,1.1807894706726074
1782968843726877400,1.51387744140625,1.5916177034378052,-0.4488750100135803,1.2492544651031494
1782968843736803300,1.52380322265625,1.6692464351654053,-0.49778449535369873,1.258996605873108
1782968843746730200,1.533730224609375,1.7027151584625244,-0.5060722231864929,1.2258496284484863
1782968843756656600,1.54365673828125,1.6928420066833496,-0.48887142539024353,1.1579855680465698
1782968843766582500,1.55358251953125,1.6273871660232544,-0.4756450951099396,1.069736361503601
1782968843776509400,1.563509521484375,1.5490840673446655,-0.46719861030578613,0.9884399771690369
1782968843786435600,1.573435546875,1.4811748266220093,-0.4600333869457245,0.9101515412330627
1782968843796361700,1.58336181640625,1.430019736289978,-0.4521765112876892,0.83310866355896
1782968843806287600,1.59328759765625,1.395119309425354,-0.4649530351161957,0.7392439842224121
1782968843816214500,1.603214599609375,1.3648772239685059,-0.5077692270278931,0.6537061929702759
1782968843826140700,1.613140625,1.3320921659469604,-0.5548067688941956,0.5795238018035889
1782968843836066600,1.623066650390625,1.3014484643936157,-0.585564374923706,0.5244318246841431
1782968843845993500,1.632993408203125,1.2792654037475586,-0.5623312592506409,0.4915708005428314
1782968843855919600,1.642919677734375,1.2609177827835083,-0.5022306442260742,0.4789290428161621
1782968843865845800,1.652845703125,1.250793218612671,-0.41736820340156555,0.48975425958633423
1782968843875772400,1.6627724609375,1.232969045639038,-0.3140796422958374,0.5057864785194397
1782968843885698600,1.672698486328125,1.19383704662323,-0.21615226566791534,0.5046152472496033
1782968843895624700,1.682624755859375,1.191300868988037,-0.1600876748561859,0.5351342558860779
1782968843905551600,1.692551513671875,1.1391130685806274,-0.11959963291883469,0.5683313608169556
1782968843915477500,1.7024775390625,1.067265272140503,-0.08747951686382294,0.5911522507667542
1782968843925403600,1.712403564453125,0.9798038601875305,-0.0792415589094162,0.6023982167243958
1782968843935329800,1.722329833984375,0.8767509460449219,-0.09966321289539337,0.5821118950843811
1782968843945256400,1.73225634765625,0.7802231311798096,-0.12438160926103592,0.5376189947128296
1782968843955182600,1.7421826171875,0.708393394947052,-0.15883173048496246,0.4636065363883972
1782968843965108700,1.752108642578125,0.6301952600479126,-0.19563421607017517,0.3645491898059845
1782968843975035600,1.76203564453125,0.5289016366004944,-0.21510618925094604,0.24215005338191986
1782968843984961500,1.77196142578125,0.39828187227249146,-0.21687771379947662,0.09655583649873734
1782968843994887700,1.7818876953125,0.25606292486190796,-0.167722687125206,-0.03489433601498604
1782968844004814600,1.791814697265625,0.08553007990121841,-0.07664231210947037,-0.09479521960020065
1782968844014740700,1.80174072265625,-0.06792765110731125,0.11566827446222305,-0.07734166085720062
1782968844024666600,1.81166650390625,-0.17881794273853302,0.31911566853523254,-0.016337161883711815
1782968844034592500,1.821592529296875,-0.25390392541885376,0.49509015679359436,0.05210980772972107
1782968844044519700,1.831519775390625,-0.3028424382209778,0.6093038320541382,0.11170682311058044
1782968844054445600,1.841445556640625,-0.3326708972454071,0.6414066553115845,0.14683765172958374
1782968844064371700,1.851371826171875,-0.34427347779273987,0.5823997855186462,0.13584411144256592
1782968844074298600,1.861298583984375,-0.36127644777297974,0.44881507754325867,0.06172861158847809
1782968844084224800,1.871224853515625,-0.39835217595100403,0.2822692394256592,-0.05471224710345268
1782968844094150700,1.881150634765625,-0.45557311177253723,0.12142442911863327,-0.18719226121902466
1782968844104077600,1.89107763671875,-0.5343505144119263,0.05074254050850868,-0.3085929751396179
1782968844114003700,1.901003662109375,-0.5904244184494019,0.04778962582349777,-0.4030747413635254
1782968844123929600,1.9109296875,-0.6743046641349792,0.033065009862184525,-0.4657474458217621
1782968844133856500,1.9208564453125,-0.7580999732017517,0.1500009447336197,-0.4502635598182678
1782968844143782700,1.93078271484375,-0.7881681323051453,0.35849902033805847,-0.40895742177963257
1782968844153708800,1.940708740234375,-0.7918781638145447,0.4903055429458618,-0.38364726305007935
1782968844163634400,1.950634521484375,-0.8537154197692871,0.5181654095649719,-0.3883533179759979
1782968844173561600,1.9605615234375,-0.8517422676086426,0.6316919326782227,-0.30061283707618713
1782968844183487700,1.97048779296875,-0.7930121421813965,0.7283689379692078,-0.25086578726768494
1782968844193413400,1.980413330078125,-0.7824828028678894,0.6558902263641357,-0.32007014751434326
1782968844203340500,1.990340576171875,-0.8400400876998901,0.5118712782859802,-0.4358089864253998
1782968844213266700,2.0002666015625,-0.916624903678894,0.3586055636405945,-0.53071528673172
1782968844223192600,2.010192626953125,-0.9095163941383362,0.3161819279193878,-0.5952466130256653
1782968844233119500,2.020119384765625,-0.863058865070343,0.24438656866550446,-0.7148787379264832
1782968844243045600,2.030045654296875,-0.852908730506897,0.0991968885064125,-0.8567644953727722
1782968844252971800,2.0399716796875,-0.8632255792617798,-0.009557552635669708,-0.9670481085777283
1782968844262898700,2.049898681640625,-0.8710587620735168,-0.13499057292938232,-1.0481669902801514
1782968844272824600,2.059824462890625,-0.876503050327301,-0.280708372592926,-1.0736075639724731
1782968844282750700,2.069750732421875,-0.8846075534820557,-0.4053749144077301,-1.060698390007019
1782968844292676600,2.079676513671875,-0.9030004143714905,-0.4871440827846527,-1.0570789575576782
1782968844302603500,2.089603515625,-0.9343785643577576,-0.5052943229675293,-1.0788319110870361
1782968844312529700,2.09952978515625,-0.9843458533287048,-0.4567771255970001,-1.1243746280670166
1782968844322455600,2.10945556640625,-1.0581330060958862,-0.37419039011001587,-1.1798858642578125
1782968844332382700,2.1193828125,-1.1530877351760864,-0.27315962314605713,-1.239395260810852
1782968844342308600,2.12930859375,-1.2538609504699707,-0.15708176791667938,-1.2851784229278564
1782968844352234500,2.139234375,-1.3519891500473022,-0.040660079568624496,-1.3014143705368042
1782968844362161700,2.14916162109375,-1.4300687313079834,0.07305104285478592,-1.2695385217666626
1782968844372087600,2.159087646484375,-1.4784038066864014,0.1951572448015213,-1.192109227180481
1782968844382013400,2.169013427734375,-1.4926663637161255,0.28248095512390137,-1.069951057434082
1782968844391939600,2.178939697265625,-1.467208981513977,0.33133479952812195,-0.927840530872345
1782968844401866800,2.18886669921875,-1.4022384881973267,0.31156668066978455,-0.7693845629692078
1782968844411792600,2.198792724609375,-1.2984769344329834,0.2524157464504242,-0.6193098425865173
1782968844421718500,2.208718505859375,-1.1627057790756226,0.19778205454349518,-0.49354687333106995
1782968844431645700,2.218645751953125,-1.0185449123382568,0.1603531837463379,-0.4188441336154938
1782968844441571600,2.228571533203125,-0.8619711995124817,0.14319097995758057,-0.4095132052898407
1782968844451497500,2.23849755859375,-0.7318153381347656,0.14092862606048584,-0.44300219416618347
1782968844461424600,2.248424560546875,-0.6536262631416321,0.16721110045909882,-0.5090019702911377
1782968844471350800,2.258350830078125,-0.6179904937744141,0.21352319419384003,-0.5796146392822266
1782968844481276400,2.2682763671875,-0.5855614542961121,0.28074005246162415,-0.6066949963569641
1782968844491203600,2.27820361328125,-0.4947471618652344,0.3360099792480469,-0.5528519749641418
1782968844501129700,2.288129638671875,-0.32439085841178894,0.33716604113578796,-0.4015868604183197
1782968844511055400,2.298055419921875,-0.1229027509689331,0.2898182272911072,-0.18255622684955597
1782968844520981500,2.3079814453125,-0.0016527577536180615,0.24997441470623016,0.002838130807504058
1782968844530908700,2.31790869140625,0.22062744200229645,0.16814453899860382,0.26301032304763794
1782968844540834600,2.32783447265625,0.39498594403266907,0.09406444430351257,0.49420759081840515
1782968844550760400,2.337760498046875,0.5204346776008606,0.01912868767976761,0.6102473735809326
1782968844560687600,2.3476875,0.6333582997322083,0.01961471326649189,0.6648557782173157
1782968844570613500,2.357613525390625,0.7249792814254761,0.028609273955225945,0.6594215631484985
1782968844580539600,2.36753955078125,0.7908248901367188,0.047320909798145294,0.6160780787467957
1782968844590466600,2.377466552734375,0.8473853468894958,0.06984486430883408,0.557610809803009
1782968844600392700,2.387392822265625,0.8857231736183167,0.09725571423768997,0.5154274106025696
1782968844610318600,2.397318603515625,0.9204853773117065,0.11615324020385742,0.5039627552032471
1782968844620244500,2.407244384765625,0.9703618884086609,0.11180988699197769,0.5205742120742798
1782968844630171600,2.417171630859375,1.0429357290267944,0.08548294007778168,0.5679148435592651
1782968844640097500,2.42709765625,1.1335936784744263,0.04801732674241066,0.6586530208587646
1782968844650023700,2.437023681640625,1.2385520935058594,0.01155785284936428,0.7707331776618958
1782968844659950600,2.44695068359375,1.3341952562332153,0.003973968792706728,0.869637668132782
1782968844669876500,2.45687646484375,1.3874419927597046,0.05566991865634918,0.9431036114692688
1782968844679802600,2.466802734375,1.3824211359024048,0.15427559614181519,1.005165934562683
1782968844689729800,2.476729736328125,1.3357547521591187,0.2543444037437439,1.0456737279891968
1782968844699655400,2.486655517578125,1.2686612606048584,0.3335129916667938,1.0543848276138306
1782968844709581600,2.49658154296875,1.2015892267227173,0.33585044741630554,1.0316110849380493
1782968844719508700,2.5065087890625,1.1588494777679443,0.253408819437027,1.0172017812728882
1782968844729434400,2.516434326171875,1.172309160232544,0.10702578723430634,0.9991229772567749
1782968844739360500,2.526360595703125,1.2078332901000977,-0.0870390310883522,0.9590197205543518
1782968844749286700,2.53628662109375,1.234718918800354,-0.26711079478263855,0.8660746216773987
1782968844759214000,2.546214111328125,1.2329351902008057,-0.3906673491001129,0.7274645566940308
1782968844769140200,2.55614013671875,1.1731864213943481,-0.4614238142967224,0.5674977898597717
1782968844779066000,2.566066162109375,1.0707236528396606,-0.4832896888256073,0.4359664022922516
1782968844788993000,2.575992919921875,0.9467766880989075,-0.44199100136756897,0.3697085380554199
1782968844798919200,2.585919189453125,0.8180080056190491,-0.3439001142978668,0.3901379108428955
1782968844808845300,2.59584521484375,0.6922674179077148,-0.20736943185329437,0.4635724425315857
1782968844818772000,2.60577197265625,0.5923991203308105,-0.09541094303131104,0.549542248249054
1782968844828698000,2.615697998046875,0.5349547863006592,-0.014583736658096313,0.6236808896064758
1782968844838624300,2.625624267578125,0.5065337419509888,0.003340669209137559,0.6699016690254211
1782968844848550100,2.635550048828125,0.5187196135520935,-0.05726435407996178,0.7039973139762878
1782968844858477000,2.64547705078125,0.5900436043739319,-0.17364609241485596,0.7387912273406982
1782968844868403200,2.6554033203125,0.6994481086730957,-0.2872605323791504,0.7839057445526123
1782968844878329300,2.665329345703125,0.794166624546051,-0.38914188742637634,0.8083506226539612
1782968844888256000,2.675256103515625,0.8400225043296814,-0.43715521693229675,0.7990207672119141
1782968844898182100,2.68518212890625,0.8148548603057861,-0.42465221881866455,0.7540767192840576
1782968844908108300,2.6951083984375,0.739475667476654,-0.3697008192539215,0.6582695245742798
1782968844918035200,2.70503515625,0.6243179440498352,-0.2890608310699463,0.5185611248016357
1782968844927961000,2.714961181640625,0.4927910566329956,-0.20281516015529633,0.3430154025554657
1782968844937887200,2.72488720703125,0.34864479303359985,-0.13170184195041656,0.143941730260849
1782968844947814100,2.734814208984375,0.20412996411323547,-0.06684720516204834,-0.06007132679224014
1782968844957740000,2.744739990234375,0.06267616152763367,0.0020120181143283844,-0.24318762123584747
1782968844967666200,2.754666259765625,-0.06946882605552673,0.06908852607011795,-0.38225841522216797
1782968844977592300,2.76459228515625,-0.15412086248397827,0.11806938052177429,-0.4428413510322571
1782968844987519200,2.774519287109375,-0.20257574319839478,0.16049300134181976,-0.41020217537879944
1782968844997445000,2.784445068359375,-0.20509642362594604,0.19959139823913574,-0.29331788420677185
1782968845007371300,2.794371337890625,-0.16152603924274445,0.23414671421051025,-0.1310272514820099
1782968845017298200,2.804298095703125,-0.07930441200733185,0.2669390141963959,0.042269960045814514
1782968845027224000,2.81422412109375,0.009787117131054401,0.2754131853580475,0.18895180523395538
1782968845037150200,2.824150146484375,0.07282174378633499,0.22176142036914825,0.27659618854522705
1782968845047077000,2.8340771484375,0.08470743149518967,0.13258200883865356,0.2971602976322174
1782968845057003300,2.844003173828125,0.04559971019625664,0.0172618106007576,0.26317891478538513
1782968845066929200,2.85392919921875,-0.03790690377354622,-0.08222723007202148,0.159895658493042
1782968845076856000,2.86385595703125,-0.15171070396900177,-0.1361679583787918,0.005371862091124058
1782968845086782200,2.8737822265625,-0.2799123525619507,-0.12363911420106888,-0.16312606632709503
1782968845096708000,2.8837080078125,-0.42001086473464966,-0.047927845269441605,-0.31098103523254395
1782968845106634200,2.89363427734375,-0.5554472208023071,0.08552528917789459,-0.44421473145484924
1782968845116561200,2.90356103515625,-0.6964877247810364,0.2522876262664795,-0.5593631863594055
1782968845126487300,2.9134873046875,-0.8120795488357544,0.4212596118450165,-0.6413677334785461
1782968845136413200,2.9234130859375,-0.8815872669219971,0.5275551676750183,-0.6457302570343018
1782968845146340000,2.933340087890625,-0.8835952877998352,0.5790457725524902,-0.5472638607025146
1782968845156266200,2.943266357421875,-0.8205859661102295,0.5717716217041016,-0.3879519999027252
1782968845166192000,2.953192138671875,-0.7356377840042114,0.507485032081604,-0.2681390345096588
1782968845176119000,2.963119140625,-0.6650600433349609,0.42592093348503113,-0.23818406462669373
1782968845186045200,2.973045166015625,-0.6298381090164185,0.3334011435508728,-0.29824528098106384
1782968845195971300,2.982971435546875,-0.6352299451828003,0.24657782912254333,-0.4135524332523346
1782968845205897200,2.992897216796875,-0.6856880784034729,0.1808432787656784,-0.5841947197914124
1782968845215824100,3.00282421875,-0.7564882040023804,0.12078554183244705,-0.76981121301651
1782968845225750300,3.012750244140625,-0.8269264101982117,0.06894391030073166,-0.9449236392974854
1782968845235676400,3.022676513671875,-0.868883490562439,0.004915129859000444,-1.0811057090759277
1782968845245603000,3.03260302734375,-0.8938348889350891,-0.05910726264119148,-1.1751797199249268
1782968845255529200,3.042529296875,-0.9116586446762085,-0.10765242576599121,-1.2341426610946655
1782968845265455400,3.052455322265625,-0.9252010583877563,-0.1280256062746048,-1.252873182296753
1782968845275382300,3.06238232421875,-0.9345362186431885,-0.12785303592681885,-1.2378199100494385
1782968845285308200,3.07230810546875,-0.9099385142326355,-0.08624966442584991,-1.1925883293151855
1782968845295234300,3.082234375,-0.8703223466873169,0.005386775825172663,-1.1002269983291626
1782968845305161200,3.0921611328125,-0.8347132205963135,0.06083645299077034,-0.9803801774978638
1782968845315087000,3.102087158203125,-0.8233423233032227,0.09349559247493744,-0.8617139458656311
1782968845325013200,3.11201318359375,-0.8373795747756958,0.1299835592508316,-0.7753053307533264
1782968845334939100,3.121939208984375,-0.8678286075592041,0.16535913944244385,-0.7538726925849915
1782968845344866300,3.1318662109375,-0.9198870062828064,0.20727995038032532,-0.7922810912132263
1782968845354792200,3.141792236328125,-0.9774323105812073,0.2251817137002945,-0.8580327033996582
1782968845364718000,3.151718017578125,-1.0174367427825928,0.19332578778266907,-0.8953124284744263
1782968845374645200,3.161645263671875,-1.0262174606323242,0.1734306365251541,-0.8805902004241943
1782968845384571100,3.171571044921875,-0.9831778407096863,0.18889588117599487,-0.8217948079109192
1782968845394497300,3.181497314453125,-0.8903115391731262,0.22629305720329285,-0.7379022836685181
1782968845404424200,3.191424072265625,-0.7648465633392334,0.24646569788455963,-0.625312089920044
1782968845414350300,3.201350341796875,-0.6197615265846252,0.22551648318767548,-0.5104025602340698
1782968845424276200,3.211276123046875,-0.47971493005752563,0.15086035430431366,-0.39237338304519653
1782968845434203100,3.221203125,-0.36789944767951965,0.02201821655035019,-0.3012559711933136
1782968845444129300,3.23112939453125,-0.2859523892402649,-0.14137044548988342,-0.23348519206047058
1782968845454055200,3.24105517578125,-0.23165160417556763,-0.2525544762611389,-0.21010716259479523
1782968845463981000,3.25098095703125,-0.2187693566083908,-0.24386033415794373,-0.27067410945892334
1782968845473908200,3.260908203125,-0.2469376176595688,-0.16109274327754974,-0.3618687391281128
1782968845483834400,3.27083447265625,-0.30100032687187195,-0.06031287461519241,-0.4208787977695465
1782968845493760000,3.280760009765625,-0.40984663367271423,0.0665862187743187,-0.47042715549468994
1782968845503687200,3.290687255859375,-0.4187900722026825,0.08303443342447281,-0.5067180395126343
1782968845513613300,3.30061328125,-0.3004884719848633,0.22434468567371368,-0.42324528098106384
1782968845523539000,3.3105390625,-0.1721927970647812,0.31629884243011475,-0.29647427797317505
1782968845533466000,3.320466064453125,-0.06998015195131302,0.24041207134723663,-0.09812416881322861
1782968845543392300,3.330392333984375,0.03188815712928772,0.14004606008529663,0.21202650666236877
1782968845553318100,3.340318115234375,0.04086514189839363,0.02118917554616928,0.5806047916412354
1782968845563244000,3.350244140625,-0.01973428949713707,-0.1047850027680397,0.8487955331802368
1782968845573171200,3.360171142578125,-0.1007138267159462,-0.2813880145549774,0.962207019329071
1782968845583097300,3.370097412109375,-0.21106909215450287,-0.41461583971977234,0.9434698224067688
1782968845593023000,3.38002294921875,-0.28844404220581055,-0.42818596959114075,0.871799647808075
1782968845602950100,3.3899501953125,-0.2847667634487152,-0.326700896024704,0.8032858371734619
1782968845612876300,3.399876220703125,-0.23398026823997498,-0.12747406959533691,0.7651549577713013
1782968845622802200,3.40980224609375,-0.0999460369348526,0.11224238574504852,0.762932538986206
1782968845632729000,3.41972900390625,0.08470024168491364,0.34065160155296326,0.7527499198913574
1782968845642655200,3.4296552734375,0.38164323568344116,0.43529582023620605,0.6857677102088928
1782968845652581000,3.4395810546875,0.6713903546333313,0.5217675566673279,0.5866333842277527
1782968845662508300,3.44950830078125,0.8830621242523193,0.5635533928871155,0.49533703923225403
1782968845672434200,3.45943408203125,1.0122342109680176,0.4174973666667938,0.48370620608329773
1782968845682360000,3.469360107421875,1.1575120687484741,0.08466934412717819,0.5939165949821472
1782968845692286200,3.4792861328125,1.3070999383926392,-0.26814302802085876,0.7441295385360718
1782968845702213400,3.48921337890625,1.451927661895752,-0.4914892911911011,0.8903826475143433
1782968845712139000,3.499138916015625,1.4771193265914917,-0.5711367130279541,0.9999261498451233
1782968845722065200,3.509065185546875,1.390435814857483,-0.6984201073646545,1.0428392887115479
1782968845731992300,3.518992431640625,1.272873044013977,-0.7504260540008545,1.0142850875854492
1782968845741918200,3.528918212890625,1.1610926389694214,-0.6472887396812439,0.9138357639312744
1782968845751844000,3.538843994140625,1.0520015954971313,-0.47650715708732605,0.7519674897193909
1782968845761770800,3.548770751953125,0.9919816851615906,-0.27342861890792847,0.5797512531280518
1782968845771697000,3.55869677734375,1.0010348558425903,-0.03080132231116295,0.456036239862442
1782968845781622800,3.568622802734375,1.0369176864624023,0.16666008532047272,0.39834603667259216
1782968845791548700,3.578548583984375,1.0381619930267334,0.28304049372673035,0.3582915663719177
1782968845801475800,3.588475830078125,1.0621408224105835,0.3017295002937317,0.3744732141494751
1782968845811401700,3.598401611328125,1.0930105447769165,0.22026897966861725,0.45110753178596497
1782968845821327600,3.60832763671875,1.1083378791809082,0.06733536720275879,0.5256805419921875
1782968845831254800,3.6182548828125,1.0908409357070923,-0.09421464800834656,0.5902385115623474
1782968845841181000,3.628180908203125,1.0480668544769287,-0.24592721462249756,0.6466269493103027
1782968845851106800,3.63810693359375,0.9918863773345947,-0.3589632213115692,0.6985114812850952
1782968845861033700,3.64803369140625,0.9315412640571594,-0.4253140091896057,0.7449910640716553
1782968845870959900,3.6579599609375,0.85917729139328,-0.40722769498825073,0.732904851436615
1782968845880885800,3.6678857421875,0.8000943064689636,-0.3202943801879883,0.6996387839317322
1782968845890813000,3.67781298828125,0.7377851009368896,-0.18752115964889526,0.6813620328903198
1782968845900738800,3.68773876953125,0.6725256443023682,-0.08117421716451645,0.6973697543144226
1782968845910664700,3.697664794921875,0.605435848236084,-0.018852517008781433,0.7373480796813965
1782968845920590800,3.7075908203125,0.5315490961074829,-0.0057218014262616634,0.7763037085533142
1782968845930518000,3.71751806640625,0.44548559188842773,-0.015958193689584732,0.7970207333564758
1782968845940443600,3.727443603515625,0.3394007086753845,-0.06631617248058319,0.7575004696846008
1782968845950369800,3.737369873046875,0.22852611541748047,-0.14453667402267456,0.6568058133125305
1782968845960297000,3.747296875,0.1183367595076561,-0.1979527622461319,0.5116238594055176
1782968845970222600,3.75722265625,0.007738347165286541,-0.2006625235080719,0.32195353507995605
1782968845980148700,3.767148681640625,-0.10650327056646347,-0.16702626645565033,0.10216445475816727
1782968845990076000,3.777075927734375,-0.21322493255138397,-0.09860993176698685,-0.10411015897989273
1782968846000001800,3.787001708984375,-0.29856327176094055,-0.015388810075819492,-0.25920864939689636
1782968846009927700,3.796927734375,-0.34838807582855225,0.1056438684463501,-0.3428233861923218
1782968846019854800,3.806854736328125,-0.3698827028274536,0.25762248039245605,-0.4319798946380615
1782968846029781000,3.816781005859375,-0.3326519727706909,0.4128269851207733,-0.48061108589172363
1782968846039706600,3.82670654296875,-0.22744061052799225,0.4862806797027588,-0.42336776852607727
1782968846049632800,3.8366328125,-0.1554897278547287,0.48055702447891235,-0.3074723184108734
1782968846059560000,3.846559814453125,-0.12137569487094879,0.407175213098526,-0.187504380941391
1782968846069485800,3.85648583984375,-0.11620676517486572,0.26347026228904724,-0.09225456416606903
1782968846079411700,3.86641162109375,-0.14475798606872559,0.09016051888465881,-0.05424113571643829
1782968846089339000,3.8763388671875,-0.19269594550132751,-0.08905051648616791,-0.06939931213855743
1782968846099264800,3.8862646484375,-0.2637948989868164,-0.22825740277767181,-0.14403493702411652
1782968846109190700,3.896190673828125,-0.3517630994319916,-0.30059152841567993,-0.26467666029930115
1782968846119117800,3.906117919921875,-0.44004422426223755,-0.2964668273925781,-0.4142584204673767
1782968846129043700,3.916043701171875,-0.518696129322052,-0.23698937892913818,-0.5450270771980286
1782968846138969900,3.925969970703125,-0.5895184278488159,-0.14128442108631134,-0.6402342915534973
1782968846148896800,3.935896728515625,-0.655493438243866,-0.03437342122197151,-0.7038663029670715
1782968846158822700,3.94582275390625,-0.7108429670333862,0.06970611214637756,-0.7511538863182068
1782968846168748800,3.955748779296875,-0.7493650317192078,0.16442783176898956,-0.772948682308197
1782968846178674700,3.9656748046875,-0.7829065322875977,0.24592454731464386,-0.7869356274604797
1782968846188601900,3.975601806640625,-0.819490909576416,0.3036823868751526,-0.8310750722885132
1782968846198527700,3.98552783203125,-0.8486074805259705,0.2919815182685852,-0.8120313882827759
1782968846208454000,3.995453857421875,-0.8835508227348328,0.2180684208869934,-0.753143310546875
1782968846218380800,4.005380859375,-0.9249640703201294,0.10530618578195572,-0.6942405700683594
1782968846228305000,4.015304931640625,-0.9655184149742126,0.0018698053900152445,-0.6654800176620483
1782968846238230800,4.025230712890625,-0.9983682036399841,-0.08553434163331985,-0.6934852600097656
1782968846248156700,4.03515673828125,-1.0276895761489868,-0.17132221162319183,-0.777581512928009
1782968846258083800,4.045083740234375,-1.0573370456695557,-0.28484317660331726,-0.912234902381897
1782968846268010000,4.055010009765625,-1.0850354433059692,-0.4159415364265442,-1.0660343170166016
1782968846277935600,4.064935546875,-1.0994338989257812,-0.5807816386222839,-1.207362174987793
1782968846287861800,4.07486181640625,-1.096264123916626,-0.7165586352348328,-1.378184199333191
1782968846297789000,4.084788818359375,-1.0244243144989014,-0.851476788520813,-1.4458171129226685
1782968846307714800,4.09471484375,-0.925008237361908,-0.9367884993553162,-1.4711318016052246
1782968846317640700,4.104640625,-0.8394845724105835,-0.8884880542755127,-1.47395920753479
1782968846327568000,4.11456787109375,-0.7750760316848755,-0.7090192437171936,-1.4251708984375
1782968846337494000,4.124493896484375,-0.7451040148735046,-0.4177604913711548,-1.3407740592956543
1782968846347419600,4.134419677734375,-0.7805602550506592,-0.0790460854768753,-1.2031536102294922
1782968846357346800,4.144346923828125,-0.8405197262763977,0.22971709072589874,-1.0140928030014038
1782968846367273000,4.15427294921875,-0.8986431956291199,0.4666886031627655,-0.8200778365135193
1782968846377198600,4.164198486328125,-0.9179040193557739,0.6253648400306702,-0.649067223072052
1782968846387124700,4.174124755859375,-0.897050678730011,0.689416766166687,-0.5455232262611389
1782968846397052000,4.184052001953125,-0.8508226871490479,0.6862417459487915,-0.5116750001907349
1782968846406977800,4.193977783203125,-0.8109511733055115,0.6340759992599487,-0.4968276023864746
1782968846416903700,4.203903564453125,-0.7582184672355652,0.549181342124939,-0.5002796053886414
1782968846426830800,4.213830810546875,-0.6833924055099487,0.4651045799255371,-0.49565982818603516
1782968846436756700,4.2237568359375,-0.5954058766365051,0.4120083153247833,-0.4986335039138794
1782968846446682600,4.2336826171875,-0.5051116347312927,0.5187427401542664,-0.5142513513565063
1782968846456609800,4.24360986328125,-0.34678351879119873,0.4246319830417633,-0.5023536682128906
1782968846466535700,4.25353564453125,-0.14670075476169586,0.4084855020046234,-0.4099539518356323
1782968846476461800,4.2634619140625,0.018201107159256935,0.5959592461585999,-0.3194035589694977
1782968846486388700,4.273388671875,0.14854925870895386,0.6742292642593384,-0.29886898398399353
1782968846496315000,4.28331494140625,0.2434701770544052,0.6257184743881226,-0.21910811960697174
1782968846506240800,4.29324072265625,0.3013121783733368,0.45469188690185547,-0.0755099356174469
1782968846516166700,4.303166748046875,0.3535255789756775,0.20734253525733948,0.08622010797262192
1782968846526093800,4.31309375,0.4232623279094696,-0.029711555689573288,0.24036173522472382
1782968846536019700,4.323019775390625,0.49588459730148315,-0.1799900084733963,0.3682565987110138
1782968846545945900,4.33294580078125,0.549620509147644,-0.18657760322093964,0.46248453855514526
1782968846555872800,4.342872802734375,0.5587538480758667,-0.05691521242260933,0.5271074771881104
1782968846565798700,4.352798583984375,0.5173917412757874,0.12112083286046982,0.5590209364891052
1782968846575724800,4.362724853515625,0.4812321364879608,0.29549264907836914,0.5807813405990601
1782968846585652000,4.37265185546875,0.5021044015884399,0.4315878748893738,0.5982722043991089
1782968846595577600,4.38257763671875,0.568892240524292,0.48789429664611816,0.6040962934494019
1782968846605503700,4.392503662109375,0.6282913684844971,0.4633362293243408,0.6138951182365417
1782968846615431000,4.402430908203125,0.652581512928009,0.3722856938838959,0.6487031579017639
1782968846625356800,4.412356689453125,0.643994927406311,0.2579764127731323,0.6751877665519714
1782968846635282700,4.42228271484375,0.6100220680236816,0.06220798194408417,0.7108395099639893
1782968846645208800,4.432208740234375,0.669179379940033,0.06162102147936821,0.8022003173828125
1782968846655135700,4.4421357421875,0.7353323101997375,0.01413659192621708,0.8604074120521545
1782968846665061600,4.4520615234375,0.7552333474159241,-0.04721518233418465,0.890417754650116
1782968846674987800,4.46198779296875,0.7609857320785522,-0.05637219548225403,0.9113249182701111
1782968846684915000,4.4719150390625,0.8314316868782043,0.09549323469400406,0.9429838061332703
1782968846694840800,4.4818408203125,0.8880512714385986,0.1897752583026886,0.9504193067550659
1782968846704766700,4.4917666015625,0.8946269154548645,0.2351403385400772,0.9487867951393127
1782968846714694000,4.50169384765625,0.9492899179458618,0.3299406170845032,0.9736613035202026
1782968846724619800,4.511619873046875,1.053364634513855,0.3645537197589874,1.0047951936721802
1782968846734545700,4.521545654296875,1.1256047487258911,0.26896700263023376,1.0323946475982666
1782968846744471800,4.531471923828125,1.1686536073684692,0.11360751837491989,1.039241909980774
1782968846754398700,4.541398681640625,1.2099475860595703,-0.05709950625896454,1.0223544836044312
1782968846764324000,4.551323974609375,1.237924337387085,-0.2634420096874237,0.9667881727218628
1782968846774250200,4.561250244140625,1.2230790853500366,-0.5243378281593323,0.8688432574272156
1782968846784177200,4.57117724609375,1.1584103107452393,-0.7371254563331604,0.7619418501853943
1782968846794103000,4.58110302734375,1.0502992868423462,-0.8652695417404175,0.6529016494750977
1782968846804029200,4.591029296875,0.8982754349708557,-0.8963733911514282,0.5630543231964111
1782968846813956400,4.600956298828125,0.7316848635673523,-0.8060866594314575,0.4428759515285492
1782968846823882000,4.610882080078125,0.5803384780883789,-0.648993730545044,0.36421898007392883
1782968846833808100,4.62080810546875,0.442587286233902,-0.48372378945350647,0.29941707849502563
1782968846843735300,4.6307353515625,0.33425280451774597,-0.3034176826477051,0.21483534574508667
1782968846853661200,4.6406611328125,0.27720364928245544,-0.13192927837371826,0.11770825833082199
1782968846863587000,4.650587158203125,0.26896700263023376,0.0027286747936159372,0.04994998127222061
1782968846873513200,4.66051318359375,0.2913178503513336,0.06180744245648384,0.018624816089868546
1782968846883440400,4.6704404296875,0.3128279447555542,0.01834625005722046,0.03148761764168739
1782968846893366000,4.680365966796875,0.32836535573005676,-0.09054667502641678,0.08590878546237946
1782968846903292200,4.690292236328125,0.32401907444000244,-0.21986791491508484,0.1573542058467865
1782968846913219300,4.70021923828125,0.32411468029022217,-0.3627089560031891,0.2404986172914505
1782968846923145000,4.71014501953125,0.32613763213157654,-0.5386989116668701,0.3387594223022461
1782968846933071000,4.720071044921875,0.316135048866272,-0.6610772609710693,0.399142324924469
1782968846942998300,4.729998291015625,0.28571510314941406,-0.688147246837616,0.38778766989707947
1782968846952924200,4.739924072265625,0.22870002686977386,-0.6415688395500183,0.33367836475372314
1782968846962850000,4.74985009765625,0.12473633885383606,-0.5479901432991028,0.2392440140247345
1782968846972777200,4.759777099609375,-0.01076982356607914,-0.4247097373008728,0.12507136166095734
1782968846982703000,4.769703125,-0.1491498053073883,-0.3019031286239624,0.0006002765148878098
1782968846992629000,4.77962890625,-0.2813642919063568,-0.18960508704185486,-0.10560338944196701
1782968847002556200,4.78955615234375,-0.38502970337867737,-0.0903586596250534,-0.17551563680171967
1782968847012482000,4.79948193359375,-0.46974965929985046,-0.0052384380251169205,-0.21285474300384521
1782968847022408200,4.809408203125,-0.5507577061653137,0.06449536979198456,-0.2085135281085968
1782968847032334000,4.819333984375,-0.6097254157066345,0.13122913241386414,-0.16698499023914337
1782968847042261200,4.82926123046875,-0.6341471076011658,0.18981733918190002,-0.09752682596445084
1782968847052187100,4.839187255859375,-0.6225298643112183,0.2160433530807495,-0.018847724422812462
1782968847062113300,4.84911328125,-0.5903668999671936,0.19492261111736298,0.04691291227936745
1782968847072040200,4.859040283203125,-0.5447791814804077,0.13962234556674957,0.10403585433959961
1782968847081966000,4.868966064453125,-0.5015118718147278,0.07238738238811493,0.16055291891098022
1782968847091892200,4.878892333984375,-0.4855368733406067,-0.023511184379458427,0.1898338496685028
1782968847101819400,4.8888193359375,-0.5044288039207458,-0.1280519813299179,0.19099578261375427
1782968847111745000,4.8987451171875,-0.5463602542877197,-0.20079702138900757,0.15206170082092285
1782968847121671200,4.908671142578125,-0.6060100197792053,-0.22425520420074463,0.07735524326562881
1782968847131598300,4.918598388671875,-0.6682153344154358,-0.22473883628845215,-0.03476916626095772
1782968847141524000,4.92852392578125,-0.7256078124046326,-0.15600557625293732,-0.17047639191150665
1782968847151450000,4.9384501953125,-0.7749614715576172,-0.014540859498083591,-0.29310059547424316
1782968847161376300,4.948376220703125,-0.8239447474479675,0.18886952102184296,-0.3935163915157318
1782968847171303200,4.95830322265625,-0.860824465751648,0.38139769434928894,-0.47339552640914917
1782968847181229000,4.96822900390625,-0.8529633283615112,0.5234432220458984,-0.5119972229003906
1782968847191155200,4.9781552734375,-0.8083122372627258,0.5932585597038269,-0.5033784508705139
1782968847201082000,4.98808203125,-0.7614195942878723,0.571060836315155,-0.48238900303840637
1782968847211008000,4.998008056640625,-0.7183208465576172,0.48578932881355286,-0.509429395198822
1782968847220934100,5.00793408203125,-0.6840036511421204,0.3504272699356079,-0.5221060514450073
1782968847230861300,5.017861328125,-0.6785367131233215,0.171272411942482,-0.5638213157653809
1782968847240787200,5.027787109375,-0.7122967839241028,-0.011798602528870106,-0.6388971209526062
1782968847250713000,5.037713134765625,-0.7596171498298645,-0.1538635939359665,-0.7350393533706665
1782968847260639200,5.04763916015625,-0.8038615584373474,-0.23297733068466187,-0.8308357000350952
1782968847270566100,5.057566162109375,-0.8218728303909302,-0.2254459112882614,-0.9366193413734436
1782968847280492000,5.067491943359375,-0.8423759341239929,-0.15759362280368805,-1.0455235242843628
1782968847290418200,5.077418212890625,-0.8937685489654541,-0.06088891625404358,-1.1582564115524292
1782968847300345000,5.087344970703125,-0.9640363454818726,0.02328801155090332,-1.2599292993545532
1782968847310271200,5.097271240234375,-1.0343294143676758,0.0700073167681694,-1.3423203229904175
1782968847320197000,5.107197021484375,-1.055751085281372,0.10040010511875153,-1.451155424118042
1782968847330124000,5.1171240234375,-1.0416903495788574,0.09717981517314911,-1.5138214826583862
1782968847340050200,5.12705029296875,-0.9982007145881653,0.014814632013440132,-1.504361867904663
1782968847349976000,5.13697607421875,-0.9381208419799805,0.002859169617295265,-1.4101192951202393
1782968847359903000,5.146903076171875,-0.861415684223175,0.00842411071062088,-1.2847988605499268
1782968847369829000,5.1568291015625,-0.7746123671531677,-0.021447768434882164,-1.1324818134307861
1782968847379755300,5.16675537109375,-0.6671988368034363,-0.0017012272728607059,-0.9293186068534851
1782968847389681200,5.17668115234375,-0.559485673904419,0.06265459209680557,-0.7048401832580566
1782968847399608000,5.186608154296875,-0.4925532341003418,0.10004431009292603,-0.5381697416305542
1782968847409534200,5.1965341796875,-0.4542958736419678,0.1324501782655716,-0.45931220054626465
1782968847419460000,5.206460205078125,-0.414384126663208,0.1757236272096634,-0.41312098503112793
1782968847429387000,5.216386962890625,-0.3557407855987549,0.24497805535793304,-0.4037828743457794
1782968847439313200,5.226313232421875,-0.29030799865722656,0.3363407254219055,-0.40232187509536743
1782968847449239300,5.2362392578125,-0.2513430118560791,0.44390395283699036,-0.4121641218662262
1782968847459166200,5.246166259765625,-0.2120259702205658,0.5403476357460022,-0.4694766700267792
1782968847469092000,5.256092041015625,-0.17037919163703918,0.6071833968162537,-0.5494716763496399
1782968847479018200,5.266018310546875,-0.12884186208248138,0.5753706097602844,-0.5684903264045715
1782968847488944000,5.275944091796875,-0.07954569160938263,0.40042969584465027,-0.4431808888912201
1782968847498871000,5.28587109375,0.02309732884168625,0.10807400196790695,-0.21294955909252167
1782968847508797200,5.295797119140625,0.17466580867767334,-0.18042916059494019,0.05591253563761711
1782968847518723300,5.305723388671875,0.37973135709762573,-0.34749725461006165,0.3213388919830322
1782968847528650200,5.315650146484375,0.5985510349273682,-0.3664371073246002,0.5449764728546143
1782968847538576100,5.325576171875,0.805834174156189,-0.2684865891933441,0.7112072706222534
1782968847548502300,5.335502197265625,0.9791977405548096,-0.10301613062620163,0.798512876033783
1782968847558429200,5.34542919921875,1.0927114486694336,0.1015830859541893,0.7658715844154358
1782968847568355000,5.35535498046875,1.1562042236328125,0.24721325933933258,0.7641661167144775
1782968847578281200,5.36528125,1.1785377264022827,0.2787562608718872,0.7735079526901245
1782968847588208000,5.3752080078125,1.1496610641479492,0.21523188054561615,0.7815693020820618
1782968847598134300,5.38513427734375,1.0935159921646118,0.10368618369102478,0.788785994052887
1782968847608060200,5.39506005859375,1.0419564247131348,-0.020856013521552086,0.792758584022522
1782968847617986300,5.404986328125,1.0303030014038086,-0.12118874490261078,0.7887915372848511
1782968847627913200,5.414913330078125,1.084912657737732,-0.18533603847026825,0.7900373935699463
1782968847637839000,5.424839111328125,1.170884370803833,-0.21780715882778168,0.8074414134025574
1782968847647765200,5.43476513671875,1.2448471784591675,-0.19122667610645294,0.834817111492157
1782968847657692200,5.444692138671875,1.2941091060638428,-0.12853586673736572,0.8605501651763916
1782968847667618300,5.454618408203125,1.3078533411026,-0.037767618894577026,0.8776804208755493
1782968847677544200,5.464544189453125,1.2657396793365479,0.04711504653096199,0.8587887287139893
1782968847687471000,5.47447119140625,1.1763414144515991,0.11160482466220856,0.7924797534942627
1782968847697397200,5.484397216796875,1.0551202297210693,0.14766216278076172,0.6831871271133423
1782968847707323100,5.4943232421875,0.9051567912101746,0.16044053435325623,0.5560209155082703
1782968847717250000,5.50425,0.7146400809288025,0.12968236207962036,0.41350075602531433
1782968847727176200,5.51417626953125,0.5022029280662537,0.029678532853722572,0.28427913784980774
1782968847737102300,5.524102294921875,0.33788296580314636,-0.0917951688170433,0.20283539593219757
1782968847747028200,5.5340283203125,0.27816158533096313,-0.2216636836528778,0.1772189885377884
1782968847756955100,5.543955078125,0.28617557883262634,-0.3717879354953766,0.24579192698001862
1782968847766881500,5.553881591796875,0.32165980339050293,-0.5124526619911194,0.38985535502433777
1782968847776807400,5.563807373046875,0.37321698665618896,-0.6286269426345825,0.5626220703125
1782968847786734600,5.573734619140625,0.42281144857406616,-0.6958070397377014,0.6984813809394836
1782968847796660700,5.58366064453125,0.44262802600860596,-0.6942921876907349,0.767044723033905
1782968847806586600,5.593586669921875,0.4163641929626465,-0.6153563857078552,0.7514873147010803
1782968847816513500,5.603513427734375,0.3565943241119385,-0.4834153950214386,0.6761182546615601
1782968847826439700,5.613439697265625,0.285535603761673,-0.3251269459724426,0.5539654493331909
1782968847836365600,5.623365478515625,0.2110067754983902,-0.17107507586479187,0.3866627514362335
1782968847846292500,5.63329248046875,0.12245480716228485,-0.03603896126151085,0.18866045773029327
1782968847856218600,5.643218505859375,0.004619785584509373,0.045472145080566406,-0.013539777137339115
1782968847866144800,5.653144775390625,-0.0496293380856514,0.09956467151641846,-0.15850521624088287
1782968847876070400,5.6630703125,0.03202424570918083,0.10357273370027542,-0.21593841910362244
1782968847885997600,5.67299755859375,0.1917843520641327,0.08919539302587509,-0.16687606275081635
1782968847895923700,5.682923828125,0.37546923756599426,0.06234593316912651,-0.04074476659297943
1782968847905849300,5.692849365234375,0.5222589373588562,-0.012151737697422504,0.14471377432346344
1782968847915776500,5.702776611328125,0.5956116914749146,-0.13375939428806305,0.3825167417526245
1782968847925702700,5.71270263671875,0.6029287576675415,-0.29793527722358704,0.6094638705253601
1782968847935628500,5.722628662109375,0.5667055249214172,-0.44983693957328796,0.7504460215568542
1782968847945555500,5.732555419921875,0.5136585235595703,-0.5458678603172302,0.7553025484085083
1782968847955481600,5.742481689453125,0.4243334233760834,-0.5767139196395874,0.619636058807373
1782968847965407500,5.752407470703125,0.29989245533943176,-0.5516865849494934,0.3753131628036499
1782968847975334700,5.762334716796875,0.15354588627815247,-0.4502507746219635,0.10695361346006393
1782968847985260500,5.772260498046875,0.016166718676686287,-0.28263649344444275,-0.09871193021535873
1782968847995186700,5.782186767578125,-0.09756730496883392,-0.09979050606489182,-0.2067584991455078
1782968848005112600,5.792112548828125,-0.175565704703331,0.10100650787353516,-0.21380123496055603
1782968848015039500,5.80203955078125,-0.22432231903076172,0.2843765914440155,-0.15635232627391815
1782968848024965600,5.811965576171875,-0.24041873216629028,0.3923856317996979,-0.06712550669908524
1782968848034891500,5.8218916015625,-0.2336076945066452,0.428396612405777,0.019657857716083527
1782968848044818700,5.831818603515625,-0.23083694279193878,0.38444381952285767,0.07430485635995865
1782968848054744600,5.84174462890625,-0.24178439378738403,0.3089064359664917,0.08285227417945862
1782968848064670500,5.85167041015625,-0.2698077857494354,0.2305690348148346,0.04619625583291054
1782968848074597600,5.86159765625,-0.31993910670280457,0.1727968156337738,-0.04213679954409599
1782968848084523500,5.8715234375,-0.3900548219680786,0.16216494143009186,-0.15899257361888885
1782968848094449400,5.881449462890625,-0.4763154089450836,0.21582230925559998,-0.2856251001358032
1782968848104376600,5.89137646484375,-0.5605149865150452,0.30637991428375244,-0.39292436838150024
1782968848114302700,5.901302734375,-0.6265168786048889,0.40068748593330383,-0.46893367171287537
1782968848124228400,5.911228271484375,-0.6684411764144897,0.48013970255851746,-0.5280632972717285
1782968848134154500,5.921154541015625,-0.7384716868400574,0.4374191462993622,-0.6526347994804382
1782968848144081700,5.93108154296875,-0.7655336260795593,0.48440316319465637,-0.6572990417480469
1782968848154007600,5.941007568359375,-0.7206636071205139,0.5927956700325012,-0.6477769017219543
1782968848163933400,5.950933349609375,-0.6622631549835205,0.6403759717941284,-0.6102532148361206
1782968848173860600,5.960860595703125,-0.661258339881897,0.6336578726768494,-0.5704531073570251
1782968848183786800,5.970786865234375,-0.7166579961776733,0.6235871315002441,-0.5644428730010986
1782968848193712400,5.98071240234375,-0.8102896809577942,0.4868343770503998,-0.610136866569519
1782968848203639600,5.9906396484375,-0.8484439849853516,0.407659649848938,-0.6112545728683472
1782968848213565700,6.000565673828125,-0.8574915528297424,0.3180448114871979,-0.5911314487457275
1782968848223491300,6.0104912109375,-0.8505340218544006,0.19230766594409943,-0.6073200106620789
1782968848233418500,6.02041845703125,-0.8650615811347961,0.07723592966794968,-0.6878407001495361
1782968848243344600,6.0303447265625,-0.8775030374526978,-0.03781049698591232,-0.8050938248634338
1782968848253270500,6.0402705078125,-0.8565647602081299,-0.1349381059408188,-0.9295398592948914
1782968848263196400,6.050196533203125,-0.8512328267097473,-0.2283061444759369,-1.0257245302200317
1782968848273123600,6.06012353515625,-0.8683785200119019,-0.3460812568664551,-1.0762385129928589
1782968848283049500,6.070049560546875,-0.8689010143280029,-0.4639461040496826,-1.079430341720581
1782968848292975400,6.079975341796875,-0.8395546078681946,-0.5778145790100098,-1.0291876792907715
1782968848302902500,6.089902587890625,-0.7950446605682373,-0.640998363494873,-0.9424495697021484
1782968848312828400,6.099828369140625,-0.7545185089111328,-0.6080891489982605,-0.8708869814872742
1782968848322754600,6.109754638671875,-0.7299953699111938,-0.5017717480659485,-0.8449898362159729
1782968848332681700,6.119681640625,-0.7106682658195496,-0.34836703538894653,-0.8664323091506958
1782968848342607600,6.129607666015625,-0.6825678944587708,-0.16933150589466095,-0.9024853706359863
1782968848352533500,6.139533447265625,-0.6612722277641296,0.012162656523287296,-0.9047751426696777
1782968848362460700,6.149460693359375,-0.6451123952865601,0.16271567344665527,-0.856931746006012
1782968848372386600,6.159386474609375,-0.6181108951568604,0.30030176043510437,-0.8453304767608643
1782968848382312400,6.1693125,-0.572858452796936,0.39791619777679443,-0.7834444642066956
1782968848392238600,6.179238525390625,-0.5418904423713684,0.437578946352005,-0.6713576316833496
1782968848402165800,6.189165771484375,-0.536322295665741,0.4369983673095703,-0.5477496385574341
1782968848412091400,6.19909130859375,-0.5205390453338623,0.39915990829467773,-0.43445584177970886
1782968848422017500,6.209017578125,-0.49043336510658264,0.3388901650905609,-0.3563740849494934
1782968848431944700,6.21894482421875,-0.4394434094429016,0.27801111340522766,-0.29563406109809875
1782968848441870300,6.228870361328125,-0.36019840836524963,0.24478870630264282,-0.27706941962242126
1782968848451796500,6.23879638671875,-0.24014708399772644,0.22372710704803467,-0.3121562898159027
1782968848461723600,6.2487236328125,-0.09419947117567062,0.20391957461833954,-0.3663201928138733
1782968848471649500,6.2586494140625,0.05721455439925194,0.18371310830116272,-0.3834235668182373
1782968848481575400,6.268575439453125,0.19531036913394928,0.1468949019908905,-0.3160594403743744
1782968848491501600,6.27850146484375,0.32135164737701416,0.09308920055627823,-0.13329866528511047
1782968848501428500,6.288428466796875,0.42812711000442505,0.05366775393486023,0.08502115309238434
1782968848511354400,6.298354248046875,0.5350067019462585,0.05392342060804367,0.3196680247783661
1782968848521280500,6.308280517578125,0.6342147588729858,0.03513588383793831,0.5593461394309998
1782968848531207700,6.318207763671875,0.6812241077423096,0.03629861772060394,0.7058335542678833
1782968848541133600,6.328133544921875,0.6988915205001831,0.02124510146677494,0.7496953010559082
1782968848551059500,6.3380595703125,0.709965705871582,-0.05517403781414032,0.7263590693473816
1782968848560986600,6.347986572265625,0.7437937259674072,-0.1480696201324463,0.6726511120796204
1782968848570912500,6.35791259765625,0.8004367351531982,-0.23720109462738037,0.6121121048927307
1782968848580838400,6.36783837890625,0.8622223734855652,-0.28440696001052856,0.5794758796691895
1782968848590765600,6.377765625,0.9236889481544495,-0.277842253446579,0.601399302482605
1782968848600691500,6.38769140625,0.9817519783973694,-0.2471964806318283,0.6736931800842285
1782968848610617600,6.39761767578125,1.0347129106521606,-0.19207942485809326,0.7783895134925842
1782968848620543500,6.40754345703125,1.0998910665512085,-0.09051844477653503,0.8991729021072388
1782968848630470400,6.417470458984375,1.1505836248397827,0.013825800269842148,1.0072730779647827
1782968848640396500,6.427396484375,1.177457332611084,0.08124718815088272,1.0985342264175415
1782968848650322400,6.437322509765625,1.1963214874267578,0.12949034571647644,1.1793792247772217
1782968848660249300,6.447249267578125,1.2124346494674683,0.1621100753545761,1.2273199558258057
1782968848670175500,6.457175537109375,1.243830680847168,0.16063015162944794,1.224853515625
1782968848680101600,6.4671015625,1.2987501621246338,0.13831447064876556,1.1915158033370972
1782968848690028500,6.477028564453125,1.386082410812378,0.08593062311410904,1.1450916528701782
1782968848699954400,6.486954345703125,1.4945948123931885,-0.016377374529838562,1.1000276803970337
1782968848709880600,6.496880615234375,1.595083236694336,-0.157316654920578,1.0567601919174194
1782968848719807700,6.506807861328125,1.6557625532150269,-0.33735087513923645,1.0106738805770874
1782968848729733400,6.5167333984375,1.6609631776809692,-0.5348897576332092,0.9565070271492004
1782968848739659500,6.526659423828125,1.5920227766036987,-0.7214391231536865,0.8981449604034424
1782968848749585700,6.536585693359375,1.489105463027954,-0.8538661599159241,0.8214373588562012
1782968848759512600,6.5465126953125,1.3934428691864014,-0.933295488357544,0.7384575605392456
1782968848769439200,6.556439208984375,1.3067529201507568,-0.9528595805168152,0.6900663375854492
1782968848779365000,6.566365234375,1.2331359386444092,-0.9206846356391907,0.6769851446151733
1782968848789292000,6.5762919921875,1.1814632415771484,-0.8770979642868042,0.6796176433563232
1782968848799218200,6.58621826171875,1.1561144590377808,-0.8276095390319824,0.6792469620704651
1782968848809144300,6.596144287109375,1.1607294082641602,-0.7816303372383118,0.6725972890853882
1782968848819071000,6.606071044921875,1.1972980499267578,-0.7329605221748352,0.6606964468955994
1782968848828997000,6.6159970703125,1.2263087034225464,-0.6850358843803406,0.6272979974746704
1782968848838923300,6.62592333984375,1.229781985282898,-0.6298375725746155,0.5852168798446655
1782968848848850200,6.63585009765625,1.1901839971542358,-0.5701146125793457,0.5536445379257202
1782968848858776000,6.645776123046875,1.1129426956176758,-0.5058988928794861,0.5467938184738159
1782968848868702200,6.6557021484375,1.016167402267456,-0.4392729699611664,0.5617442727088928
1782968848878628400,6.66562841796875,0.9179309010505676,-0.3582119345664978,0.5808508992195129
1782968848888555300,6.67555517578125,0.8135434985160828,-0.2710624039173126,0.5725290179252625
1782968848898481200,6.685481201171875,0.7038739919662476,-0.1907329261302948,0.5349960327148438
1782968848908407300,6.6954072265625,0.5744417309761047,-0.10070423781871796,0.47292253375053406
1782968848918334200,6.705334228515625,0.4354209899902344,-0.030781082808971405,0.37672170996665955
1782968848928260000,6.715260009765625,0.30474817752838135,-0.02641882374882698,0.24283207952976227
1782968848938186200,6.725186279296875,0.17360854148864746,-0.0742417424917221,0.09645330160856247
1782968848948113200,6.735113037109375,0.04104916751384735,-0.12103081494569778,-0.015475628897547722
1782968848958039300,6.745039306640625,-0.08494312316179276,-0.13465102016925812,-0.09312061965465546
1782968848967965200,6.754965087890625,-0.19755248725414276,-0.10368724912405014,-0.12491743266582489
1782968848977892000,6.76489208984375,-0.27962684631347656,0.00427224300801754,-0.1207815483212471
1782968848987818200,6.774818359375,-0.32521191239356995,0.17072726786136627,-0.08242350071668625
1782968848997744000,6.784744140625,-0.3327326774597168,0.3490413427352905,-0.016932111233472824
1782968849007670300,6.794670166015625,-0.3353084921836853,0.487123042345047,0.034986745566129684
1782968849017597200,6.80459716796875,-0.3499995470046997,0.5601897835731506,0.08523180335760117
1782968849027523300,6.8145234375,-0.3975044786930084,0.5755349397659302,0.11831918358802795
1782968849037449200,6.82444921875,-0.4796411693096161,0.5058889985084534,0.08808698505163193
1782968849047376100,6.834376220703125,-0.570982813835144,0.37872493267059326,-0.01239302009344101
1782968849057302300,6.84430224609375,-0.6712414622306824,0.24085016548633575,-0.15447239577770233
1782968849067228200,6.854228271484375,-0.7860136032104492,0.11553777754306793,-0.3241668939590454
1782968849077155000,6.864155029296875,-0.9157902598381042,0.022476280108094215,-0.5086736083030701
1782968849087081200,6.874081298828125,-1.0386972427368164,-0.015034343115985394,-0.6705930233001709
1782968849097007400,6.88400732421875,-1.1300983428955078,0.04733662307262421,-0.7806226015090942
1782968849106933000,6.89393310546875,-1.1818541288375854,0.22279126942157745,-0.8111618161201477
1782968849116860200,6.903860107421875,-1.209739327430725,0.4302070438861847,-0.7937572598457336
1782968849126786300,6.913786376953125,-1.2229821681976318,0.631963849067688,-0.7314614057540894
1782968849136712200,6.923712158203125,-1.235532522201538,0.7918081283569336,-0.6509026885032654
1782968849146639000,6.93363916015625,-1.265930414199829,0.8511665463447571,-0.596915066242218
1782968849156565200,6.943565185546875,-1.2826526165008545,0.8114188313484192,-0.5796175599098206
1782968849166491400,6.953491455078125,-1.2766515016555786,0.7089558243751526,-0.5951552391052246
1782968849176418000,6.96341796875,-1.2604237794876099,0.566207230091095,-0.6269608736038208
1782968849186344200,6.97334423828125,-1.2473775148391724,0.43586066365242004,-0.6482067704200745
1782968849196270300,6.983270263671875,-1.2420322895050049,0.32401055097579956,-0.6699336171150208
1782968849206197200,6.993197265625,-1.2366993427276611,0.21580180525779724,-0.717962384223938
1782968849216123100,7.003123046875,-1.2318267822265625,0.13203153014183044,-0.7936033606529236
1782968849226049300,7.01304931640625,-1.2269675731658936,0.0727975070476532,-0.893105685710907
1782968849235975200,7.02297509765625,-1.225425362586975,0.03158775344491005,-0.9982116222381592
1782968849245902000,7.032902099609375,-1.2262592315673828,0.004801413044333458,-1.0729756355285645
1782968849255828200,7.042828125,-1.2137506008148193,-0.023509053513407707,-1.1040312051773071
1782968849265754000,7.052754150390625,-1.1830744743347168,-0.05345124006271362,-1.0811879634857178
1782968849275681300,7.062681396484375,-1.135557770729065,-0.10245420038700104,-1.0122510194778442
1782968849285607200,7.072607177734375,-1.095484972000122,-0.13963991403579712,-0.9277510643005371
1782968849295533000,7.082532958984375,-1.0593879222869873,-0.18090559542179108,-0.8508184552192688
1782968849305460200,7.092460205078125,-1.0291963815689087,-0.2188681662082672,-0.7999842762947083
1782968849315386000,7.10238623046875,-0.9995453357696533,-0.24562600255012512,-0.7712187170982361
1782968849325312300,7.112312255859375,-0.9684997797012329,-0.23016582429409027,-0.7404975295066833
1782968849335238100,7.122238037109375,-0.9396867752075195,-0.17561230063438416,-0.7010489106178284
1782968849345165300,7.132165283203125,-0.9133180379867554,-0.10202809423208237,-0.6407318115234375
1782968849355091200,7.14209130859375,-0.879428505897522,-0.012535499408841133,-0.5578762888908386
1782968849365017000,7.15201708984375,-0.8354437351226807,0.10567103326320648,-0.4792454242706299
1782968849374944300,7.1619443359375,-0.781394362449646,0.22601795196533203,-0.4066585600376129
1782968849384870100,7.1718701171875,-0.7241768836975098,0.3322453200817108,-0.3470815122127533
1782968849394796000,7.181796142578125,-0.6604911088943481,0.4130064845085144,-0.29809799790382385
1782968849404723200,7.19172314453125,-0.6196051836013794,0.4590325653553009,-0.26708921790122986
1782968849414649300,7.2016494140625,-0.5885530114173889,0.4783892035484314,-0.25480565428733826
1782968849424575000,7.211574951171875,-0.5636940002441406,0.5016615390777588,-0.3340354859828949
1782968849434502100,7.221502197265625,-0.4873422384262085,0.5022250413894653,-0.3799654543399811
1782968849444428300,7.23142822265625,-0.38478630781173706,0.5030194520950317,-0.43974995613098145
1782968849454354200,7.241354248046875,-0.2885982394218445,0.4568197429180145,-0.42580243945121765
1782968849464281000,7.251281005859375,-0.1845376193523407,0.3259011507034302,-0.2853292226791382
1782968849474207200,7.261207275390625,-0.08034171164035797,0.15406998991966248,-0.07090826332569122
1782968849484133000,7.271133056640625,0.06168093904852867,0.016982179135084152,0.15592780709266663
1782968849494059000,7.28105908203125,0.23991991579532623,-0.0456087626516819,0.35425660014152527
1782968849503986200,7.290986083984375,0.43081289529800415,-0.04170962795615196,0.4977056682109833
1782968849513912300,7.300912353515625,0.6034496426582336,-0.006333263125270605,0.5910526514053345
1782968849523838200,7.310838134765625,0.7209256887435913,0.03767920285463333,0.6401328444480896
1782968849533765000,7.32076513671875,0.8005033135414124,0.06596330553293228,0.6580055952072144
1782968849543691300,7.330691162109375,0.8391125202178955,0.07203345000743866,0.6381714344024658
1782968849553617200,7.3406171875,0.8413077592849731,0.021738585084676743,0.60073322057724
1782968849563544300,7.35054443359375,0.8349771499633789,-0.038607046008110046,0.5839138031005859
1782968849573470200,7.36047021484375,0.8505550622940063,-0.06997828185558319,0.5886579155921936
1782968849583396000,7.37039599609375,0.8906470537185669,-0.0703258290886879,0.620971143245697
1782968849593323300,7.3803232421875,0.9331463575363159,-0.017654627561569214,0.6853303909301758
1782968849603249200,7.390249267578125,0.9781337976455688,0.07029440253973007,0.7779263854026794
1782968849613175000,7.400175048828125,1.0314558744430542,0.1672593057155609,0.876433253288269
1782968849623101200,7.41010107421875,1.076898455619812,0.253178209066391,0.9493830800056458
1782968849633028400,7.4200283203125,1.1076691150665283,0.3195228576660156,0.9756205677986145
1782968849642954000,7.4299541015625,1.1375747919082642,0.340481162071228,0.9612163305282593
1782968849652880100,7.439880126953125,1.1526925563812256,0.2907535433769226,0.9195748567581177
1782968849662807300,7.449807373046875,1.184560775756836,0.1978299915790558,0.8814117908477783
1782968849672733200,7.459733154296875,1.2941844463348389,0.0725996345281601,0.8821577429771423
1782968849682659000,7.4696591796875,1.431199312210083,-0.11329033970832825,0.9100127816200256
1782968849692586200,7.479586181640625,1.5488827228546143,-0.3195103406906128,0.9370869994163513
1782968849702512400,7.489512451171875,1.6230696439743042,-0.505832850933075,0.9373821020126343
1782968849712438000,7.49943798828125,1.6465816497802734,-0.6829836368560791,0.8975343108177185
1782968849722364200,7.5093642578125,1.6249938011169434,-0.835050106048584,0.8350008726119995
1782968849732291300,7.519291259765625,1.550458550453186,-0.9241371154785156,0.7471082806587219
1782968849742217000,7.529217041015625,1.439271092414856,-0.9263930916786194,0.6505923867225647
1782968849752143000,7.53914306640625,1.301653265953064,-0.8374975919723511,0.5410084128379822
1782968849762069800,7.54906982421875,1.147670030593872,-0.687109112739563,0.4209110140800476
1782968849771996000,7.558995849609375,0.9726340770721436,-0.5173949599266052,0.29102039337158203
1782968849781921500,7.568921630859375,0.7958390712738037,-0.3680019974708557,0.1800251603126526
1782968849791848700,7.5788486328125,0.653634786605835,-0.2703675627708435,0.1057639792561531
1782968849801774800,7.58877490234375,0.5467134118080139,-0.24492746591567993,0.08373191207647324
1782968849811700500,7.598700439453125,0.5040698051452637,-0.28270918130874634,0.10769876837730408
1782968849821627600,7.608627685546875,0.5070006251335144,-0.3995026648044586,0.16841989755630493
1782968849831553800,7.6185537109375,0.5316036939620972,-0.5506980419158936,0.26013144850730896
1782968849841479700,7.628479736328125,0.5630969405174255,-0.7039839625358582,0.37590304017066956
1782968849851406600,7.638406494140625,0.5836564898490906,-0.832503616809845,0.4802566170692444
1782968849861332700,7.648332763671875,0.5848006010055542,-0.8917544484138489,0.5485009551048279
1782968849871258600,7.658258544921875,0.5552347302436829,-0.8533883690834045,0.5610572099685669
1782968849881184500,7.6681845703125,0.5035837888717651,-0.7376847267150879,0.5367228388786316
1782968849891111700,7.678111572265625,0.4094412922859192,-0.5782361626625061,0.5002561807632446
1782968849901037600,7.68803759765625,0.2715774476528168,-0.39599260687828064,0.4708431363105774
1782968849910963700,7.697963623046875,0.09584982693195343,-0.22041918337345123,0.4207184612751007
1782968849920890600,7.707890625,-0.08942282199859619,-0.07066565006971359,0.32124751806259155
1782968849930816800,7.717816650390625,-0.25048574805259705,0.030276145786046982,0.17021992802619934
1782968849940742700,7.72774267578125,-0.36818867921829224,0.06430255621671677,0.0007579356315545738
1782968849950669800,7.737669921875,-0.4423837959766388,0.08401554077863693,-0.14173050224781036
1782968849960595700,7.747595703125,-0.48385828733444214,0.13905109465122223,-0.21568861603736877
1782968849970521600,7.757521484375,-0.5073854327201843,0.2319623976945877,-0.21582470834255219
1782968849980448800,7.76744873046875,-0.5057933926582336,0.3562244176864624,-0.1507817953824997
1782968849990374700,7.777374755859375,-0.4889901876449585,0.4830676019191742,-0.05475086346268654
1782968850000300500,7.787300537109375,-0.442548930644989,0.565757691860199,0.03957830369472504
1782968850010226700,7.797226806640625,-0.405757874250412,0.5886414051055908,0.0987556055188179
1782968850020153900,7.80715380859375,-0.3908814787864685,0.5348793864250183,0.09580748528242111
1782968850030079500,7.81707958984375,-0.398280531167984,0.4227414131164551,0.029458822682499886
1782968850040005600,7.827005615234375,-0.4467996060848236,0.30280861258506775,-0.09524236619472504
1782968850049932800,7.836932861328125,-0.5259162783622742,0.1849762499332428,-0.2543689012527466
1782968850059858700,7.846858642578125,-0.6447161436080933,0.09724266082048416,-0.42698487639427185
1782968850069784600,7.85678466796875,-0.7661570906639099,0.06787332147359848,-0.5654894709587097
1782968850079711700,7.866711669921875,-0.8813204169273376,0.11064635217189789,-0.6430045366287231
1782968850089637600,7.8766376953125,-0.9777945280075073,0.21595919132232666,-0.6619803309440613
1782968850099563500,7.8865634765625,-1.0322595834732056,0.36657747626304626,-0.6238744854927063
1782968850109490700,7.89649072265625,-1.0210554599761963,0.5004359483718872,-0.5289983153343201
1782968850119416800,7.906416748046875,-0.9652270674705505,0.596316397190094,-0.41636979579925537
1782968850129342500,7.916342529296875,-0.9052127003669739,0.6474946141242981,-0.3296127915382385
1782968850139268600,7.9262685546875,-0.8831862211227417,0.6505503058433533,-0.3061348795890808
1782968850149195800,7.93619580078125,-0.9023141264915466,0.6067826151847839,-0.33751732110977173
1782968850159121700,7.94612158203125,-0.9468957185745239,0.5275208353996277,-0.40912944078445435
1782968850169047600,7.956047607421875,-0.995007336139679,0.4143308699131012,-0.5116880536079407
1782968850178974700,7.965974609375,-1.035501480102539,0.27655115723609924,-0.6133859157562256
1782968850188900600,7.975900634765625,-1.0552469491958618,0.10040490329265594,-0.7058037519454956
1782968850198826500,7.985826416015625,-1.0556339025497437,-0.09594650566577911,-0.785942792892456
1782968850208753700,7.995753662109375,-1.0541974306106567,-0.26600903272628784,-0.8478109240531921
1782968850218679600,8.005679443359375,-1.0515246391296387,-0.4075624346733093,-0.8969662189483643
1782968850228605700,8.015605712890626,-1.0553308725357056,-0.5041760802268982,-0.949806272983551
1782968850238532900,8.025532958984375,-1.073292851448059,-0.5576369166374207,-0.9949617981910706
1782968850248458500,8.03545849609375,-1.0862317085266113,-0.5696906447410583,-1.0205129384994507
1782968850258384600,8.045384521484374,-1.103704810142517,-0.5359023213386536,-1.0107905864715576
1782968850268310800,8.055310791015625,-1.1333116292953491,-0.4603961110115051,-0.9739965796470642
1782968850278237700,8.06523779296875,-1.158644676208496,-0.3325744867324829,-0.9261334538459778
1782968850288163600,8.07516357421875,-1.1748138666152954,-0.1623889058828354,-0.8972948789596558
1782968850298089700,8.08508984375,-1.1712849140167236,0.01233416423201561,-0.8900071382522583
1782968850308017000,8.095016845703125,-1.163636565208435,0.17042632400989532,-0.8909938335418701
1782968850317942500,8.104942626953125,-1.148023247718811,0.2924917936325073,-0.8866278529167175
1782968850327868700,8.11486865234375,-1.1282987594604492,0.36363813281059265,-0.8709263801574707
1782968850337795800,8.1247958984375,-1.0970708131790161,0.39002394676208496,-0.8411133289337158
1782968850347721500,8.134721435546876,-1.0575681924819946,0.38197213411331177,-0.7959362864494324
1782968850357647600,8.144647705078125,-0.9949668049812317,0.3610018789768219,-0.7371951937675476
1782968850367573800,8.15457373046875,-0.9155985116958618,0.32622551918029785,-0.6726995706558228
1782968850377500700,8.164500732421875,-0.8274744749069214,0.2860887348651886,-0.6100958585739136
1782968850387426600,8.174426513671875,-0.7486204504966736,0.25831037759780884,-0.5511073470115662
1782968850397352700,8.184352783203124,-0.6691448092460632,0.25061652064323425,-0.512784481048584
1782968850407279600,8.194279541015625,-0.5832554697990417,0.2570326030254364,-0.49425631761550903
1782968850417205500,8.20420556640625,-0.4865131974220276,0.27755090594291687,-0.4684726595878601
1782968850427131600,8.214131591796875,-0.3700912296772003,0.31077998876571655,-0.41170525550842285
1782968850437058600,8.22405859375,-0.23273524641990662,0.32454320788383484,-0.3073410391807556
1782968850446984700,8.233984619140625,-0.0760207325220108,0.3100888729095459,-0.15123425424098969
1782968850456910600,8.24391064453125,0.08851548284292221,0.2637869119644165,0.03568422794342041
1782968850466837800,8.253837646484374,0.23328998684883118,0.207379549741745,0.22003303468227386
1782968850476763600,8.263763671875,0.3404388129711151,0.14598196744918823,0.35140755772590637
1782968850486689500,8.273689453125,0.42341119050979614,0.10866229981184006,0.427045613527298
1782968850496615700,8.28361572265625,0.4982984662055969,0.10483613610267639,0.4484403729438782
1782968850506542600,8.29354248046875,0.5791144967079163,0.1112506240606308,0.42475447058677673
1782968850516468700,8.30346875,0.6584420800209045,0.10817227512598038,0.3996872007846832
1782968850526394600,8.31339453125,0.7387734055519104,0.08999380469322205,0.40823009610176086
1782968850536321500,8.323321533203124,0.8152276873588562,0.06381946057081223,0.4493596851825714
1782968850546247700,8.33324755859375,0.8763235211372375,0.04133385792374611,0.513374388217926
1782968850556173600,8.343173583984376,0.934705913066864,0.044737644493579865,0.5752720832824707
1782968850566100500,8.3531005859375,0.994938850402832,0.057191651314496994,0.6376720666885376
1782968850576026600,8.363026611328126,1.0597511529922485,0.09288706630468369,0.6954826712608337
1782968850585952800,8.372952880859375,1.1218701601028442,0.15534324944019318,0.7394163012504578
1782968850595879700,8.382879638671875,1.1539101600646973,0.21813926100730896,0.7685714960098267
1782968850605805600,8.3928056640625,1.1632554531097412,0.26483431458473206,0.7788553237915039
1782968850615731700,8.402731689453125,1.1465481519699097,0.28411588072776794,0.7701848745346069
1782968850625657600,8.41265771484375,1.1348013877868652,0.2737995982170105,0.7483980655670166
1782968850635585800,8.422585693359375,1.1719176769256592,0.24540549516677856,0.7229161262512207
1782968850645511700,8.43251171875,1.2522913217544556,0.1846121847629547,0.6892870664596558
1782968850655437800,8.442437744140625,1.3240163326263428,0.08455882966518402,0.6603842973709106
1782968850665364700,8.45236474609375,1.3609507083892822,-0.05489067733287811,0.6337079405784607
1782968850675290600,8.46229052734375,1.3644777536392212,-0.22010546922683716,0.6079615950584412
1782968850685216800,8.472216796875,1.3524106740951538,-0.3846110701560974,0.5821049809455872
1782968850695142700,8.482142578125,1.329513669013977,-0.5493249297142029,0.5596734285354614
1782968850705069800,8.49206982421875,1.3241063356399536,-0.7209019660949707,0.5371625423431396
1782968850714995700,8.50199560546875,1.3292721509933472,-0.8859441876411438,0.5327755212783813
1782968850724921600,8.511921630859375,1.3347678184509277,-0.996662437915802,0.5541473627090454
1782968850734848800,8.521848876953126,1.325649380683899,-1.0293018817901611,0.5900859236717224
1782968850744774700,8.531774658203124,1.2997461557388306,-1.0038636922836304,0.6032587289810181
1782968850754700500,8.541700439453125,1.2509591579437256,-0.9271169304847717,0.5832836627960205
1782968850764627500,8.55162744140625,1.1692746877670288,-0.8194248080253601,0.5256877541542053
1782968850774553600,8.5615537109375,1.0836093425750732,-0.6880284547805786,0.45175307989120483
1782968850784479700,8.571479736328126,0.986578643321991,-0.5514663457870483,0.3592151403427124
1782968850794406700,8.58140673828125,0.8728957772254944,-0.4056830406188965,0.2501845359802246
1782968850804332500,8.59133251953125,0.7527459263801575,-0.2617991268634796,0.1480158269405365
1782968850814258700,8.6012587890625,0.6877639889717102,-0.13328908383846283,0.10268163681030273
1782968850824184600,8.6111845703125,0.6632107496261597,-0.06640086323022842,0.13517220318317413
1782968850834111500,8.621111572265624,0.6441150903701782,-0.06196749582886696,0.2328108847141266
1782968850844037600,8.63103759765625,0.64047771692276,-0.11123783886432648,0.374037504196167
1782968850853963500,8.640963623046876,0.6141995191574097,-0.18088030815124512,0.5189105272293091
1782968850863890700,8.650890625,0.5619783997535706,-0.26242947578430176,0.6130295991897583
1782968850873816600,8.660816650390625,0.4986303150653839,-0.35768571496009827,0.6108399629592896
1782968850883742500,8.670742431640624,0.41137877106666565,-0.44594231247901917,0.48639440536499023
1782968850893669600,8.680669677734375,0.28367459774017334,-0.49378255009651184,0.27100008726119995
1782968850903595500,8.690595458984374,0.13333675265312195,-0.47019681334495544,0.033781930804252625
1782968850913521400,8.700521484375,-0.017289241775870323,-0.3882393538951874,-0.14312466979026794
1782968850923448600,8.710448486328126,-0.15598320960998535,-0.2572970390319824,-0.24023284018039703
1782968850933374700,8.720374755859375,-0.2601490318775177,-0.05330955982208252,-0.22836579382419586
1782968850943300600,8.730300537109375,-0.3133821487426758,0.18862611055374146,-0.10826468467712402
1782968850953226500,8.7402265625,-0.30669841170310974,0.4241699278354645,0.06680779159069061
1782968850963153700,8.750153564453125,-0.27187466621398926,0.5759530663490295,0.2314894199371338
1782968850973079600,8.76007958984375,-0.23690921068191528,0.6227836608886719,0.33639371395111084
1782968850983005400,8.77000537109375,-0.21896563470363617,0.5953201055526733,0.3611169159412384
1782968850992932600,8.7799326171875,-0.22131800651550293,0.4952843189239502,0.3044573664665222
1782968851002858800,8.789858642578125,-0.24768675863742828,0.3612511456012726,0.18271388113498688
1782968851012784400,8.799784423828125,-0.31947121024131775,0.25019359588623047,0.022284001111984253
1782968851022711600,8.809711669921874,-0.4341258704662323,0.17745068669319153,-0.1368047147989273
1782968851032637700,8.8196376953125,-0.5710544586181641,0.15696990489959717,-0.2669273018836975
1782968851042563300,8.829563232421876,-0.7125961184501648,0.18984556198120117,-0.3697783052921295
1782968851052490500,8.839490478515625,-0.8442678451538086,0.2700352072715759,-0.44758841395378113
1782968851062416600,8.849416748046876,-0.9409850835800171,0.38954776525497437,-0.49786490201950073
1782968851072342500,8.859342529296875,-0.9939958453178406,0.5056730508804321,-0.4996263384819031
1782968851082268400,8.869268310546875,-0.9918096661567688,0.5900550484657288,-0.4500372111797333
1782968851092195600,8.879195556640624,-0.9553312659263611,0.6115912199020386,-0.3665527105331421
1782968851102121500,8.88912158203125,-0.885107159614563,0.552238404750824,-0.28829702734947205
1782968851112047400,8.89904736328125,-0.7888789176940918,0.4216873347759247,-0.2485584169626236
1782968851121974500,8.908974609375,-0.7040979862213135,0.27180275321006775,-0.24851180613040924
1782968851131900700,8.918900634765626,-0.6437289118766785,0.10666812211275101,-0.2728254199028015
1782968851141826600,8.92882666015625,-0.6065429449081421,-0.038830485194921494,-0.30634528398513794
1782968851151753500,8.93875341796875,-0.6022613644599915,-0.15452086925506592,-0.36695218086242676
1782968851161679600,8.9486796875,-0.6316695809364319,-0.24452611804008484,-0.464250773191452
1782968851171605500,8.95860546875,-0.6889424324035645,-0.3060390055179596,-0.5966652631759644
1782968851181532700,8.96853271484375,-0.7692615389823914,-0.35834670066833496,-0.7398631572723389
1782968851191458600,8.97845849609375,-0.8547439575195312,-0.3783726096153259,-0.8486256003379822
1782968851201384400,8.988384521484376,-0.9245877265930176,-0.34559547901153564,-0.8988254070281982
1782968851211310600,8.998310546875,-0.9776405692100525,-0.2846943140029907,-0.9234673380851746
1782968851221237800,9.00823779296875,-1.0186209678649902,-0.18814727663993835,-0.9355229139328003
1782968851231163400,9.018163330078124,-1.0469073057174683,-0.054673098027706146,-0.9452911615371704
1782968851241089500,9.028089599609375,-1.0479475259780884,0.0697934627532959,-0.9359219074249268
1782968851251016700,9.0380166015625,-1.0312385559082031,0.17468498647212982,-0.8947709798812866
1782968851260942300,9.0479423828125,-0.9790475368499756,0.258333295583725,-0.8141315579414368
1782968851270868500,9.057868408203126,-0.9073157906532288,0.294689416885376,-0.7181341648101807
1782968851280795600,9.067795654296875,-0.8238928318023682,0.2827227711677551,-0.6237722635269165
1782968851290721500,9.077721435546875,-0.7399539947509766,0.22659613192081451,-0.5416078567504883
1782968851300647400,9.0876474609375,-0.6720982193946838,0.13181261718273163,-0.4857965409755707
1782968851310574600,9.09757470703125,-0.6188568472862244,0.01483300793915987,-0.4575830101966858
1782968851320500700,9.107500732421874,-0.5822333097457886,-0.10325075685977936,-0.4553704559803009
1782968851330426400,9.11742626953125,-0.5752664804458618,-0.2003149837255478,-0.47775164246559143
1782968851340353500,9.127353515625,-0.5630087852478027,-0.2408301830291748,-0.506581723690033
1782968851350279700,9.13727978515625,-0.5282643437385559,-0.19596737623214722,-0.5255165100097656
1782968851360205600,9.14720556640625,-0.5046615600585938,-0.10353411734104156,-0.5451139211654663
1782968851370131500,9.15713134765625,-0.5146899819374084,0.016497749835252762,-0.5586419701576233
1782968851380058600,9.16705859375,-0.5514426827430725,0.12769590318202972,-0.5683255195617676
1782968851389984500,9.176984619140624,-0.6018216609954834,0.2277282327413559,-0.5660026669502258
1782968851399910400,9.186910400390625,-0.6648672223091125,0.3063575327396393,-0.5664945840835571
1782968851409837600,9.196837646484376,-0.6974219679832458,0.34936758875846863,-0.5639888048171997
1782968851419763500,9.206763427734375,-0.6797319054603577,0.4302408695220947,-0.6041394472122192
1782968851429689600,9.216689697265625,-0.5596084594726562,0.45930925011634827,-0.5416176915168762
1782968851439616500,9.226616455078124,-0.3975242078304291,0.4309529960155487,-0.38990089297294617
1782968851449542400,9.23654248046875,-0.2356327623128891,0.39790263772010803,-0.18996860086917877
1782968851459468500,9.246468505859376,-0.07265263050794601,0.34895238280296326,0.011028682813048363
1782968851469394400,9.25639453125,0.08963001519441605,0.2806207537651062,0.1727517992258072
1782968851479321600,9.266321533203126,0.23573662340641022,0.19956956803798676,0.2508002519607544
1782968851489247500,9.27624755859375,0.35614532232284546,0.10866256058216095,0.257361501455307
1782968851499173600,9.286173583984375,0.4356319010257721,0.030963774770498276,0.2474990040063858
1782968851509100500,9.2961005859375,0.4756251275539398,-0.005942311137914658,0.25752875208854675
1782968851519026400,9.3060263671875,0.48463085293769836,0.017181916162371635,0.27017343044281006
1782968851528952600,9.31595263671875,0.47655749320983887,0.09509455412626266,0.2793687880039215
1782968851538879700,9.325879638671875,0.46418365836143494,0.2191227674484253,0.2744739055633545
1782968851548805400,9.335805419921876,0.48222070932388306,0.33433085680007935,0.26451635360717773
1782968851558731500,9.3457314453125,0.5222607851028442,0.4154488742351532,0.268679141998291
1782968851568658700,9.35565869140625,0.5931054353713989,0.45825332403182983,0.3101469576358795
1782968851578584300,9.365584228515624,0.6946040987968445,0.44494256377220154,0.3829721510410309
1782968851588510500,9.375510498046875,0.8188690543174744,0.3863682150840759,0.47592446208000183
1782968851598436600,9.3854365234375,0.9409337043762207,0.2816609740257263,0.5793773531913757
1782968851608363500,9.395363525390625,1.0571726560592651,0.18022330105304718,0.6995950937271118
1782968851618289400,9.405289306640626,1.158626914024353,0.09180235862731934,0.8076515197753906
1782968851628215600,9.415215576171875,1.2453562021255493,-0.007241934072226286,0.8879277110099792
1782968851638142500,9.425142578125,1.3231279850006104,-0.12067767977714539,0.9285596013069153
1782968851648068400,9.435068359375,1.3959614038467407,-0.2377033680677414,0.9301484227180481
1782968851657994500,9.444994384765625,1.4597198963165283,-0.3688715100288391,0.9058486819267273
1782968851667921700,9.454921630859374,1.4801108837127686,-0.5033755302429199,0.8672104477882385
1782968851677847600,9.46484765625,1.461763858795166,-0.6215059161186218,0.8217817544937134
1782968851687773400,9.4747734375,1.4087562561035156,-0.7042987942695618,0.7856815457344055
1782968851697700600,9.48470068359375,1.3366847038269043,-0.733950674533844,0.7443756461143494
1782968851707626500,9.49462646484375,1.2439076900482178,-0.7131575345993042,0.6860665082931519
1782968851717552600,9.504552734375,1.130940318107605,-0.6684366464614868,0.6112349033355713
1782968851727478500,9.514478515625,1.0163525342941284,-0.601698100566864,0.5459815859794617
1782968851737405400,9.524405517578124,0.9127081632614136,-0.5425024032592773,0.518163800239563
1782968851747331600,9.53433154296875,0.8209739923477173,-0.502915620803833,0.5198104381561279
1782968851757257500,9.544257568359376,0.7381214499473572,-0.4805959165096283,0.5219473242759705
1782968851767184400,9.554184326171875,0.6822949647903442,-0.44054675102233887,0.49406698346138
1782968851777110500,9.564110595703125,0.6422141194343567,-0.40259724855422974,0.4515131413936615
1782968851787036700,9.57403662109375,0.6051932573318481,-0.36377793550491333,0.42338189482688904
1782968851796963300,9.58396337890625,0.5723689794540405,-0.3183135390281677,0.4304376542568207
1782968851806889500,9.593889404296876,0.5576542019844055,-0.2749101221561432,0.463626503944397
1782968851816815600,9.603815673828125,0.5700336694717407,-0.2357984185218811,0.508388102054596
1782968851826742500,9.613742431640626,0.5917426943778992,-0.21943488717079163,0.5653800368309021
1782968851836668400,9.62366845703125,0.602069616317749,-0.23526550829410553,0.6367998719215393
1782968851846594600,9.633594482421875,0.59541916847229,-0.28302398324012756,0.7175312042236328
1782968851856520700,9.643520751953124,0.5802700519561768,-0.35389867424964905,0.7675339579582214
1782968851866447400,9.653447265625,0.5461339354515076,-0.42004653811454773,0.7626550197601318
1782968851876373500,9.66337353515625,0.5308595895767212,-0.4098586142063141,0.7210751175880432
1782968851886299600,9.673299560546875,0.5045819282531738,-0.37284842133522034,0.6428474187850952
1782968851896226600,9.6832265625,0.4573180079460144,-0.3322751522064209,0.5373619794845581
1782968851906152400,9.69315234375,0.38647180795669556,-0.27354979515075684,0.42799583077430725
1782968851916078600,9.70307861328125,0.29473283886909485,-0.1872471272945404,0.32313597202301025
1782968851926005500,9.713005615234374,0.05342087894678116,-0.26599279046058655,0.16176334023475647
1782968851935931400,9.722931396484375,-0.1412316858768463,-0.13447391986846924,0.0669603943824768
1782968851945857500,9.732857421875,-0.22519716620445251,0.11051985621452332,0.0488722026348114
1782968851955784400,9.742784423828125,-0.30010390281677246,0.33775752782821655,0.03659556061029434
1782968851965710600,9.752710693359376,-0.3535836338996887,0.5353795289993286,0.06887999922037125
1782968851975636500,9.762636474609375,-0.3819766640663147,0.6530100107192993,0.1403334140777588
1782968851985562600,9.772562744140625,-0.39158135652542114,0.6547338962554932,0.21339723467826843
1782968851995489500,9.782489501953124,-0.37564098834991455,0.6127440929412842,0.2531587481498718
1782968852005415400,9.79241552734375,-0.3595573604106903,0.5374661087989807,0.23919793963432312
1782968852015341600,9.802341552734376,-0.3659798502922058,0.4601486921310425,0.1623992919921875
1782968852025268500,9.8122685546875,-0.39726772904396057,0.41664808988571167,0.024352744221687317
1782968852035194600,9.822194580078126,-0.43592458963394165,0.3835577666759491,-0.05759059265255928
1782968852045120500,9.83212060546875,-0.4810691475868225,0.08447014540433884,0.09094055742025375
1782968852055047400,9.84204736328125,-0.6403634548187256,-0.03635134920477867,0.05839113891124725
1782968852064973600,9.8519736328125,-0.7851928472518921,-0.038289330899715424,-0.03212757781147957
1782968852074899500,9.8618994140625,-0.8399508595466614,-0.038119424134492874,-0.13895389437675476
1782968852084826400,9.871826416015624,-0.8573349118232727,-0.04573792591691017,-0.23650521039962769
1782968852094752500,9.88175244140625,-0.8471081256866455,0.0054730623960494995,-0.29313865303993225
1782968852104678700,9.8916787109375,-0.823235034942627,0.06848611682653427,-0.28540509939193726
1782968852114604500,9.9016044921875,-0.8005717992782593,0.11199897527694702,-0.2465147078037262
1782968852124531500,9.911531494140625,-0.7977917194366455,0.1500728577375412,-0.19187462329864502
1782968852134457600,9.92145751953125,-0.8159747123718262,0.2341136932373047,-0.157507061958313
1782968852144383500,9.931383544921875,-0.867024838924408,0.34924426674842834,-0.1578490138053894
1782968852154310400,9.941310302734376,-0.9249475598335266,0.4516707956790924,-0.22749707102775574
1782968852164236500,9.951236572265625,-0.9932363033294678,0.555965781211853,-0.3703623414039612
1782968852174162700,9.96116259765625,-1.0594762563705444,0.6252766847610474,-0.5639890432357788
1782968852184089600,9.971089599609375,-1.0983831882476807,0.623515784740448,-0.7471469044685364
1782968852194015500,9.981015380859375,-1.1298460960388184,0.5764178037643433,-0.8600130081176758
1782968852203941600,9.990941650390624,-1.1239029169082642,0.46505850553512573,-0.9868865609169006
1782968852213868500,10.00086865234375,-1.0023515224456787,0.21094632148742676,-1.0812511444091797
1782968852223794400,10.01079443359375,-0.8759376406669617,-0.11577080935239792,-1.1175543069839478
1782968852233720600,10.020720458984375,-0.9111454486846924,-0.2713982164859772,-1.094468116760254
1782968852243646700,10.030646728515626,-1.0597660541534424,-0.253253310918808,-1.0376183986663818
1782968852253573600,10.04057373046875,-1.2241028547286987,-0.21301640570163727,-0.9744365215301514
1782968852263499500,10.05049951171875,-1.4360816478729248,-0.026253974065184593,-0.9262868165969849
1782968852273425700,10.06042578125,-1.6837018728256226,-0.14189189672470093,-0.9044353365898132
1782968852283352600,10.0703525390625,-1.8215841054916382,0.09191501140594482,-0.8447115421295166
1782968852293278500,10.080278564453126,-1.9127498865127563,0.11610396951436996,-0.8429405689239502
1782968852303204600,10.09020458984375,-1.9633995294570923,-0.008127967827022076,-0.8717926740646362
1782968852313131500,10.100131591796876,-1.9987136125564575,-0.13555249571800232,-0.8578542470932007
1782968852323057700,10.1100576171875,-2.011902093887329,-0.20951594412326813,-0.7727872729301453
1782968852332983600,10.119983642578125,-2.011822462081909,-0.5231074094772339,-0.6958682537078857
1782968852342910500,10.129910400390624,-1.9610987901687622,-0.7524484395980835,-0.6759845614433289
1782968852352836600,10.139836669921875,-1.8535137176513672,-0.8521921038627625,-0.5766190886497498
1782968852362762500,10.149762451171876,-1.740760087966919,-0.9710279703140259,-0.43245208263397217
1782968852372688600,10.159688720703125,-1.6363964080810547,-1.079077124595642,-0.26531875133514404
1782968852382615600,10.169615478515626,-1.5695207118988037,-1.1625038385391235,-0.1273220032453537
1782968852392541700,10.179541748046875,-1.5721089839935303,-1.1866425275802612,-0.050522029399871826
1782968852402467600,10.189467529296875,-1.6707013845443726,-1.142791986465454,-0.05204269289970398
1782968852412394500,10.19939453125,-1.8276046514511108,-0.9986566305160522,-0.15207794308662415
1782968852422320600,10.209320556640625,-1.9783684015274048,-0.7857403755187988,-0.353078156709671
1782968852432246500,10.21924658203125,-1.945883870124817,-0.43736109137535095,-0.5876842737197876
1782968852442173400,10.22917333984375,-1.5481634140014648,-0.18284517526626587,-0.837648868560791
1782968852452099600,10.239099609375,-0.8613275289535522,0.023008912801742554,-1.0570086240768433
1782968852462025700,10.249025634765625,-0.07578077912330627,0.2032034546136856,-1.1185566186904907
1782968852471951400,10.258951416015625,0.39804404973983765,0.2031983882188797,-0.9079775810241699
1782968852481878500,10.26887841796875,0.620832622051239,0.0625603199005127,-0.5385090112686157
1782968852491804700,10.2788046875,0.8495758175849915,0.1415182501077652,-0.04555576667189598
1782968852501730600,10.28873046875,1.0040053129196167,0.309072345495224,0.3760681748390198
1782968852511657500,10.298657470703125,1.1025633811950684,0.40899547934532166,0.6670880317687988
1782968852521583600,10.30858349609375,1.1620244979858398,0.4581553041934967,0.8019571304321289
1782968852531509800,10.318509765625,1.2026749849319458,0.4735814034938812,0.8341052532196045
1782968852541436400,10.3284365234375,1.175154685974121,0.5009392499923706,0.8022053837776184
1782968852551362600,10.338362548828124,1.118743658065796,0.527869701385498,0.6969527006149292
1782968852561288700,10.348288818359375,1.0822335481643677,0.5515127182006836,0.5635278224945068
1782968852571215600,10.358215576171874,1.0810577869415283,0.5796819925308228,0.4869568645954132
1782968852581141500,10.3681416015625,1.1384278535842896,0.578234851360321,0.46800848841667175
1782968852591067600,10.378067626953126,1.245304822921753,0.5613988637924194,0.47014299035072327
1782968852600993500,10.38799365234375,1.4266839027404785,0.518918514251709,0.484205037355423
1782968852610920400,10.39792041015625,1.5677525997161865,0.4817730188369751,0.5326082706451416
1782968852620846600,10.4078466796875,1.643777847290039,0.4556546211242676,0.6772855520248413
1782968852630772500,10.4177724609375,1.675538182258606,0.4062249958515167,0.878148078918457
1782968852640699600,10.42769970703125,1.7093629837036133,0.2923636734485626,1.0589932203292847
1782968852650625500,10.43762548828125,1.7384843826293945,0.1880284994840622,1.190527319908142
1782968852660551400,10.447551513671876,1.7326313257217407,0.1413307636976242,1.2724798917770386
1782968852670478600,10.457478515625,1.698114275932312,0.13498525321483612,1.2808624505996704
1782968852680404700,10.46740478515625,1.669036865234375,0.14219176769256592,1.2144315242767334
1782968852690330600,10.47733056640625,1.6471686363220215,0.15541541576385498,1.0931408405303955
1782968852700257500,10.487257568359375,1.6431586742401123,0.14025138318538666,0.9402282238006592
1782968852710183700,10.49718359375,1.62510085105896,0.09505487978458405,0.7880330681800842
1782968852720109600,10.507109619140625,1.582726240158081,-0.021771341562271118,0.6890087723731995
1782968852730035500,10.517035400390625,1.5085422992706299,-0.16111990809440613,0.6891350150108337
1782968852739962600,10.526962646484375,1.3829883337020874,-0.2930523753166199,0.7957572937011719
1782968852749888800,10.536888671875,1.2439748048782349,-0.411877304315567,0.9430128335952759
1782968852759814400,10.546814453125,1.1209660768508911,-0.4905087351799011,1.0353657007217407
1782968852769741600,10.556741455078125,1.0191619396209717,-0.4946818947792053,1.0253082513809204
1782968852779667700,10.566667724609376,0.9329705834388733,-0.4401411712169647,0.9147098064422607
1782968852789593600,10.576593505859375,0.8526378870010376,-0.34843146800994873,0.7495954036712646
1782968852799520500,10.5865205078125,0.7583795785903931,-0.2395859658718109,0.5910574197769165
1782968852809446700,10.59644677734375,0.6580601930618286,-0.11583498865365982,0.4557124078273773
1782968852819372500,10.60637255859375,0.57652747631073,0.002201635157689452,0.35348162055015564
1782968852829298400,10.61629833984375,0.5036700963973999,0.08903719484806061,0.2816399335861206
1782968852839225600,10.6262255859375,0.4567781984806061,0.1483364701271057,0.2286108136177063
1782968852849151500,10.6361513671875,0.4284498989582062,0.14535586535930634,0.170036181807518
1782968852859077600,10.64607763671875,0.3604322075843811,0.16176733374595642,0.15863971412181854
1782968852869004500,10.656004638671876,0.3083184063434601,0.1618802398443222,0.18549422919750214
1782968852878930700,10.6659306640625,0.27718499302864075,0.1362350732088089,0.21759730577468872
1782968852888856600,10.675856689453125,0.25488609075546265,0.12104307115077972,0.28067055344581604
1782968852898783700,10.68578369140625,0.30340835452079773,0.08309382200241089,0.3350006341934204
1782968852908709600,10.695709716796875,0.294536292552948,0.036247219890356064,0.42036452889442444
1782968852918635500,10.705635498046876,0.3269767761230469,0.006244580261409283,0.4762096703052521
1782968852928562700,10.715562744140625,0.34315869212150574,-0.05403580516576767,0.46837306022644043
1782968852938488600,10.725488525390626,0.3172234892845154,-0.12515844404697418,0.4051949083805084
1782968852948414500,10.73541455078125,0.2646537721157074,-0.24361452460289001,0.28852981328964233
1782968852958341600,10.745341552734375,0.18257594108581543,-0.366079717874527,0.13985669612884521
1782968852968267800,10.755267822265624,0.10604387521743774,-0.5545921325683594,-0.06135976314544678
1782968852978193400,10.765193359375,-0.030950991436839104,-0.6294844746589661,-0.21146191656589508
1782968852988119600,10.77511962890625,-0.14979135990142822,-0.6059407591819763,-0.31479284167289734
1782968852998046700,10.785046630859375,-0.2388615757226944,-0.5025699138641357,-0.3568233549594879
1782968853007972400,10.794972412109376,-0.2921634018421173,-0.33057737350463867,-0.3375316858291626
1782968853017898500,10.8048984375,-0.32388806343078613,-0.13910941779613495,-0.256808876991272
1782968853027825700,10.81482568359375,-0.33186155557632446,0.0300188846886158,-0.12771295011043549
1782968853037751600,10.82475146484375,-0.32956698536872864,0.11207380890846252,-0.010032660327851772
1782968853047677400,10.834677490234375,-0.34887462854385376,0.06494837254285812,0.04523512348532677
1782968853057604600,10.8446044921875,-0.36095234751701355,-0.021388912573456764,0.03352520242333412
1782968853067530800,10.85453076171875,-0.38496020436286926,-0.11524030566215515,-0.044140297919511795
1782968853077456400,10.864456298828125,-0.44912534952163696,-0.2117956131696701,-0.1720665693283081
1782968853087382500,10.874382568359374,-0.5376781225204468,-0.2982594072818756,-0.31356003880500793
1782968853097309700,10.884309814453125,-0.6303313374519348,-0.3610583245754242,-0.44960975646972656
1782968853107235600,10.894235595703124,-0.6986441016197205,-0.4032055139541626,-0.5567783117294312
1782968853117161500,10.904161376953125,-0.7356671094894409,-0.42772096395492554,-0.6316773295402527
1782968853127088600,10.914088623046876,-0.7466363906860352,-0.43657997250556946,-0.6676099896430969
1782968853137014500,10.9240146484375,-0.7618286609649658,-0.47160908579826355,-0.6557666659355164
1782968853146940400,10.9339404296875,-0.7543683648109436,-0.5129362940788269,-0.5877098441123962
1782968853156867600,10.94386767578125,-0.7484278678894043,-0.581675112247467,-0.4906272292137146
1782968853166793500,10.95379345703125,-0.7925788164138794,-0.719754695892334,-0.4301479160785675
1782968853176719600,10.9637197265625,-0.8158732652664185,-0.7826103568077087,-0.4005037248134613
1782968853186646800,10.973646728515625,-0.8353537321090698,-0.717284083366394,-0.43401163816452026
1782968853196572400,10.983572509765626,-0.883380651473999,-0.5888928174972534,-0.5404038429260254
1782968853206498600,10.99349853515625,-0.9541959762573242,-0.4115297496318817,-0.6911273002624512
1782968853216424700,11.0034248046875,-1.0465633869171143,-0.21160146594047546,-0.8240709900856018
1782968853226351600,11.0133515625,-1.1521798372268677,-0.030185598880052567,-0.9445577263832092
1782968853236277500,11.023277587890625,-1.2481133937835693,0.12201592326164246,-1.0553697347640991
1782968853246203600,11.03320361328125,-1.3129370212554932,0.2094256579875946,-1.1561429500579834
1782968853256130800,11.043130859375,-1.341999888420105,0.23804639279842377,-1.1949495077133179
1782968853266056400,11.053056396484376,-1.315765380859375,0.23702426254749298,-1.1829620599746704
1782968853275982600,11.062982666015625,-1.240965723991394,0.16349439322948456,-1.1260631084442139
1782968853285909800,11.07290966796875,-1.1469305753707886,0.021579593420028687,-1.0392740964889526
1782968853295835400,11.08283544921875,-1.0534131526947021,-0.1594780683517456,-0.955642580986023
1782968853305761500,11.092761474609375,-0.9659039974212646,-0.3254486620426178,-0.9205805063247681
1782968853315687700,11.102687744140624,-0.8972290754318237,-0.4323974847793579,-0.9487689733505249
1782968853325614600,11.112614501953125,-0.8482974767684937,-0.45261913537979126,-1.0022526979446411
1782968853335540500,11.12254052734375,-0.8116949796676636,-0.4020289182662964,-1.0603386163711548
1782968853345466600,11.132466552734375,-0.7735806703567505,-0.3178706467151642,-1.071668028831482
1782968853355393500,11.1423935546875,-0.7480305433273315,-0.21614880859851837,-1.0148869752883911
1782968853365319400,11.1523193359375,-0.7629091143608093,-0.10935605317354202,-0.8669995665550232
1782968853375245600,11.16224560546875,-0.7264506816864014,0.035952407866716385,-0.6785873174667358
1782968853385172500,11.17217236328125,-0.6398468017578125,0.1613454818725586,-0.5249191522598267
1782968853395098600,11.1820986328125,-0.5918619632720947,0.2665289044380188,-0.4342329502105713
1782968853405024500,11.1920244140625,-0.5742800831794739,0.3367982506752014,-0.4281867742538452
1782968853414951700,11.20195166015625,-0.6008692979812622,0.5493467450141907,-0.5453264117240906
1782968853424877600,11.211877685546876,-0.5902411937713623,0.6734218001365662,-0.6330631971359253
1782968853434803500,11.221803466796874,-0.5591221451759338,0.6469942331314087,-0.6994805932044983
1782968853444729600,11.2317294921875,-0.4914959669113159,0.6338651180267334,-0.7960907220840454
1782968853454656500,11.241656494140624,-0.4070766866207123,0.6613172292709351,-0.9121297597885132
1782968853464582700,11.251582763671875,-0.3565666377544403,0.5362018942832947,-0.9041732549667358
1782968853474508500,11.261508544921876,-0.28269028663635254,0.2779591679573059,-0.7638702392578125
1782968853484435500,11.271435546875,-0.0848536416888237,0.08599400520324707,-0.4369909167289734
1782968853494361600,11.281361572265626,0.028196483850479126,-0.1988997757434845,-0.11179257929325104
1782968853504287500,11.29128759765625,0.12081829458475113,-0.33389994502067566,0.22911867499351501
1782968853514214400,11.30121435546875,0.15586203336715698,-0.3521537780761719,0.5541638731956482
1782968853524140500,11.311140625,0.13023896515369415,-0.30705103278160095,0.8506871461868286
1782968853534066700,11.321066650390625,0.1373104602098465,-0.35698235034942627,1.0987569093704224
1782968853543992600,11.33099267578125,0.2436171919107437,-0.4838455021381378,1.2277824878692627
1782968853553919500,11.34091943359375,0.4186534583568573,-0.5908305644989014,1.2796885967254639
1782968853563845600,11.350845703125,0.5554669499397278,-0.6626085638999939,1.2379735708236694
1782968853573771500,11.360771484375,0.593709409236908,-0.7190002202987671,1.129492163658142
1782968853583698400,11.370698486328125,0.585029661655426,-0.6778402924537659,1.056060552597046
1782968853593624600,11.38062451171875,0.6417533755302429,-0.48150163888931274,1.0445884466171265
1782968853603550700,11.39055078125,0.7609026432037354,-0.23259036242961884,1.0891897678375244
1782968853613477400,11.400477294921876,0.8676930069923401,-0.031436484307050705,1.1692630052566528
1782968853623403500,11.410403564453125,0.9663695096969604,0.10679914802312851,1.2791836261749268
1782968853633329700,11.42032958984375,1.088273286819458,0.26752811670303345,1.385401725769043
1782968853643256600,11.430256591796875,1.2441213130950928,0.4821642339229584,1.4161193370819092
1782968853653182500,11.440182373046875,1.3367129564285278,0.6479430794715881,1.3564451932907104
1782968853663108600,11.450108642578124,1.3085287809371948,0.7845560908317566,1.2555373907089233
1782968853673034800,11.46003466796875,1.360512614250183,0.938452422618866,1.1760183572769165
1782968853682961700,11.469961669921876,1.4386976957321167,1.0373728275299072,0.9906296133995056
1782968853692887600,11.479887451171875,1.5153876543045044,1.1525015830993652,0.7693659067153931
1782968853702813700,11.489813720703125,1.5358282327651978,1.1942986249923706,0.4990537464618683
1782968853712740600,11.49974072265625,1.4788341522216797,1.0720834732055664,0.18228085339069366
1782968853722666500,11.50966650390625,1.3671467304229736,0.8295357823371887,-0.09631241858005524
1782968853732592600,11.519592529296874,1.2628427743911743,0.5988919138908386,-0.24399295449256897
1782968853742519600,11.52951953125,1.1771560907363892,0.4233984053134918,-0.2466324120759964
1782968853752445700,11.53944580078125,1.076164960861206,0.36991387605667114,-0.15869617462158203
1782968853762371600,11.54937158203125,0.9835740923881531,0.3597123622894287,-0.024035828188061714
1782968853772298000,11.559298095703125,0.9109292030334473,0.3660661280155182,0.1415981501340866
1782968853782225000,11.569224853515625,0.8717706203460693,0.2921847105026245,0.24729926884174347
1782968853792151000,11.579151123046875,0.8351683616638184,0.24179399013519287,0.29600343108177185
1782968853802077000,11.589076904296874,0.812633752822876,0.23833906650543213,0.3046158254146576
1782968853812003800,11.59900390625,0.780500590801239,0.3513074219226837,0.29509103298187256
1782968853821930000,11.608929931640626,0.6858526468276978,0.2762472927570343,0.19934266805648804
1782968853831856000,11.618856201171875,0.5948135852813721,0.15433311462402344,0.13451360166072845
1782968853841782800,11.62878271484375,0.5651068091392517,-0.018993131816387177,0.12220713496208191
1782968853851709000,11.638708984375,0.5319719910621643,-0.2009030133485794,0.12431290000677109
1782968853861635000,11.648635009765625,0.567020833492279,-0.3279421925544739,0.16943643987178802
1782968853871560700,11.658560791015624,0.6674209237098694,-0.38475459814071655,0.2583239674568176
1782968853881488000,11.66848779296875,0.7426434755325317,-0.37868764996528625,0.38961726427078247
1782968853891414000,11.6784140625,0.7737857103347778,-0.3949798047542572,0.5326132774353027
1782968853901340000,11.68833984375,0.7655602693557739,-0.410753458738327,0.6555256247520447
1782968853911266800,11.698266845703126,0.7225885391235352,-0.4184907376766205,0.7274773120880127
1782968853921193000,11.70819287109375,0.6629188656806946,-0.406391441822052,0.7360814809799194
1782968853931118800,11.718118896484375,0.5691902041435242,-0.37503939867019653,0.6812965273857117
1782968853941046000,11.7280458984375,0.4384511113166809,-0.3676517903804779,0.5435823202133179
1782968853950972000,11.737971923828125,0.29109975695610046,-0.33507654070854187,0.36125272512435913
1782968853960898000,11.74789794921875,0.12373552471399307,-0.2816793620586395,0.16158276796340942
1782968853970825000,11.757824951171875,-0.04428570717573166,-0.20657049119472504,-0.04971189424395561
1782968853980751000,11.767751220703126,-0.18674404919147491,-0.12816649675369263,-0.2180553674697876
1782968853990677000,11.777677001953125,-0.2881244719028473,-0.024873126298189163,-0.27680495381355286
1782968854000603000,11.787602783203125,-0.32744738459587097,0.133969247341156,-0.1965218484401703
1782968854010530000,11.797530029296874,-0.2752789855003357,0.3530627191066742,-0.04150643199682236
1782968854020456000,11.8074560546875,-0.18496505916118622,0.3994280993938446,0.06825708597898483
1782968854030381800,11.8173818359375,-0.2545364201068878,0.5292081832885742,0.23114827275276184
1782968854040309000,11.82730908203125,-0.26026272773742676,0.5329096913337708,0.30136996507644653
1782968854050235100,11.837235107421876,-0.24734720587730408,0.43159428238868713,0.25035178661346436
1782968854060160800,11.847160888671874,-0.2754129469394684,0.3507305979728699,0.1552519053220749
1782968854070088000,11.857087890625,-0.37818244099617004,0.18384893238544464,-0.03254435956478119
1782968854080014000,11.86701416015625,-0.4788568615913391,0.025742914527654648,-0.2326044887304306
1782968854089939700,11.876939697265625,-0.5248088836669922,-0.07979603111743927,-0.4053213894367218
1782968854099865900,11.886865966796876,-0.6498850584030151,-0.07384706288576126,-0.5103375315666199
1782968854109793000,11.89679296875,-0.7215246558189392,-0.0002689792599994689,-0.5360754132270813
1782968854119719000,11.906718994140626,-0.7150307893753052,0.11845847219228745,-0.49811017513275146
1782968854129644800,11.916644775390624,-0.7500923871994019,0.1904330551624298,-0.45079725980758667
1782968854139572000,11.926572021484375,-0.7781924605369568,0.2912012040615082,-0.3746369779109955
1782968854149498000,11.936498046875,-0.7589404582977295,0.4845792055130005,-0.27940475940704346
1782968854159423700,11.946423828125,-0.7840178608894348,0.5646700263023376,-0.30000242590904236
1782968854169351000,11.956350830078126,-0.8592739701271057,0.4945162534713745,-0.3893698751926422
1782968854179277000,11.966277099609375,-0.9064936637878418,0.4439401626586914,-0.45715343952178955
1782968854189203000,11.976202880859375,-0.9248977303504944,0.35064563155174255,-0.5378584265708923
1782968854199128800,11.98612890625,-0.9230974316596985,0.33113744854927063,-0.7178491950035095
1782968854209056000,11.996055908203125,-0.9185373187065125,0.1405954658985138,-0.9354254603385925
1782968854218982000,12.00598193359375,-0.9314461946487427,-0.09266974776983261,-1.0780178308486938
1782968854228907800,12.01590771484375,-0.9602320194244385,-0.2597258388996124,-1.1992923021316528
1782968854238834000,12.025833984375,-0.9862130284309387,-0.406645268201828,-1.291429877281189
1782968854248760000,12.035760009765625,-0.9768463969230652,-0.4602823853492737,-1.296648383140564
1782968854258686000,12.04568603515625,-0.9835178852081299,-0.4661959409713745,-1.243875503540039
1782968854268612900,12.05561279296875,-0.9786334037780762,-0.35476580262184143,-1.1562869548797607
1782968854278539000,12.0655390625,-0.8937544822692871,-0.3082590401172638,-0.9135491847991943
1782968854288465000,12.07546484375,-0.8019270896911621,-0.3586716055870056,-0.6854696869850159
1782968854298391800,12.085391845703125,-0.7350630760192871,-0.3354421854019165,-0.5593831539154053
1782968854308318000,12.09531787109375,-0.704888641834259,-0.26834675669670105,-0.48982056975364685
1782968854318244000,12.105244140625,-0.7260205745697021,-0.252356618642807,-0.5342764258384705
1782968854328171000,12.1151708984375,-0.7863414287567139,-0.285610169172287,-0.6822634935379028
1782968854338097000,12.125096923828124,-0.8495579957962036,-0.30308982729911804,-0.8692600131034851
1782968854348023000,12.13502294921875,-0.8658655881881714,-0.30296385288238525,-1.0432307720184326
1782968854357950000,12.144949951171874,-0.8287256360054016,-0.31717661023139954,-1.183298945426941
1782968854367875800,12.154875732421875,-0.7828561663627625,-0.15493525564670563,-1.295682668685913
1782968854377802000,12.164802001953126,-0.8543151617050171,-0.12068141251802444,-1.5858676433563232
1782968854387728000,12.174727783203124,-0.8633291721343994,-0.10093779861927032,-1.718785285949707
1782968854397655000,12.184655029296875,-0.918203592300415,0.06798037886619568,-1.7754887342453003
1782968854407581000,12.194580810546874,-1.0195344686508179,0.2584182322025299,-1.74994957447052
1782968854417506800,12.2045068359375,-1.00026273727417,0.12801681458950043,-1.6168292760849
1782968854427434000,12.21443408203125,-0.8711468577384949,-0.21982316672801971,-1.3940508365631104
1782968854437359900,12.22435986328125,-0.7612645626068115,-0.37271952629089355,-1.1799675226211548
1782968854447286000,12.2342861328125,-0.6613014936447144,-0.43544095754623413,-0.9986484050750732
1782968854457213000,12.244212890625,-0.6581709384918213,-0.5391274094581604,-0.8520315289497375
1782968854467139000,12.25413916015625,-0.7819786667823792,-0.6853631734848022,-0.7749319076538086
1782968854477065000,12.26406494140625,-0.9188566207885742,-0.8223268985748291,-0.6656206250190735
1782968854486990800,12.273990966796875,-0.9926764965057373,-0.9250335693359375,-0.5305964946746826
1782968854496918000,12.28391796875,-1.0310630798339844,-0.7674753665924072,-0.31790846586227417
1782968854506844000,12.293843994140625,-1.0915418863296509,-0.30214282870292664,-0.05542917177081108
1782968854516769800,12.303769775390625,-1.0685105323791504,-0.07856165617704391,0.18669451773166656
1782968854526697000,12.313697021484375,-0.9705464243888855,0.01890658028423786,0.40691450238227844
1782968854536623000,12.323623046875,-0.7794401049613953,0.06818357855081558,0.583469808101654
1782968854546548700,12.333548828125,-0.555220365524292,0.00020506340661086142,0.7664306163787842
1782968854556476000,12.343475830078125,-0.3173867464065552,0.004289020784199238,0.9114996194839478
1782968854566402000,12.353402099609376,-0.05772455036640167,0.030520359054207802,1.0330601930618286
1782968854576327700,12.36332763671875,0.17202262580394745,0.03573749214410782,1.1099668741226196
1782968854586253800,12.37325390625,0.3597283363342285,0.08695780485868454,1.1717897653579712
1782968854596181000,12.383180908203125,0.5075593590736389,0.17105136811733246,1.2289012670516968
1782968854606108000,12.39310791015625,0.6064997911453247,0.2464987337589264,1.2334553003311157
