time,seconds_elapsed,z,y,x
1782952450997343700,0.06534375,-0.12618286907672882,0.4543522298336029,0.19481642544269562
1782952451007270700,0.075270751953125,-0.2191687375307083,0.5619947910308838,0.0018086081836372614
1782952451017197600,0.085197509765625,-0.21449004113674164,0.6224749684333801,-0.09693043678998947
1782952451027125500,0.09512548828125,-0.20079287886619568,0.6483531594276428,-0.14975343644618988
1782952451037052700,0.105052734375,-0.19001290202140808,0.6330794095993042,-0.10653852671384811
1782952451046979600,0.1149794921875,-0.18237201869487762,0.5764627456665039,-0.04696707800030708
1782952451056906800,0.12490673828125,-0.20441947877407074,0.5468859672546387,0.024477260187268257
1782952451066834700,0.134834716796875,-0.24007973074913025,0.48928365111351013,0.07559690624475479
1782952451076761600,0.14476171875,-0.24070550501346588,0.43675363063812256,0.14880572259426117
1782952451086688800,0.154688720703125,-0.2896501123905182,0.44016221165657043,0.14367780089378357
1782952451096615700,0.16461572265625,-0.37371981143951416,0.46523410081863403,0.0768861249089241
1782952451106542600,0.17454248046875,-0.4460003972053528,0.45245012640953064,-0.017613211646676064
1782952451116470500,0.184470458984375,-0.46540185809135437,0.446484237909317,-0.12245491147041321
1782952451126397700,0.194397705078125,-0.4536386728286743,0.45671796798706055,-0.21933990716934204
1782952451136324600,0.20432470703125,-0.39953064918518066,0.3474535346031189,-0.24826036393642426
1782952451146251800,0.214251708984375,-0.27112898230552673,0.1351841688156128,-0.15573255717754364
1782952451156179700,0.2241796875,-0.10083373636007309,-0.1505875587463379,0.05814337357878685
1782952451166106600,0.234106689453125,0.024396348744630814,-0.3412291407585144,0.16860702633857727
1782952451176033800,0.24403369140625,0.09056675434112549,-0.467629998922348,0.16068880259990692
1782952451185960700,0.253960693359375,0.1392940729856491,-0.556352972984314,0.09852688759565353
1782952451195888600,0.263888671875,0.15017686784267426,-0.5343895554542542,0.042818062007427216
1782952451205815800,0.27381591796875,0.10702087730169296,-0.366841584444046,0.03051505796611309
1782952451215742500,0.283742431640625,-0.012507028877735138,-0.11739322543144226,0.1233481839299202
1782952451225669600,0.293669677734375,-0.181595116853714,0.08052545040845871,0.31076332926750183
1782952451235597600,0.30359765625,-0.36612915992736816,0.10721903294324875,0.4931233823299408
1782952451245524700,0.313524658203125,-0.44217705726623535,0.05054057762026787,0.5775557160377502
1782952451255451600,0.32345166015625,-0.38397449254989624,-0.002423725789412856,0.5681635737419128
1782952451265378800,0.33337890625,-0.32045117020606995,-0.023740466684103012,0.5036530494689941
1782952451275306800,0.343306640625,-0.32210877537727356,-0.0639820545911789,0.41101232171058655
1782952451285233700,0.353233642578125,-0.29963383078575134,-0.12181738764047623,0.3014853000640869
1782952451295160800,0.363160888671875,-0.14483334124088287,-0.18381258845329285,0.16828320920467377
1782952451305087500,0.37308740234375,0.06120371073484421,-0.19757208228111267,0.020433565601706505
1782952451315014700,0.3830146484375,0.1720888763666153,-0.1451728194952011,-0.19764631986618042
1782952451324942600,0.392942626953125,0.17233628034591675,-0.046554889529943466,-0.5371913313865662
1782952451334869500,0.402869384765625,0.14896801114082336,-0.04637477546930313,-0.9832161068916321
1782952451344796700,0.412796630859375,0.15732447803020477,-0.060954250395298004,-1.3511229753494263
1782952451354723600,0.4227236328125,0.17028862237930298,0.004381278995424509,-1.4972279071807861
1782952451364651800,0.43265185546875,0.129751056432724,0.11064673215150833,-1.406171441078186
1782952451374578700,0.44257861328125,0.13508868217468262,0.3239135444164276,-1.06415855884552
1782952451384505900,0.452505859375,0.09677405655384064,0.41051286458969116,-0.5901513695716858
1782952451394432800,0.462432861328125,0.07574186474084854,0.452615350484848,-0.12124177813529968
1782952451404360700,0.472360595703125,0.07341239601373672,0.4743664562702179,0.22471855580806732
1782952451414287600,0.48228759765625,0.07711131125688553,0.43672820925712585,0.38726821541786194
1782952451424214500,0.492214599609375,0.044130727648735046,0.37855198979377747,0.39111486077308655
1782952451434141700,0.5021416015625,0.00947651918977499,0.30774620175361633,0.2605594992637634
1782952451444069600,0.512069580078125,0.00556460116058588,0.2306431531906128,0.05785059556365013
1782952451453996500,0.52199658203125,0.01728987693786621,0.14786659181118011,-0.13722553849220276
1782952451463923700,0.531923828125,0.022483041509985924,0.08268572390079498,-0.2671896517276764
1782952451473850600,0.5418505859375,0.040797822177410126,0.047727856785058975,-0.2994069457054138
1782952451483778800,0.55177880859375,0.062275417149066925,0.02393784001469612,-0.1952672302722931
1782952451493705700,0.561705810546875,0.06033037602901459,-0.05827174335718155,-0.016569308936595917
1782952451503633000,0.5716328125,0.03148754686117172,-0.2643969655036926,0.09866566956043243
1782952451513559600,0.5815595703125,0.04176947847008705,-0.5077850818634033,0.14803028106689453
1782952451523486700,0.59148681640625,0.052701886743307114,-0.7096943259239197,0.17732976377010345
1782952451533414700,0.60141455078125,0.04561610519886017,-0.8227119445800781,0.17123036086559296
1782952451543341600,0.611341552734375,0.03670809790492058,-0.7752088308334351,0.11001653969287872
1782952451553268700,0.621268798828125,0.015882128849625587,-0.5761749744415283,-0.025062251836061478
1782952451563195600,0.631195556640625,0.01349034532904625,-0.35454487800598145,-0.24934542179107666
1782952451573123600,0.64112353515625,0.0555109865963459,-0.1827278584241867,-0.5162259936332703
1782952451583050800,0.65105078125,0.12300799787044525,-0.04771917313337326,-0.7244575023651123
1782952451592977700,0.660977783203125,0.18343552947044373,0.05923810973763466,-0.7608006000518799
1782952451602904600,0.670904541015625,0.23715893924236298,0.1553819477558136,-0.6381707787513733
1782952451612832800,0.680832763671875,0.29348254203796387,0.16658927500247955,-0.47504615783691406
1782952451622759700,0.690759765625,0.36919888854026794,0.11359928548336029,-0.3363037109375
1782952451632686600,0.7006865234375,0.43390682339668274,0.001063331961631775,-0.1859324723482132
1782952451642613800,0.71061376953125,0.4733130931854248,-0.14538656175136566,-0.00028378365095704794
1782952451652541700,0.720541748046875,0.4922749102115631,-0.27533799409866333,0.1595975160598755
1782952451662468600,0.730468505859375,0.49123814702033997,-0.33016982674598694,0.2674419581890106
1782952451672395800,0.740395751953125,0.4390319287776947,-0.2867661416530609,0.3093811571598053
1782952451682322700,0.75032275390625,0.3763464391231537,-0.19881153106689453,0.27291980385780334
1782952451692250600,0.760250732421875,0.32331353425979614,-0.0762716606259346,0.19212086498737335
1782952451702177800,0.770177734375,0.25319674611091614,0.05938391014933586,0.11430596560239792
1782952451712104400,0.7801044921875,0.14957082271575928,0.13856199383735657,0.08360165357589722
1782952451722031600,0.790031494140625,0.05329621955752373,0.18018214404582977,0.11219814419746399
1782952451731959600,0.79995947265625,-0.028867503628134727,0.20317484438419342,0.17419084906578064
1782952451741886700,0.80988671875,-0.08690337836742401,0.20865562558174133,0.25968578457832336
1782952451751813600,0.819813720703125,-0.13633887469768524,0.21845340728759766,0.33992207050323486
1782952451761740800,0.82974072265625,-0.184813991189003,0.2331431359052658,0.39686205983161926
1782952451771667700,0.839667724609375,-0.20684964954853058,0.25448471307754517,0.4176456928253174
1782952451781595600,0.849595703125,-0.20323041081428528,0.28340744972229004,0.4234979748725891
1782952451791522800,0.859522705078125,-0.18399912118911743,0.3112911581993103,0.41631221771240234
1782952451801449700,0.86944970703125,-0.17311584949493408,0.34237319231033325,0.394079327583313
1782952451811376600,0.879376708984375,-0.18725274503231049,0.367017537355423,0.3785589039325714
1782952451821304600,0.8893046875,-0.22787660360336304,0.3926408588886261,0.36932411789894104
1782952451831231500,0.8992314453125,-0.24857087433338165,0.4084964394569397,0.39981743693351746
1782952451841158700,0.90915869140625,-0.23193703591823578,0.39759132266044617,0.4805106818675995
1782952451851085600,0.91908544921875,-0.22416375577449799,0.29883986711502075,0.5857646465301514
1782952451861013800,0.929013671875,-0.23095561563968658,0.13038666546344757,0.6660027503967285
1782952451870940700,0.938940673828125,-0.21004638075828552,-0.07775375992059708,0.7084639072418213
1782952451880867800,0.948867919921875,-0.175788015127182,-0.2362946718931198,0.7223306894302368
1782952451890794800,0.958794677734375,-0.1459793895483017,-0.2976934015750885,0.726530909538269
1782952451900722700,0.96872265625,-0.13055941462516785,-0.2479599267244339,0.740196704864502
1782952451910649900,0.97864990234375,-0.10500194132328033,-0.11995179951190948,0.7757726311683655
1782952451920576500,0.988576416015625,-0.07966116815805435,0.004338460508733988,0.8391500115394592
1782952451930503700,0.998503662109375,-0.0879800021648407,0.09934144467115402,0.9185063242912292
1782952451940430600,1.0084306640625,-0.08858027309179306,0.16067591309547424,0.9709404706954956
1782952451950358500,1.018358642578125,-0.08736024051904678,0.14836347103118896,0.9765663743019104
1782952451960285700,1.02828564453125,-0.08681482076644897,0.06795944273471832,0.9526575803756714
1782952451970212600,1.038212646484375,-0.05526222661137581,-0.04479227587580681,0.8562904000282288
1782952451980139800,1.048139892578125,0.018105464056134224,-0.23249691724777222,0.6495720744132996
1782952451990067700,1.058067626953125,0.12137401849031448,-0.35679545998573303,0.3344833552837372
1782952451999995000,1.067994873046875,0.20552271604537964,-0.5391674041748047,0.039431195706129074
1782952452009921800,1.077921875,0.21000605821609497,-0.6974905133247375,-0.22469669580459595
1782952452019848700,1.0878486328125,0.1973659098148346,-0.6519933342933655,-0.3944159746170044
1782952452029776600,1.097776611328125,0.23975400626659393,-0.46493667364120483,-0.4637698531150818
1782952452039703600,1.10770361328125,0.26394885778427124,-0.3926731050014496,-0.4477618634700775
1782952452049630700,1.117630615234375,0.2279653251171112,-0.3346039354801178,-0.36411118507385254
1782952452059557600,1.1275576171875,0.15755346417427063,-0.3202628195285797,-0.24564048647880554
1782952452069485600,1.137485595703125,0.057204846292734146,-0.3367249667644501,-0.15195204317569733
1782952452079412700,1.147412841796875,0.001945585128851235,-0.26642897725105286,-0.09023648500442505
1782952452089339600,1.157339599609375,-0.018886199221014977,-0.1571485698223114,-0.07144664227962494
1782952452099266800,1.167266845703125,-0.02860007993876934,-0.010686153545975685,-0.1119685024023056
1782952452109193500,1.177193359375,-0.029784157872200012,0.14768177270889282,-0.1984361708164215
1782952452119121700,1.18712158203125,0.022132303565740585,0.37589070200920105,-0.266806423664093
1782952452129048600,1.197048583984375,0.08487167209386826,0.453624963760376,-0.3015040159225464
1782952452138975700,1.206975830078125,0.07807182520627975,0.4832491874694824,-0.3494723439216614
1782952452148902700,1.216902587890625,-0.003815096104517579,0.4355956017971039,-0.34435218572616577
1782952452158830600,1.22683056640625,-0.06023949012160301,0.4605925679206848,-0.3641386926174164
1782952452168757800,1.2367578125,-0.026944613084197044,0.48231372237205505,-0.3358009457588196
1782952452178684700,1.2466845703125,0.014959695748984814,0.47210022807121277,-0.2920430600643158
1782952452188611800,1.25661181640625,0.04851699247956276,0.43505722284317017,-0.26521435379981995
1782952452198539800,1.266539794921875,0.08269228041172028,0.38704147934913635,-0.2497168928384781
1782952452208466700,1.276466796875,0.13050426542758942,0.32846421003341675,-0.2237696349620819
1782952452218393600,1.2863935546875,0.17268314957618713,0.28905579447746277,-0.1961507946252823
1782952452228320500,1.296320556640625,0.1875118464231491,0.2733706831932068,-0.20532436668872833
1782952452238248700,1.306248779296875,0.18076500296592712,0.2809590995311737,-0.21406325697898865
1782952452248175600,1.316175537109375,0.13501326739788055,0.2363949865102768,-0.2061302661895752
1782952452258102500,1.3261025390625,0.10269661247730255,0.18371792137622833,-0.20993672311306
1782952452268029700,1.33602978515625,0.08453234285116196,0.0462675616145134,-0.3012726306915283
1782952452277956600,1.34595654296875,0.08703891187906265,-0.13226595520973206,-0.4534651041030884
1782952452287884800,1.355884765625,0.09294486790895462,-0.3218017518520355,-0.5932276844978333
1782952452297811700,1.365811767578125,0.0945907011628151,-0.461675226688385,-0.7035243511199951
1782952452307739000,1.37573876953125,0.098590187728405,-0.5342775583267212,-0.7650796175003052
1782952452317665500,1.38566552734375,0.10287228226661682,-0.48935988545417786,-0.778097927570343
1782952452327593500,1.395593505859375,0.06452524662017822,-0.3350265920162201,-0.7527322769165039
1782952452337520600,1.405520751953125,0.0058869728818535805,-0.2111014425754547,-0.68008953332901
1782952452347447600,1.415447509765625,-0.030589677393436432,-0.1781037449836731,-0.5859608054161072
1782952452357374700,1.425374755859375,-0.029833072796463966,-0.23692072927951813,-0.5158663988113403
1782952452367302700,1.435302734375,-0.009383054450154305,-0.32788610458374023,-0.5025031566619873
1782952452377229600,1.4452294921875,0.01784936524927616,-0.39567261934280396,-0.5389708876609802
1782952452387156700,1.45515673828125,0.04012550413608551,-0.42303386330604553,-0.5954070091247559
1782952452397083600,1.465083740234375,0.03800243139266968,-0.367370069026947,-0.6443244814872742
1782952452407011800,1.47501171875,0.034552041441202164,-0.24328355491161346,-0.6809030175209045
1782952452416938800,1.484938720703125,0.016270505264401436,-0.07654143869876862,-0.6881598830223083
1782952452426865700,1.49486572265625,-0.02504226751625538,0.11868014186620712,-0.6588659286499023
1782952452436792600,1.50479248046875,-0.0661095455288887,0.30701491236686707,-0.5908799171447754
1782952452446719700,1.5147197265625,-0.12627407908439636,0.47082966566085815,-0.46969571709632874
1782952452456647700,1.524647705078125,-0.20277869701385498,0.6022002100944519,-0.2801084816455841
1782952452466574600,1.53457470703125,-0.27088871598243713,0.6643872261047363,-0.04463334381580353
1782952452476501800,1.544501708984375,-0.31918299198150635,0.7084636092185974,0.17567798495292664
1782952452486428700,1.5544287109375,-0.3570871651172638,0.690110445022583,0.3368535041809082
1782952452496356600,1.564356689453125,-0.38014161586761475,0.6442627906799316,0.43016642332077026
1782952452506283800,1.57428369140625,-0.39950162172317505,0.5854204297065735,0.4507627785205841
1782952452516210400,1.58421044921875,-0.3969508409500122,0.5023596286773682,0.43335556983947754
1782952452526137600,1.5941376953125,-0.33436304330825806,0.4362281858921051,0.3926590383052826
1782952452536065500,1.6040654296875,-0.2994349002838135,0.35374394059181213,0.3583511412143707
1782952452545992700,1.61399267578125,-0.2782094180583954,0.3004613518714905,0.34942126274108887
1782952452555919600,1.623919677734375,-0.25568467378616333,0.2521499991416931,0.3838346302509308
1782952452565846800,1.6338466796875,-0.24487613141536713,0.20576149225234985,0.4226541519165039
1782952452575774700,1.643774658203125,-0.19812966883182526,0.14581666886806488,0.48795485496520996
1782952452585701600,1.65370166015625,-0.16606147587299347,0.10538230836391449,0.5033534169197083
1782952452595628800,1.66362890625,-0.11271490156650543,0.044759705662727356,0.47952690720558167
1782952452605555700,1.6735556640625,-0.04943220317363739,0.014551933854818344,0.44124922156333923
1782952452615482600,1.683482666015625,-0.01368938572704792,-0.02236613631248474,0.40817970037460327
1782952452625410600,1.69341064453125,0.022106517106294632,-0.02580716460943222,0.41445404291152954
1782952452635337500,1.70333740234375,0.053116895258426666,-0.03477775678038597,0.44528570771217346
1782952452645264600,1.7132646484375,0.09528258442878723,-0.09981250017881393,0.4673197269439697
1782952452655191600,1.723191650390625,0.16608405113220215,-0.18858763575553894,0.4593728482723236
1782952452665119700,1.73311962890625,0.2552090287208557,-0.2693991959095001,0.42509424686431885
1782952452675046700,1.743046630859375,0.329945832490921,-0.3143134117126465,0.37192901968955994
1782952452684973800,1.752973876953125,0.38782769441604614,-0.3487868905067444,0.2899778187274933
1782952452694900700,1.762900634765625,0.4243670403957367,-0.36420738697052,0.2142316848039627
1782952452704828700,1.77282861328125,0.4148491322994232,-0.3676615059375763,0.11180910468101501
1782952452714755800,1.782755859375,0.4021058976650238,-0.3078745901584625,0.0727812796831131
1782952452724682500,1.7926826171875,0.36189910769462585,-0.25113222002983093,0.047678057104349136
1782952452734609700,1.802609619140625,0.3249461352825165,-0.22748762369155884,0.06970666348934174
1782952452744536600,1.81253662109375,0.27688175439834595,-0.26495492458343506,0.07242364436388016
1782952452754464500,1.822464599609375,0.22409631311893463,-0.30604803562164307,0.011042313650250435
1782952452764391700,1.8323916015625,0.1781836450099945,-0.32961729168891907,-0.09563253074884415
1782952452774318600,1.842318603515625,0.11820580065250397,-0.34626898169517517,-0.20931114256381989
1782952452784245800,1.852245849609375,0.06251558661460876,-0.34528762102127075,-0.3283871114253998
1782952452794173700,1.862173583984375,0.024138903245329857,-0.3295917510986328,-0.4508562982082367
1782952452804100900,1.872100830078125,0.008830037899315357,-0.28740179538726807,-0.5416359305381775
1782952452814027800,1.88202783203125,0.003610241925343871,-0.24990421533584595,-0.5649524331092834
1782952452823954700,1.89195458984375,0.005219139624387026,-0.1902294009923935,-0.49201688170433044
1782952452833882600,1.901882568359375,-0.00951453298330307,-0.09752024710178375,-0.3540467619895935
1782952452843809500,1.9118095703125,-0.0378849171102047,-0.02355347014963627,-0.21199408173561096
1782952452853736700,1.92173681640625,-0.054608769714832306,0.028891097754240036,-0.12002101540565491
1782952452863663600,1.93166357421875,-0.05861283093690872,0.0702730342745781,-0.08157544583082199
1782952452873591000,1.941591064453125,-0.08313388377428055,0.0953458920121193,-0.08656514436006546
1782952452883519000,1.95151904296875,-0.12032013386487961,0.10051229596138,-0.11674576997756958
1782952452893446000,1.96144580078125,-0.16494113206863403,0.09570769220590591,-0.18207736313343048
1782952452903372800,1.971372802734375,-0.21088634431362152,0.07305679470300674,-0.26140186190605164
1782952452913299700,1.9812998046875,-0.25545862317085266,0.03298446908593178,-0.3307470977306366
1782952452923228000,1.991227783203125,-0.28954848647117615,-0.019415268674492836,-0.36046651005744934
1782952452933154800,2.00115478515625,-0.31963738799095154,-0.10681488364934921,-0.34136900305747986
1782952452943081700,2.011081787109375,-0.32837769389152527,-0.2095157355070114,-0.26544588804244995
1782952452953009000,2.0210087890625,-0.31207117438316345,-0.2555497884750366,-0.13540080189704895
1782952452962936800,2.030936767578125,-0.27566370368003845,-0.2522819936275482,0.017101993784308434
1782952452972864000,2.040864013671875,-0.23186375200748444,-0.2291622906923294,0.14282716810703278
1782952452982791000,2.050791015625,-0.2010585218667984,-0.18745937943458557,0.22148731350898743
1782952452992718000,2.060718017578125,-0.1581595242023468,-0.10683830082416534,0.2692830562591553
1782952453002646000,2.07064599609375,-0.1174735277891159,-0.018811728805303574,0.2842380106449127
1782952453012572700,2.08057275390625,-0.09405102580785751,0.060857538133859634,0.27671217918395996
1782952453022499800,2.090499755859375,-0.08465122431516647,0.1250872015953064,0.24327446520328522
1782952453032426800,2.1004267578125,-0.08777431398630142,0.13589857518672943,0.15973909199237823
1782952453042354000,2.11035400390625,-0.08018052577972412,0.027061332017183304,0.0670793354511261
1782952453052281900,2.12028173828125,-0.032557085156440735,-0.08532539010047913,0.026640567928552628
1782952453062208800,2.130208740234375,0.03166770562529564,-0.10629180073738098,0.08689786493778229
1782952453072136000,2.140135986328125,0.08919944614171982,-0.016661783680319786,0.23354244232177734
1782952453082062800,2.150062744140625,0.1258333921432495,0.17051677405834198,0.3972783386707306
1782952453091991000,2.159990966796875,0.17972831428050995,0.3990902900695801,0.5239470601081848
1782952453101918000,2.16991796875,0.202845498919487,0.533827543258667,0.473185271024704
1782952453111844900,2.179844970703125,0.24115720391273499,0.49412965774536133,0.23493488132953644
1782952453121771800,2.189771728515625,0.29761195182800293,0.2766602039337158,-0.10850770026445389
1782952453131699700,2.19969970703125,0.37947726249694824,0.05181429907679558,-0.40089109539985657
1782952453141627000,2.209626953125,0.4846707284450531,-0.10526283085346222,-0.5539983510971069
1782952453151553800,2.2195537109375,0.6009531021118164,-0.24481512606143951,-0.5801116824150085
1782952453161481000,2.22948095703125,0.6483849883079529,-0.41805437207221985,-0.5845565795898438
1782952453171408000,2.239407958984375,0.6155937314033508,-0.62332683801651,-0.6338319778442383
1782952453181335800,2.249335693359375,0.5435640811920166,-0.7091436982154846,-0.6796753406524658
1782952453191263000,2.259262939453125,0.43368497490882874,-0.6716259121894836,-0.66703861951828
1782952453201190000,2.26918994140625,0.2996068298816681,-0.5039781332015991,-0.6094632744789124
1782952453211116800,2.27911669921875,0.21059998869895935,-0.2992977201938629,-0.5196665525436401
1782952453221044700,2.289044677734375,0.13830605149269104,-0.10882098972797394,-0.3972514569759369
1782952453230972000,2.298971923828125,0.07451748102903366,0.01205669529736042,-0.27078405022621155
1782952453240898800,2.30889892578125,-0.0050832959823310375,0.06766938418149948,-0.14271168410778046
1782952453250826000,2.318825927734375,-0.06595703214406967,0.12007533013820648,-0.07194004207849503
1782952453260754000,2.32875390625,-0.10003692656755447,0.20323455333709717,-0.04056670144200325
1782952453270680800,2.338680908203125,-0.1184159368276596,0.30241096019744873,-0.012632804922759533
1782952453280608000,2.34860791015625,-0.11660609394311905,0.38185474276542664,0.014044376090168953
1782952453290535000,2.358534912109375,-0.07970240712165833,0.44218704104423523,0.026636600494384766
1782952453300462800,2.368462890625,-0.03228357806801796,0.49086761474609375,0.034139230847358704
1782952453310390000,2.37839013671875,0.007538937497884035,0.5137670636177063,0.04668671637773514
1782952453320316700,2.388316650390625,0.03217446431517601,0.5157791972160339,0.06531182676553726
1782952453330243800,2.398243896484375,0.05720098689198494,0.5165526270866394,0.08906163275241852
1782952453340170800,2.408170654296875,0.06640739738941193,0.514987051486969,0.13298310339450836
1782952453350099000,2.418098876953125,0.04363124072551727,0.5010651350021362,0.17680221796035767
1782952453360025900,2.42802587890625,0.014582773670554161,0.5236498117446899,0.2301577925682068
1782952453369953000,2.437953125,0.013973708264529705,0.6019888520240784,0.33952078223228455
1782952453379880000,2.4478798828125,0.056228216737508774,0.6781464219093323,0.4692328870296478
1782952453389807900,2.457807861328125,0.10564769059419632,0.6911578178405762,0.5982155799865723
1782952453399735000,2.467735107421875,0.2047947496175766,0.6729468703269958,0.7123962044715881
1782952453409661700,2.47766162109375,0.26378777623176575,0.5729443430900574,0.8032858967781067
1782952453419588900,2.4875888671875,0.30002596974372864,0.4483126997947693,0.8685712814331055
1782952453429516800,2.497516845703125,0.32487753033638,0.25913533568382263,0.8862395286560059
1782952453439443700,2.507443603515625,0.3136163651943207,0.011076932772994041,0.8563829064369202
1782952453449371000,2.517370849609375,0.3528282344341278,-0.1586814820766449,0.7778817415237427
1782952453459297800,2.5272978515625,0.34646639227867126,-0.326560914516449,0.6531772017478943
1782952453469225000,2.537224853515625,0.3373916745185852,-0.45507070422172546,0.552718997001648
1782952453479153000,2.54715283203125,0.35047560930252075,-0.49541354179382324,0.4764656126499176
1782952453489080000,2.557080078125,0.3672412633895874,-0.5466362833976746,0.4087965488433838
1782952453499007000,2.567007080078125,0.3664305806159973,-0.5874552130699158,0.3461647033691406
1782952453508934000,2.576933837890625,0.3539837896823883,-0.5897777676582336,0.2912023961544037
1782952453518861800,2.58686181640625,0.31114885210990906,-0.5648744702339172,0.23642098903656006
1782952453528788700,2.596788818359375,0.25127458572387695,-0.49711164832115173,0.18494315445423126
1782952453538716000,2.6067158203125,0.16703706979751587,-0.3925769031047821,0.14920201897621155
1782952453548642800,2.616642822265625,0.07033422589302063,-0.3282240331172943,0.14650291204452515
1782952453558570800,2.62657080078125,-0.0006273826002143323,-0.3101213574409485,0.16284137964248657
1782952453568498000,2.636497802734375,-0.029022272676229477,-0.299956351518631,0.20651641488075256
1782952453578424800,2.6464248046875,-0.056839656084775925,-0.30550578236579895,0.22731685638427734
1782952453588352000,2.65635205078125,-0.0920485109090805,-0.32441821694374084,0.17997756600379944
1782952453598279000,2.66627880859375,-0.1114402711391449,-0.33290061354637146,0.009449831210076809
1782952453608207000,2.67620703125,-0.11139953136444092,-0.3128475546836853,-0.2630021870136261
1782952453618133800,2.6861337890625,-0.10425359755754471,-0.24030497670173645,-0.5580998659133911
1782952453628061000,2.69606103515625,-0.07919324934482574,-0.1477942168712616,-0.7649753093719482
1782952453637987800,2.70598779296875,-0.07644185423851013,-0.09445664286613464,-0.8619221448898315
1782952453647915800,2.715915771484375,-0.10163961350917816,-0.07052335143089294,-0.8290027976036072
1782952453657843000,2.725843017578125,-0.11877413094043732,0.0022002379409968853,-0.7130293846130371
1782952453667769900,2.735769775390625,-0.12405518442392349,0.10990113765001297,-0.5422325730323792
1782952453677697000,2.745697021484375,-0.09850095212459564,0.19566845893859863,-0.3661624789237976
1782952453687625000,2.755625,-0.08404664695262909,0.2597869634628296,-0.21701478958129883
1782952453697552000,2.7655517578125,-0.06995981931686401,0.3008614480495453,-0.1110246479511261
1782952453707479000,2.77547900390625,-0.06361856311559677,0.3076589107513428,-0.03835710510611534
1782952453717405700,2.78540576171875,-0.05823603644967079,0.2916417717933655,0.009662887081503868
1782952453727334000,2.795333984375,-0.048022281378507614,0.2742563784122467,0.050613515079021454
1782952453737260800,2.8052607421875,-0.04446731507778168,0.25027722120285034,0.0712839663028717
1782952453747188000,2.81518798828125,-0.03653828799724579,0.21799011528491974,0.07953736931085587
1782952453757115000,2.825114990234375,-0.048632677644491196,0.14645631611347198,0.09384167939424515
1782952453767042000,2.8350419921875,-0.059400368481874466,0.10862958431243896,0.10052887350320816
1782952453776970000,2.844969970703125,-0.07171300798654556,0.07761731743812561,0.06679020076990128
1782952453786897000,2.85489697265625,-0.10239209234714508,0.02971743419766426,0.017499353736639023
1782952453796824000,2.864823974609375,-0.1190769374370575,-0.04455181956291199,-0.000055046635679900646
1782952453806750700,2.874750732421875,-0.11429309844970703,-0.12105138599872589,0.03623718023300171
1782952453816679000,2.884678955078125,-0.09358790516853333,-0.1587468683719635,0.12359646707773209
1782952453826605800,2.894605712890625,-0.07464084029197693,-0.09623155742883682,0.2328673005104065
1782952453836532700,2.90453271484375,-0.05675501003861427,0.017387710511684418,0.2928900420665741
1782952453846460000,2.9144599609375,-0.05551557242870331,0.14772015810012817,0.2333976775407791
1782952453856386800,2.92438671875,-0.03435276821255684,0.18172910809516907,0.036015722900629044
1782952453866315000,2.93431494140625,0.029567625373601913,0.19517062604427338,-0.27616241574287415
1782952453876241200,2.9442412109375,0.11421677470207214,0.1438993215560913,-0.6210064888000488
1782952453886168300,2.954168212890625,0.19101087749004364,0.09525641053915024,-0.8504905700683594
1782952453896095200,2.96409521484375,0.24058403074741364,0.10663889348506927,-0.9166393280029297
1782952453906023200,2.974023193359375,0.23760367929935455,0.09797988831996918,-0.8622104525566101
1782952453915950300,2.983950439453125,0.22830326855182648,0.1372404247522354,-0.7392348051071167
1782952453925877200,2.993877197265625,0.24045419692993164,0.1599886119365692,-0.6193099617958069
1782952453935804400,3.003804443359375,0.2661455273628235,0.04650602862238884,-0.5100205540657043
1782952453945732400,3.013732421875,0.32629862427711487,-0.1189335286617279,-0.383178174495697
1782952453955659300,3.0236591796875,0.38941919803619385,-0.21652056276798248,-0.26136690378189087
1782952453965586200,3.033586181640625,0.40255045890808105,-0.2531544864177704,-0.15899844467639923
1782952453975513300,3.043513427734375,0.4421447813510895,-0.224753275513649,-0.11651505529880524
1782952453985441300,3.053441162109375,0.4502674341201782,-0.17662224173545837,-0.11437467485666275
1782952453995368200,3.0633681640625,0.3827900290489197,-0.12266093492507935,-0.14185577630996704
1782952454005295400,3.07329541015625,0.28811147809028625,-0.07378873229026794,-0.19022276997566223
1782952454015222300,3.08322216796875,0.1881408840417862,-0.0008526276797056198,-0.2451307326555252
1782952454025149400,3.0931494140625,0.07919576019048691,0.08446492999792099,-0.28087273240089417
1782952454035077400,3.103077392578125,-0.02482890896499157,0.15512418746948242,-0.27585428953170776
1782952454045004300,3.11300439453125,-0.1421978771686554,0.2495654672384262,-0.2301909327507019
1782952454054931200,3.12293115234375,-0.23654994368553162,0.31031563878059387,-0.15455742180347443
1782952454064858000,3.132858154296875,-0.30114832520484924,0.35676372051239014,-0.0540769137442112
1782952454074786300,3.142786376953125,-0.3387618064880371,0.3865007162094116,0.059406086802482605
1782952454084713200,3.152713134765625,-0.3691210448741913,0.38886958360671997,0.17109453678131104
1782952454094640000,3.16264013671875,-0.37028980255126953,0.37094414234161377,0.27523261308670044
1782952454104567300,3.1725673828125,-0.36434218287467957,0.35567066073417664,0.3687809109687805
1782952454114495200,3.1824951171875,-0.3633575141429901,0.33610260486602783,0.4755413830280304
1782952454124422400,3.19242236328125,-0.360971063375473,0.3043265640735626,0.582516074180603
1782952454134349300,3.202349365234375,-0.34670498967170715,0.2560531795024872,0.682572066783905
1782952454144276200,3.212276123046875,-0.3315332233905792,0.18493133783340454,0.7567464113235474
1782952454154203100,3.222203125,-0.3098527491092682,0.10563115775585175,0.8017592430114746
1782952454164131000,3.232131103515625,-0.2882995307445526,-0.00530387694016099,0.7958790063858032
1782952454174058200,3.242058349609375,-0.25431501865386963,-0.12138964235782623,0.7562823295593262
1782952454183985200,3.251985107421875,-0.2253320962190628,-0.17920207977294922,0.7077826857566833
1782952454193912300,3.261912353515625,-0.20261190831661224,-0.20253817737102509,0.6646669507026672
1782952454203840300,3.27184033203125,-0.15259960293769836,-0.23932841420173645,0.6120293140411377
1782952454213767200,3.28176708984375,-0.08466804772615433,-0.30787381529808044,0.5622722506523132
1782952454223694300,3.2916943359375,-0.023753831163048744,-0.36302417516708374,0.5463913083076477
1782952454233621200,3.301621337890625,0.029581915587186813,-0.40809255838394165,0.5508355498313904
1782952454243549400,3.311549560546875,0.07971059530973434,-0.4074688255786896,0.5607848167419434
1782952454253476000,3.32147607421875,0.12256445735692978,-0.3588615357875824,0.5878146886825562
1782952454263403300,3.3314033203125,0.1276116669178009,-0.2790961265563965,0.6267367601394653
1782952454273330200,3.341330078125,0.11322803050279617,-0.20191995799541473,0.6186245083808899
1782952454283257300,3.35125732421875,0.08954107761383057,-0.2173234224319458,0.5142027735710144
1782952454293185300,3.361185302734375,0.08789683878421783,-0.2985604703426361,0.33727410435676575
1782952454303112200,3.3711123046875,0.08592503517866135,-0.38049715757369995,0.100532665848732
1782952454313039400,3.381039306640625,0.10827672481536865,-0.4286380410194397,-0.10035023093223572
1782952454322966300,3.39096630859375,0.10001453012228012,-0.4611813426017761,-0.3069028854370117
1782952454332894200,3.400894287109375,0.10927558690309525,-0.3999249339103699,-0.48224887251853943
1782952454342821400,3.4108212890625,0.09706871956586838,-0.28864580392837524,-0.6083532571792603
1782952454352748000,3.420748046875,0.050688933581113815,-0.12028385698795319,-0.642401933670044
1782952454362675200,3.43067529296875,-0.012418928556144238,0.060379404574632645,-0.5880548357963562
1782952454372603100,3.44060302734375,-0.057503629475831985,0.19576703011989594,-0.477554053068161
1782952454382530300,3.4505302734375,-0.09904813766479492,0.26142433285713196,-0.32837653160095215
1782952454392457200,3.460457275390625,-0.12846751511096954,0.2635612487792969,-0.17162786424160004
1782952454402384400,3.47038427734375,-0.16219006478786469,0.229547381401062,-0.04601401463150978
1782952454412311300,3.480311279296875,-0.17848441004753113,0.1621364802122116,0.01027195155620575
1782952454422239200,3.4902392578125,-0.1845572292804718,0.06153477355837822,0.005346435122191906
1782952454432166400,3.50016650390625,-0.1920512169599533,-0.02302931621670723,-0.025606155395507812
1782952454442093300,3.51009326171875,-0.20721127092838287,-0.057891424745321274,-0.045852839946746826
1782952454452020200,3.520020263671875,-0.2178732007741928,-0.07375133782625198,-0.06557507812976837
1782952454461948200,3.5299482421875,-0.22728881239891052,-0.08408067375421524,-0.09822943061590195
1782952454471875000,3.539875,-0.20597553253173828,-0.0828431025147438,-0.11032550781965256
1782952454481802200,3.54980224609375,-0.17998547852039337,-0.05848769471049309,-0.09019947052001953
1782952454491729200,3.559729248046875,-0.15681122243404388,-0.01158745214343071,-0.02404092811048031
1782952454501657300,3.5696572265625,-0.13214635848999023,0.054508209228515625,0.08088921755552292
1782952454511584300,3.579584228515625,-0.11272484809160233,0.1538001149892807,0.18140198290348053
1782952454521511400,3.589511474609375,-0.11106489598751068,0.3515653908252716,0.2769024074077606
1782952454531438300,3.599438232421875,-0.1428488790988922,0.6011211276054382,0.31363970041275024
1782952454541366300,3.6093662109375,-0.1991603672504425,0.7989058494567871,0.27443477511405945
1782952454551293400,3.61929345703125,-0.23199506103992462,0.8570307493209839,0.159457266330719
1782952454561220000,3.62922021484375,-0.23021046817302704,0.7139319181442261,0.006031753029674292
1782952454571147300,3.639147216796875,-0.13651970028877258,0.4275527000427246,-0.08458520472049713
1782952454581074200,3.64907421875,0.03304535895586014,0.11381207406520844,-0.06114165857434273
1782952454591002000,3.659002197265625,0.15109267830848694,-0.1407107412815094,0.002074118237942457
1782952454600929300,3.66892919921875,0.20763930678367615,-0.28494885563850403,-0.006117232609540224
1782952454610856200,3.678856201171875,0.2144559770822525,-0.2859715223312378,-0.16647514700889587
1782952454620783400,3.688783447265625,0.2091728001832962,-0.18526116013526917,-0.4625052213668823
1782952454630711300,3.698711181640625,0.228081613779068,-0.049228694289922714,-0.795183539390564
1782952454640638500,3.708638427734375,0.2863672971725464,0.05787644907832146,-1.0231375694274902
1782952454650565000,3.718565185546875,0.3507509231567383,0.026326164603233337,-1.0859037637710571
1782952454660492300,3.7284921875,0.39016810059547424,-0.14886295795440674,-1.0086570978164673
1782952454670419200,3.738419189453125,0.4133729338645935,-0.3527637720108032,-0.8468878865242004
1782952454680347100,3.74834716796875,0.3922484815120697,-0.5520345568656921,-0.6233258843421936
1782952454690274300,3.7582744140625,0.38772451877593994,-0.6863930225372314,-0.49838000535964966
1782952454700201200,3.768201171875,0.43125975131988525,-0.7530708312988281,-0.46330082416534424
1782952454710128400,3.77812841796875,0.471714049577713,-0.7630263566970825,-0.5258169770240784
1782952454720056300,3.788056396484375,0.48574039340019226,-0.7664431929588318,-0.6487770080566406
1782952454729983200,3.797983154296875,0.4545581638813019,-0.7160155177116394,-0.7346192598342896
1782952454739910400,3.807910400390625,0.39104336500167847,-0.6027179956436157,-0.7741941213607788
1782952454749837000,3.817837158203125,0.30187997221946716,-0.4652239978313446,-0.7782760262489319
1782952454759765200,3.82776513671875,0.16422410309314728,-0.25756561756134033,-0.7155618071556091
1782952454769692200,3.837692138671875,0.029260341078042984,-0.08288375288248062,-0.5938024520874023
1782952454779619300,3.847619384765625,-0.06714315712451935,0.05436624959111214,-0.3963940441608429
1782952454789546200,3.857546142578125,-0.14100788533687592,0.1816617101430893,-0.1436103731393814
1782952454799474200,3.86747412109375,-0.19764134287834167,0.2747493088245392,0.09608183801174164
1782952454809401300,3.8774013671875,-0.2225123792886734,0.34691670536994934,0.28562748432159424
1782952454819328300,3.887328369140625,-0.2264581173658371,0.40654274821281433,0.4225531220436096
1782952454829255400,3.89725537109375,-0.23331128060817719,0.4670642614364624,0.5295517444610596
1782952454839182000,3.90718212890625,-0.2483040690422058,0.5123502016067505,0.6102993488311768
1782952454849110300,3.9171103515625,-0.2580014169216156,0.5283646583557129,0.6798540949821472
1782952454859037200,3.927037109375,-0.22577373683452606,0.534414529800415,0.7419110536575317
1782952454868964000,3.936964111328125,-0.2011265754699707,0.48688462376594543,0.7881619930267334
1782952454878891500,3.9468916015625,-0.19281244277954102,0.4334363043308258,0.8108193874359131
1782952454888819500,3.9568193359375,-0.17703810334205627,0.4109460115432739,0.8102536797523499
1782952454898746400,3.966746337890625,-0.14955560863018036,0.3649713397026062,0.7908307313919067
1782952454908673300,3.97667333984375,-0.13985247910022736,0.300301194190979,0.7356385588645935
1782952454918600400,3.986600341796875,-0.13338951766490936,0.23470382392406464,0.6712861657142639
1782952454928528400,3.9965283203125,-0.12328805774450302,0.2004392445087433,0.6104596853256226
1782952454938455300,4.006455322265625,-0.10914134979248047,0.1435013860464096,0.5714574456214905
1782952454948382500,4.016382568359375,-0.09737194329500198,0.04647395759820938,0.565808117389679
1782952454958309400,4.026309326171875,-0.0819743424654007,-0.04957268014550209,0.6164297461509705
1782952454968236500,4.036236572265625,-0.05837501212954521,-0.1250057965517044,0.7142040729522705
1782952454978164500,4.04616455078125,-0.04392736405134201,-0.15393944084644318,0.7811993360519409
1782952454988091400,4.05609130859375,-0.04219742491841316,-0.17979517579078674,0.8047218918800354
1782952454998018300,4.066018310546875,-0.03337916359305382,-0.22250641882419586,0.7857047915458679
1782952455007945200,4.0759453125,-0.003910975530743599,-0.2772708237171173,0.7358279228210449
1782952455017873400,4.085873291015625,0.040883127599954605,-0.41125285625457764,0.627099871635437
1782952455027800300,4.09580029296875,0.09260330349206924,-0.579666793346405,0.5373311638832092
1782952455037727200,4.105727294921875,0.11380952596664429,-0.755405843257904,0.42450958490371704
1782952455047654400,4.115654296875,0.11272615939378738,-0.8619662523269653,0.2762017548084259
1782952455057582300,4.125582275390625,0.08800909668207169,-0.8749744892120361,0.0737040713429451
1782952455067509500,4.135509521484375,0.05133341997861862,-0.791998565196991,-0.1937570571899414
1782952455077436400,4.1454365234375,-0.01240241713821888,-0.5616870522499084,-0.45660677552223206
1782952455087363600,4.155363525390625,-0.07718927413225174,-0.20712320506572723,-0.6430183053016663
1782952455097290200,4.165290283203125,-0.16846325993537903,0.11606975644826889,-0.6935379505157471
1782952455107218200,4.17521826171875,-0.24458377063274384,0.33200716972351074,-0.6223407983779907
1782952455117145300,4.185145263671875,-0.26871758699417114,0.45634350180625916,-0.4332539439201355
1782952455127072300,4.195072265625,-0.2531411945819855,0.5068153738975525,-0.1973678022623062
1782952455136999400,4.20499951171875,-0.22665181756019592,0.4818271994590759,0.006718759424984455
1782952455146927400,4.21492724609375,-0.18912220001220703,0.4186159074306488,0.15527400374412537
1782952455156854300,4.224854248046875,-0.1508704125881195,0.37188464403152466,0.23764850199222565
1782952455166781400,4.234781494140625,-0.13713587820529938,0.373018354177475,0.255839079618454
1782952455176708400,4.244708251953125,-0.1511230766773224,0.42523229122161865,0.1867782473564148
1782952455186635500,4.254635498046875,-0.1836288869380951,0.5069360136985779,0.04509298875927925
1782952455196563500,4.2645634765625,-0.23017801344394684,0.604275643825531,-0.14035463333129883
1782952455206490400,4.274490478515625,-0.27340060472488403,0.6914306879043579,-0.32926878333091736
1782952455216417300,4.284417236328125,-0.34046486020088196,0.7562309503555298,-0.507452130317688
1782952455226344400,4.294344482421875,-0.40421262383461,0.7610257267951965,-0.6741997003555298
1782952455236272400,4.3042724609375,-0.46772369742393494,0.7201640605926514,-0.8046913743019104
1782952455246199300,4.31419921875,-0.5115514397621155,0.6780055165290833,-0.8649580478668213
1782952455256126500,4.32412646484375,-0.5722706913948059,0.5216476321220398,-0.8514499664306641
1782952455266053400,4.334053466796875,-0.6091548800468445,0.19303180277347565,-0.7668486833572388
1782952455275981300,4.343981201171875,-0.6041891574859619,-0.20994840562343597,-0.6207000017166138
1782952455285908500,4.353908447265625,-0.5917887687683105,-0.5111880302429199,-0.4216242730617523
1782952455295835400,4.36383544921875,-0.6471191048622131,-0.6593884229660034,-0.24756193161010742
1782952455305762300,4.37376220703125,-0.6679998636245728,-0.5860370993614197,-0.16200755536556244
1782952455315690200,4.383690185546875,-0.6350997090339661,-0.347820520401001,-0.1670534461736679
1782952455325617400,4.393617431640625,-0.5412165522575378,-0.021044407039880753,-0.24828769266605377
1782952455335544300,4.40354443359375,-0.37877756357192993,0.3367065489292145,-0.37913599610328674
1782952455345471500,4.413471435546875,-0.23217131197452545,0.5997785925865173,-0.4917343854904175
1782952455355398400,4.4233984375,-0.12756606936454773,0.6346628069877625,-0.5259720087051392
1782952455365326300,4.433326416015625,-0.0075331442058086395,0.34784695506095886,-0.48452502489089966
1782952455375253500,4.44325341796875,0.1454007476568222,-0.07784228771924973,-0.35780009627342224
1782952455385180400,4.453180419921875,0.29480770230293274,-0.4505755603313446,-0.22080275416374207
1782952455395107300,4.463107421875,0.4238192141056061,-0.6614920496940613,-0.18362556397914886
1782952455405035500,4.473035400390625,0.5262362957000732,-0.7744181156158447,-0.27855032682418823
1782952455414962200,4.482962158203125,0.6065532565116882,-0.8797336220741272,-0.4396286904811859
1782952455424889300,4.492889404296875,0.6681214570999146,-0.9507121443748474,-0.5493476986885071
1782952455434816300,4.502816162109375,0.7235050797462463,-0.8760493397712708,-0.5321319699287415
1782952455444744400,4.512744384765625,0.7794560790061951,-0.6336421966552734,-0.42259547114372253
1782952455454671400,4.52267138671875,0.7742903232574463,-0.37804001569747925,-0.3028624355792999
1782952455464598500,4.5325986328125,0.6904765367507935,-0.037307001650333405,-0.14369814097881317
1782952455474525400,4.542525390625,0.6380916237831116,0.2931755483150482,-0.05343722179532051
1782952455484452600,4.55245263671875,0.5847251415252686,0.5442813634872437,-0.03324274346232414
1782952455494380500,4.562380615234375,0.5203102231025696,0.705424964427948,-0.03299293667078018
1782952455504307200,4.57230712890625,0.47144871950149536,0.7417451739311218,-0.061445027589797974
1782952455514234400,4.582234375,0.4184819161891937,0.6743161082267761,-0.10248567163944244
1782952455524161300,4.592161376953125,0.3508009612560272,0.546114444732666,-0.13310186564922333
1782952455534089200,4.602089111328125,0.2804122865200043,0.39924755692481995,-0.13246750831604004
1782952455544016400,4.612016357421875,0.2149984985589981,0.22946667671203613,-0.11502397805452347
1782952455553943300,4.621943359375,0.14184918999671936,0.07121818512678146,-0.0541909858584404
1782952455563870500,4.631870361328125,0.052102141082286835,-0.01644526794552803,0.06287775188684464
1782952455573798400,4.64179833984375,-0.029247043654322624,-0.04442017897963524,0.2298363894224167
1782952455583725600,4.6517255859375,-0.10889486968517303,-0.0738762840628624,0.38817036151885986
1782952455593652500,4.661652587890625,-0.18092937767505646,-0.08576809614896774,0.5162002444267273
1782952455603579400,4.671579345703125,-0.24385714530944824,-0.07920137047767639,0.6263172030448914
1782952455613506300,4.68150634765625,-0.2663682997226715,-0.03021092340350151,0.6961088180541992
1782952455623434200,4.691434326171875,-0.27849113941192627,-0.010511310771107674,0.7326838374137878
1782952455633361400,4.701361328125,-0.2843343913555145,-0.01392308622598648,0.7195594906806946
1782952455643288300,4.711288330078125,-0.287374347448349,-0.06561421602964401,0.6663438081741333
1782952455653215500,4.721215576171875,-0.29053017497062683,-0.15260212123394012,0.598073422908783
1782952455663143400,4.731143310546875,-0.30683568120002747,-0.24568121135234833,0.5283970236778259
1782952455673070300,4.7410703125,-0.3309820294380188,-0.33798131346702576,0.46978214383125305
1782952455682997500,4.75099755859375,-0.34225720167160034,-0.44180336594581604,0.4415598511695862
1782952455692924400,4.76092431640625,-0.3110201954841614,-0.5329972505569458,0.43773236870765686
1782952455702852600,4.7708525390625,-0.2720206081867218,-0.665421724319458,0.4785240590572357
1782952455712779300,4.780779296875,-0.23305773735046387,-0.7635256052017212,0.5786701440811157
1782952455722706400,4.79070654296875,-0.20171286165714264,-0.8382078409194946,0.6915029287338257
1782952455732633300,4.80063330078125,-0.1343519389629364,-0.7395819425582886,0.823434591293335
1782952455742561300,4.810561279296875,-0.04491957277059555,-0.6497041583061218,0.8631554245948792
1782952455752488400,4.820488525390625,0.04239802435040474,-0.6214693188667297,0.7610135674476624
1782952455762415400,4.830415283203125,0.10741514712572098,-0.5518624782562256,0.6296108961105347
1782952455772342500,4.840342529296875,0.1319332718849182,-0.5667173266410828,0.44985923171043396
1782952455782269400,4.85026953125,0.12729281187057495,-0.672510027885437,0.19739025831222534
1782952455792197400,4.860197265625,0.13970792293548584,-0.7632122039794922,-0.0680355504155159
1782952455802124500,4.87012451171875,0.17672458291053772,-0.7524349689483643,-0.29140838980674744
1782952455812051200,4.88005126953125,0.2379370778799057,-0.60040283203125,-0.4142765402793884
1782952455821978400,4.889978271484375,0.28467506170272827,-0.3507252037525177,-0.4144723117351532
1782952455831906300,4.89990625,0.3067893981933594,-0.18183070421218872,-0.3283536732196808
1782952455841833500,4.90983349609375,0.29746100306510925,-0.12463262677192688,-0.22045814990997314
1782952455851760400,4.919760498046875,0.25085967779159546,-0.13772979378700256,-0.06622515618801117
1782952455861687300,4.929687255859375,0.2126670479774475,-0.11033541709184647,0.09428583085536957
1782952455871614500,4.939614501953125,0.18796943128108978,-0.10124178975820541,0.24338184297084808
1782952455881542100,4.949542236328125,0.16372524201869965,-0.10861040651798248,0.32410988211631775
1782952455891469300,4.95946923828125,0.13700148463249207,-0.0971183329820633,0.3348773121833801
1782952455901396200,4.969396240234375,0.10098490118980408,-0.049092356115579605,0.30929985642433167
1782952455911323100,4.9793232421875,0.04585666581988335,0.0530577152967453,0.2485603243112564
1782952455921251000,4.9892509765625,-0.01612778566777706,0.18689613044261932,0.15364643931388855
1782952455931178000,4.999177978515625,-0.07559511065483093,0.30762362480163574,0.024345189332962036
1782952455941105200,5.009105224609375,-0.12884020805358887,0.41662877798080444,-0.12648355960845947
1782952455951032000,5.019031982421875,-0.17855744063854218,0.4941304922103882,-0.29135480523109436
1782952455960960300,5.028960205078125,-0.22726714611053467,0.545288622379303,-0.4641910791397095
1782952455970887200,5.03888720703125,-0.2703395187854767,0.5434380173683167,-0.6293275356292725
1782952455980814300,5.048814453125,-0.30655139684677124,0.45537853240966797,-0.7968906164169312
1782952455990741200,5.0587412109375,-0.35331037640571594,0.26879772543907166,-0.9140723943710327
1782952456000669200,5.068669189453125,-0.38206714391708374,0.08631493151187897,-0.932179868221283
1782952456010596400,5.078596435546875,-0.3591136336326599,-0.00010650930926203728,-0.7339687943458557
1782952456020523000,5.08852294921875,-0.36109161376953125,-0.06056082621216774,-0.4429014325141907
1782952456030450200,5.0984501953125,-0.384606271982193,-0.10006190091371536,-0.157085120677948
1782952456040377000,5.108377197265625,-0.42380934953689575,-0.07804090529680252,0.06669314205646515
1782952456050305000,5.118304931640625,-0.4233635365962982,0.0017628478817641735,0.2692185640335083
1782952456060232200,5.128232177734375,-0.4292469322681427,0.0768207311630249,0.29037466645240784
1782952456070159000,5.1381591796875,-0.32737597823143005,0.17714068293571472,0.12077178061008453
1782952456080086300,5.148086181640625,-0.1666780561208725,0.4133460819721222,-0.14603911340236664
1782952456090014200,5.15801416015625,-0.057394444942474365,0.7084214091300964,-0.40693941712379456
1782952456099941400,5.16794140625,-0.003300141077488661,0.9304929375648499,-0.6158389449119568
1782952456109868300,5.177868408203125,0.025402342900633812,1.0817232131958008,-0.7124549746513367
1782952456119795200,5.187795166015625,0.0583500899374485,1.0643335580825806,-0.6958110928535461
1782952456129723100,5.19772314453125,0.11943794786930084,0.8858783841133118,-0.5980333685874939
1782952456139650000,5.207650146484375,0.21520549058914185,0.6398221850395203,-0.44522660970687866
1782952456149577200,5.2175771484375,0.3330109417438507,0.3493407964706421,-0.2633952796459198
1782952456159504100,5.227504150390625,0.4703003168106079,0.05540100112557411,-0.07787438482046127
1782952456169431300,5.237431396484375,0.5865518450737,-0.17307904362678528,0.08422423899173737
1782952456179359200,5.247359130859375,0.6619887948036194,-0.30997851490974426,0.18967393040657043
1782952456189286100,5.2572861328125,0.701387882232666,-0.4140825569629669,0.1871737539768219
1782952456199213300,5.26721337890625,0.7172896265983582,-0.4701973795890808,0.08250095695257187
1782952456209140000,5.277139892578125,0.7145226001739502,-0.5007811188697815,-0.06567119807004929
1782952456219068400,5.287068359375,0.6855772137641907,-0.4838932156562805,-0.22347474098205566
1782952456228995000,5.2969951171875,0.6243466138839722,-0.43311843276023865,-0.3386889398097992
1782952456238922200,5.306922119140625,0.5227445363998413,-0.36497926712036133,-0.37111297249794006
1782952456248847400,5.316847412109375,0.4455174207687378,-0.2343408316373825,-0.37619057297706604
1782952456258774300,5.326774169921875,0.33447712659835815,-0.1492733508348465,-0.36456114053726196
1782952456268701200,5.336701171875,0.2247416079044342,-0.065358467400074,-0.32243579626083374
1782952456278628000,5.346628173828125,0.1361723095178604,-0.021288618445396423,-0.24817237257957458
1782952456288555300,5.35655517578125,0.03128211945295334,0.018408460542559624,-0.14511710405349731
1782952456298483200,5.366483154296875,-0.05867045372724533,0.057682208716869354,-0.02087528631091118
1782952456308410000,5.37641015625,-0.13619586825370789,0.09737342596054077,0.10223838686943054
1782952456318337300,5.386337158203125,-0.21420234441757202,0.1473073661327362,0.22664792835712433
1782952456328264200,5.39626416015625,-0.28426215052604675,0.20194372534751892,0.34918344020843506
1782952456338192100,5.406192138671875,-0.34664666652679443,0.27506309747695923,0.4797075390815735
1782952456348119300,5.416119384765625,-0.38951849937438965,0.3598562777042389,0.6060510873794556
1782952456358046000,5.4260458984375,-0.38709351420402527,0.425618439912796,0.6954331994056702
1782952456367973000,5.43597314453125,-0.3701443672180176,0.420346736907959,0.7283411026000977
1782952456377901000,5.445901123046875,-0.3393222987651825,0.3576166033744812,0.687511146068573
1782952456387828200,5.455828125,-0.2879784107208252,0.2619377672672272,0.6273316740989685
1782952456397755100,5.465755126953125,-0.23516635596752167,0.12256655097007751,0.5678739547729492
1782952456407682300,5.475682373046875,-0.20501483976840973,-0.02944747917354107,0.520302414894104
1782952456417609200,5.485609130859375,-0.16563929617404938,-0.15192896127700806,0.4939316213130951
1782952456427537200,5.495537109375,-0.11699212342500687,-0.26860469579696655,0.47981926798820496
1782952456437464300,5.50546435546875,-0.057229772210121155,-0.3582105040550232,0.4650159478187561
1782952456447391200,5.51539111328125,0.014726975001394749,-0.4099346995353699,0.47977837920188904
1782952456457318100,5.525318115234375,0.062255483120679855,-0.4784565567970276,0.5081250667572021
1782952456467246000,5.53524609375,0.0912458598613739,-0.5824517011642456,0.49440258741378784
1782952456477173000,5.545173095703125,0.12619398534297943,-0.6501924991607666,0.42286112904548645
1782952456487100200,5.55510009765625,0.1511363536119461,-0.7244342565536499,0.29782891273498535
1782952456497027000,5.565027099609375,0.17952319979667664,-0.830401599407196,0.17808440327644348
1782952456506954200,5.574954345703125,0.17643260955810547,-0.9441717863082886,0.05107986554503441
1782952456516882200,5.584882080078125,0.1579139679670334,-0.9977219104766846,-0.08479882031679153
1782952456526809000,5.59480908203125,0.12509849667549133,-0.9554785490036011,-0.23875749111175537
1782952456536736300,5.604736328125,0.07919825613498688,-0.7831587791442871,-0.42675986886024475
1782952456546663200,5.6146630859375,0.015930065885186195,-0.42528030276298523,-0.636961042881012
1782952456556591400,5.62459130859375,-0.01215563714504242,0.03280790522694588,-0.7878206968307495
1782952456566518000,5.63451806640625,0.021259311586618423,0.41521385312080383,-0.8258756995201111
1782952456576445200,5.644445068359375,0.004964979365468025,0.6504607200622559,-0.7522830367088318
1782952456586372000,5.6543720703125,-0.05193239077925682,0.7092782258987427,-0.5874437689781189
1782952456596300000,5.664300048828125,-0.07507126778364182,0.6759397387504578,-0.3385911285877228
1782952456606227200,5.674227294921875,-0.1040295958518982,0.5900329351425171,-0.03843383118510246
1782952456616154000,5.684154052734375,-0.12299138307571411,0.49558883905410767,0.212175190448761
1782952456626081300,5.694081298828125,-0.11123406141996384,0.3749029040336609,0.4022180736064911
1782952456636010200,5.70401025390625,-0.09924721717834473,0.33212748169898987,0.5107691884040833
1782952456645938200,5.713938232421875,-0.09673372656106949,0.3423958122730255,0.5238631367683411
1782952456655865000,5.723864990234375,-0.09969271719455719,0.38265085220336914,0.45812901854515076
1782952456665792300,5.733792236328125,-0.12274344265460968,0.4499656856060028,0.32359492778778076
1782952456675719200,5.74371923828125,-0.14149285852909088,0.5317932367324829,0.12228530645370483
1782952456685646000,5.75364599609375,-0.14836834371089935,0.5646308064460754,-0.11673100292682648
1782952456695574300,5.76357421875,-0.1535739302635193,0.5342755913734436,-0.35113823413848877
1782952456705501200,5.773501220703125,-0.16657522320747375,0.47471290826797485,-0.5634390711784363
1782952456715428000,5.783427978515625,-0.14860522747039795,0.3325459361076355,-0.68767249584198
1782952456725355300,5.793355224609375,-0.12750953435897827,0.16467304527759552,-0.6900019645690918
1782952456735283200,5.803283203125,-0.09450404345989227,-0.023280130699276924,-0.5883172154426575
1782952456745210000,5.813210205078125,-0.03663461282849312,-0.2326037883758545,-0.4212333858013153
1782952456755137300,5.82313720703125,0.05099502578377724,-0.43451550602912903,-0.23763473331928253
1782952456765064200,5.833064208984375,0.10346302390098572,-0.6276074647903442,-0.08493199944496155
1782952456774991400,5.842991455078125,0.14847475290298462,-0.7051867842674255,0.002504248172044754
1782952456784919300,5.852919189453125,0.15911221504211426,-0.6421108841896057,0.07341144233942032
1782952456794846000,5.862845947265625,0.1438370794057846,-0.5019866824150085,0.10920782387256622
1782952456804773000,5.872773193359375,0.12075679004192352,-0.3118625581264496,0.10049955546855927
1782952456814700000,5.882699951171875,0.10344304144382477,-0.06094326823949814,0.06406662613153458
1782952456824628200,5.892628173828125,0.08431888371706009,0.17424048483371735,-0.018874332308769226
1782952456834555100,5.90255517578125,0.07286782562732697,0.3004166781902313,-0.16359034180641174
1782952456844482300,5.912482421875,0.06061168760061264,0.26986250281333923,-0.3165665566921234
1782952456854409200,5.9224091796875,0.03616626560688019,0.2514045238494873,-0.3735208511352539
1782952456864337200,5.932337158203125,0.02932140603661537,0.357420951128006,-0.3590809106826782
1782952456874264300,5.942264404296875,0.05945996195077896,0.5658205151557922,-0.34866979718208313
1782952456884192300,5.952192138671875,0.12122053653001785,0.7458909749984741,-0.43398869037628174
1782952456894119200,5.962119140625,0.22054076194763184,0.7526429295539856,-0.615386426448822
1782952456904046300,5.97204638671875,0.31253913044929504,0.6068838238716125,-0.806372880935669
1782952456913974300,5.981974365234375,0.37699949741363525,0.3333318829536438,-0.8976189494132996
1782952456923901400,5.9919013671875,0.4161817729473114,0.030979463830590248,-0.8704373836517334
1782952456933828400,6.001828369140625,0.44543594121932983,-0.2071644514799118,-0.7764805555343628
1782952456943755300,6.01175537109375,0.45531705021858215,-0.36882445216178894,-0.7017751336097717
1782952456953683200,6.02168310546875,0.44437822699546814,-0.4283030331134796,-0.6849060654640198
1782952456963610000,6.031610107421875,0.41155049204826355,-0.4322807490825653,-0.7260819673538208
1782952456973537300,6.041537353515625,0.35818803310394287,-0.41118139028549194,-0.7964289784431458
1782952456983464200,6.051464111328125,0.277367502450943,-0.35288798809051514,-0.812778651714325
1782952456993391400,6.061391357421875,0.18501153588294983,-0.28163307905197144,-0.7393502593040466
1782952457003319300,6.0713193359375,0.08718298375606537,-0.1556871384382248,-0.5875750780105591
1782952457013246200,6.08124609375,-0.05099393427371979,-0.07508344948291779,-0.3708164691925049
1782952457023173400,6.09117333984375,-0.18789052963256836,0.054476141929626465,-0.10628335922956467
1782952457033100300,6.101100341796875,-0.2931702435016632,0.21462830901145935,0.138579860329628
1782952457043028500,6.111028564453125,-0.3298720717430115,0.3361896276473999,0.33079591393470764
1782952457052955100,6.120955078125,-0.27617141604423523,0.3592236340045929,0.47133269906044006
1782952457062882300,6.13088232421875,-0.22461476922035217,0.37955766916275024,0.5946881771087646
1782952457072809200,6.140809326171875,-0.1750801056623459,0.3543376326560974,0.7133229374885559
1782952457082737200,6.150737060546875,-0.14984984695911407,0.24742285907268524,0.7846442461013794
1782952457092664300,6.160664306640625,-0.12667027115821838,0.09030035138130188,0.7980486750602722
1782952457102591200,6.17059130859375,-0.11738861352205276,-0.0612068809568882,0.7901700139045715
1782952457112518400,6.180518310546875,-0.13378703594207764,-0.10314115881919861,0.8001886010169983
1782952457122445300,6.1904453125,-0.13331325352191925,-0.064717598259449,0.8276926875114441
1782952457132373200,6.200373291015625,-0.10965871065855026,0.023790471255779266,0.8724326491355896
1782952457142300400,6.210300537109375,-0.06446965783834457,0.17582234740257263,0.9439939260482788
1782952457152227000,6.22022705078125,0.0039872522465884686,0.29451537132263184,1.0180166959762573
1782952457162154200,6.230154296875,0.08042103797197342,0.24427616596221924,1.0489263534545898
1782952457172082200,6.240082275390625,0.2133558690547943,0.08677650988101959,1.0552037954330444
1782952457182009300,6.25000927734375,0.37895601987838745,-0.051282286643981934,1.0621026754379272
1782952457191936300,6.259936279296875,0.48139646649360657,-0.19456936419010162,1.046164631843567
1782952457201863200,6.26986328125,0.5367819666862488,-0.3693592846393585,0.9321707487106323
1782952457211791400,6.279791259765625,0.5531588792800903,-0.5283477306365967,0.7023493647575378
1782952457221718300,6.28971826171875,0.5324615836143494,-0.6486932635307312,0.43002891540527344
1782952457231645400,6.2996455078125,0.4513697326183319,-0.6965521574020386,0.12177954614162445
1782952457241572000,6.309572021484375,0.34995919466018677,-0.7131500244140625,-0.183912992477417
1782952457251499300,6.319499267578125,0.28055477142333984,-0.7482791543006897,-0.44924697279930115
1782952457261427200,6.32942724609375,0.1902587115764618,-0.790544867515564,-0.6631848216056824
1782952457271354000,6.33935400390625,0.0844724178314209,-0.7230308651924133,-0.765909731388092
1782952457281281300,6.34928125,-0.03634614124894142,-0.5472968220710754,-0.7298601269721985
1782952457291208200,6.359208251953125,-0.15156425535678864,-0.3459116518497467,-0.555870771408081
1782952457301136100,6.36913623046875,-0.22860124707221985,-0.1515171229839325,-0.2600864768028259
1782952457311063300,6.379063232421875,-0.2674412131309509,0.030197614803910255,0.0706196203827858
1782952457320990200,6.388990234375,-0.3117876350879669,0.15684077143669128,0.33163735270500183
1782952457330917400,6.39891748046875,-0.3683779239654541,0.2344677895307541,0.47192373871803284
1782952457340844000,6.408843994140625,-0.3661288917064667,0.25858935713768005,0.49625223875045776
1782952457350772200,6.418772216796875,-0.32460182905197144,0.22150492668151855,0.43150582909584045
1782952457360699100,6.42869921875,-0.2730022668838501,0.16721531748771667,0.3219076991081238
1782952457370626300,6.438626220703125,-0.24497780203819275,0.12117193639278412,0.18412084877490997
1782952457380553200,6.44855322265625,-0.24414795637130737,0.06882777810096741,0.019766271114349365
1782952457390481200,6.458481201171875,-0.2716461420059204,-0.0005666040815412998,-0.15839476883411407
1782952457400408300,6.468408203125,-0.3273674547672272,-0.08820164948701859,-0.3276066780090332
1782952457410335200,6.478335205078125,-0.38342487812042236,-0.1694260686635971,-0.4785021245479584
1782952457420262400,6.488262451171875,-0.41970324516296387,-0.24990174174308777,-0.5815938711166382
1782952457430189300,6.498189208984375,-0.43142178654670715,-0.3342471718788147,-0.6396697759628296
1782952457440117200,6.5081171875,-0.4168745279312134,-0.4094580113887787,-0.6665608286857605
1782952457450044200,6.518044189453125,-0.3693374693393707,-0.4761425256729126,-0.7075272798538208
1782952457459971000,6.52797119140625,-0.28262680768966675,-0.5508375763893127,-0.7361029982566833
1782952457469898200,6.537898193359375,-0.2270566076040268,-0.6014764308929443,-0.7033084630966187
1782952457479826200,6.547826171875,-0.17728692293167114,-0.57318514585495,-0.5623542666435242
1782952457489753300,6.55775341796875,-0.21709631383419037,-0.5364129543304443,-0.27530962228775024
1782952457499680300,6.56768017578125,-0.3029036521911621,-0.34132471680641174,0.04783329740166664
1782952457509607400,6.577607421875,-0.32300618290901184,-0.10495581477880478,0.2973119914531708
1782952457519535400,6.587535400390625,-0.21628454327583313,0.16121621429920197,0.4222986698150635
1782952457529462300,6.597462158203125,-0.022414889186620712,0.4228269159793854,0.5073410272598267
1782952457539389400,6.607389404296875,0.12787048518657684,0.4906099736690521,0.5474205613136292
1782952457549316000,6.617316162109375,0.23185501992702484,0.44720742106437683,0.5390982031822205
1782952457559243300,6.6272431640625,0.30288180708885193,0.3868977427482605,0.4655645489692688
1782952457569171200,6.637171142578125,0.3341398537158966,0.33045271039009094,0.3142998516559601
1782952457579098000,6.64709814453125,0.3435133993625641,0.23656590282917023,0.044937074184417725
1782952457589025300,6.657025390625,0.408666729927063,0.13500739634037018,-0.3189951777458191
1782952457598952200,6.6669521484375,0.5302557349205017,0.12716785073280334,-0.6119863390922546
1782952457608880400,6.67688037109375,0.634989321231842,0.17515093088150024,-0.6917437314987183
1782952457618807300,6.686807373046875,0.676006019115448,0.2351977676153183,-0.5833945870399475
1782952457628734500,6.696734375,0.6907684206962585,0.2512681782245636,-0.3982153832912445
1782952457638661000,6.7066611328125,0.7145240902900696,0.22801586985588074,-0.2523806691169739
1782952457648588300,6.71658837890625,0.7231415510177612,0.169431671500206,-0.19432967901229858
1782952457658516200,6.72651611328125,0.6807478070259094,0.07216452062129974,-0.18006819486618042
1782952457668443100,6.736443115234375,0.6541957855224609,0.11021270602941513,-0.2328539937734604
1782952457678370300,6.746370361328125,0.5900745987892151,0.1396012306213379,-0.3357654809951782
1782952457688297200,6.756297119140625,0.47644174098968506,0.22666698694229126,-0.4531387686729431
1782952457698225200,6.76622509765625,0.3518041968345642,0.341046541929245,-0.5420126914978027
1782952457708152300,6.77615234375,0.21725128591060638,0.46822986006736755,-0.5492077469825745
1782952457718079200,6.786079345703125,0.07948968559503555,0.5933345556259155,-0.48206838965415955
1782952457728006400,6.79600634765625,-0.06490110605955124,0.6380793452262878,-0.37424972653388977
1782952457737933000,6.80593310546875,-0.19629161059856415,0.6260013580322266,-0.20736540853977203
1782952457747861200,6.815861328125,-0.3056785762310028,0.5942800045013428,-0.010136384516954422
1782952457757788200,6.8257880859375,-0.38611775636672974,0.5497908592224121,0.2034004032611847
1782952457767715300,6.83571533203125,-0.44443479180336,0.5084099173545837,0.40203097462654114
1782952457777642200,6.845642333984375,-0.48344770073890686,0.4325668215751648,0.5375296473503113
1782952457787570200,6.855570068359375,-0.47261491417884827,0.3002675473690033,0.5845605731010437
1782952457797497300,6.865497314453125,-0.41614580154418945,0.12803371250629425,0.5496295094490051
1782952457807424300,6.87542431640625,-0.37075158953666687,-0.048192404210567474,0.49886348843574524
1782952457817351400,6.885351318359375,-0.3526380956172943,-0.18962596356868744,0.47961893677711487
1782952457827279400,6.895279296875,-0.35229623317718506,-0.2773526608943939,0.5260892510414124
1782952457837206300,6.905206298828125,-0.31234508752822876,-0.2978281080722809,0.5998878479003906
1782952457847133200,6.91513330078125,-0.24933256208896637,-0.29704925417900085,0.641874372959137
1782952457857060000,6.92506005859375,-0.2124946415424347,-0.29433175921440125,0.6756123900413513
1782952457866987300,6.9349873046875,-0.17546236515045166,-0.33646485209465027,0.6806033253669739
1782952457876915200,6.944915283203125,-0.09413821250200272,-0.39489808678627014,0.6704087853431702
1782952457886841600,6.954841552734375,0.012193607166409492,-0.48342230916023254,0.6519527435302734
1782952457896768500,6.9647685546875,0.07812602072954178,-0.5558518171310425,0.702782928943634
1782952457906695700,6.97469580078125,0.12593570351600647,-0.5864529013633728,0.7848015427589417
1782952457916623600,6.98462353515625,0.16226334869861603,-0.5839841961860657,0.831252932548523
1782952457926550300,6.99455029296875,0.1778486967086792,-0.5526431798934937,0.8118754029273987
1782952457936477400,7.0044775390625,0.16640029847621918,-0.47756972908973694,0.744083821773529
1782952457946404400,7.014404296875,0.15363675355911255,-0.37066859006881714,0.6620356440544128
1782952457956331500,7.02433154296875,0.14431488513946533,-0.2603444755077362,0.5809814929962158
1782952457966259500,7.034259521484375,0.12739834189414978,-0.1541137397289276,0.4937027394771576
1782952457976186600,7.0441865234375,0.10515483468770981,-0.0685516968369484,0.36778077483177185
1782952457986113500,7.054113525390625,0.07444920390844345,-0.006363647058606148,0.21879680454730988
1782952457996040700,7.064040771484375,0.017799772322177887,0.009047266095876694,0.021813975647091866
1782952458005968600,7.07396875,-0.053711291402578354,-0.020548904314637184,-0.1621650904417038
1782952458015895600,7.0838955078125,-0.10196058452129364,-0.039390236139297485,-0.3162872791290283
1782952458025822500,7.093822509765625,-0.13276079297065735,-0.12722285091876984,-0.4361717402935028
1782952458035749400,7.103749267578125,-0.18914416432380676,-0.21216252446174622,-0.4412256181240082
1782952458045676500,7.113676513671875,-0.22916580736637115,-0.20523692667484283,-0.3293726146221161
1782952458055604500,7.1236044921875,-0.234651118516922,-0.1603725105524063,-0.16000518202781677
1782952458065531400,7.133531494140625,-0.23719443380832672,-0.10427089780569077,-0.0058611538261175156
1782952458075458600,7.14345849609375,-0.24117319285869598,-0.04762972146272659,0.0989299789071083
1782952458085385500,7.153385498046875,-0.24048294126987457,0.021277427673339844,0.14683112502098083
1782952458095313700,7.163313720703125,-0.2497057318687439,0.12489648908376694,0.16595341265201569
1782952458105240600,7.173240478515625,-0.26432591676712036,0.28720447421073914,0.15590466558933258
1782952458115167700,7.183167724609375,-0.26084116101264954,0.5218467712402344,0.13875018060207367
1782952458125094400,7.193094482421875,-0.24880458414554596,0.7435864210128784,0.10633424669504166
1782952458135022300,7.203022216796875,-0.22994327545166016,0.9128735065460205,0.08012793958187103
1782952458144949500,7.212949462890625,-0.21073034405708313,0.9857186675071716,0.06449832767248154
1782952458154876400,7.22287646484375,-0.16383208334445953,0.9430737495422363,0.05762283876538277
1782952458164803600,7.232803466796875,-0.09075608104467392,0.7149701714515686,0.026623079553246498
1782952458174730500,7.24273046875,-0.010984021238982677,0.29986241459846497,-0.037237927317619324
1782952458184658400,7.252658447265625,0.027483824640512466,-0.22195719182491302,-0.09159274399280548
1782952458194585600,7.262585693359375,0.080086849629879,-0.5402012467384338,-0.1275840401649475
1782952458204512500,7.272512451171875,0.12153823673725128,-0.9111992120742798,-0.16393117606639862
1782952458214439400,7.282439453125,0.12176993489265442,-1.1249444484710693,-0.12114910036325455
1782952458224367600,7.29236767578125,0.09081318229436874,-1.1275103092193604,-0.006162388250231743
1782952458234294500,7.30229443359375,0.15788888931274414,-0.8886492252349854,0.09736692905426025
1782952458244221400,7.312221435546875,0.23004357516765594,-0.638827383518219,0.16372017562389374
1782952458254148600,7.322148681640625,0.3011113703250885,-0.2730371654033661,0.19715695083141327
1782952458264075500,7.332075439453125,0.37611669301986694,0.04379849135875702,0.12321016192436218
1782952458274003500,7.34200341796875,0.40553849935531616,0.19718937575817108,-0.015464365482330322
1782952458283930600,7.3519306640625,0.400433212518692,0.19691641628742218,-0.15776371955871582
1782952458293857500,7.361857421875,0.4030678868293762,0.14156793057918549,-0.26327604055404663
1782952458303784700,7.37178466796875,0.41986599564552307,0.17452919483184814,-0.32029980421066284
1782952458313712600,7.381712646484375,0.40169233083724976,0.2715691924095154,-0.3784072995185852
1782952458323639300,7.391639404296875,0.3598048686981201,0.3635268211364746,-0.44267040491104126
1782952458333566500,7.40156640625,0.296375572681427,0.3697730004787445,-0.48537686467170715
1782952458343493400,7.411493408203125,0.24594466388225555,0.3034769892692566,-0.4564351737499237
1782952458353421600,7.421421630859375,0.2351580709218979,0.16305169463157654,-0.37140896916389465
1782952458363348500,7.431348388671875,0.26048892736434937,0.020943131297826767,-0.2839241027832031
1782952458373275400,7.441275390625,0.2869991064071655,-0.05212654918432236,-0.20067739486694336
1782952458383202600,7.45120263671875,0.3059869110584259,-0.07905483990907669,-0.1662333905696869
1782952458393129500,7.46112939453125,0.30712834000587463,-0.0916912704706192,-0.1921536773443222
1782952458403057700,7.4710576171875,0.296541690826416,-0.0828433483839035,-0.2366468906402588
1782952458412984600,7.480984619140625,0.2728472948074341,-0.060782261192798615,-0.26483115553855896
1782952458422911500,7.490911376953125,0.22858867049217224,-0.021874304860830307,-0.2644783854484558
1782952458432838400,7.50083837890625,0.16208022832870483,0.016539130359888077,-0.25262919068336487
1782952458442766300,7.510766357421875,0.06839580088853836,0.04205967113375664,-0.25295647978782654
1782952458452693500,7.520693603515625,-0.017330285161733627,0.10149689763784409,-0.25811049342155457
1782952458462620400,7.530620361328125,-0.05925142392516136,0.1884758323431015,-0.2960592806339264
1782952458472547600,7.540547607421875,-0.11083605140447617,0.2788510024547577,-0.32401978969573975
1782952458482474500,7.550474609375,-0.1845039278268814,0.38015055656433105,-0.34097719192504883
1782952458492402400,7.56040234375,-0.2383759468793869,0.4821179509162903,-0.29758790135383606
1782952458502329600,7.57032958984375,-0.2879016101360321,0.5500357747077942,-0.2104826122522354
1782952458512256500,7.580256591796875,-0.32004809379577637,0.6178252100944519,-0.08113475143909454
1782952458522183400,7.590183349609375,-0.33407673239707947,0.6573804020881653,0.08569180965423584
1782952458532111400,7.600111328125,-0.33532628417015076,0.6581961512565613,0.24477069079875946
1782952458542038500,7.61003857421875,-0.3120317757129669,0.6163962483406067,0.3959939479827881
1782952458551965400,7.61996533203125,-0.2502134144306183,0.5456805229187012,0.5062724947929382
1782952458561892600,7.629892578125,-0.1887722611427307,0.4040868878364563,0.5583245754241943
1782952458571820500,7.639820556640625,-0.12882502377033234,0.22569586336612701,0.5499175190925598
1782952458581747500,7.64974755859375,-0.06957875937223434,0.03020412102341652,0.480490505695343
1782952458591674600,7.659674560546875,-0.02585737407207489,-0.11516959220170975,0.38630542159080505
1782952458601601500,7.6696015625,-0.006924433168023825,-0.24009062349796295,0.3289833962917328
1782952458611528400,7.679528564453125,-0.0013496382161974907,-0.3281365931034088,0.29682305455207825
1782952458621456600,7.68945654296875,0.003850450273603201,-0.38183310627937317,0.2673991322517395
1782952458631383300,7.69938330078125,0.012150724418461323,-0.42986640334129333,0.21225996315479279
1782952458641310500,7.709310546875,-0.008283751085400581,-0.45241063833236694,0.17000991106033325
1782952458651237400,7.7192373046875,-0.03295367583632469,-0.4103238880634308,0.15357793867588043
1782952458661165600,7.72916552734375,-0.061233971267938614,-0.39662325382232666,0.14198000729084015
1782952458671092500,7.739092529296875,-0.0842207819223404,-0.42364341020584106,0.12079295516014099
1782952458681019600,7.74901953125,-0.11309685558080673,-0.43991556763648987,0.10903818160295486
1782952458690946600,7.758946533203125,-0.13092271983623505,-0.44091078639030457,0.10100475698709488
1782952458700873700,7.768873779296875,-0.12260328233242035,-0.42150285840034485,0.09269951283931732
1782952458710801700,7.7788017578125,-0.101429283618927,-0.38617628812789917,0.07339239865541458
1782952458720728300,7.788728271484375,-0.07830385118722916,-0.3239113688468933,0.038426946848630905
1782952458730655500,7.798655517578125,-0.05462142452597618,-0.24935032427310944,-0.022845463827252388
1782952458740582400,7.80858251953125,-0.028811980038881302,-0.11753186583518982,-0.11608607321977615
1782952458750510300,7.81851025390625,0.0008311332203447819,0.028973950073122978,-0.23443108797073364
1782952458760437500,7.8284375,0.019946854561567307,0.1040041521191597,-0.3752531409263611
1782952458770364400,7.838364501953125,0.007037447299808264,0.10624440014362335,-0.4950421452522278
1782952458780291600,7.84829150390625,-0.017952095717191696,0.0922221839427948,-0.5318477153778076
1782952458790218500,7.858218505859375,-0.05884493514895439,0.0660766065120697,-0.45883315801620483
1782952458800146700,7.868146728515625,-0.11516466736793518,0.033844366669654846,-0.31347382068634033
1782952458810073600,7.878073486328125,-0.1198587492108345,0.00994622427970171,-0.18376697599887848
1782952458820000500,7.88800048828125,-0.11282546818256378,-0.002187056001275778,-0.08297999948263168
1782952458829927400,7.897927490234375,-0.11667213588953018,0.020124640315771103,-0.04986678063869476
1782952458839855400,7.90785546875,-0.1250535547733307,0.08716762065887451,-0.07301672548055649
1782952458849782500,7.917782470703125,-0.13562311232089996,0.1650853306055069,-0.1210809275507927
1782952458859709400,7.92770947265625,-0.15826649963855743,0.24028760194778442,-0.1665373593568802
1782952458869636600,7.93763671875,-0.1728379875421524,0.32115501165390015,-0.17873063683509827
1782952458879565000,7.94756494140625,-0.1796838343143463,0.38438302278518677,-0.1482655555009842
1782952458889491700,7.95749169921875,-0.18720565736293793,0.4157169759273529,-0.09357860684394836
1782952458899419000,7.9674189453125,-0.18937332928180695,0.40645843744277954,-0.015646610409021378
1782952458909345800,7.977345703125,-0.19850371778011322,0.2991202473640442,0.01912814751267433
1782952458919273000,7.98727294921875,-0.20876488089561462,0.09020739793777466,-0.015863750129938126
1782952458929201000,7.997200927734375,-0.2078530192375183,-0.19672690331935883,-0.09811095148324966
1782952458939127800,8.0071279296875,-0.2020977884531021,-0.49553361535072327,-0.18927840888500214
1782952458949055000,8.017054931640626,-0.14494049549102783,-0.6846169829368591,-0.1798231303691864
1782952458958982000,8.02698193359375,-0.0823829174041748,-0.7228457927703857,-0.11108599603176117
1782952458968910000,8.03691015625,0.014709269627928734,-0.5839403867721558,-0.011060858145356178
1782952458978836700,8.046836669921875,0.1476062387228012,-0.31256723403930664,0.07151974737644196
1782952458988764000,8.056763916015624,0.24962979555130005,-0.1831679791212082,0.10170641541481018
1782952458998690800,8.06669091796875,0.345476895570755,-0.03199608251452446,0.07926028221845627
1782952459008618000,8.076617919921874,0.4441627264022827,0.1261133998632431,-0.008513245731592178
1782952459018546000,8.0865458984375,0.5184137225151062,0.22523798048496246,-0.1495000720024109
1782952459028472800,8.096472900390625,0.5507165789604187,0.26930874586105347,-0.3058481514453888
1782952459038400000,8.10639990234375,0.5406951904296875,0.27677401900291443,-0.41382116079330444
1782952459048327000,8.116326904296875,0.4874364733695984,0.24130766093730927,-0.4609053134918213
1782952459058254800,8.1262548828125,0.41464680433273315,0.09699021279811859,-0.494026243686676
1782952459068182000,8.13618212890625,0.3745150864124298,-0.0992693156003952,-0.5262811183929443
1782952459078108700,8.146108642578126,0.3916875123977661,-0.3173697590827942,-0.4984610378742218
1782952459088035800,8.156035888671875,0.43960925936698914,-0.5274865031242371,-0.3999384641647339
1782952459097963800,8.1659638671875,0.5031909346580505,-0.6716902256011963,-0.28889867663383484
1782952459107891000,8.175890869140625,0.5210152268409729,-0.7127854824066162,-0.24078921973705292
1782952459117817900,8.18581787109375,0.4887583553791046,-0.6233527660369873,-0.2576652467250824
1782952459127745000,8.1957451171875,0.41073867678642273,-0.4459342956542969,-0.2996896505355835
1782952459137672000,8.205671875,0.3044103682041168,-0.2097308188676834,-0.3237321376800537
1782952459147600000,8.215599853515625,0.1774413287639618,0.03142646700143814,-0.31357109546661377
1782952459157527000,8.225527099609375,0.05362541973590851,0.26688694953918457,-0.2858070433139801
1782952459167453700,8.23545361328125,-0.07722607254981995,0.4035792946815491,-0.23928482830524445
1782952459177380900,8.245380859375,-0.1835647076368332,0.5392699837684631,-0.1889493316411972
1782952459187308800,8.255308837890626,-0.25985363125801086,0.6231734156608582,-0.15367336571216583
1782952459197235700,8.265235595703125,-0.330737829208374,0.6926016807556152,-0.12893816828727722
1782952459207163000,8.275162841796876,-0.3788206875324249,0.7292768955230713,-0.113228440284729
1782952459217089800,8.28508984375,-0.40810737013816833,0.7383502125740051,-0.10763542354106903
1782952459227017000,8.295016845703126,-0.4223504960536957,0.7287201881408691,-0.10726205259561539
1782952459236945000,8.30494482421875,-0.422533243894577,0.709647536277771,-0.09038269519805908
1782952459246872000,8.3148720703125,-0.4155285954475403,0.6580573320388794,-0.08278895914554596
1782952459256799000,8.324799072265625,-0.39471250772476196,0.5787985920906067,-0.0847957655787468
1782952459266726000,8.334725830078124,-0.3562026619911194,0.5022851228713989,-0.07400862872600555
1782952459276653800,8.34465380859375,-0.28626182675361633,0.4550054669380188,-0.030394461005926132
1782952459286580700,8.354580810546874,-0.23472674190998077,0.38631054759025574,0.05333585664629936
1782952459296508000,8.3645078125,-0.18369969725608826,0.2934187352657318,0.15380017459392548
1782952459306434800,8.374434814453124,-0.13914687931537628,0.18296653032302856,0.2444421947002411
1782952459316362800,8.38436279296875,-0.09615372866392136,0.10007995367050171,0.3309920132160187
1782952459326290000,8.3942900390625,-0.06873942166566849,0.03999771177768707,0.4073224663734436
1782952459336216800,8.404216796875,-0.05238091200590134,-0.004191040527075529,0.4478827118873596
1782952459346144000,8.41414404296875,-0.04601089656352997,-0.006391344126313925,0.47301098704338074
1782952459356071000,8.42407080078125,-0.05163375660777092,-0.04508686065673828,0.46408939361572266
1782952459365999000,8.4339990234375,-0.04801185801625252,-0.1288941502571106,0.4255651533603668
1782952459375925800,8.44392578125,-0.03452547267079353,-0.18329261243343353,0.4038069546222687
1782952459385853000,8.45385302734375,-0.01615126244723797,-0.15919232368469238,0.41109150648117065
1782952459395779800,8.46377978515625,-0.0007125569973140955,-0.12282361090183258,0.428979754447937
1782952459405707800,8.473707763671875,0.005305920727550983,-0.1383674293756485,0.42354103922843933
1782952459415635000,8.483635009765624,0.018415145576000214,-0.19636012613773346,0.4048481285572052
1782952459425561900,8.493561767578125,0.03764583542943001,-0.26339828968048096,0.40584254264831543
1782952459435489000,8.503489013671874,0.03765306621789932,-0.3390122056007385,0.43489736318588257
1782952459445416000,8.513416015625,0.025203587487339973,-0.4115889370441437,0.480968713760376
1782952459455343900,8.52334375,0.02044852077960968,-0.45214566588401794,0.5026192665100098
1782952459465271000,8.53327099609375,-0.0026352275162935257,-0.4786164164543152,0.4596182405948639
1782952459475197700,8.54319775390625,-0.041634656488895416,-0.4854007363319397,0.33402949571609497
1782952459485124900,8.553124755859375,-0.0958574190735817,-0.4386273920536041,0.16776061058044434
1782952459495052800,8.563052734375,-0.153021439909935,-0.3282509744167328,-0.006495904643088579
1782952459504980000,8.57297998046875,-0.19935005903244019,-0.1817379593849182,-0.13739639520645142
1782952459514907000,8.582906982421875,-0.2613869309425354,-0.028042884543538094,-0.19622083008289337
1782952459524833800,8.592833740234376,-0.3179444968700409,0.11643706262111664,-0.18946731090545654
1782952459534761000,8.602760986328125,-0.36587196588516235,0.22533497214317322,-0.11230017989873886
1782952459544689000,8.61268896484375,-0.36751192808151245,0.3404679596424103,-0.013148565776646137
1782952459554616000,8.622615966796875,-0.30737870931625366,0.41171994805336,0.08645138144493103
1782952459564542700,8.632542724609374,-0.23892056941986084,0.4346955716609955,0.1592872440814972
1782952459574470000,8.642469970703125,-0.1686515063047409,0.4115981161594391,0.2187139242887497
1782952459584397800,8.652397705078124,-0.10828988254070282,0.3545268177986145,0.24410131573677063
1782952459594324700,8.66232470703125,-0.042891617864370346,0.29227322340011597,0.23966798186302185
1782952459604252000,8.672251953125,0.005818128120154142,0.2105538547039032,0.2015080749988556
1782952459614178800,8.6821787109375,0.039760250598192215,0.11624525487422943,0.12953677773475647
1782952459624107000,8.69210693359375,0.059879370033741,0.006666569039225578,0.03655622527003288
1782952459634034000,8.702033935546876,0.07360724359750748,-0.12387822568416595,-0.0677429810166359
1782952459643960800,8.7119609375,0.08500663936138153,-0.25952979922294617,-0.15078753232955933
1782952459653888000,8.721887939453126,0.0910717323422432,-0.36148929595947266,-0.20097516477108002
1782952459663814700,8.731814697265625,0.07289858907461166,-0.44980186223983765,-0.20918089151382446
1782952459673742800,8.741742919921874,0.04576176404953003,-0.5061261057853699,-0.1768653839826584
1782952459683669800,8.751669677734375,0.028293292969465256,-0.5513047575950623,-0.11729499697685242
1782952459693597000,8.761596923828124,0.011165664531290531,-0.5580487251281738,-0.04279899224638939
1782952459703523800,8.77152392578125,0.00859864428639412,-0.5231501460075378,0.038032472133636475
1782952459713451800,8.78145166015625,-0.00583652826026082,-0.45491597056388855,0.05873529613018036
1782952459723379000,8.79137890625,-0.012378317303955555,-0.3965266942977905,0.007928574457764626
1782952459733305900,8.801305908203124,-0.012112665921449661,-0.3157276511192322,-0.08524948358535767
1782952459743233000,8.81123291015625,-0.003284286707639694,-0.17260271310806274,-0.1462412029504776
1782952459753160000,8.821159912109374,0.021504590287804604,-0.040070563554763794,-0.1545412242412567
1782952459763088000,8.831087890625,0.07801633328199387,0.09617649018764496,-0.12199714034795761
1782952459773014800,8.841014892578125,0.15887726843357086,0.22891931235790253,-0.07932444661855698
1782952459782941700,8.850941650390626,0.24782498180866241,0.2504754960536957,-0.09740704298019409
1782952459792868900,8.860868896484375,0.33752140402793884,0.18793104588985443,-0.17935088276863098
1782952459802796800,8.870796875,0.41664552688598633,0.11853199452161789,-0.268483966588974
1782952459812724000,8.880723876953125,0.4655056893825531,0.10446222871541977,-0.3426778018474579
1782952459822651000,8.89065087890625,0.5008748769760132,0.12690016627311707,-0.3879731297492981
1782952459832578000,8.900578125,0.517094612121582,0.14948537945747375,-0.3883960247039795
1782952459842506000,8.910506103515624,0.5160477161407471,0.09820273518562317,-0.3340992331504822
1782952459852433000,8.920432861328125,0.5085933208465576,0.021556582301855087,-0.23738044500350952
1782952459862360000,8.930360107421874,0.5051764845848083,-0.039770424365997314,-0.11744153499603271
1782952459872286700,8.94028662109375,0.5069184899330139,-0.08654267340898514,-0.0487964004278183
1782952459882213600,8.950213623046874,0.5063568353652954,-0.11161287128925323,-0.049384694546461105
1782952459892141600,8.9601416015625,0.4845019280910492,-0.10195942968130112,-0.1224154382944107
1782952459902068700,8.97006884765625,0.4310759902000427,-0.08957786113023758,-0.2542906403541565
1782952459911995600,8.97999560546875,0.35395145416259766,-0.10353904217481613,-0.4134589731693268
1782952459921922600,8.989922607421875,0.2694120705127716,-0.11532752215862274,-0.546556293964386
1782952459931850500,8.9998505859375,0.15184064209461212,-0.10413908958435059,-0.6386618614196777
1782952459941777400,9.00977734375,0.016193585470318794,-0.062357015907764435,-0.6706898212432861
1782952459951704600,9.01970458984375,-0.1328652799129486,0.0022056475281715393,-0.6712087392807007
1782952459961631500,9.029631591796875,-0.2606019377708435,0.0914447158575058,-0.6515796780586243
1782952459971558700,9.03955859375,-0.36765775084495544,0.19082553684711456,-0.6173529624938965
1782952459981486600,9.049486572265625,-0.4328298270702362,0.3167262077331543,-0.56001216173172
1782952459991413500,9.05941357421875,-0.45047563314437866,0.45684900879859924,-0.48752716183662415
1782952460001340700,9.069340576171875,-0.4361491799354553,0.5717883706092834,-0.4044453203678131
1782952460011267600,9.079267578125,-0.41226550936698914,0.6736748218536377,-0.3050599992275238
1782952460021195800,9.08919580078125,-0.3893716335296631,0.7439098358154297,-0.18533864617347717
1782952460031122400,9.099122314453124,-0.35952234268188477,0.7767804861068726,-0.07726377993822098
1782952460041049600,9.109049560546875,-0.32882437109947205,0.7675701975822449,0.03602202609181404
1782952460050976500,9.1189765625,-0.29441142082214355,0.7295272350311279,0.16957248747348785
1782952460060904400,9.128904541015626,-0.24643243849277496,0.6866011023521423,0.3227732181549072
1782952460070831600,9.13883154296875,-0.23081474006175995,0.6166169047355652,0.479778528213501
1782952460080758500,9.148758544921876,-0.22128941118717194,0.5085309147834778,0.5957328677177429
1782952460090685700,9.158685791015625,-0.19715642929077148,0.38562628626823425,0.655351996421814
1782952460100612600,9.168612548828126,-0.16750238835811615,0.2637626826763153,0.6533671617507935
1782952460110540500,9.17854052734375,-0.1256156712770462,0.09765838831663132,0.6140505075454712
1782952460120467700,9.1884677734375,-0.06525751948356628,-0.08741027116775513,0.5875813364982605
1782952460130394400,9.198394287109375,-0.00679612485691905,-0.2487291693687439,0.6181049942970276
1782952460140321500,9.208321533203126,0.06115283444523811,-0.3637617230415344,0.6935871839523315
1782952460150249500,9.21824951171875,0.14853554964065552,-0.4042831063270569,0.7960734367370605
1782952460160176600,9.2281767578125,0.24477127194404602,-0.3593614399433136,0.879126250743866
1782952460170103600,9.238103515625,0.30930712819099426,-0.292677104473114,0.8828758001327515
1782952460180030500,9.248030517578124,0.3413148522377014,-0.2640438675880432,0.8191165328025818
1782952460189957600,9.25795751953125,0.3460516929626465,-0.28254926204681396,0.6973512768745422
1782952460199885600,9.267885498046875,0.3599957525730133,-0.32377180457115173,0.5377991795539856
1782952460209812700,9.277812744140626,0.36595138907432556,-0.376203328371048,0.3590148389339447
1782952460219739400,9.287739501953125,0.3649204671382904,-0.40758174657821655,0.19574759900569916
1782952460229666600,9.29766650390625,0.351044237613678,-0.43641507625579834,0.01637941412627697
1782952460239594500,9.307594482421875,0.3370506465435028,-0.4742410182952881,-0.14881646633148193
1782952460249519600,9.31751953125,0.2974907159805298,-0.4695642292499542,-0.2834421694278717
1782952460259446500,9.327446533203124,0.24713824689388275,-0.3550214171409607,-0.37884607911109924
1782952460269373700,9.337373779296875,0.20110438764095306,-0.18539464473724365,-0.42940932512283325
1782952460279301600,9.347301513671875,0.13616082072257996,-0.0599653422832489,-0.47266891598701477
1782952460289228500,9.357228515625,0.06519600749015808,-0.02645042911171913,-0.485861212015152
1782952460299155500,9.367155517578125,0.007030971813946962,-0.08992580324411392,-0.41062504053115845
1782952460309082600,9.37708251953125,-0.03752908483147621,-0.2092430293560028,-0.2500388026237488
1782952460319010600,9.387010498046875,-0.09968113154172897,-0.3577531576156616,-0.053678061813116074
1782952460328937500,9.3969375,-0.08006162196397781,-0.4667135775089264,0.09795930981636047
1782952460338864600,9.40686474609375,-0.012701493687927723,-0.5678319334983826,0.1895454227924347
1782952460348791600,9.41679150390625,0.05402658134698868,-0.6314358711242676,0.2285211980342865
1782952460358719500,9.426719482421875,0.10016131401062012,-0.6419244408607483,0.22837819159030914
1782952460368646700,9.436646728515624,0.13030554354190826,-0.5868012309074402,0.18631955981254578
1782952460378573600,9.446573486328125,0.1317569613456726,-0.486177921295166,0.11128793656826019
1782952460388500500,9.45650048828125,0.11669150739908218,-0.33117273449897766,0.022875215858221054
1782952460398427400,9.466427490234375,0.0880364328622818,-0.15779270231723785,-0.044328853487968445
1782952460408355600,9.47635546875,0.03809545189142227,0.022375714033842087,-0.08924640715122223
1782952460418282500,9.486282470703125,-0.02087784931063652,0.19045260548591614,-0.11185957491397858
1782952460428209700,9.496209716796875,-0.0974593386054039,0.28833702206611633,-0.11332304775714874
1782952460438136600,9.506136474609375,-0.15626700222492218,0.32713183760643005,-0.09386493265628815
1782952460448064500,9.516064453125,-0.20426440238952637,0.32724788784980774,-0.08161700516939163
1782952460457991700,9.52599169921875,-0.23237034678459167,0.29188406467437744,-0.07091429829597473
1782952460467918600,9.535918701171875,-0.24899804592132568,0.22286425530910492,-0.04555400088429451
1782952460477845500,9.545845458984376,-0.271615207195282,0.17351160943508148,0.01486247032880783
1782952460487772400,9.5557724609375,-0.2997320294380188,0.14002478122711182,0.10619679093360901
1782952460497700400,9.565700439453124,-0.3146041929721832,0.02975153736770153,0.20424799621105194
1782952460507627500,9.57562744140625,-0.2609388828277588,-0.10759690403938293,0.2954007387161255
1782952460517554400,9.585554443359374,-0.14162898063659668,-0.15025995671749115,0.3491409420967102
1782952460527481600,9.595481689453125,0.022807585075497627,-0.12725131213665009,0.31490594148635864
1782952460537409500,9.605409423828124,0.19086982309818268,-0.0872354507446289,0.19734495878219604
1782952460547336700,9.615336669921875,0.33425453305244446,-0.009495861828327179,0.04980025067925453
1782952460557263600,9.625263671875,0.41028058528900146,0.10196409374475479,-0.07156319171190262
1782952460567190500,9.6351904296875,0.4368647038936615,0.17619138956069946,-0.1725393533706665
1782952460577117400,9.645117431640625,0.43438583612442017,0.12975597381591797,-0.24854864180088043
1782952460587045400,9.65504541015625,0.43533796072006226,0.014989618211984634,-0.22374814748764038
1782952460596973600,9.6649736328125,0.4214005768299103,-0.15098869800567627,-0.10224675387144089
1782952460606900500,9.674900390625,0.40657690167427063,-0.3727940618991852,0.031545110046863556
1782952460616827400,9.684827392578125,0.3825591802597046,-0.5059848427772522,0.13006289303302765
1782952460626755600,9.694755615234374,0.3309831917285919,-0.5390751361846924,0.18634089827537537
1782952460636682500,9.7046826171875,0.28407907485961914,-0.45408591628074646,0.10742157697677612
1782952460646609700,9.714609619140624,0.262949138879776,-0.2830563485622406,-0.05006788298487663
1782952460656536600,9.72453662109375,0.19634108245372772,-0.044436294585466385,-0.25830551981925964
1782952460666463500,9.73446337890625,0.0902731791138649,0.2162701040506363,-0.46471554040908813
1782952460676391700,9.7443916015625,0.0026123025454580784,0.44957447052001953,-0.6507413387298584
1782952460686318600,9.754318603515625,-0.04576771333813667,0.6037348508834839,-0.7673402428627014
1782952460696245500,9.76424560546875,-0.06593982130289078,0.6922511458396912,-0.761759340763092
1782952460706172400,9.77417236328125,-0.0818968191742897,0.7340229153633118,-0.65592360496521
1782952460716100400,9.784100341796876,-0.08739890903234482,0.7128356099128723,-0.45262667536735535
1782952460726027500,9.794027587890625,-0.08805830776691437,0.6509208083152771,-0.3027101457118988
1782952460735954400,9.803954345703126,-0.07661523669958115,0.5994312763214111,-0.16468384861946106
1782952460745881600,9.813881591796875,-0.07742701470851898,0.5502614378929138,-0.0770501047372818
1782952460755808500,9.82380859375,-0.06723376363515854,0.5346574783325195,-0.015093528665602207
1782952460765736700,9.83373681640625,-0.06704169511795044,0.5150294303894043,0.0016493764705955982
1782952460775663600,9.84366357421875,-0.0817660465836525,0.45741647481918335,-0.027020351961255074
1782952460785590500,9.853590576171875,-0.1063433513045311,0.33433061838150024,-0.0909700095653534
1782952460795517400,9.863517333984374,-0.12180300056934357,0.17544056475162506,-0.12524649500846863
1782952460805445400,9.8734453125,-0.11974819004535675,0.021857507526874542,-0.10296198725700378
1782952460815372500,9.88337255859375,-0.11170810461044312,-0.08603593707084656,-0.033114198595285416
1782952460825299500,9.893299560546875,-0.1138102263212204,-0.17517131567001343,0.022779308259487152
1782952460835226600,9.9032265625,-0.09383305162191391,-0.15745463967323303,0.05748189240694046
1782952460845153500,9.913153564453125,-0.10974699258804321,-0.17004644870758057,0.03835584223270416
1782952460855081500,9.92308154296875,-0.11725844442844391,-0.21990375220775604,-0.005350359715521336
1782952460865008600,9.933008544921876,-0.08756321668624878,-0.2361859679222107,-0.01791473664343357
1782952460874935600,9.942935546875,-0.0520893856883049,-0.2552579343318939,0.0188446082174778
1782952460884863500,9.952863525390624,-0.03599425405263901,-0.2973410189151764,0.11690491437911987
1782952460894791400,9.96279150390625,-0.050408877432346344,-0.32248181104660034,0.22817924618721008
1782952460904718300,9.97271826171875,-0.0695352554321289,-0.2920345962047577,0.3670424520969391
1782952460914645200,9.982645263671875,-0.09291301667690277,-0.28961512446403503,0.4715299904346466
1782952460924572200,9.992572265625,-0.13726836442947388,-0.32684484124183655,0.4964059889316559
1782952460934500000,10.0025,-0.18132983148097992,-0.3891838490962982,0.463380366563797
1782952460944427300,10.01242724609375,-0.2223540097475052,-0.47540760040283203,0.37139561772346497
1782952460954354200,10.022354248046875,-0.24116018414497375,-0.5383836030960083,0.24244029819965363
1782952460964281300,10.03228125,-0.23942621052265167,-0.49910464882850647,0.0843968614935875
1782952460974208300,10.042208251953125,-0.2506929636001587,-0.3556564152240753,-0.09615853428840637
1782952460984136400,10.052136474609375,-0.21461549401283264,-0.22924473881721497,-0.3048473298549652
1782952460994063400,10.0620634765625,-0.11617574095726013,-0.0011164918541908264,-0.470245361328125
1782952461003990500,10.071990478515625,-0.002633012132719159,0.276716947555542,-0.5785229206085205
1782952461013917200,10.081917236328126,0.07301860302686691,0.3897066116333008,-0.655437707901001
1782952461023845000,10.09184521484375,0.08451653271913528,0.30641305446624756,-0.6657226085662842
1782952461033772300,10.101772216796874,0.06069695204496384,0.15054196119308472,-0.5209811329841614
1782952461043699200,10.11169921875,0.014455193653702736,-0.006077989935874939,-0.2996217906475067
1782952461053626400,10.12162646484375,-0.03402632102370262,-0.1831800639629364,-0.06605459004640579
1782952461063554300,10.13155419921875,-0.07958821207284927,-0.34302589297294617,0.10976338386535645
1782952461073481200,10.141481201171874,-0.10253667086362839,-0.4679745137691498,0.18751704692840576
1782952461083408400,10.151408447265625,-0.12831464409828186,-0.5219468474388123,0.1581495851278305
1782952461093335300,10.161335205078124,-0.18570709228515625,-0.47866275906562805,0.056518301367759705
1782952461103262200,10.17126220703125,-0.21993662416934967,-0.3198780119419098,-0.12770743668079376
1782952461113190400,10.1811904296875,-0.20489081740379333,-0.31899943947792053,-0.34564533829689026
1782952461123117300,10.191117431640626,-0.21969440579414368,-0.41318365931510925,-0.5402068495750427
1782952461133044200,10.201044189453125,-0.30097436904907227,-0.48012009263038635,-0.6246881484985352
1782952461142971400,10.210971435546876,-0.31625667214393616,-0.4001115560531616,-0.6019957065582275
1782952461152899300,10.2208994140625,-0.2984643578529358,-0.28598737716674805,-0.5462376475334167
1782952461162826200,10.230826171875,-0.26604753732681274,-0.23276011645793915,-0.4504695236682892
1782952461172753400,10.24075341796875,-0.23431861400604248,-0.22038120031356812,-0.30544573068618774
1782952461182680300,10.250680419921874,-0.21679072082042694,-0.22080513834953308,-0.13867436349391937
1782952461192607500,10.260607421875,-0.20320965349674225,-0.14857567846775055,0.04168130084872246
1782952461202535400,10.270535400390624,-0.20342591404914856,-0.02434428595006466,0.20032146573066711
1782952461212462000,10.280462158203125,-0.1930326670408249,0.13939058780670166,0.3103952407836914
1782952461222389200,10.29038916015625,-0.1748267561197281,0.22704507410526276,0.34027189016342163
1782952461232316200,10.300316162109375,-0.19860824942588806,0.1354760080575943,0.32537418603897095
1782952461242244400,10.310244384765625,-0.2385198473930359,-0.09949743002653122,0.271076500415802
1782952461252171300,10.320171142578126,-0.2731097936630249,-0.2531256079673767,0.21832408010959625
1782952461262098400,10.330098388671875,-0.26949989795684814,-0.22402140498161316,0.2150268405675888
1782952461272025300,10.340025390625,-0.25207990407943726,-0.11662223935127258,0.25585097074508667
1782952461281953300,10.349953369140625,-0.2571132481098175,0.01961658149957657,0.2939140796661377
1782952461291880400,10.35988037109375,-0.28399890661239624,0.2322460263967514,0.3057161569595337
1782952461301807400,10.369807373046875,-0.28111302852630615,0.5556148290634155,0.28484195470809937
1782952461311734300,10.379734375,-0.19710281491279602,0.8344496488571167,0.18678997457027435
1782952461321661200,10.3896611328125,-0.032671794295310974,0.9365902543067932,0.016941634938120842
1782952461331589000,10.399589111328124,0.17273463308811188,0.9269016981124878,-0.09925767034292221
1782952461341516300,10.409516357421875,0.3212032914161682,0.7876591682434082,-0.11901777237653732
1782952461351443200,10.419443115234374,0.413833349943161,0.5505568981170654,-0.06634151190519333
1782952461361370400,10.429370361328125,0.45905691385269165,0.3055403530597687,-0.015586277469992638
1782952461371298300,10.43929833984375,0.4578859210014343,0.0845097154378891,-0.024294015020132065
1782952461381225500,10.4492255859375,0.4149089753627777,-0.06481528282165527,-0.07642784714698792
1782952461391152400,10.45915234375,0.4094092845916748,-0.07355178147554398,-0.2018004208803177
1782952461401079300,10.469079345703125,0.38094645738601685,-0.012494958937168121,-0.35342100262641907
1782952461411006200,10.479006103515625,0.3014364540576935,0.04931647703051567,-0.4471954107284546
1782952461420934100,10.48893408203125,0.18994028866291046,0.10841669142246246,-0.4974813461303711
1782952461430861300,10.498861328125,0.09051863104104996,0.20489688217639923,-0.4927569031715393
1782952461440788200,10.508788330078126,0.015491710975766182,0.32858312129974365,-0.474330872297287
1782952461450715400,10.51871533203125,-0.06937231123447418,0.4105890393257141,-0.4487732946872711
1782952461460643300,10.528643310546874,-0.1338503360748291,0.44402727484703064,-0.4190727770328522
1782952461470570200,10.5385703125,-0.19019590318202972,0.43815234303474426,-0.3782172203063965
1782952461480497400,10.548497314453124,-0.2223815768957138,0.37977588176727295,-0.3501600921154022
1782952461490424300,10.55842431640625,-0.24076111614704132,0.3090444505214691,-0.2966478765010834
1782952461500351200,10.568351318359374,-0.25186359882354736,0.24941492080688477,-0.21983756124973297
1782952461510279400,10.578279541015625,-0.24783344566822052,0.20249614119529724,-0.10998217016458511
1782952461520206300,10.588206298828124,-0.24444666504859924,0.17587944865226746,0.00811683014035225
1782952461530133200,10.59813330078125,-0.23771817982196808,0.15092429518699646,0.10098817944526672
1782952461540060200,10.60806005859375,-0.2119821459054947,0.12189892679452896,0.149318665266037
1782952461549988400,10.61798828125,-0.18478702008724213,0.10050841420888901,0.1637740433216095
1782952461559915300,10.627915283203125,-0.1373554915189743,0.0857931599020958,0.16527865827083588
1782952461569842400,10.637842529296876,-0.0675782784819603,0.09949912130832672,0.14786770939826965
1782952461579769300,10.647769287109375,-0.018786955624818802,0.08406281471252441,0.1354944407939911
1782952461589697300,10.657697265625,0.00535167008638382,0.049407362937927246,0.14092808961868286
1782952461599624400,10.66762451171875,0.0034608328714966774,-0.003588465042412281,0.14537858963012695
1782952461609551000,10.677551025390626,0.013726519420742989,-0.08949751406908035,0.17382380366325378
1782952461619478300,10.687478271484375,0.04112808778882027,-0.19777457416057587,0.245193213224411
1782952461629405200,10.6974052734375,0.07621549814939499,-0.2858400046825409,0.3690227270126343
1782952461639333400,10.70733349609375,0.10036873072385788,-0.3146028220653534,0.5235003232955933
1782952461649260300,10.71726025390625,0.12592123448848724,-0.23673436045646667,0.6834239363670349
1782952461659187200,10.727187255859375,0.13983535766601562,-0.12587061524391174,0.7890828251838684
1782952461669114400,10.7371142578125,0.15214848518371582,-0.012645792216062546,0.8058993816375732
1782952461679042300,10.747042236328125,0.1702617108821869,0.08776389807462692,0.7634552717208862
1782952461688969500,10.756969482421875,0.1799740344285965,0.16966505348682404,0.6758156418800354
1782952461698896400,10.766896484375,0.1747245043516159,0.19876039028167725,0.5670813918113708
1782952461708823300,10.7768232421875,0.17054758965969086,0.16859422624111176,0.4823814332485199
1782952461718750200,10.786750244140626,0.1733247935771942,0.15181449055671692,0.4852108955383301
1782952461728678100,10.79667822265625,0.08581944555044174,0.08411905914545059,0.5332194566726685
1782952461738605300,10.806605224609376,0.009955882094800472,-0.21858766674995422,0.3681489825248718
1782952461748532200,10.8165322265625,0.0071342624723911285,-0.3511342406272888,0.15616881847381592
1782952461758459400,10.82645947265625,0.054095640778541565,-0.3516353368759155,-0.02682380937039852
1782952461768387300,10.83638720703125,0.07883960753679276,-0.3854561448097229,-0.18238863348960876
1782952461778314200,10.846314208984374,0.10494999587535858,-0.425981730222702,-0.2359941303730011
