time,seconds_elapsed,z,y,x
1782968830714988000,0.082988037109375,0.5664654239922762,2.340587704999,-0.1953565678834915
1782968830724914700,0.092914794921875,0.33784663797616954,2.535975690934062,0.6267265620790422
1782968830734840800,0.1028408203125,-0.04978489838838577,3.0436122015997764,1.11380967566818
1782968830744766200,0.11276611328125,-0.1305973877251148,3.6211715587973594,1.1939008649930358
1782968830754693400,0.122693359375,0.06708207014799118,3.9052509507507085,1.1228981142699719
1782968830764619300,0.132619384765625,0.20232465333044528,3.8434979666709896,0.9884006503663957
1782968830774545400,0.14254541015625,0.5802934583365917,3.756972944906354,0.6672245766840875
1782968830784471300,0.15247119140625,1.1627385417491196,3.7401059812575577,0.3722527654469013
1782968830794398200,0.162398193359375,1.5686930857896804,3.6172435716986655,-0.0025590368330478666
1782968830804324400,0.172324462890625,1.8685452164143324,3.4412779329836365,-0.5093040054865181
1782968830814250500,0.18225048828125,2.1569752047926185,3.3314734501793977,-1.001367391706258
1782968830824177200,0.19217724609375,2.2375234902352092,3.1609210686847566,-1.373247524448484
1782968830834103300,0.202103271484375,1.94337337064445,3.024010260029137,-1.6310310301505029
1782968830844029400,0.212029541015625,1.359932261931896,3.058958531552553,-1.6875760703235865
1782968830853956400,0.221956298828125,0.6703396399646997,3.167999336507916,-1.615639545881748
1782968830863882200,0.23188232421875,0.024064766198396682,3.3721102887332437,-1.44173829235062
1782968830873808400,0.241808349609375,-0.39845045202076435,3.6813247064650056,-1.1604479465939104
1782968830883735300,0.2517353515625,-0.7188426818490028,4.010956181542575,-0.8634446295291185
1782968830893661200,0.2616611328125,-0.8936234946936369,4.254532882715761,-0.6633920127838849
1782968830903587300,0.27158740234375,-0.7154086157470941,4.4413995624125,-0.5778910733699798
1782968830913513500,0.281513427734375,-0.042481881898641584,4.524761443971097,-0.5721921310760081
1782968830923440400,0.2914404296875,1.028117889857292,4.422547854687274,-0.5705214213848113
1782968830933366300,0.3013662109375,2.1156652892827985,4.159244708780944,-0.665039268534258
1782968830943292400,0.31129248046875,2.890095418319106,3.7955598651930686,-0.9307297479685396
1782968830953219300,0.32121923828125,3.2374294310867784,3.338401495876908,-1.332218617837131
1782968830963145200,0.331145263671875,3.17015563775897,2.9130019543930885,-1.6785805707022547
1782968830973071400,0.3410712890625,2.618828746187687,2.5664915329679845,-2.041457458908111
1782968830982998300,0.350998291015625,1.82671741451025,2.3769638173684475,-2.366022005984932
1782968830992924400,0.36092431640625,0.9382131625264882,2.2975813608348368,-2.5947370919823647
1782968831002850300,0.370850341796875,0.058761401048302644,2.3458909259736536,-2.744273573455214
1782968831012777200,0.380777099609375,-0.540469397470355,2.475562431025505,-2.665384161135554
1782968831022703400,0.390703369140625,-0.7901993605762719,2.6106039386779067,-2.3528283240213987
1782968831032629200,0.400629150390625,-0.6993693350940943,2.733247737050056,-1.9852800830036401
1782968831042556200,0.41055615234375,-0.4569757062256336,2.8025913223892447,-1.580161697526276
1782968831052482300,0.420482421875,-0.19643851790130137,2.7412182775378224,-1.2274646964207292
1782968831062408400,0.430408447265625,0.017485972329974172,2.5335604464858767,-0.9148712307099253
1782968831072334300,0.440334228515625,0.18232699044048786,2.272687888727337,-0.6754466807801276
1782968831082261200,0.45026123046875,0.19808102441132067,1.9834375238768756,-0.40688926760740574
1782968831092187400,0.4601875,0.07224632104337216,1.7172291580483316,-0.2067418852508068
1782968831102113300,0.47011328125,-0.08343114740252494,1.4038950300380586,-0.1256657034765929
1782968831112040200,0.480040283203125,-0.2557826872736215,1.0115557543739675,-0.2561503515422344
1782968831121966300,0.48996630859375,-0.4799585224062204,0.42564577132984993,-0.537943239993602
1782968831131892500,0.499892578125,-0.6695739162892103,-0.09709025492072104,-0.7400037624951452
1782968831141819100,0.509819091796875,-0.9224614666432142,-0.5241849098846316,-0.9518462588205933
1782968831151745300,0.519745361328125,-1.1539420718312263,-0.9210939776822924,-1.0865792850457132
1782968831161671400,0.52967138671875,-1.5047376232296228,-1.3407730956926942,-1.134440375764668
1782968831171598300,0.539598388671875,-1.9326298583120107,-1.6872301794953644,-1.1611636936478316
1782968831181524200,0.549524169921875,-2.2412556625008584,-1.8734537389829753,-1.0895730600342153
1782968831191450400,0.559450439453125,-2.4274551104605195,-1.9936076202355324,-0.7953649266459047
1782968831201377300,0.569377197265625,-2.4304057769596574,-2.0947943506896496,-0.34872977797500787
1782968831211303200,0.57930322265625,-2.086359115299582,-2.1774311328440903,0.20638803031183778
1782968831221229300,0.589229248046875,-1.5138286921799182,-2.2221235303990543,0.8451376962050795
1782968831231155500,0.599155517578125,-0.9896136794179677,-2.364352903728932,1.4547415663085876
1782968831241082400,0.609082275390625,-0.511026445364952,-2.602519416421652,1.9083114096134899
1782968831251008300,0.61900830078125,-0.07534253349304199,-2.8293492731943726,2.1693796360746025
1782968831260934400,0.628934326171875,0.3312526465386152,-3.2421324942111966,2.4481470392249522
1782968831270861300,0.638861328125,0.7191039631336927,-3.773391872526705,2.406224398644268
1782968831280787500,0.648787353515625,1.0468868877351283,-4.233236704447865,1.9774469051599501
1782968831290713300,0.65871337890625,1.1468792938381434,-4.629944988976419,1.5584312194943428
1782968831300640300,0.66864013671875,1.1935901916086673,-5.084056245681643,1.300811964443326
1782968831310566400,0.67856640625,1.233060032209754,-5.318877393469214,1.29914490801394
1782968831320492300,0.6884921875,1.2287865926742554,-5.297727053412795,1.3757260433912277
1782968831330419200,0.698419189453125,0.9501455923825501,-5.090492416208982,1.6820102528899907
1782968831340345300,0.708345458984375,0.13800678719878195,-4.803169512289762,2.3315130026616155
1782968831350271500,0.718271484375,-0.9466197563439607,-4.495345672133564,3.3020933341771364
1782968831360197400,0.728197265625,-1.7567904763251543,-4.369445794574916,4.019826593479514
1782968831370124300,0.738124267578125,-2.2225620679467917,-4.159097701525688,4.376453627510369
1782968831380050400,0.748050537109375,-2.4418495465159413,-3.9208866190388796,4.36265920317471
1782968831389976300,0.757976318359375,-2.2595003442436457,-3.735401456828415,4.051087700922787
1782968831399903200,0.7679033203125,-1.7763024015247821,-3.769396957671642,3.6198899945542213
1782968831409829400,0.777829345703125,-1.3058236551254987,-3.8811207181006666,3.0823502207949756
1782968831419755500,0.787755615234375,-0.9303928441643714,-4.1016704716905945,2.549874160166085
1782968831429682200,0.79768212890625,-0.5626847364097833,-4.246480801424384,2.0657187705919147
1782968831439608300,0.8076083984375,-0.2612614109456539,-4.291510906501114,1.680182891332358
1782968831449534500,0.817534423828125,0.003333528336882591,-4.281211923065781,1.4469362993851302
1782968831459461400,0.82746142578125,0.1925900257796049,-4.126114008073508,1.4577385561674832
1782968831469387300,0.83738720703125,0.1373474465072155,-3.7772900490090247,1.690445196019113
1782968831479313400,0.8473134765625,-0.14134557623267172,-3.1937729524508116,2.009850314506143
1782968831489240300,0.857240234375,-0.4427145411610603,-2.5741326953709125,2.098467193983495
1782968831499166200,0.867166259765625,-0.7559323493152856,-2.0236422546237707,2.1435046055838463
1782968831509092400,0.87709228515625,-1.0896662912756203,-1.5634883567534386,2.0937425035491586
1782968831519018500,0.8870185546875,-1.3559662809103727,-1.1403920507106928,1.8506030247494578
1782968831528945400,0.8969453125,-1.5413222637832165,-0.8455058719303459,1.4735696008972823
1782968831538871300,0.906871337890625,-1.6277023241192101,-0.7089714953716844,1.045935724490136
1782968831548797400,0.91679736328125,-1.5745318749457597,-0.5803341556731612,0.8306325663167983
1782968831558724400,0.926724365234375,-1.3724790242940186,-0.32197862223684787,0.8673516469050199
1782968831568650200,0.936650146484375,-1.1856336796462534,0.07899097299799322,0.9527582590989768
1782968831578576400,0.946576416015625,-0.9545008649826049,0.5663798646006732,0.9651067224100232
1782968831588503300,0.95650341796875,-0.5096382058769464,1.0326457425452769,0.9737285664133727
1782968831598429400,0.966429443359375,-0.01764262419641018,1.3585339394412934,0.9844397108461708
1782968831608355300,0.976355224609375,0.27085049254596233,1.6671655888490378,0.8954133007198571
1782968831618282200,0.9862822265625,0.2763011591672897,1.895674046358466,0.6545882363423705
1782968831628208400,0.99620849609375,0.1464180571913719,1.9786884296536444,0.33891868765447286
1782968831638134300,1.00613427734375,-0.039918168890476224,1.9731994768485426,-0.12968622769694774
1782968831648061200,1.016061279296875,-0.2451543257534504,1.963478293301165,-0.6941437094002961
1782968831657987300,1.0259873046875,-0.5000292505323887,2.0021543531760573,-1.1667548647183925
1782968831667913500,1.03591357421875,-0.8575351132243871,2.1457328030273315,-1.5482725213125348
1782968831677839400,1.04583935546875,-1.2299696649789809,2.3855223868772386,-1.8440610557600854
1782968831687766300,1.055766357421875,-1.4551853645533321,2.6196312947422267,-1.9706889553323388
1782968831697692400,1.0656923828125,-1.5598206280261278,2.7803882584095,-1.8547553221233188
1782968831707618300,1.075618408203125,-1.6830793434262274,2.918745174220204,-1.2105940064448864
1782968831717545200,1.085545166015625,-1.7630471986323595,3.242143015605211,-0.35973153938483443
1782968831727471400,1.095471435546875,-1.6199322746396063,3.6003561497837304,0.3532345785809681
1782968831737397500,1.1053974609375,-1.3021195399105547,3.8471515207424756,0.8720049526035785
1782968831747325000,1.115324951171875,-0.9009855478942393,3.9826328811168668,1.1845282026223838
1782968831757250800,1.125250732421875,-0.37416765915751454,4.027470970752835,1.2826857945136725
1782968831767177000,1.135177001953125,0.2148936275243759,3.993834366349876,1.2251884220518172
1782968831777104000,1.145103759765625,0.7330407185494899,3.8657407781392332,0.9244682033557444
1782968831787030000,1.155030029296875,1.0790823534190654,3.663075640808046,0.4292059480294585
1782968831796956000,1.164955810546875,1.2999281673461198,3.4202056265994902,-0.1504193287219852
1782968831806881800,1.1748818359375,1.513224881067872,3.248655758500099,-0.6890628259394318
1782968831816809000,1.18480908203125,1.7290969982355833,3.159088884821534,-1.0611761829156428
1782968831826734800,1.19473486328125,1.7390537441045044,3.158047559075057,-1.3218857321321964
1782968831836660700,1.20466064453125,1.4688304435461759,3.1638951160594817,-1.4853314964920281
1782968831846588000,1.214587890625,0.9116080641955137,3.129243781656027,-1.4719693260937927
1782968831856514000,1.22451416015625,0.15696633921265601,3.126025404131412,-1.3035484036698937
1782968831866440000,1.23443994140625,-0.5359907907515764,3.2140508935868737,-1.0410769593473523
1782968831876366800,1.244366943359375,-1.0253881726324559,3.4134996992200612,-0.6888465528402478
1782968831886293000,1.25429296875,-1.3166799801826476,3.6203096812710163,-0.38798078819364307
1782968831896219000,1.264218994140625,-1.3210294075638056,3.7871637927696105,-0.25335224525630473
1782968831906145800,1.274145751953125,-0.9376251335054635,3.884973594136536,-0.23860680380612612
1782968831916072000,1.284072021484375,-0.3626052316576242,3.8303140754491087,-0.38412528180927036
1782968831925998000,1.293998046875,0.3090489980369806,3.656666066026687,-0.6081560824479907
1782968831935923700,1.303923828125,0.8544576054751872,3.4941567057341336,-0.8856795499518513
1782968831945851000,1.313850830078125,1.1996674656957387,3.265125831785798,-1.1926492574967442
1782968831955777000,1.323777099609375,1.3742916266739367,3.0179145735025403,-1.5506522560559213
1782968831965703000,1.333702880859375,1.3722668428480624,2.8760996261924503,-1.708045442378521
1782968831975629800,1.3436298828125,1.0748650279849767,2.782512410956621,-1.6831971245869992
1782968831985556000,1.353555908203125,0.534208583509922,2.788885160858929,-1.541376916579902
1782968831995481900,1.36348193359375,0.024298574954271315,2.8601871867895126,-1.430049461992085
1782968832005409000,1.373408935546875,-0.3924292920351028,2.8604513906836506,-1.3177844342932103
1782968832015335000,1.3833349609375,-0.5799070893675089,2.81466754463017,-1.2325680109091102
1782968832025260800,1.3932607421875,-0.5458394000709057,2.7287118471860885,-1.2137076814860104
1782968832035188000,1.40318798828125,-0.41511575561761854,2.559630707287788,-1.0711316866755485
1782968832045113900,1.41311376953125,-0.0687409432709217,2.2487091933771968,-0.9106877344802021
1782968832055040000,1.4230400390625,0.4014367743551731,1.9175616146482526,-0.7884103582676499
1782968832064967000,1.432966796875,0.8323404662132262,1.6804368660934268,-0.6867723769146948
1782968832074893000,1.44289306640625,1.0354209063470363,1.462820973998308,-0.6490113860581069
1782968832084819000,1.45281884765625,1.0089543397039173,1.2286441154636443,-0.6073073566641658
1782968832094744800,1.462744873046875,0.8252198205530643,0.9605202714025973,-0.5645168106751516
1782968832104672000,1.472672119140625,0.4093354186505079,0.7168658288180828,-0.6667602471079677
1782968832114598000,1.482597900390625,-0.019658640193939207,0.42585166916549205,-0.7616244234770536
1782968832124523800,1.492523681640625,-0.3077496058762073,0.06464870552122592,-0.7263980656646192
1782968832134451000,1.502450927734375,-0.35237902119755743,-0.31593729624599215,-0.6975161815080791
1782968832144377000,1.512377197265625,-0.33153906226456165,-0.6676677904069424,-0.6527957999676466
1782968832154302700,1.522302734375,-0.423541054135561,-1.0210777620874345,-0.6146219905264675
1782968832164230000,1.53222998046875,-0.6143874511182308,-1.361708039432764,-0.6090931441023946
1782968832174156000,1.542156005859375,-0.7909586545109748,-1.675066132840514,-0.5434826078116893
1782968832184082000,1.55208203125,-0.9054606474816799,-1.9940692463979124,-0.3930697818957269
1782968832194008800,1.5620087890625,-0.8961655803918838,-2.3265046729803083,-0.1974514943361282
1782968832203935000,1.57193505859375,-0.7379647309482097,-2.5877920951500535,0.09793477945346385
1782968832213860900,1.58186083984375,-0.5733598596811295,-2.8155311757221817,0.535058003413491
1782968832223786800,1.591786865234375,-0.3473831126064062,-2.9757217376783487,1.019061599959433
1782968832233714000,1.6017138671875,-0.11122516325712203,-3.115106827493012,1.3785796792566776
1782968832243640000,1.61164013671875,0.07536065367162227,-3.359176280619204,1.574198551338166
1782968832253565700,1.621565673828125,0.16576631626188754,-3.6290897845759984,1.7557300074867903
1782968832263492900,1.631492919921875,0.2371878769189119,-3.838410288143158,1.9521680869966744
1782968832273419000,1.6414189453125,0.33246319137215613,-4.044953435951471,2.0768292165406046
1782968832283345000,1.651344970703125,0.39059915399849415,-4.355971103712916,2.0426818861365317
1782968832293271800,1.661271728515625,0.4668231465011835,-4.524029914826154,2.035678144854307
1782968832303198000,1.671197998046875,0.5853560024231672,-4.587912896671891,2.17958115048483
1782968832313123800,1.681123779296875,0.5891127246081829,-4.7325920012414455,2.413427754151821
1782968832323051000,1.691051025390625,0.4575999756038189,-4.857097501832246,2.5305194713547823
1782968832332977000,1.700976806640625,0.20637772811353206,-4.89747773527652,2.5218846217393875
1782968832342902800,1.71090283203125,-0.20617723710536956,-4.836086862507462,2.5405463598504663
1782968832352829000,1.720828857421875,-0.4347796565085649,-4.619136594714224,2.4730747058629987
1782968832362755800,1.730755859375,-0.8752648311823606,-4.419482621897757,2.548543203823268
1782968832372682000,1.740681884765625,-1.088969541183114,-4.455269390071928,2.5769170653924345
1782968832382608000,1.75060791015625,-0.894889569106698,-4.50053856460154,2.5001743097126483
1782968832392535000,1.76053515625,-0.43562779777050015,-4.448773890572786,2.394254997778684
1782968832402461000,1.7704609375,0.09056757515370845,-4.307695440843701,2.309479888421297
1782968832412386800,1.78038671875,0.43752690939009187,-4.212642536969483,2.318871986144781
1782968832422314000,1.79031396484375,0.2979296381294727,-4.121689177368581,2.3600867707170545
1782968832432240000,1.800240234375,-0.21451719542741773,-3.947042220036685,2.24589676630497
1782968832442165800,1.810165771484375,-0.7835258741617203,-3.726528414542973,2.0514105515152217
1782968832452093000,1.820093017578125,-1.2732991036176682,-3.457560667003691,1.8960932946838438
1782968832462019000,1.83001904296875,-1.6432786634355783,-3.134979694959521,1.8315385510563849
1782968832471944700,1.83994482421875,-1.8101210844963789,-2.745962257194519,1.815288550262153
1782968832481870800,1.849870849609375,-1.7919184883296488,-2.3259435319662094,1.7488175977498293
1782968832491798000,1.859798095703125,-1.5590993280142544,-1.9511204776398836,1.6470630042798817
1782968832501724000,1.869723876953125,-1.1368711100429296,-1.6500032955154775,1.6133490968570112
1782968832511649800,1.87964990234375,-0.7634913863927125,-1.381932204554975,1.5989606521509587
1782968832521577000,1.889576904296875,-0.4514829540282488,-1.1666402253627777,1.4895893000669778
1782968832531502800,1.8995029296875,-0.2096568959146738,-1.0104171057328581,1.4087101752348243
1782968832541428700,1.9094287109375,-0.06820142956674098,-0.829492967827618,1.3706971093133091
1782968832551356000,1.91935595703125,-0.059413142955303186,-0.5406292642071843,1.254671267776191
1782968832561281800,1.92928173828125,-0.20543664787113666,-0.17503624891042707,1.0400861216790973
1782968832571208000,1.9392080078125,-0.4958195238828659,0.15111688253208994,0.6280823606021702
1782968832581134800,1.949134765625,-0.7272153733968735,0.3048052229873836,0.048068267196230585
1782968832591061000,1.95906103515625,-0.9255097482979298,0.2718833427250385,-0.526403462716937
1782968832600987000,1.96898681640625,-1.2331126391798257,0.26357071080133315,-1.103008441799134
1782968832610912800,1.978912841796875,-1.5388766241967677,0.42593350223004817,-1.4725485872864723
1782968832620840000,1.98883984375,-1.7655021905690431,0.7221691959232092,-1.460183903492987
1782968832630765800,1.998765869140625,-1.765791528904438,1.0591383204124867,-1.2317040875561536
1782968832640692000,2.00869189453125,-1.5239274768680333,1.351323715801537,-0.8663735225878655
1782968832650619000,2.018618896484375,-1.1722855377733707,1.6200506403222679,-0.320966668715328
1782968832660544800,2.028544677734375,-0.8935024986624717,1.9835631960831581,0.41813663780875504
1782968832670471000,2.038470947265625,-0.706602208957076,2.441575113488734,1.0438041923541574
1782968832680398000,2.048398193359375,-0.4985229376226663,2.7790456116288897,1.3757938479304312
1782968832690323700,2.05832373046875,-0.24763795926272866,2.959737986604869,1.5110434453755617
1782968832700249900,2.068249755859375,0.026237434062361717,3.026492139972746,1.3883409025534987
1782968832710177000,2.078177001953125,0.27323358829021455,2.9771418336093425,1.0912376322455704
1782968832720103000,2.08810302734375,0.5292278724879026,2.8769553662389513,0.750873896881938
1782968832730028800,2.09802880859375,0.827941354471445,2.7826912746548653,0.473292780906707
1782968832739955000,2.107954833984375,1.0400678553700446,2.7471131807953117,0.18480938184075058
1782968832749881900,2.1178818359375,1.164970246323943,2.730831323558092,-0.1187757978323847
1782968832759807700,2.127807861328125,1.2246779883116483,2.780190690010786,-0.4027566247820854
1782968832769734000,2.13773388671875,1.212128887861967,2.9016034852832555,-0.718505193522945
1782968832779661000,2.1476611328125,1.1877584167152642,3.070394702324271,-0.908865779750049
1782968832789586700,2.157586669921875,1.0988771872133016,3.2046850993484255,-0.890022328396514
1782968832799512800,2.167512939453125,0.9890566300570964,3.431607602840662,-0.6578179389785975
1782968832809440000,2.17743994140625,0.8436819444388151,3.6909701944276687,-0.20968093437738716
1782968832819366000,2.187365966796875,0.6342267085760831,3.909874518898129,0.21547727263122796
1782968832829291800,2.197291748046875,0.36655133893489833,4.060270832070708,0.4096981875482946
1782968832839219000,2.207218994140625,0.029309681114554405,4.178607873159646,0.4157441166490316
1782968832849144800,2.217144775390625,-0.2844242598682642,4.252444678264856,0.3574954143632203
1782968832859070700,2.22707080078125,-0.3328746947824955,4.343306560190022,0.23385902475714682
1782968832868996900,2.236996826171875,-0.09110299720466136,4.43121602205038,0.0631774639248848
1782968832878923800,2.246923828125,-0.011267828467488288,4.520518107312918,-0.1483615924745798
1782968832888850000,2.256849853515625,0.3430307626157999,4.395753079003096,-0.6763716136053204
1782968832898775800,2.26677587890625,0.7882078944981098,4.063939583711326,-1.1686601138178259
1782968832908703000,2.276702880859375,1.0977192493498324,3.7965056216105815,-1.5749562378376722
1782968832918628900,2.28662890625,1.2697791127979754,3.640688160172105,-1.864757806830108
1782968832928555000,2.296554931640625,1.1883809325277805,3.524745613004267,-1.919336515366286
1782968832938482000,2.30648193359375,0.9061439535707235,3.428874963006377,-1.9368306710027157
1782968832948407800,2.31640771484375,0.5368003535687923,3.4180069475114343,-1.9564849272824822
1782968832958334000,2.326333984375,0.15562252338826654,3.3453754265427587,-1.8885992856666445
1782968832968261000,2.33626123046875,-0.028326515296101567,3.227085147204995,-1.7953766659595072
1782968832978186800,2.346186767578125,-0.24614041418135166,3.132764064736664,-1.5600694882206618
1782968832988113000,2.35611279296875,-0.361639601495862,3.0101772572487593,-1.4456506434887646
1782968832998040000,2.3660400390625,-0.33789924494624135,2.877107049669325,-1.2886968714967368
1782968833007965700,2.375965576171875,-0.11750234383046626,2.8324931241780518,-1.19225192874223
1782968833017891800,2.385891845703125,-0.021458383092284202,2.6953707185983657,-1.0581645800095052
1782968833027818000,2.39581787109375,-0.03920154505372047,2.519607908979058,-0.9497998476848005
1782968833037745000,2.405744873046875,-0.14697978272736073,2.2930567230172456,-0.9703383394531905
1782968833047670800,2.4156708984375,-0.10960896023213863,1.9253687812678515,-1.1261874381389467
1782968833057597000,2.425596923828125,0.14168752153813838,1.401555042783171,-1.322135469109565
1782968833067523800,2.43552392578125,0.38683307946324347,0.9530202710360288,-1.359077252537757
1782968833077449700,2.44544970703125,0.484524807408452,0.6014234862573444,-1.2469051638193427
1782968833087376000,2.4553759765625,0.4252098641306162,0.32267990237399935,-1.2408511244773863
1782968833097303000,2.465302978515625,0.24385201098322867,0.08353672666884958,-1.504885361137241
1782968833107229000,2.47522900390625,-0.1443845055371523,-0.3397474300961941,-1.2752886699996888
1782968833117154800,2.48515478515625,-0.45275545818209645,-0.7422407277669757,-1.0114659571986644
1782968833127082000,2.49508203125,-0.5956166996747255,-0.8435763651724905,-0.9720872289471327
1782968833137007900,2.5050078125,-0.7937760500192642,-0.9520128475591539,-0.4934744585940614
1782968833146933800,2.514933837890625,-1.3165315116226672,-1.2724097535625098,0.5095621084334329
1782968833156860000,2.52485986328125,-1.5773405026257037,-1.4900804445847868,1.146260212091729
1782968833166786800,2.534786865234375,-1.5412930376887322,-1.6630580073997376,1.1845214075554162
1782968833176713000,2.544712890625,-1.3418553379714488,-1.9407294320069253,0.9343206120673566
1782968833186638800,2.554638916015625,-1.086826683935523,-2.4585820701301095,1.2671854430429637
1782968833196565800,2.564565673828125,-0.5719336262702942,-2.8666154662713406,1.2457276444725691
1782968833206492000,2.574491943359375,-0.13938742790222167,-2.9218206361427903,0.9307965295944363
1782968833216417800,2.584417724609375,0.09900865576267241,-3.1689009615227577,0.9259989200543611
1782968833226344700,2.5943447265625,0.22477321650385856,-3.556036238802969,1.0378617966931312
1782968833236270800,2.604270751953125,0.26974633069634435,-3.9857533512249588,1.2769701933458446
1782968833246197000,2.614197021484375,0.255022808817029,-4.235154813028871,1.1949998392108827
1782968833256124000,2.6241240234375,0.00402677129805088,-4.274220749004185,0.9880589973218739
1782968833266049800,2.6340498046875,0.004527122035622597,-4.427712982365489,0.8908866170756519
1782968833275976000,2.643975830078125,0.01779167727828026,-4.5968525744527575,0.909356851202622
1782968833285901800,2.65390185546875,-0.3579553600251674,-4.778093230961263,0.7326948277212679
1782968833295828700,2.663828857421875,-0.9763929633170366,-5.019339735621213,0.4271562124254182
1782968833305755000,2.6737548828125,-1.2970365375578403,-5.1764837694883346,0.3731559613643214
1782968833315681000,2.683680908203125,-1.4800848280102015,-5.148944605177641,0.6129580028370022
1782968833325607700,2.693607666015625,-1.6068898377150296,-4.88974772554636,0.8699057883672415
1782968833335533800,2.703533935546875,-1.6304507460445166,-4.481328252696991,1.2722456490419805
1782968833345460000,2.7134599609375,-1.600894981214404,-4.175936608123779,1.8882908042393625
1782968833355387000,2.723386962890625,-1.4540245040804147,-4.015205947941541,2.2281622260414062
1782968833365312800,2.733312744140625,-1.1802204224258661,-3.9127027280613778,2.496107206404209
1782968833375239000,2.743239013671875,-0.7564455595344305,-3.6289518374100327,2.4911291257306933
1782968833385165000,2.7531650390625,-0.2664075416624546,-3.6803976547479627,2.3680391910262406
1782968833395092000,2.763092041015625,0.1830968057692051,-3.694235333703458,2.266379728493839
1782968833405017900,2.773017822265625,0.4753893147945404,-3.7667943739578127,2.1627949969872833
1782968833414944000,2.782944091796875,0.4815145196765661,-3.8003780791297554,1.9217096742384134
1782968833424871000,2.792870849609375,0.14216039974689482,-3.7593341210797426,1.6489280674993991
1782968833434796800,2.802796875,-0.3264578134775162,-3.6310672221288085,1.5168278739959
1782968833444723000,2.812722900390625,-0.8152233271956443,-3.334375309100747,1.5502400219932198
1782968833454649900,2.82264990234375,-1.245926528045535,-2.870458989956975,1.7516162885576485
1782968833464576000,2.832575927734375,-1.586101901230216,-2.443183717729151,2.0028971343673763
1782968833474502000,2.842501953125,-1.774424332693219,-2.0216712468117475,2.1347905532523987
1782968833484428800,2.8524287109375,-1.7474837187975645,-1.61263817210868,2.2458207784593105
1782968833494355000,2.86235498046875,-1.616812681314349,-1.237004385921359,2.304156939832866
1782968833504280800,2.87228076171875,-1.3314496792912482,-0.9581013736926018,2.313774663005769
1782968833514207000,2.88220703125,-0.8552689218580722,-0.8209596058253198,2.2471824222013352
1782968833524134000,2.8921337890625,-0.30134383048713204,-0.684699223902449,2.057040081834793
1782968833534060000,2.90206005859375,0.21399287929236888,-0.5117774829279631,1.7624170840352773
1782968833543986000,2.91198583984375,0.48850423243343827,-0.3212928319297731,1.3245398999027906
1782968833553912800,2.921912841796875,0.4202145400613546,-0.17454671182781456,0.7886012777298689
1782968833563839000,2.9318388671875,0.05111819281876087,-0.019569792866706848,0.2768090538905002
1782968833573764900,2.941764892578125,-0.526560114583373,0.25702801115959883,-0.059137011161353434
1782968833583691800,2.95169189453125,-1.126045764645934,0.5842300671331584,-0.29343225364498793
1782968833593618000,2.961617919921875,-1.6423609640687704,0.9257134541764854,-0.5211787868712097
1782968833603544000,2.9715439453125,-1.9123902033597229,1.2334829337969422,-0.7428263456352054
1782968833613470700,2.981470703125,-1.8238614405572413,1.5847221373096108,-0.9457765835180878
1782968833623396900,2.99139697265625,-1.389919988438487,1.866553019683808,-1.106762825896591
1782968833633323000,3.001322998046875,-0.8179314171105623,2.0476526602864262,-1.1855983160719274
1782968833643249000,3.011248779296875,-0.34516192942559715,2.136976080597937,-1.1231135105863213
1782968833653175800,3.02117578125,-0.08104805165827274,2.2166987288713456,-0.8956580692611634
1782968833663102000,3.03110205078125,0.13035656470656395,2.3915144668988884,-0.46273993230815974
1782968833673028000,3.041028076171875,0.2526514035105705,2.7039889093399045,0.09209840145017952
1782968833682954800,3.050954833984375,0.16352525933682918,3.0724785228610036,0.6141256583768874
1782968833692881000,3.060880859375,-0.01275660572052002,3.421795233878493,1.002829646278545
1782968833702807000,3.07080712890625,-0.13288462187945843,3.6898102107375856,1.1851360323224216
1782968833712734000,3.08073388671875,-0.10352174927294254,3.8381042909339067,1.0917289959590881
1782968833722659800,3.090659912109375,-0.04044365406930446,3.826296656501293,0.7625717873297632
1782968833732586000,3.1005859375,0.06248597452938556,3.5928503041982647,0.31621443268693983
1782968833742513000,3.110512939453125,0.2593734052419662,3.241072756025195,-0.05978256078958511
1782968833752438800,3.120438720703125,0.5509878688752651,3.022458646672964,-0.2590495801150799
1782968833762365000,3.130364990234375,0.8658791631996631,2.9356112610861658,-0.39172801189795137
1782968833772291000,3.140291015625,1.0674708260804413,3.0080519356578588,-0.4264933280698955
1782968833782217700,3.1502177734375,1.1611755302160978,3.132871909025311,-0.33481793780475855
1782968833792144000,3.160143798828125,1.1571949361473322,3.2966467592090365,-0.1873484718643129
1782968833802070000,3.170070068359375,1.0707646069288252,3.4857916129708286,-0.08822524981126188
1782968833811997000,3.179996826171875,0.9292875132709741,3.530749529594183,-0.06974763609543443
1782968833821922800,3.1899228515625,0.8369161035656929,3.485692244249582,-0.10417458715848624
1782968833831849000,3.199848876953125,0.5894704520046711,3.4081913636788723,-0.1600738037087023
1782968833841775900,3.20977587890625,0.10171733019948005,3.3192022898882625,-0.16899674955047667
1782968833851701800,3.21970166015625,-0.23269465715289114,3.261184985205531,-0.12034618895426392
1782968833861628000,3.2296279296875,-0.3571826220870018,3.249431419047713,-0.11283895512931048
1782968833871554800,3.239554931640625,-0.325583368730545,3.309203458443284,-0.10544424176812171
1782968833881481000,3.24948095703125,-0.1593500194787979,3.3555478609889744,-0.1669042342506349
1782968833891406800,3.25940673828125,0.1133925704240799,3.306350407099724,-0.24919775592535734
1782968833901333800,3.269333740234375,0.5321832151621579,3.221818604978919,-0.35788609418123957
1782968833911260000,3.279260009765625,0.9634960723429917,3.1723271365791557,-0.5112573315113783
1782968833921186000,3.28918603515625,1.2533616464823483,3.0913994964301583,-0.6869648307468742
1782968833931112000,3.29911181640625,1.3230664663493632,2.9637784941673275,-0.8460962390389293
1782968833941038800,3.309038818359375,1.319411450973153,2.831261828817427,-1.0381734199255703
1782968833950965000,3.318965087890625,1.1687801600009202,2.667350200511515,-1.2496087236896156
1782968833960891000,3.328890869140625,0.8751672160267829,2.550133103363216,-1.4002140034377575
1782968833970817800,3.33881787109375,0.5092027370691299,2.5378268717586994,-1.5436070137195288
1782968833980744000,3.348743896484375,0.20751170057952403,2.5374329040050507,-1.5553497662223874
1782968833990670000,3.358670166015625,0.05040566063523292,2.5688530014023185,-1.341599609644711
1782968834000596700,3.3685966796875,-0.029072949749231337,2.593911454813182,-1.0567354239892215
1782968834010523000,3.37852294921875,-0.04521919790804386,2.577225108428299,-0.876875481249392
1782968834020449000,3.388448974609375,0.005210428124666214,2.4844635303616522,-0.8468355861641466
1782968834030376000,3.3983759765625,0.027881694138050077,2.2837257078312336,-0.8171089948117732
1782968834040301800,3.4083017578125,-0.02170505132973194,2.0578044903360304,-0.7854433982208371
1782968834050228000,3.41822802734375,-0.023176292926073074,1.802301789047569,-0.8366809796355664
1782968834060153900,3.42815380859375,0.047454409614205356,1.4553306182429193,-0.9710567168556153
1782968834070080800,3.438080810546875,0.07814882308542728,1.0965949214950204,-1.0635311485439538
1782968834080007000,3.4480068359375,-0.021309914532303808,0.7559408248826861,-1.0965398303069174
1782968834089932800,3.457932861328125,-0.19263678753077984,0.4563822703771293,-1.0761061140872537
1782968834099860000,3.46785986328125,-0.39614918934106824,0.25793650430664417,-0.9948357979804276
1782968834109785900,3.477785888671875,-0.6456289770781993,0.11168357454910874,-0.8177068145744502
1782968834119712000,3.4877119140625,-0.9585779051631689,-0.0017573650613427162,-0.5431357671353966
1782968834129639000,3.497638916015625,-1.1828028401345014,-0.13615509491749106,-0.33855047539658845
1782968834139564800,3.507564697265625,-1.3885872785300015,-0.3815713595427572,-0.15781769534498452
1782968834149491000,3.517490966796875,-1.6174071400761603,-0.6713505705729127,-0.02318922547288239
1782968834159417900,3.52741796875,-1.7121224825590848,-1.0117720274731516,0.10601710975263268
1782968834169344000,3.537343994140625,-1.6519319254904985,-1.3690090100958943,0.16591416376736015
1782968834179270000,3.547269775390625,-1.3834236121565102,-1.687740905496478,0.2220786071250215
1782968834189195800,3.55719580078125,-1.0340350049465894,-2.0613569221206007,0.30642880560122426
1782968834199123000,3.567123046875,-0.7169272036164999,-2.4107582426816223,0.39525786652453243
1782968834209048800,3.577048828125,-0.5058966812610626,-2.73452783998847,0.5046317393591627
1782968834218974700,3.586974609375,-0.44562896730303764,-2.9580238761633635,0.6335127881530672
1782968834228902000,3.59690185546875,-0.4332347651541233,-3.0998513906940817,0.8415108109448105
1782968834238828000,3.606828125,-0.36324586764872074,-3.1302696175724267,1.047586560437083
1782968834248753700,3.616753662109375,-0.22341478763222694,-3.304232976554334,1.1313139143072068
1782968834258680800,3.626680908203125,-0.009086392775177955,-3.6208623467177152,1.210579393397644
1782968834268607000,3.63660693359375,0.27576982876956463,-3.9704698573753237,1.3616922573417425
1782968834278532900,3.646532958984375,0.5888853455930948,-4.251005000850558,1.450700620354712
1782968834288459800,3.656459716796875,0.8775216701984405,-4.528248117043078,1.4772519426718353
1782968834298386000,3.666385986328125,1.1038140590935945,-4.830777065661549,1.460974761609733
1782968834308312000,3.67631201171875,1.2208078688800335,-5.166307243388891,1.368227065937966
1782968834318237700,3.68623779296875,1.1268395453721285,-5.38729334256947,1.3344962073802946
1782968834328164900,3.696164794921875,0.664027972599864,-5.2244104727894065,1.5197034294322131
1782968834338091000,3.706091064453125,-0.043974166283011436,-4.835714814324676,1.874066317923367
1782968834348016600,3.7160166015625,-0.741485306289792,-4.456780671417713,2.306051667538285
1782968834357943800,3.72594384765625,-1.413933901232481,-4.382268743529916,2.692291457283497
1782968834367870000,3.735869873046875,-1.8228917187422513,-4.365035576917231,2.9010554960116743
1782968834377795800,3.7457958984375,-1.6639198849260806,-4.115276095455885,2.9881077565208076
1782968834387723000,3.755722900390625,-1.1273059938400982,-3.7365979731366035,2.940953791157901
1782968834397649000,3.76564892578125,-0.4368196379035711,-3.536620467454195,2.881805436618626
1782968834407574800,3.77557470703125,0.10382277804613113,-3.5525481044262643,2.798027375474572
1782968834417502000,3.785501953125,0.41448914815187454,-3.759209910178184,2.542501585571468
1782968834427427800,3.795427734375,0.4599439083814621,-3.8618539998337624,2.3075157487414777
1782968834437353700,3.805353759765625,0.33235213221311566,-3.8421918525084853,2.028887754061818
1782968834447279900,3.81527978515625,0.016263737058639524,-3.757062084494531,1.69145817245394
1782968834457207000,3.82520703125,-0.41071079865694043,-3.572057107016444,1.5331467022426426
1782968834467133000,3.8351328125,-0.9360802421510219,-3.228909440022707,1.6008244001962244
1782968834477058800,3.845058837890625,-1.4174217433482408,-2.6810250901207326,1.7268005578614771
1782968834486986000,3.854986083984375,-1.6798136196285485,-2.0492270699962973,1.7668318317376077
1782968834496912000,3.864911865234375,-1.7348130377948283,-1.4491973761849104,1.7249796260446308
1782968834506837800,3.874837646484375,-1.675642471423745,-0.8762985581442713,1.695028578286618
1782968834516765000,3.884764892578125,-1.4777064084410667,-0.45419856966249644,1.5356728597193956
1782968834526691000,3.894691162109375,-1.0575830537945032,-0.286905993681401,1.3313479724824429
1782968834536616700,3.90461669921875,-0.49133741003274917,-0.26140301137343047,1.313370417243242
1782968834546542800,3.91454296875,0.10146773935258388,-0.14085150910541414,1.430074158041924
1782968834556470000,3.924469970703125,0.5083692088544368,0.05035027718618512,1.4686018954873084
1782968834566395600,3.934395751953125,0.6983966906696557,0.2586554662309587,1.3589075950592755
1782968834576321800,3.94432177734375,0.6099567751944065,0.4657654541417956,1.1010407949879766
1782968834586249000,3.9542490234375,0.2471452073097229,0.653767713739723,0.6451601905226707
1782968834596174800,3.9641748046875,-0.07818506344258785,0.7086332763932645,0.0990867625001818
1782968834606100700,3.974100830078125,-0.2825549588650465,0.6693532592758535,-0.5308029397848993
1782968834616028000,3.98402783203125,-0.41038755805194377,0.6552722730837762,-1.1320695549800992
1782968834625953800,3.993953857421875,-0.4446405407875776,0.655425710079819,-1.529340149566531
1782968834635879000,4.00387890625,-0.4148088816255331,0.7693414275951683,-1.7634464270830152
1782968834645804800,4.0138046875,-0.4762538226693868,0.9422507474794983,-1.7848957500860094
1782968834655731000,4.02373095703125,-0.6786743375897407,1.1844693120419978,-1.4080305224075913
1782968834665657900,4.033657958984375,-1.1245178244262932,1.618004813708365,-0.529990819684416
1782968834675583700,4.043583740234375,-1.7103087111353874,2.331321571742743,0.446402289763093
1782968834685510000,4.053510009765625,-2.039101689562201,3.04190890481323,1.2115682583045213
1782968834695437000,4.06343701171875,-2.029544172143936,3.551113103187084,1.7474857646241784
1782968834705362700,4.07336279296875,-1.6234201167553661,3.8732209047615527,1.9120408054001627
1782968834715288800,4.083288818359375,-1.1926993802487849,3.928718920099735,1.713738247192651
1782968834725215000,4.093215087890625,-0.49757718120515343,3.730183722180128,1.1923070199303327
1782968834735141600,4.1031416015625,0.25704876168668267,3.36984175927937,0.5612764039818197
1782968834745067800,4.11306787109375,0.7809241672307252,3.0614696375906467,-0.14810754464827477
1782968834754994200,4.122994140625,1.2199269943922757,2.9290017798185346,-0.7437066356010734
1782968834764921000,4.132921142578125,1.533760304096341,2.934275628568232,-1.0723301757451147
1782968834774847000,4.142846923828125,1.7298802575677632,3.003489742308855,-1.1730414707072079
1782968834784773000,4.152773193359375,1.8596002779364584,3.1280396665632724,-1.1195591060403733
1782968834794700000,4.162699951171875,1.8761112677544354,3.2802465362891553,-0.8900168485037981
1782968834804626000,4.1726259765625,1.6001877097278832,3.4564480295866726,-0.5375923807293176
1782968834814552000,4.182552001953125,1.1246896738618612,3.6323218983650207,-0.2847853482656181
1782968834824479000,4.19247900390625,0.5352899490058421,3.716715753319859,-0.19388035785108804
1782968834834405000,4.202405029296875,-0.12692659025788305,3.7054224981501696,-0.15815890999808907
1782968834844331000,4.2123310546875,-0.7297896077990531,3.6543291475117203,-0.14729732424393296
1782968834854258200,4.222258056640625,-1.1218073964238167,3.695652799285948,-0.1782363601259887
1782968834864184000,4.23218408203125,-1.117837908270955,3.7727526978403327,-0.26040873963907357
1782968834874110000,4.24210986328125,-0.6049602820813655,3.7782419429063796,-0.37325361305251714
1782968834884036000,4.2520361328125,0.18377017498612402,3.6768957841068506,-0.4332231477815658
1782968834893963000,4.261962890625,0.9530915827065706,3.5309500206023454,-0.3802208947818726
1782968834903889200,4.27188916015625,1.4804899016797541,3.4088568418502807,-0.33379663193300363
1782968834913815000,4.28181494140625,1.6676497191041706,3.3926930580347774,-0.305992021619156
1782968834923742000,4.291741943359375,1.4910738395363092,3.414375897532701,-0.4670803361326456
1782968834933668000,4.301668212890625,1.008500166195631,3.2930046033143996,-0.6965342577986419
1782968834943594200,4.31159423828125,0.4390478353470564,3.063668024417758,-0.8749840414796024
1782968834953521000,4.32152099609375,-0.1319838736474514,2.8666531679332254,-0.9606820378355682
1782968834963447000,4.331447021484375,-0.6730588357955217,2.796981665813923,-1.0716526418097316
1782968834973373200,4.341373291015625,-1.0129717586517333,2.712854352840781,-1.2988653604201972
1782968834983300000,4.351300048828125,-1.1047159763693808,2.541438047993183,-1.5590050738595425
1782968834993226000,4.36122607421875,-1.0534943231761456,2.3861083700716494,-1.828970161873102
1782968835003152100,4.371152099609375,-0.9092337362796068,2.1892093950517473,-2.0800037549234927
1782968835013078300,4.381078369140625,-0.6514438008368015,2.019260386277735,-2.228851815740764
1782968835023005000,4.3910048828125,-0.34105917028188704,1.8284272871680556,-2.3028924728550018
1782968835032931000,4.40093115234375,-0.012348609441518783,1.6306591280981897,-2.2106971503689885
1782968835042857200,4.410857177734375,0.13768939181268214,1.3954983730927109,-1.9520567355766891
1782968835052784000,4.4207841796875,0.07526420755982399,1.26053416846022,-1.5550814706750213
1782968835062710000,4.4307099609375,-0.23441548959612846,1.2597636224791406,-1.1431729866661131
1782968835072636200,4.44063623046875,-0.677881141385436,1.245937926222384,-0.8668109641570597
1782968835082563000,4.45056298828125,-1.16001525426507,1.1155036201044917,-0.7613553242120892
1782968835092489000,4.460489013671875,-1.571228741747141,0.8906365878373383,-0.7281395755697041
1782968835102415000,4.4704150390625,-1.9413176071584224,0.7061907055467367,-0.7326071494378149
1782968835112342000,4.480342041015625,-2.1585119128406047,0.49518400245830413,-0.7020221876904368
1782968835122268200,4.49026806640625,-2.084996594774723,0.24235782690271734,-0.5864998386960476
1782968835132194000,4.500194091796875,-1.7463596832036972,-0.06564648438692093,-0.4207200784306973
1782968835142120200,4.5101201171875,-1.1996943537026643,-0.3622818449221551,-0.33770262639559806
1782968835152047000,4.520047119140625,-0.6151590200126171,-0.6574667143881321,-0.237085658653453
1782968835161973000,4.529972900390625,-0.06850362738370895,-0.9744232706792652,-0.1566002093140036
1782968835171899100,4.539899169921875,0.42910161087214943,-1.2603474137164652,-0.03883475756794214
1782968835181826000,4.549825927734375,0.779585612103343,-1.4861737925350664,0.16905520173944533
1782968835191752200,4.559752197265625,1.0209797085404395,-1.6688872980751097,0.4837572571020573
1782968835201678000,4.569677978515625,1.1763456268191337,-1.7467932523153722,0.8399065175533295
1782968835211605000,4.57960498046875,1.3522867156147955,-1.7978794425606726,1.1212851991806179
1782968835221531100,4.58953125,1.4437380878657102,-1.907023561760038,1.2773895878016948
1782968835231457000,4.59945703125,1.3367699975311755,-2.1571657589286564,1.3626549648940562
1782968835241384000,4.609384033203125,1.3070862224072217,-2.5255904905200004,1.3457011997446418
1782968835251310000,4.61931005859375,1.3725719632744788,-2.8731074586391445,1.3150608545482159
1782968835261236200,4.629236328125,1.668523579329252,-3.1712852263107894,1.3411366683080792
1782968835271162000,4.639162109375,1.9413409880340098,-3.5116409244984386,1.4164119817838072
1782968835281089000,4.649089111328125,1.9912007052242755,-3.71542805159688,1.4081433351323007
1782968835291015200,4.65901513671875,1.792761368894577,-3.9364389929577706,1.2620609396360813
1782968835300941000,4.668941162109375,1.3990963975846766,-4.21793392137587,1.1632958103056996
1782968835310868000,4.678867919921875,0.8756535382390022,-4.661591880866885,1.0222966363579034
1782968835320794000,4.688794189453125,0.17642215031087397,-4.943807232514024,0.8327925208296626
1782968835330720300,4.69872021484375,-0.508090976434946,-4.952358787760138,0.7185652531471103
1782968835340647200,4.708647216796875,-0.9773930802702904,-4.896726624648273,0.8493846130598336
1782968835350573000,4.718572998046875,-1.0186001199275254,-4.719240059976279,1.1679388138059525
1782968835360499200,4.728499267578125,-0.728221335569024,-4.561952233724296,1.4817477927863596
1782968835370425000,4.738425048828125,-0.4164496345698833,-4.6078334026724095,1.685280945123732
1782968835380352000,4.74835205078125,-0.04693009347915649,-4.770532148057222,1.9424318520106374
1782968835390278100,4.758278076171875,0.11354513063728809,-4.884140407058596,2.297811516328901
1782968835400204300,4.768204345703125,0.1735404573947191,-4.723474921067059,2.646981073960662
1782968835410131200,4.778131103515625,-0.1193482639580965,-4.385208304113149,2.870585246685147
1782968835420057000,4.78805712890625,-0.6206774911731481,-4.018821800351143,2.8230720926210284
1782968835429983200,4.797983154296875,-1.1775409740835427,-3.7932647399932145,2.5615494003906845
1782968835439910100,4.80791015625,-1.650013524648547,-3.5985935240253806,2.1680571552991865
1782968835449836000,4.8178359375,-1.9049124148249625,-3.3247342050522564,1.7398459173955023
1782968835459762200,4.82776220703125,-1.9195564417272806,-3.0877398048788307,1.3513511883303522
1782968835469689000,4.837689208984375,-1.5850000774681567,-2.890949404799938,1.1173053357642144
1782968835479615200,4.847615234375,-1.0545821184128523,-2.6803020365431904,0.9528754557378589
1782968835489541000,4.857541015625,-0.5199135161757469,-2.415961656543612,0.8481593821138143
1782968835499468000,4.867468017578125,-0.08995791882276534,-2.08597157728672,0.867426246511191
1782968835509394200,4.877394287109375,0.12718845606446266,-1.6467951471239328,1.0804472850967197
1782968835519320000,4.887320068359375,0.25520634869039055,-1.140543514945358,1.302978787088394
1782968835529246200,4.89724609375,0.34154666153788565,-0.7604084718160331,1.4220758527643977
1782968835539173000,4.907173095703125,0.36271161464154716,-0.5453105538912117,1.416059807345271
1782968835549099300,4.917099365234375,0.20768822619020938,-0.38099765130802987,1.292508538739383
1782968835559025200,4.927025146484375,-0.10698387242555618,-0.20098054524511097,1.0124280802290886
1782968835568952000,4.9369521484375,-0.4749439091145992,-0.030517303338646887,0.5206964101817458
1782968835578878200,4.946878173828125,-0.8843307656913996,0.11187471320703625,-0.06036291796080768
1782968835588804000,4.95680419921875,-1.3405600374639033,0.2312450428664684,-0.6504527439728379
1782968835598731000,4.96673095703125,-1.79038704097867,0.31067616084739563,-1.209775310473144
1782968835608657200,4.9766572265625,-2.366690552896261,0.3852056243918836,-1.5993746397793291
1782968835618583300,4.986583251953125,-2.8537942708820103,0.5459961980678141,-1.6894386493250726
1782968835628510000,4.996510009765625,-3.0549755993962284,0.8483170568935573,-1.4574990483231842
1782968835638436000,5.00643603515625,-2.903077649489045,1.2545439881347118,-0.9830872733239084
1782968835648362200,5.0163623046875,-2.5244582716196775,1.671897731937468,-0.38298626784197987
1782968835658289200,5.0262890625,-2.1478373740911483,2.1406606143295765,0.3321954072814435
1782968835668215000,5.036215087890625,-1.8051935649663209,2.6225252626180646,0.9407434847217052
1782968835678141200,5.04614111328125,-1.420304605308175,2.9413910135313865,1.2717182641670106
1782968835688067000,5.056067138671875,-0.86864512078166,3.032511254131794,1.3926533589251338
1782968835697994000,5.065993896484375,-0.2504956867814064,2.9227693151697514,1.304483930954337
1782968835707920100,5.075920166015625,0.2998299187928438,2.823794561676681,1.1403424394153059
1782968835717846300,5.08584619140625,0.6553899081140756,2.7578379884272812,0.9517587266676127
1782968835727773200,5.095773193359375,0.8538128778308629,2.717785379502177,0.7840213295284658
1782968835737699000,5.105698974609375,0.9295242446362971,2.7198358822911977,0.6292537424691022
1782968835747625200,5.115625244140625,0.9432955803573131,2.759090326575935,0.4694768758803606
1782968835757552400,5.125552490234375,0.9221282891660928,2.8025217642843723,0.3033613077893853
1782968835767478500,5.135478515625,0.9758832602292299,2.887543395748734,0.11673720467686652
1782968835777404400,5.145404296875,1.183288577824831,2.9876234801352024,-0.005023746446147561
1782968835787331300,5.155331298828125,1.4114432534605263,3.1383132232964037,-0.07589249552600086
1782968835797257500,5.165257568359375,1.6113006398946046,3.2950416620999574,-0.2294559674926102
1782968835807183400,5.175183349609375,1.6108330223828553,3.41329628560245,-0.4671824813328683
1782968835817109200,5.185109130859375,1.2719494425743818,3.4795801911100743,-0.5747379431013018
1782968835827036400,5.195036376953125,0.6342021586567164,3.5606329189434645,-0.43302937877513464
1782968835836962600,5.204962646484375,-0.049665655922889705,3.6736592864036557,-0.1860619391851127
1782968835846888200,5.21488818359375,-0.6376368092805147,3.846214824414253,0.03655921385139227
1782968835856815400,5.2248154296875,-1.014319081607461,4.04821068418175,0.10110146332345903
1782968835866741500,5.234741455078125,-1.1093179172068834,4.260569824792444,0.03752740129642188
1782968835876667100,5.244667236328125,-0.7652016974419354,4.483787920808792,-0.06495528725236654
1782968835886594300,5.25459423828125,0.033904607689380646,4.587522143788635,-0.29076098860912025
1782968835896520400,5.2645205078125,0.8116717721939086,4.378984315031767,-0.5532817519661039
1782968835906446300,5.2744462890625,1.3946394181758164,4.100328993953764,-0.8580090143464505
1782968835916372200,5.284372314453125,1.8132517837375401,3.8297605332195754,-1.137001896815747
1782968835926299400,5.29429931640625,1.9150690671801567,3.6203877149432895,-1.3942163704581558
1782968835936225500,5.3042255859375,1.739371724012494,3.514279164047539,-1.5859131006598473
1782968835946151200,5.314151123046875,1.1443372081398964,3.4554116722762585,-1.5975427481770514
1782968835956078300,5.324078369140625,0.35480537156164643,3.3863945424124595,-1.423328775434941
1782968835966004500,5.33400439453125,-0.3049409781962633,3.382064988775551,-1.281893036700785
1782968835975930400,5.343930419921875,-0.7306137836635113,3.38216932593286,-1.2501973372325301
1782968835985857300,5.353857177734375,-0.9570885433882474,3.2932319823294876,-1.2149730252467095
1782968835995783400,5.363783447265625,-0.9102227473169565,3.101166857206821,-1.1583543353155255
1782968836005709300,5.373709228515625,-0.6421855586260556,2.9285262712612745,-1.067408647564426
1782968836015636500,5.383636474609375,-0.28895605807900426,2.766535089623928,-0.9235663591451942
1782968836025562400,5.393562255859375,0.05378244359195232,2.622953132641315,-0.7365048144634813
1782968836035488300,5.40348828125,0.39397476791143415,2.492121351638436,-0.6219995335571468
1782968836045415400,5.41341552734375,0.7447364170402287,2.2062327183060346,-0.6292416136398911
1782968836055341300,5.42334130859375,1.057003208079934,1.780836245562136,-0.6233942758511751
1782968836065267200,5.43326708984375,1.2831617414623497,1.3338139242045581,-0.5512083797581494
1782968836075193300,5.443193359375,1.2508067013025284,0.8549526955157518,-0.5152450129080564
1782968836085120500,5.45312060546875,0.8884288486599922,0.479533136601001,-0.5053325445722788
1782968836095046400,5.46304638671875,0.3685626787573099,0.10303425801694392,-0.5036970888575538
1782968836104972300,5.47297216796875,-0.11488076315522193,-0.267203075954318,-0.501916781312041
1782968836114899500,5.4828994140625,-0.6283277136653661,-0.6466029366768896,-0.4462039541793987
1782968836124825300,5.492825439453125,-1.1885469367444514,-0.9435882796935736,-0.4288286026170477
1782968836134751200,5.502751220703125,-1.6424077258199452,-1.1661670548930763,-0.3927559301735833
1782968836144678400,5.512678466796875,-1.9031635253310202,-1.440180103123188,-0.25993355987537653
1782968836154604500,5.5226044921875,-1.968110921537876,-1.7769367539055645,-0.10708097612448036
1782968836164530200,5.5325302734375,-1.7914912028282879,-2.1019531364031137,0.033882067064009605
1782968836174457300,5.542457275390625,-1.5690280168324708,-2.376704143518954,0.17283431841935962
1782968836184383500,5.552383544921875,-1.3916139328747987,-2.643373989379406,0.3099039708985016
1782968836194309000,5.56230908203125,-1.2527362080603837,-2.8496698844283816,0.46958720438703894
1782968836204235300,5.5722353515625,-1.0823182666003703,-2.9704055110916494,0.6273899944238365
1782968836214162400,5.582162353515625,-0.9979863709658384,-3.091241383258998,0.8082601371195167
1782968836224088300,5.59208837890625,-0.806646637508273,-3.265897108419239,0.9867235109344125
1782968836234014200,5.60201416015625,-0.48268122536838054,-3.413526294966042,1.2015895197995006
1782968836243941400,5.61194140625,-0.15810264976620672,-3.6201959917634725,1.3500361602090298
1782968836253867300,5.6218671875,0.1154442422568798,-3.7877345783948897,1.3753534106865524
1782968836263793400,5.63179345703125,0.4399515061885118,-4.029069638121128,1.3018268405742943
1782968836273720300,5.64172021484375,0.8288859418451786,-4.377257052847742,1.1774287458807229
1782968836283646500,5.651646484375,1.2156518012911082,-4.7110152524665,1.0114584314793347
1782968836293572400,5.661572265625,1.5642156481146812,-4.933908938834071,0.8139699661336839
1782968836303499500,5.67149951171875,1.811849515724182,-4.967736974155903,0.6727595605880021
1782968836313425400,5.68142529296875,1.684669242966175,-4.860001406580209,0.5551225209945813
1782968836323351300,5.691351318359375,1.098182775208354,-4.827332478165626,0.558250261093676
1782968836333277400,5.70127734375,0.1008610056310892,-4.780134673660993,0.9859869402881711
1782968836343204400,5.711204345703125,-0.8451204528093338,-4.49668802665323,1.4129653484612703
1782968836353130200,5.721130126953125,-1.431567173078656,-4.128659308642149,1.7402387161053716
1782968836363056400,5.731056396484375,-1.466329274380207,-3.811152278861403,1.8440173627488314
1782968836372983600,5.740983642578125,-1.124732928481698,-3.6294668011948463,1.8631107702754437
1782968836382909200,5.7509091796875,-0.534991842842102,-3.6365354244068264,1.8092092303484677
1782968836392835300,5.76083544921875,0.036142742004990576,-3.793042037153244,1.6822107438981533
1782968836402762500,5.770762451171875,0.4741127189874649,-3.9145886879384517,1.5559389642871915
1782968836412688100,5.780688232421875,0.7745885344684124,-3.9083541774630546,1.3881731447711587
1782968836422614300,5.7906142578125,0.9244307208895682,-3.8513694306984543,1.258884501557052
1782968836432541400,5.80054150390625,0.8846013993263244,-3.7418276904836296,1.1573214851364493
1782968836442467300,5.81046728515625,0.7828893298238515,-3.5951673489689826,1.0234094199053942
1782968836452393200,5.820393310546875,0.6562082387596369,-3.378152199245989,1.0269167704392224
1782968836462319400,5.8303193359375,0.277581846627593,-3.106601157215237,1.2691148036703466
1782968836472246500,5.84024658203125,-0.32943887511491776,-2.6583070623561738,1.527708748972416
1782968836482172200,5.850172119140625,-0.8020330062329769,-2.1298186100587246,1.7007503169342875
1782968836492098300,5.860098388671875,-1.1857687042027711,-1.5392948496088386,1.828142478877306
1782968836502025500,5.870025390625,-1.5151397747784852,-1.0431873025648295,1.8387554966978727
1782968836511951400,5.879951416015625,-1.6731196749478578,-0.8001660433173179,1.693413982696831
1782968836521877200,5.889877197265625,-1.6163526625871658,-0.7668975415743887,1.491531958567351
1782968836531804400,5.899804443359375,-1.2929858008623123,-0.8210038833584636,1.2874205679506063
1782968836541730300,5.909730224609375,-0.7781143705070018,-0.8895084605902432,1.0542096318386494
1782968836551656200,5.91965625,-0.30098785665631295,-0.9289420608341693,0.8546366153039038
1782968836561583400,5.929583251953125,0.1096148054510355,-0.9028449120253323,0.6555357463255524
1782968836571509200,5.93950927734375,0.40083179419934745,-0.8706077991567551,0.4820261955257505
1782968836581435400,5.949435302734375,0.5663356601327657,-0.8538615392781793,0.42059970345403996
1782968836591361300,5.959361328125,0.22959669113755224,-0.7813428310342132,0.6337124754436314
1782968836601288200,5.9692880859375,-0.7222936990857124,-0.2822260191716254,0.8415794922668486
1782968836611214300,5.97921435546875,-1.8102005794733762,0.4702257945515215,0.8552818544048816
1782968836621140200,5.98914013671875,-2.9444670599758624,1.0641580482706428,0.7118807338818908
1782968836631067400,5.9990673828125,-3.8396851303845643,1.4959779781907796,0.4986306357808411
1782968836640993300,6.0089931640625,-4.1751667927950615,1.7364982144027947,0.2343374559238553
1782968836650919400,6.01891943359375,-3.892037833434343,1.8211741011694074,0.014035247354209423
1782968836660846300,6.028846435546875,-3.1046763266324997,1.8733979171425104,-0.2030431768633425
1782968836670772200,6.038772216796875,-2.029407978543639,1.9639286674171685,-0.386260028815642
1782968836680698400,6.048698486328125,-0.857052298143506,2.0298625904433427,-0.5418356443222612
1782968836690625500,6.05862548828125,0.2648223182976246,2.072165900904685,-0.6769917913302779
1782968836700551200,6.06855126953125,1.1975520809769629,2.149378466053307,-0.6862036371160298
1782968836710477300,6.078477294921875,1.8672522539943455,2.222649892360717,-0.5795594449736178
1782968836720403500,6.088403564453125,2.2372189543306824,2.2957912625476715,-0.2952797812078148
1782968836730330400,6.098330322265625,2.196868239241838,2.487826869314909,0.14002799082808196
1782968836740256300,6.10825634765625,1.6360060420840978,2.907609447699785,0.7795801322106272
1782968836750182400,6.118182373046875,0.7601245403081178,3.5059485580757257,1.2937171838767825
1782968836760109300,6.128109375,-0.0727846657037735,3.994340854567289,1.3989048205353318
1782968836770035500,6.138035400390625,-0.6591144815951585,4.260856825040281,1.3222032736487686
1782968836779961300,6.14796142578125,-0.6818173117905855,4.407154762983322,1.0419771961227058
1782968836789888300,6.15788818359375,-0.21069559131264684,4.307786041736603,0.6028022272646427
1782968836799814400,6.167814453125,0.4412912303596735,4.157552225649357,0.16936916305944322
1782968836809740300,6.177740234375,0.977345149475336,4.06412692297697,-0.18733137459903954
1782968836819667500,6.18766748046875,1.258634618449211,3.9879432624846696,-0.5238245521396399
1782968836829593300,6.19759326171875,1.328715870413184,3.8724344305589793,-0.8386728841051458
1782968836839519500,6.20751953125,1.2598480858922003,3.784701494309306,-1.0401355137787758
1782968836849445400,6.2174453125,1.0793091479122638,3.7530326828479765,-1.0714214634023607
1782968836859372300,6.227372314453125,0.6734703392058611,3.8367160514459013,-0.9214236480280756
1782968836869298400,6.23729833984375,0.10207856472730636,3.990018607454002,-0.7265742990143597
1782968836879224300,6.247224365234375,-0.3692576752841472,4.216224487109482,-0.5814290382377802
1782968836889151200,6.257151123046875,-0.611996172067523,4.389891785754263,-0.5295717174895107
1782968836899077400,6.267077392578125,-0.569748098924756,4.4352778646618125,-0.536353486584127
1782968836909003500,6.27700341796875,-0.2884966238737106,4.32737337026,-0.5682600523240864
1782968836918930200,6.28693017578125,0.20273615674078463,4.129690405255556,-0.6855814866296946
1782968836928856300,6.296856201171875,0.7473316942304372,3.9695562496617436,-0.8011782890997826
1782968836938782500,6.306782470703125,1.2692623954474924,3.810255622282624,-0.852762784256041
1782968836948709400,6.31670947265625,1.5495616843402384,3.596370879539847,-0.9153359986774623
1782968836958635300,6.32663525390625,1.5103046097069979,3.4165748688817024,-1.0321465608514844
1782968836968561400,6.3365615234375,1.1612824977219105,3.209220404690504,-1.2411648666016757
1782968836978488300,6.34648828125,0.6815063461452722,3.0007851595252752,-1.4078634952776132
1782968836988414200,6.356414306640625,0.2678197465479374,2.833604300290346,-1.484572787079215
1782968836998340400,6.36634033203125,0.062252750295400616,2.704648834553361,-1.489173851133883
1782968837008266500,6.3762666015625,-0.07057751104831696,2.579364750805497,-1.3923011844865978
1782968837018193400,6.386193359375,-0.23832886364758013,2.50652134065181,-1.2111993519268929
1782968837028119300,6.396119384765625,-0.3495084341973066,2.4743156458348032,-1.0574326855383813
1782968837038045400,6.40604541015625,-0.603855535709858,2.436274376732111,-0.9185922239944339
1782968837047972400,6.415972412109375,-0.7683774048686027,2.3260538604728875,-0.8725060339935123
1782968837057898200,6.425898193359375,-0.6317489202857017,2.1173089648365973,-0.8779406993281096
1782968837067824400,6.435824462890625,-0.28771511810719963,1.7991159986183045,-0.7514567382711916
1782968837077751300,6.445751220703125,0.08276128531694411,1.5035602500133216,-0.6175117206186056
1782968837087677400,6.455677490234375,0.504293922239542,1.2189309690922498,-0.6540424390278756
1782968837097603300,6.465603271484375,0.8747223948687315,0.8391424013130366,-0.765480514383316
1782968837107530200,6.4755302734375,1.111558389610052,0.4740415534473955,-0.9110043992139398
1782968837117456400,6.485456298828125,1.1905460016071796,0.10203516397699713,-0.9046670859511942
1782968837127382300,6.49538232421875,1.2051876904219387,-0.1762770427517593,-0.7164510374721139
1782968837137308400,6.505308349609375,0.9687246206462383,-0.362452671444416,-0.35912133506461974
1782968837147235300,6.5152353515625,0.7202332594245672,-0.4499390855871141,0.028536723980680107
1782968837157161500,6.525161376953125,0.5440823272705078,-0.6790547152094543,0.3201145088654011
1782968837167087400,6.53508740234375,0.2806231140196323,-1.0258500910557806,0.4821228608332574
1782968837177014300,6.54501416015625,-0.09164309543073176,-1.317004535961896,0.5053571675568819
1782968837186940400,6.5549404296875,-0.5620943693011998,-1.508364289294183,0.5021200853317975
1782968837196866600,6.564866455078125,-0.9667506902247667,-1.6706380872651934,0.4807373978242278
1782968837206793200,6.574793212890625,-1.3218804714351893,-1.842872138236463,0.560341461219266
1782968837216719400,6.58471923828125,-1.5302087490946052,-2.2300800423614677,0.5736082814842463
1782968837226645500,6.5946455078125,-1.5431179150283336,-2.8244071406170725,0.4500722835127264
1782968837236572400,6.604572509765625,-1.602937300696969,-3.466600590288639,0.264813112077862
1782968837246498300,6.614498291015625,-1.8587047904014586,-4.129381777697802,0.0957897667814046
1782968837256424400,6.624424560546875,-2.079675692012906,-4.608566977643966,0.06381568876318633
1782968837266350600,6.6343505859375,-2.0597212837427854,-4.539058264870941,-0.06342964858766645
1782968837276277200,6.64427734375,-1.7861621167600155,-4.12584132861197,0.004142360501736402
1782968837286203400,6.654203369140625,-1.2335229735463857,-4.58575133472383,0.8145278922773898
1782968837296129500,6.664129638671875,-0.6098211661159992,-5.515428724095225,1.6191612902671098
1782968837306056400,6.674056396484375,0.1761164453625679,-5.5481087584257125,1.4989885581836104
1782968837315982300,6.683982421875,0.7961527160227299,-5.187744583693147,1.2524911472581326
1782968837325908500,6.693908447265625,1.201155073904991,-5.088320917388796,1.7406985887020825
1782968837335835400,6.70383544921875,1.5108663352429865,-4.788723346047103,2.543545833927393
1782968837345761300,6.71376123046875,1.1762661318421364,-2.6681474883690477,4.03380192734003
1782968837355687400,6.7236875,-0.6036895314931869,-2.8450632674157617,4.069044797895849
1782968837365614300,6.7336142578125,-1.5342425346553326,-5.427185207974911,2.8674717908397316
1782968837375540500,6.74354052734375,-1.4213392090529202,-5.728248467954993,3.358938672471046
1782968837385466400,6.75346630859375,-0.9646078329771757,-4.201824790357053,2.7847753874525427
1782968837395393300,6.763393310546875,-1.037623969349265,-3.7859663996785877,2.336488452986628
1782968837405319400,6.7733193359375,-1.1386591625034808,-3.8854970334887504,2.390208206605911
1782968837415245300,6.783245361328125,-0.9945178180724382,-3.6547996876329183,2.17613495555371
1782968837425171500,6.79317138671875,-0.46542497014105316,-2.7474679855823516,1.641820573581755
1782968837435098400,6.803098388671875,0.0764355894267559,-2.411984423475712,2.0312240880548953
1782968837445024500,6.8130244140625,0.2658569220423698,-2.8742665655463933,1.7643004135638474
1782968837454950400,6.822950439453125,0.10919862586557864,-3.501493332232535,1.4643264101251958
1782968837464877300,6.832877197265625,0.07238543725311755,-3.6155090029910206,0.8611681359644979
1782968837474803500,6.842803466796875,0.13869126233160495,-3.208587367483973,0.17659456600202247
1782968837484729300,6.852729248046875,0.3454781557679176,-2.8458094096079467,0.42524398559592663
1782968837494656300,6.86265625,0.967279682534933,-2.2575360584333537,0.4923596657525748
1782968837504582400,6.87258251953125,1.8674685270935296,-1.7851264901019632,0.38397396370507775
1782968837514508500,6.882508544921875,2.1912007149994372,-1.757746900267154,0.31491646529827266
1782968837524434400,6.892434326171875,1.7876088084369897,-2.0042979410760102,0.31304179400019344
1782968837534361300,6.902361328125,1.1831716734468936,-2.104141878619045,0.3561300808267668
1782968837544287500,6.91228759765625,0.28299568836987016,-1.8232165667824447,0.4759147269081324
1782968837554213400,6.92221337890625,-0.3585626782685518,-1.028514341828972,0.6662083123136311
1782968837564140300,6.932140380859375,-0.24677578947544096,-0.5316607987232506,1.0263786449745296
1782968837574066400,6.94206640625,-0.11452595836818218,0.045035511904209846,1.5919139485098421
1782968837583992600,6.95199267578125,0.2125929493665695,0.08927724308222532,1.7599346195697783
1782968837593919200,6.961919189453125,0.21524960135519502,0.189163850723207,1.9251815881326793
1782968837603845400,6.971845458984375,0.03305062120854854,0.2199304526478052,1.8925294647224247
1782968837613771500,6.981771484375,-0.23007716813087462,-0.09386793187335132,1.5321870634302497
1782968837623698400,6.991698486328125,-0.38157004436850545,0.02381166822016239,1.3214812429845333
1782968837633624300,7.001624267578125,-0.7946937493860721,-0.0558257859878242,1.2865975611299276
1782968837643550500,7.011550537109375,-1.3735364243924617,0.28194179540276526,0.3797158678691834
1782968837653476400,7.021476318359375,-1.694943384221196,1.088583756735921,-0.7512574893720447
1782968837663403500,7.031403564453125,-2.14306007668674,1.3973866710573435,-1.0465531988013534
1782968837673329400,7.041329345703125,-2.4661153882443902,1.3096983046017587,-0.7649982838243246
1782968837683255600,7.051255615234375,-2.4056401690155265,1.5704644793763756,-0.48061103149820117
1782968837693182500,7.061182373046875,-2.2448341055095193,2.0437085988357664,-0.39673257871959355
1782968837703108400,7.0711083984375,-2.241259754154086,2.337175850728899,-0.19101134175341575
1782968837713034500,7.081034423828125,-2.321788750374317,2.517819271996617,0.18281632659370078
1782968837722961400,7.09096142578125,-2.345981526866555,2.7006331691712138,0.5034561562411487
1782968837732887600,7.100887451171875,-2.2036399253338574,2.7233757468551394,0.5946122353399172
1782968837742813400,7.1108134765625,-1.8715531660586595,2.741417014980316,0.4083713959239423
1782968837752740000,7.120739990234375,-1.25235159265697,2.7626059334814546,0.10357035592133179
1782968837762666200,7.130666259765625,-0.5528127462148666,2.7061583623334764,-0.11865478353491052
1782968837772592000,7.140592041015625,0.014045476487278937,2.66510212932378,-0.07045436872583813
1782968837782519000,7.15051904296875,0.35907062779068943,2.8283082397088406,0.1533868002254516
1782968837792445200,7.160445068359375,0.5222673858255148,3.1493723774492737,0.29767025654092427
1782968837802371000,7.17037109375,0.4991933842301368,3.4304739226356147,0.14079643618362023
1782968837812297200,7.180297119140625,0.38823593199849127,3.6910610875815153,-0.13967399889179505
1782968837822224100,7.19022412109375,0.42363107050657267,3.82990198751688,-0.2812865098318085
1782968837832150300,7.200150390625,0.3920025910556316,3.8119390453249213,-0.26949440176188943
1782968837842076200,7.210076171875,0.3366922072440386,3.660561027638614,-0.34391945508383215
1782968837852003000,7.220003173828125,0.3166103732019663,3.485412258264422,-0.5239783909944817
1782968837861929200,7.22992919921875,0.2541068630158901,3.366327905939519,-0.8006628869235515
1782968837871855400,7.23985546875,0.030396307307481763,3.3010201519876716,-1.0693502100862562
1782968837881782000,7.249781982421875,-0.3306359759449959,3.191942522153258,-1.0880602443184704
1782968837891708200,7.259708251953125,-0.7871902418881654,3.1360365105360746,-0.9908061040729284
1782968837901634300,7.26963427734375,-1.0418465554803609,3.2899121902570125,-0.952794718651846
1782968837911561200,7.279561279296875,-0.9966016386091708,3.5730703757122155,-0.8251699169967323
1782968837921487000,7.289487060546875,-0.7947703217536211,3.821391641063988,-0.5658516760081053
1782968837931413200,7.299413330078125,-0.38063480934500693,3.9945869382828474,-0.27778317788597195
1782968837941339100,7.309339111328125,0.15149229171574116,4.035322268775105,-0.17732070658579469
1782968837951266000,7.31926611328125,0.7360363932341337,3.8873970218911764,-0.3804611332785338
1782968837961192200,7.329192138671875,1.3228490242064,3.6483240618780255,-0.8524304835617542
1782968837971118300,7.339118408203125,1.7408458882182836,3.553333117324114,-1.2627327014178036
1782968837981045200,7.349045166015625,1.9521990666568279,3.5041862245783206,-1.621742246671021
1782968837990971100,7.35897119140625,2.0396435413539407,3.423550553113222,-1.8069553139418362
1782968838000897300,7.368897216796875,1.790720802977681,3.2163498181790113,-1.8769018336102365
1782968838010824200,7.37882421875,1.4280577036529778,2.91328866237998,-1.564463339265436
1782968838020750000,7.38875,1.0661275947779416,2.6148507824674248,-1.1033750100892037
1782968838030676200,7.39867626953125,1.1437889266073704,2.8990298354029655,-1.4192495432972907
1782968838040603100,7.40860302734375,0.2795312271296978,2.7638424895390865,-0.7199583149407058
1782968838050529300,7.418529296875,-0.07151508415937423,2.414117782242596,-0.6525592147327959
1782968838060455200,7.428455078125,-0.4682879583567381,2.866599391919374,-0.9002372137449681
1782968838070382000,7.438382080078125,-0.7813485301226377,3.234267167663574,-0.9393984267883002
1782968838080308200,7.44830810546875,-1.0440607243984936,3.110747463239729,-1.2382545321129261
1782968838090234000,7.458234130859375,-1.2515280013144015,2.7059675159364938,-1.5103513714581727
1782968838100160000,7.468159912109375,-1.5070295335590838,2.1179542770028115,-1.8840232099227605
1782968838110087200,7.478087158203125,-1.6777309681355952,1.5777435304686427,-2.2042700399309396
1782968838120013300,7.488013427734375,-1.5808657541424036,1.0877318160817027,-2.4585078358501193
1782968838129939200,7.497939208984375,-0.8681739961385726,0.6222632990598678,-2.5522286143377424
1782968838139866000,7.5078662109375,0.2558849786043167,0.10261603260487318,-2.720851781335473
1782968838149792300,7.517792236328125,1.2762936092585324,-0.3824561795532703,-2.783278719154
1782968838159718100,7.52771826171875,2.0037340235829353,-0.7112251925826072,-2.592617031088471
1782968838169645000,7.53764501953125,2.2143238164335486,-0.9364033366255462,-2.2293105192936955
1782968838179571200,7.5475712890625,2.101755421873927,-1.0491171310052274,-1.6297592566490173
1782968838189497300,7.557497314453125,1.681662462365627,-0.7958161775447428,-0.7644014869749546
1782968838199423000,7.567423095703125,0.9706026894778013,-0.7682515865318477,-0.714210126677528
1782968838209350100,7.57735009765625,-0.0206786308914423,-1.1389112375684083,-0.6877570771031081
1782968838219276300,7.5872763671875,-0.9087626116365194,-1.8032319095045326,-0.022112828413024543
1782968838229202000,7.597201904296875,-1.6740473111867904,-2.3126373295389113,0.549880199894309
1782968838239129000,7.607129150390625,-2.1564538112670184,-2.9064556014895437,0.6737006408303976
1782968838249055200,7.61705517578125,-2.1900731722742317,-3.368058967515826,0.5722605932023376
1782968838258981000,7.626981201171875,-2.1647557756662366,-3.573603167414665,0.749877871581912
1782968838268908300,7.636908203125,-2.470440850228071,-3.35763548091799,0.8073216872256249
1782968838278834200,7.646834228515625,-2.565702136155963,-3.011898966474831,0.7766586187407374
1782968838288760000,7.656760009765625,-1.685493418830633,-3.087855247952044,2.4158903448730706
1782968838298687200,7.666687255859375,-0.7834042936086654,-3.4257390030682084,4.3159228787019845
1782968838308613000,7.676613037109375,-0.38352117843627925,-3.2914123656868934,4.189894406327605
1782968838318539300,7.686539306640625,-0.016114683976769448,-3.0508149725854397,3.1264523973718283
1782968838328466200,7.696466064453125,0.5313157846778631,-3.308714505882561,2.936813914874196
1782968838338392300,7.706392333984375,0.8482564127475023,-3.6188939692541955,3.149745302414894
1782968838348318200,7.716318115234375,1.2895961584240196,-3.8051129986971612,3.369661142015457
1782968838358244000,7.726244140625,1.6693945169448852,-3.889300225163996,3.565978663885593
1782968838368171300,7.736171142578125,1.8750690652251243,-4.005413452723622,3.763999482542276
1782968838378097200,7.74609716796875,1.9098177225232122,-4.111522880402207,3.744210493966937
1782968838388023000,7.75602294921875,1.7083149069696664,-4.008647027817369,3.71658423589468
1782968838397950200,7.7659501953125,1.0124626400858163,-3.9485879881739616,3.5350066025167703
1782968838407876400,7.77587646484375,0.0640402182340622,-4.0157627050414675,3.3421675704121587
1782968838417802000,7.785802001953125,-0.6938491103678941,-3.9556598262563347,3.5613080417260528
1782968838427729200,7.795729248046875,-1.0596914242506026,-3.7806811527520416,3.834150000350177
1782968838437655300,7.8056552734375,-1.1991308746010065,-3.185049255508184,3.8603719445824622
1782968838447581000,7.815580810546875,-1.279720661097765,-2.102942439701408,3.2328923721790312
1782968838457508000,7.825508056640625,-1.0062462497889995,-1.665335743073374,2.868636450704932
1782968838467434200,7.835434326171875,-0.4476730403512716,-1.853765580433607,2.930724950349331
1782968838477360000,7.845360107421875,0.03517477375566959,-1.9830784813061355,2.3486571758165953
1782968838487286000,7.8552861328125,0.06415361548066138,-2.524799047881365,1.7420223846517502
1782968838497213200,7.865213134765625,0.039437691897153855,-3.236835264585912,1.1691628757081924
1782968838507139300,7.875139404296875,0.26348668577969075,-3.403910033097863,0.5148814402926712
1782968838517065000,7.88506494140625,0.44576282281577584,-3.3589699443921446,0.26550777981113644
1782968838526992100,7.8949921875,0.7790840923219918,-3.77710387878716,0.7537820394136011
1782968838536918300,7.904918212890625,0.9055635233342647,-3.4783062256515023,0.7723790417253971
1782968838546844200,7.91484423828125,0.46847909701466556,-2.8551100296556946,0.6055494801461696
1782968838556771000,7.92477099609375,-0.4677209721237421,-2.4824656345427036,1.247375557810068
1782968838566697200,7.934697265625,-1.518596052712202,-1.7532130562297998,1.634342200525105
1782968838576623000,7.944623046875,-2.476929627725482,-1.0806595396079122,1.6743480476990342
1782968838586550300,7.95455029296875,-3.2232343169957396,-0.7602437827736139,1.7802587379351258
1782968838596476200,7.96447607421875,-3.6606361387014386,-0.00617328180745244,1.452262316713482
1782968838606402000,7.974402099609375,-3.493683827525377,0.43438777111414817,1.2529299770668147
1782968838616329200,7.9843291015625,-2.5839456488549706,0.6367215941317379,1.4766606987804174
1782968838626255000,7.994255126953125,-1.5383926400721073,0.9373455128464847,1.3121803306758404
1782968838636181000,8.004180908203125,-1.2521797432214021,0.21370697502307592,0.26256237400900573
1782968838646107100,8.014107177734376,-0.5382207417607308,-0.19287103467807173,-0.12054379388559609
1782968838656034300,8.024034423828125,0.2485299396663904,0.005904840129613876,-0.4279941976195201
1782968838665960200,8.033960205078126,0.4775204816043377,0.09215287158377468,-0.6267733238302171
1782968838675886000,8.043885986328124,0.06076864921748638,0.45881884987428784,-0.5632553759045899
1782968838685813200,8.053813232421875,-0.6327981370776892,1.263576751026511,-0.5889239971030503
1782968838695739100,8.0637392578125,-1.1264683739721775,1.7950088555604218,-0.6470313912220299
1782968838705665000,8.0736650390625,-1.3679384582549332,2.030168587652594,-0.7783613310053944
1782968838715592200,8.08359228515625,-1.3163088087826966,2.140943522924185,-0.8926526038348674
1782968838725518300,8.093518310546875,-1.0001064318597317,2.256571597315371,-0.9931942413184791
1782968838735444000,8.10344384765625,-0.7992039202868938,2.4119290400266644,-1.058135426980257
1782968838745371100,8.11337109375,-0.6249906781971454,2.4227267667643724,-1.0401013192482291
1782968838755297000,8.123297119140625,-0.4279921883255243,2.479010817913711,-1.0178868570916355
1782968838765223000,8.133222900390624,-0.29491292065680025,2.6007331175267696,-0.8978845131389797
1782968838775148800,8.143148681640625,-0.3666980539292097,2.737666430275142,-0.7096611581362784
1782968838785076000,8.153075927734376,-0.6243938813477754,2.8797283380836247,-0.5936890926130116
1782968838795001900,8.163001953125,-0.8164116601973772,2.94627118678838,-0.4804154723934829
1782968838804927700,8.172927734375,-0.7941863843858241,3.169458303144574,-0.3153217946961522
1782968838814855000,8.18285498046875,-0.6554027675956487,3.312705621345341,0.05515270903185009
1782968838824781000,8.192781005859375,-0.48282384870946404,3.446003207939863,0.23617460822314024
1782968838834706700,8.202706787109374,-0.18119886319339273,3.5087259138345717,0.3959090239096433
1782968838844633900,8.2126337890625,0.005099953487515449,3.66089449737668,0.27279358943775295
1782968838854560000,8.22256005859375,0.23036475290060043,3.579265430960059,0.07006620052531361
1782968838864485600,8.232485595703125,0.6032862113893032,3.3344676635593173,-0.16389789204150437
1782968838874412800,8.242412841796876,0.8535147716671228,3.198618931177258,-0.6227202490471303
1782968838884339000,8.2523388671875,0.9550105680704116,3.094341395100951,-1.0675807161957025
1782968838894264800,8.262264892578125,1.019024482819438,3.075573858527839,-1.4273182834625244
1782968838904190700,8.272190673828124,0.9208540314465761,3.1918487063899637,-1.518952318803966
1782968838914118000,8.282117919921875,0.6510042403757572,3.335965793162584,-1.4375132220014928
1782968838924043800,8.292043701171876,0.1281885730177164,3.521249003060162,-1.4425108841583132
1782968838933969700,8.3019697265625,-0.5252244820654391,3.5661870459392664,-1.1757739644110201
1782968838943896800,8.311896728515626,-1.0248211863994598,3.392018519774079,-0.6153891755066812
1782968838953823000,8.321822998046875,-1.409308579519391,3.5217367865771054,-0.5514705378256738
1782968838963748900,8.331748779296875,-1.5728800160855054,3.827146551328897,-0.3943631827071309
1782968838973676000,8.341676025390624,-1.3041665355682373,4.01306367521584,-0.4008176195435226
1782968838983602000,8.351601806640625,-0.7201040800869465,3.8185429736346004,-0.5244936835728585
1782968838993527800,8.36152783203125,0.5815531030088663,3.481509405606985,-0.831249017714709
1782968839003455000,8.371455078125,1.5828355929106472,3.379468834802508,-0.7639442447267473
1782968839013382000,8.3813818359375,2.225047455021739,3.1029420501857996,-0.8314851645581424
1782968839023308800,8.391308837890625,2.5873802994787694,2.710755919256806,-1.0006855469219387
1782968839033235000,8.40123486328125,2.522853174510598,2.5704940466076134,-1.1391599516324697
1782968839043160800,8.411160888671875,2.075805572581291,2.4635849929839373,-0.8879505636237561
1782968839053088000,8.421087890625,1.4453981300324201,2.4202910640500486,-0.4947707454822957
1782968839063014000,8.431013916015624,0.9070406101495027,2.5495985580950973,-0.32393983930721876
1782968839072939800,8.440939697265625,0.4084761714726686,2.6949793811932206,-0.23910730067417024
1782968839082867000,8.450866943359374,-0.048230070161819454,2.699251359423995,-0.08585282159149646
1782968839092792800,8.460792724609375,-0.5206897612452507,2.6503689628332854,-0.09966098219156265
1782968839102718700,8.47071875,-0.6805003839731216,2.4412156325265766,-0.33477848257720466
1782968839112646000,8.48064599609375,-0.5606090991795063,2.015703862839937,-0.56366994805485
1782968839122572000,8.490572021484375,-0.2908487399578094,1.4682877149716018,-0.8543433314457535
1782968839132497700,8.50049755859375,-0.046561844688653944,0.9409175991795956,-0.9711701141022145
1782968839142423800,8.510423828125,0.18591186318993566,0.4218791122727096,-0.8384860562961548
1782968839152351000,8.52035107421875,0.35207331624925137,0.06933854383789002,-0.7325789462566376
1782968839162276900,8.53027685546875,0.34726737727224827,-0.20394684770479798,-0.37745398735180496
1782968839172202800,8.54020263671875,0.12298223654627799,-0.3141181179948151,-0.2283399690747261
1782968839182130000,8.5501298828125,-0.08636836989820003,-0.39772732537798583,-0.19689152236580848
1782968839192056000,8.56005615234375,-0.25533961968123914,-0.5758893050935119,-0.0704684246506542
1782968839201981700,8.569981689453124,-0.39423312658667564,-0.7939815825287252,0.33791473477631806
1782968839211908900,8.579908935546875,-0.4254997869879007,-1.1759452293246984,0.7573001305371523
1782968839221835000,8.5898349609375,-0.2998825257629156,-1.5254863967478274,0.8133655704997479
1782968839231760600,8.5997607421875,-0.2382037759631872,-1.8557713672980665,0.7801290713302791
1782968839241687800,8.609687744140626,-0.36918870170116425,-2.150466261290014,0.8898005754046141
1782968839251614000,8.619614013671875,-0.6578367167443037,-2.367341710281372,0.863746681215614
1782968839261539800,8.629539794921875,-0.803590172547102,-2.5118410743698476,0.8571072432011365
1782968839271465700,8.6394658203125,-0.7168325110703706,-2.783620664459467,0.845941559933871
1782968839281393000,8.649392822265625,-0.8112953400969505,-3.228683522312343,0.9988951563738286
1782968839291318800,8.65931884765625,-0.6126280402302742,-3.4785113928347826,1.1639292859036474
1782968839301244700,8.66924462890625,-0.46793081548213955,-3.8314077159047124,1.4918340102538465
1782968839311171800,8.679171875,-0.3502186282932758,-3.925928704859316,1.382530754970014
1782968839321097700,8.68909765625,-0.08795067065358161,-4.014937067872285,1.5233504076324402
1782968839331024000,8.69902392578125,-0.013996376648545264,-4.040099858440459,1.383562874496728
1782968839340951000,8.708950927734374,-0.055391632354259486,-4.243311815999448,1.224060587065667
1782968839350877000,8.718876953125,-0.18113456578552722,-4.591294355803728,1.3033781616695224
1782968839360802800,8.728802734375,-0.1884463501036167,-4.665104857423901,1.2122610628742725
1782968839370730000,8.73872998046875,-0.15795827285945416,-5.040030641472339,1.619584484115243
1782968839380655900,8.74865576171875,-0.03618541210293769,-5.456390259671211,1.6349766990363597
1782968839390581800,8.758581787109375,0.06053717854917049,-5.27222319432199,1.3692954258218406
1782968839400509000,8.768509033203125,-0.1615291170835495,-4.940439801907539,1.3254017774291336
1782968839410435000,8.77843505859375,-0.6276204421788454,-4.699039275729656,1.6002610672250388
1782968839420360700,8.788360595703125,-1.1640122149467467,-4.40993708717823,1.9007232925720512
1782968839430286800,8.798286865234376,-1.4659288768857717,-3.830026782940328,2.226563704803586
1782968839440214000,8.808214111328125,-2.0311562835156916,-3.4850343648627398,2.31263060753718
1782968839450139600,8.8181396484375,-2.253893610277772,-3.1808640787780282,2.298531501166522
1782968839460065800,8.828065673828124,-1.791951806077361,-3.134375299325585,2.137652956946194
1782968839469993000,8.837992919921875,-0.8852291758358478,-3.239806973873079,1.819712796445191
1782968839479918800,8.8479189453125,-0.04141746753752231,-3.179285285153985,1.3484456761471926
1782968839489844700,8.8578447265625,0.3887438815206289,-3.1139474283248183,0.9705367115695029
1782968839499772000,8.86777197265625,0.26335926000773907,-3.147866941322386,0.8101413477562367
1782968839509697800,8.87769775390625,-0.06293371829688549,-3.0740020791664717,0.7971496181055903
1782968839519623700,8.887623779296876,-0.48772681832015513,-2.7937232485398646,0.7644662227742374
1782968839529550800,8.89755078125,-1.095157289907336,-2.3545133544988928,0.9167444041706622
1782968839539477000,8.90747705078125,-1.713826363867521,-1.8392210683830081,1.1285163925431667
1782968839549403000,8.91740283203125,-1.9307412680864333,-1.2837114842996,1.2958213165491819
1782968839559328800,8.927328857421875,-1.9462772753924131,-0.7365797793958335,1.2826459008947013
1782968839569256000,8.937255859375,-1.859907151928544,-0.3271932881452143,1.2335358330279589
1782968839579181800,8.947181884765625,-1.6725760695904492,-0.14472053255848585,1.091617352278158
1782968839589107700,8.957107666015625,-1.3117179738610982,-0.12872092632874846,0.8401384996782988
1782968839599035000,8.967034912109375,-0.8626239607959986,-0.37688269026987253,0.792602841521427
1782968839608960800,8.976960693359375,-0.0762567257285118,-0.4401005592703819,0.6363697119541466
1782968839618887000,8.986886962890624,0.9042378276884555,-0.448159070302546,0.5542854491159319
1782968839628813800,8.996813720703125,1.5911796428859233,-0.36296076709702607,0.6276432385325431
1782968839638739700,9.00673974609375,1.6973317406624555,0.3047618222370744,0.3899265154339373
1782968839648665900,9.016665771484375,1.2503776622354983,1.3268861707679926,-0.3248847920071333
1782968839658593000,9.026593017578126,0.5884282494753599,1.8270695889487862,-0.48171121129244565
1782968839668518700,9.0365185546875,0.2843137852311134,1.3608140132024884,0.42186208807267245
1782968839678444800,9.04644482421875,-0.5176169296711683,1.6767321663565933,0.256770237006247
1782968839688372000,9.0563720703125,-0.8694149361103772,1.9217049980632959,-0.02332235033325851
1782968839698297900,9.0662978515625,-1.0680378123134373,2.018687554825842,-0.23831337381750345
1782968839708223700,9.0762236328125,-1.19910574015975,2.117782865958661,-0.4094393174163997
1782968839718150000,9.08614990234375,-1.2493781298041342,2.2631778637126088,-0.6730586896650492
1782968839728077000,9.0960771484375,-1.144708964061737,2.3581680776141583,-1.0078934324741362
1782968839738002700,9.106002685546875,-0.9317325683355331,2.3149274863027034,-1.0235726476430893
1782968839747928800,9.1159287109375,-0.9639876552522182,2.356079873163253,-1.0724090131349862
1782968839757856300,9.125856201171874,-0.9839414790004491,2.357458906431496,-1.069790647330135
1782968839767782100,9.1357822265625,-0.7917986124664544,2.3377242783918977,-0.7728621490672231
1782968839777708300,9.145708251953126,-0.41813831830918785,2.302794857699424,-0.3704731885537505
1782968839787635200,9.15563525390625,0.011824293306469917,2.3712616602040826,-0.14861775919273496
1782968839797561000,9.16556103515625,0.2934440171480179,2.4321261710114777,0.07547945774570107
1782968839807487200,9.1754873046875,0.3048620677411556,2.3411739804543554,0.4884570322908461
1782968839817414400,9.185414306640626,-0.02192249347269535,2.4571722033321857,0.8427826575115323
1782968839827340000,9.195340087890624,-0.28797815295755863,2.6508310273870825,1.0963899004422129
1782968839837266200,9.20526611328125,-0.22240239571928977,2.8664292960494757,1.033864762946218
1782968839847192300,9.2151923828125,0.10673135896921157,2.9610248115450144,0.8296525423035025
1782968839857119200,9.225119140625,0.4382575617522001,2.8717355857640503,0.7019412314087152
1782968839867045000,9.235045166015626,0.6917004079014063,2.665419232448935,0.5271550117366015
1782968839876971300,9.24497119140625,0.921790435513854,2.571396256144345,0.17924203003719447
1782968839886898200,9.254898193359375,1.1069359905064104,2.6225743624567985,-0.055831046684831374
1782968839896824000,9.264823974609374,1.2815133897334336,2.835197122439742,-0.5118474063590168
1782968839906750200,9.274750244140625,1.2778858468860388,2.9996970720276233,-1.0077684909202158
1782968839916677000,9.284677001953124,0.8610457516938448,2.976599981817603,-1.2118189451299608
1782968839926603300,9.294603271484375,0.11062836640775203,2.90949365401119,-1.1532264709077775
1782968839936529200,9.304529052734376,-0.8121879050225019,2.969095013014972,-1.0402793061636388
1782968839946456300,9.314456298828125,-1.5987638144046068,3.0714532714664933,-0.8712835064612329
1782968839956382200,9.32438232421875,-2.072340526819229,3.1845597184255716,-0.6363419471643865
1782968839966308000,9.33430810546875,-1.9761159488171338,3.2282907236024734,-0.4420779968231916
1782968839976234200,9.344234130859375,-1.305771048155427,3.0947543598160148,-0.30793826031610366
1782968839986161200,9.3541611328125,-0.26805706243515015,2.699836173574626,-0.21541750526800751
1782968839996087300,9.36408740234375,0.976765303760767,2.4640625473678113,-0.2718557240657508
1782968840006013200,9.37401318359375,1.9218173723965881,2.3995599723190066,-0.7756906504914164
1782968840015940000,9.383940185546875,2.3056015856832266,2.331265311510861,-1.2693060884587466
1782968840025866200,9.3938662109375,2.1553905659496784,2.3231804969936607,-1.7679456381984053
1782968840035792100,9.403792236328124,1.6969529704779385,2.697818696272373,-2.61883196105808
1782968840045719000,9.413718994140625,1.4149877941995859,2.6075667629390953,-2.336075488271564
1782968840055645200,9.423645263671874,0.9166974962890148,1.948449212604016,-1.5514914833590387
1782968840065571300,9.4335712890625,0.435456532856822,1.7623888808541,-1.480910611309856
1782968840075498200,9.443498291015626,0.05378887333273887,2.0012343157216907,-1.8498364242911338
1782968840085424000,9.453424072265625,-0.2514016957104206,2.1136444509796797,-1.9215515610672533
1782968840095350300,9.463350341796875,-0.25000527291595936,2.281331360040605,-1.567045026321709
1782968840105276200,9.473276123046874,0.09893792861402034,2.387971679725498,-1.2218766671553254
1782968840115203000,9.483203125,0.434997683173418,2.1780767372712493,-1.1724141325891018
1782968840125129200,9.493129150390626,0.6910077494621276,1.4600252057999372,-0.9022885933168232
1782968840135055400,9.503055419921875,1.06844347050488,0.8001447082683444,-0.29264585250765085
1782968840144982300,9.512982177734376,1.774245468994975,0.6569926671355962,-0.860420605532825
1782968840154908200,9.522908203125,1.7719091350018976,0.6281343830503523,-1.1204204721100628
1782968840164834300,9.532834228515625,1.2719003427356481,0.2668510476462543,-1.180104979352653
1782968840174761200,9.54276123046875,0.7592121016383171,0.08195771384909749,-1.1349531475923955
1782968840184687000,9.55268701171875,0.3117085726350546,-0.1078008878968656,-0.8311644812364131
1782968840194613200,9.56261328125,-0.10461597425043583,-0.44817441400215025,-0.5540099931754171
1782968840204540200,9.5725400390625,-0.34532559555470943,-0.8323816019412129,-0.17463292880654335
1782968840214466300,9.58246630859375,-0.06191314307749271,-1.2310938467033206,0.17372575083374975
1782968840224392200,9.59239208984375,0.5811421841204166,-1.5174188256263732,0.31203188630528744
1782968840234318300,9.602318359375,1.0207780484884976,-1.5755191324174402,0.2798676194772124
1782968840244245200,9.612245361328124,1.0103349804073571,-1.3684506455607712,0.12320457406006753
1782968840254171100,9.622171142578125,0.6094435649752616,-1.1282451743863522,-0.07229637073017657
1782968840264097300,9.63209716796875,0.14538871414363383,-1.1484450818501413,-0.12351714714057743
1782968840274024200,9.642024169921875,-0.6126268711864948,-1.5190395586960017,0.21714535197392104
1782968840283950300,9.651950439453126,-1.5186393073320388,-1.9862743547379969,0.7771595540001988
1782968840293876200,9.661876220703125,-2.444541269817948,-1.824882600298524,1.122451466481015
1782968840303803100,9.67180322265625,-3.3604859019130466,-1.4755445542320609,1.147200123290345
1782968840313729300,9.681729248046874,-3.7843887750983236,-1.4222902261674404,0.840493815921992
1782968840323655200,9.6916552734375,-3.538240762132406,-1.5572420097097754,0.7699689118437468
1782968840333582000,9.70158203125,-2.9878491055846212,-1.630230527422577,1.1143342840641737
1782968840343508200,9.71150830078125,-2.5882173348248005,-1.5442670850634574,1.1994023850187658
1782968840353434400,9.721434326171876,-2.2887813837856053,-1.2956947675600647,1.3176694296114146
1782968840363361000,9.731361083984375,-2.2470284006834027,-1.089753823428601,1.371473062121868
1782968840373287200,9.741287109375,-2.2019109095841647,-0.9090585258431733,1.4105568260148167
1782968840383213300,9.75121337890625,-1.8210452140927313,-0.6920560164060443,1.5849942322492598
1782968840393139200,9.76113916015625,-1.1860159569621085,-0.5582799255795776,1.8690964205563068
1782968840403066000,9.771066162109374,-0.48476095425188537,-0.7503822409074753,2.177981314072758
1782968840412992300,9.7809921875,0.213556241440773,-1.6083701394006609,2.694987856760621
1782968840422918400,9.79091845703125,0.5828028108090162,-2.415569150094688,2.658867618848383
1782968840432845000,9.800844970703125,0.4945663089513778,-2.652120482675731,1.986164903014153
1782968840442771200,9.810771240234375,0.48918753852248187,-2.5682892300397158,1.6543468776777386
1782968840452697300,9.820697265625,0.4557493793010711,-2.5340216342568396,1.8649635585352777
1782968840462624300,9.830624267578125,0.23001930046379565,-2.7021242845118043,2.46393395255208
1782968840472550100,9.840550048828124,-0.3459159626632929,-3.092440822176635,3.2539088567227124
1782968840482476300,9.850476318359375,-1.251236324891448,-3.303591171519458,3.443929908797145
1782968840492403200,9.8604033203125,-1.917586018437147,-3.2493022397100924,3.537430907054245
1782968840502329000,9.8703291015625,-2.2814719375550747,-3.201565798284113,3.6418075195908544
1782968840512255200,9.880255126953125,-1.9801713616877794,-3.155722330997884,3.3607305243238805
1782968840522181400,9.890181396484374,-1.2368646851897238,-3.092663232755661,2.868124994051456
1782968840532108300,9.9001083984375,-0.5239414565175772,-3.0531963147640226,2.5010505080252883
1782968840542034200,9.9100341796875,-0.11866320430338383,-3.135335961051285,2.1915664795719088
1782968840551960300,9.919960205078125,0.2619359492063522,-3.3588685298442837,1.827480215576291
1782968840561887200,9.92988720703125,0.36665655287504195,-3.539057631473243,1.71918116889894
1782968840571813400,9.9398134765625,0.062138768526911733,-3.741021342536807,1.805990998954326
1782968840581739300,9.9497392578125,-0.11811141563951968,-3.6564626524090764,1.8821876650586724
1782968840591666200,9.959666259765624,-0.3935246860563755,-3.415279860635102,1.9656300645075737
1782968840601592300,9.96959228515625,-0.6862403889298438,-3.058110098029673,2.03827429882735
1782968840611518200,9.979518310546876,-0.9204320066422224,-2.576844000156224,2.083678205652535
1782968840621445000,9.989445068359375,-0.9817325707793235,-2.0427673724628983,2.1338256537429987
1782968840631371300,9.999371337890626,-0.937560836097598,-1.5950326650522648,2.0909366523481903
1782968840641297400,10.00929736328125,-0.8159995722651481,-1.194798544485122,1.8653429132416843
1782968840651223300,10.019223388671875,-0.7511725875675678,-0.8432537090893835,1.651797631586343
1782968840661150200,10.029150146484374,-0.5149240373253822,-0.4875903324589133,1.4775998793266714
1782968840671076400,10.039076416015625,-0.027046996879577637,-0.03768500301092863,1.3105283256851137
1782968840681002200,10.049002197265626,0.16831190909147262,0.5223733304180205,1.058493154376745
1782968840690929200,10.05892919921875,0.13023323058784006,1.095777248436585,0.7264229078449308
1782968840700855300,10.068855224609376,0.328362185794115,1.328274994777888,0.08464999427353032
1782968840710781400,10.078781494140625,0.14851181460022925,1.5120279263682663,-0.24458527542753145
1782968840720708000,10.0887080078125,-0.27467092761695383,1.6330331637531519,-0.42469117401875556
1782968840730634200,10.09863427734375,-0.7555798826158047,1.5942631419844924,-0.7886301384981721
1782968840740560400,10.108560302734375,-1.1359762070298194,1.6377983323283491,-1.1718932505201547
1782968840750487300,10.1184873046875,-1.3390806125611066,1.8811312878735362,-1.4075016762278973
1782968840760413200,10.1284130859375,-1.6691349892258642,2.0940464549317954,-1.6966935888893901
1782968840770339000,10.138339111328126,-1.9276503163337706,2.0688871714949606,-1.541294791254401
1782968840780265200,10.14826513671875,-1.886033526831865,2.167377648602426,-0.8555567988887429
1782968840790192000,10.158192138671875,-1.4111106605052948,2.513647539269924,-0.40575829081609843
1782968840800118300,10.1681181640625,-0.8800959046006203,2.5810131025344134,-0.18382007854245602
1782968840810044200,10.178044189453125,-0.3231628635853529,2.5577248736664653,-0.06398249669745563
1782968840819971000,10.18797119140625,-0.002699322086572647,2.6138050728067754,0.04517711233198642
1782968840829897200,10.197897216796875,-0.02869242599904537,2.420315760099888,0.03136120681688189
1782968840839823000,10.207822998046876,0.005400397738814354,2.157150707489997,-0.08678725289739668
1782968840849750000,10.21775,0.16723054359555242,2.359016072745621,-0.6423405299920588
1782968840859676200,10.22767626953125,0.05451835665106773,2.231878470085561,-0.8526073014333844
1782968840869602300,10.237602294921874,-0.47790334344208235,2.2219125179968775,-1.054592128350213
1782968840879529000,10.247529052734375,-1.066192476707697,2.0674606458231803,-0.9188867499615997
1782968840889455000,10.257455078125,-1.1748761387884616,1.8332532460197806,-0.2579994134750217
1782968840899381200,10.26738134765625,-0.9309329423904419,2.135916342411935,0.13873919312655925
1782968840909308200,10.27730810546875,-0.5075953018724918,2.5990301130011675,0.21860366102345286
1782968840919234000,10.287234130859375,-0.09421732983291149,2.9408959234908223,0.1206458294879645
1782968840929160200,10.29716015625,0.3577741582393646,3.078772362308204,-0.09375468075722455
1782968840939086000,10.307086181640624,0.9546697918087244,3.4549119060605764,-0.19070494268536567
1782968840949013000,10.317012939453125,1.5282242972791193,3.3638387194722887,-0.24370120433568954
1782968840958939100,10.326939208984374,1.8114269063979387,2.717142405423522,-0.25403029064834115
1782968840968865300,10.336865234375,1.9910715258866547,2.392009264678508,-0.589332139512524
1782968840978792200,10.346792236328126,2.126542657127976,2.429021775255352,-1.2133936471007765
1782968840988718000,10.356718017578125,2.066972862306237,2.312758179439604,-1.7910757538951931
1782968840998644200,10.366644287109375,1.7972247780442236,2.09941426557526,-2.085279795630276
1782968841008571100,10.376571044921874,1.3691320519536734,1.9980216372855006,-2.2405668034538624
1782968841018497000,10.3864970703125,0.9070768505066633,2.068242005459219,-2.3095677128352223
1782968841028423200,10.396423095703126,0.3704576987236738,2.163160615429282,-2.2483191711463033
1782968841038350000,10.40635009765625,-0.14938801291286943,2.325360909772664,-2.099471548720449
1782968841048276200,10.416276123046876,-0.5603963332116604,2.6103379812180996,-1.710455572260171
1782968841058202000,10.4262021484375,-0.9463023609578609,2.948651067662239,-1.1233160474210977
1782968841068128000,10.4361279296875,-1.0274217242866754,2.9299869914636014,-0.5868480676118284
1782968841078055200,10.44605517578125,-0.5210574255138636,2.893168834415078,-0.6984001247357576
1782968841087981000,10.45598095703125,0.5520616355866194,3.44455417817533,-1.630947881911695
1782968841097907000,10.465906982421876,1.2046943539470434,3.3514223054915666,-2.048016086771339
1782968841107834000,10.475834228515625,1.7100345703691242,2.435019554365426,-1.9866607237070797
1782968841117760300,10.48576025390625,2.2728718669921157,2.0257820431314406,-2.3615429608747363
1782968841127686100,10.49568603515625,2.3451164344698188,2.1282593979179856,-2.712164324750006
1782968841137613000,10.505613037109375,1.9390590145766733,2.350114096626639,-2.615947053271532
1782968841147539200,10.515539306640624,1.3982716371983288,2.455756491315365,-2.3379788376748563
1782968841157465300,10.52546533203125,0.8835293861806393,2.6014099938750266,-2.0476246032357213
