time,seconds_elapsed,z,y,x
1782968830693896000,0.06189599609375,0.6321811676025391,0.6655689477920532,0.3531609773635864
1782968830703821800,0.07182177734375,0.5266675353050232,0.5586121678352356,0.2321229875087738
1782968830713748000,0.081748046875,0.4555715322494507,0.35736000537872314,0.22316065430641174
1782968830723675000,0.0916748046875,0.4893079102039337,0.15787191689014435,0.34811270236968994
1782968830733600800,0.101600830078125,0.5999315977096558,-0.019818978384137154,0.5104811191558838
1782968830743526400,0.1115263671875,0.7348335385322571,-0.19108153879642487,0.6857280135154724
1782968830753453300,0.121453369140625,0.8383402228355408,-0.29648706316947937,0.8674560189247131
1782968830763379500,0.13137939453125,0.9026646018028259,-0.3323148190975189,0.9739621877670288
1782968830773305300,0.141305419921875,0.9300253987312317,-0.3399359881877899,0.9979889988899231
1782968830783231200,0.151231201171875,0.9405986666679382,-0.2956092953681946,0.9580420851707458
1782968830793158400,0.161158447265625,0.9030675292015076,-0.20820513367652893,0.8504618406295776
1782968830803084300,0.171084228515625,0.8073292970657349,-0.12446895986795425,0.6671876311302185
1782968830813010400,0.181010498046875,0.6641489863395691,-0.07055699080228806,0.43280094861984253
1782968830822937300,0.190937255859375,0.4600195288658142,-0.06995591521263123,0.19507229328155518
1782968830832863200,0.20086328125,0.22597454488277435,-0.10762393474578857,-0.014877216890454292
1782968830842789400,0.210789306640625,0.014750982634723186,-0.09850287437438965,-0.16005145013332367
1782968830852716500,0.220716552734375,-0.1392071545124054,-0.006225937977433205,-0.2541712820529938
1782968830862642200,0.23064208984375,-0.2363899052143097,0.14905446767807007,-0.30834823846817017
1782968830872568300,0.240568359375,-0.261170357465744,0.3464735150337219,-0.29447877407073975
1782968830882495500,0.25049560546875,-0.22418144345283508,0.5825097560882568,-0.18757149577140808
1782968830892421000,0.260421142578125,-0.15490782260894775,0.7770017385482788,-0.00782463327050209
1782968830902347300,0.27034716796875,-0.0860467329621315,0.8672008514404297,0.17702963948249817
1782968830912273400,0.2802734375,-0.01799924112856388,0.8417325615882874,0.2923213541507721
1782968830922200300,0.290200439453125,0.041312020272016525,0.7100930213928223,0.29165661334991455
1782968830932126200,0.300126220703125,0.06317124515771866,0.4853232800960541,0.18150508403778076
1782968830942052400,0.31005224609375,0.018027203157544136,0.2448987066745758,0.007727161981165409
1782968830951979500,0.3199794921875,-0.08795914798974991,-0.012825516983866692,-0.1926935464143753
1782968830961905200,0.3299052734375,-0.23441383242607117,-0.2303093671798706,-0.37923651933670044
1782968830971831300,0.339831298828125,-0.39812740683555603,-0.3730473518371582,-0.5293245911598206
1782968830981758500,0.349758544921875,-0.5815891027450562,-0.374293714761734,-0.6198190450668335
1782968830991684400,0.359684326171875,-0.7651464343070984,-0.2769320011138916,-0.6354829668998718
1782968831001610200,0.3696103515625,-0.9345325231552124,-0.12222018092870712,-0.6099696159362793
1782968831011537400,0.379537353515625,-1.0647717714309692,0.027663052082061768,-0.5629469752311707
1782968831021463300,0.38946337890625,-1.1353710889816284,0.1531996726989746,-0.5377007126808167
1782968831031389200,0.39938916015625,-1.1608575582504272,0.2324683964252472,-0.5496892333030701
1782968831041316400,0.40931640625,-1.1501814126968384,0.28030169010162354,-0.5930145978927612
1782968831051242200,0.4192421875,-1.1252425909042358,0.28700727224349976,-0.6631694436073303
1782968831061168400,0.42916845703125,-1.077208161354065,0.22203493118286133,-0.7438635230064392
1782968831071094300,0.43909423828125,-1.0112022161483765,0.08229140937328339,-0.8155608773231506
1782968831081021200,0.449021240234375,-0.9142054319381714,-0.10396022349596024,-0.8467432856559753
1782968831090947300,0.458947265625,-0.7987605929374695,-0.32423266768455505,-0.85109943151474
1782968831100873500,0.46887353515625,-0.7084759473800659,-0.5180436968803406,-0.8536251187324524
1782968831110800400,0.47880029296875,-0.6694907546043396,-0.6406002044677734,-0.8811745047569275
1782968831120726300,0.488726318359375,-0.6850941777229309,-0.7182489633560181,-0.9313239455223083
1782968831130652400,0.49865234375,-0.7278496623039246,-0.7333690524101257,-1.0088741779327393
1782968831140579600,0.50857958984375,-0.797897458076477,-0.6820619106292725,-1.1229757070541382
1782968831150505200,0.518505126953125,-0.9052377343177795,-0.4961354434490204,-1.2141364812850952
1782968831160431400,0.528431396484375,-1.0326989889144897,-0.29959362745285034,-1.2861270904541016
1782968831170358500,0.538358642578125,-1.1696406602859497,-0.09431904554367065,-1.3303290605545044
1782968831180284200,0.5482841796875,-1.2767484188079834,0.13118092715740204,-1.3312222957611084
1782968831190210300,0.558210205078125,-1.3443173170089722,0.3574308454990387,-1.2720637321472168
1782968831200137500,0.568137451171875,-1.3697388172149658,0.5687441229820251,-1.177911400794983
1782968831210063400,0.5780634765625,-1.3498942852020264,0.6580066680908203,-1.075545072555542
1782968831219989200,0.5879892578125,-1.277756690979004,0.620755672454834,-0.9475311636924744
1782968831229915400,0.597915283203125,-1.175678014755249,0.4906653165817261,-0.8221127390861511
1782968831239842300,0.60784228515625,-1.0787469148635864,0.34977051615715027,-0.6845426559448242
1782968831249768200,0.617768310546875,-1.0031075477600098,0.24575915932655334,-0.5509824752807617
1782968831259694300,0.6276943359375,-0.9245232939720154,0.10413039475679398,-0.46350693702697754
1782968831269621200,0.637621337890625,-0.8871583342552185,0.01085664238780737,-0.4354305565357208
1782968831279547400,0.64754736328125,-0.8917043805122375,0.003683684393763542,-0.43592751026153564
1782968831289473300,0.657473388671875,-0.9249712228775024,0.09475420415401459,-0.4866577982902527
1782968831299400400,0.667400390625,-0.941436231136322,0.2364404946565628,-0.5862610936164856
1782968831309326300,0.677326416015625,-0.9340070486068726,0.44487759470939636,-0.7674875855445862
1782968831319252200,0.687252197265625,-0.9078372716903687,0.6698068380355835,-0.9740820527076721
1782968831329179400,0.697179443359375,-0.8401826024055481,0.7757713794708252,-1.0741045475006104
1782968831339105300,0.707105224609375,-0.6568164825439453,0.669628918170929,-0.9549288749694824
1782968831349031400,0.717031494140625,-0.42906853556632996,0.39338618516921997,-0.6985498070716858
1782968831358957300,0.726957275390625,-0.16235855221748352,0.07181400060653687,-0.37012985348701477
1782968831368884200,0.73688427734375,0.11046259850263596,-0.1529751718044281,-0.017959559336304665
1782968831378810400,0.746810302734375,0.34735050797462463,-0.23783226311206818,0.2705928683280945
1782968831388736300,0.756736328125,0.5512317419052124,-0.1831943243741989,0.4540330171585083
1782968831398663200,0.7666630859375,0.706002950668335,-0.059364255517721176,0.5596630573272705
1782968831408589300,0.77658935546875,0.7947613000869751,0.08926809579133987,0.6147845983505249
1782968831418515500,0.786515380859375,0.8348655700683594,0.21288803219795227,0.6332307457923889
1782968831428442000,0.796442138671875,0.8350583910942078,0.27239635586738586,0.6355026960372925
1782968831438368300,0.8063681640625,0.8096326589584351,0.2810628414154053,0.6283187866210938
1782968831448294400,0.81629443359375,0.7612323760986328,0.24479083716869354,0.5876795053482056
1782968831458221300,0.82622119140625,0.7264871597290039,0.19200432300567627,0.5467442870140076
1782968831468147200,0.836147216796875,0.7668061256408691,0.1438591629266739,0.5285008549690247
1782968831478073300,0.8460732421875,0.8479225039482117,0.09217999130487442,0.5340503454208374
1782968831488000500,0.85600048828125,0.9622142314910889,0.04911721125245094,0.5649675130844116
1782968831497926100,0.865926025390625,1.089910864830017,0.02642654813826084,0.6289973855018616
1782968831507852300,0.875852294921875,1.2006771564483643,0.008360994048416615,0.7109505534172058
1782968831517778400,0.8857783203125,1.2768142223358154,-0.003355050226673484,0.799019455909729
1782968831527705300,0.895705322265625,1.302258849143982,0.010914432816207409,0.8861849308013916
1782968831537631200,0.90563134765625,1.2910234928131104,0.08008924126625061,0.9550886750221252
1782968831547557400,0.915557373046875,1.2706745862960815,0.17023883759975433,0.9939111471176147
1782968831557484300,0.925484375,1.2665373086929321,0.28265219926834106,1.0344338417053223
1782968831567410400,0.935410400390625,1.280300259590149,0.383565753698349,1.080729365348816
1782968831577336300,0.94533642578125,1.3035366535186768,0.41626378893852234,1.1025925874710083
1782968831587263200,0.95526318359375,1.3302351236343384,0.34866130352020264,1.0889036655426025
1782968831597189400,0.965189453125,1.3595596551895142,0.1688832938671112,1.0635451078414917
1782968831607115300,0.975115234375,1.37384831905365,-0.08288875967264175,1.0357712507247925
1782968831617042200,0.985042236328125,1.3631336688995361,-0.337458997964859,1.0024542808532715
1782968831626968300,0.99496826171875,1.3004697561264038,-0.5451999306678772,0.9337958693504333
1782968831636894500,1.00489453125,1.1911523342132568,-0.6443483829498291,0.8095317482948303
1782968831646821400,1.0148212890625,1.04433274269104,-0.6060265302658081,0.6361759305000305
1782968831656747300,1.024747314453125,0.870079517364502,-0.43629422783851624,0.44624218344688416
1782968831666673400,1.03467333984375,0.6801382899284363,-0.16527684032917023,0.26498451828956604
1782968831676599300,1.044599365234375,0.4874359667301178,0.15303935110569,0.12049472332000732
1782968831686526200,1.054526123046875,0.28228121995925903,0.4346412122249603,0.004605138208717108
1782968831696452400,1.064452392578125,0.11686749756336212,0.6272841691970825,-0.05571972206234932
1782968831706378500,1.07437841796875,0.044138431549072266,0.6989229321479797,-0.025790585204958916
1782968831716305200,1.08430517578125,0.058293666690588,0.6561354994773865,0.06860809028148651
1782968831726231300,1.094231201171875,0.13961994647979736,0.5253590941429138,0.20162206888198853
1782968831736157400,1.104157470703125,0.25004738569259644,0.3501010239124298,0.3515511155128479
1782968831746084900,1.1140849609375,0.3677508533000946,0.1456165909767151,0.48965466022491455
1782968831756011000,1.124010986328125,0.47344478964805603,-0.05257159844040871,0.595723569393158
1782968831765937000,1.13393701171875,0.552234411239624,-0.22108738124370575,0.6469561457633972
1782968831775863800,1.14386376953125,0.5819952487945557,-0.3500666618347168,0.6588277220726013
1782968831785790000,1.1537900390625,0.5532232522964478,-0.40853822231292725,0.6195468902587891
1782968831795715800,1.1637158203125,0.4686364531517029,-0.40606096386909485,0.5199092030525208
1782968831805642000,1.17364208984375,0.3549855351448059,-0.3775579333305359,0.3599592447280884
1782968831815569000,1.18356884765625,0.2204226553440094,-0.34441331028938293,0.15539172291755676
1782968831825495000,1.1934951171875,0.0813254788517952,-0.3108132779598236,-0.05029512941837311
1782968831835421000,1.2034208984375,-0.05120087042450905,-0.2822878956794739,-0.21587716042995453
1782968831845347800,1.213347900390625,-0.1784144788980484,-0.22755885124206543,-0.3201865255832672
1782968831855274000,1.22327392578125,-0.2786649167537689,-0.11945236474275589,-0.3477286696434021
1782968831865199900,1.233199951171875,-0.32208722829818726,-0.0011712582781910896,-0.3088158965110779
1782968831875126800,1.243126708984375,-0.3168804943561554,0.1052744910120964,-0.22163012623786926
1782968831885053000,1.253052978515625,-0.2828671336174011,0.19895730912685394,-0.09655796736478806
1782968831894979000,1.26297900390625,-0.23188729584217072,0.21915791928768158,0.030652450397610664
1782968831904905700,1.27290576171875,-0.18573231995105743,0.18335331976413727,0.12060817331075668
1782968831914832000,1.282831787109375,-0.16381768882274628,0.09198478609323502,0.18049387633800507
1782968831924758000,1.292758056640625,-0.1678425371646881,-0.0656256154179573,0.19816900789737701
1782968831934684000,1.302683837890625,-0.22050201892852783,-0.20838649570941925,0.17746585607528687
1782968831944610800,1.31261083984375,-0.31011471152305603,-0.29809054732322693,0.10105924308300018
1782968831954537000,1.322536865234375,-0.42469990253448486,-0.35663747787475586,-0.018572619184851646
1782968831964463000,1.332463134765625,-0.5395265817642212,-0.3734702467918396,-0.13679327070713043
1782968831974389800,1.3423896484375,-0.6388963460922241,-0.340075820684433,-0.23450438678264618
1782968831984316000,1.35231591796875,-0.7137157320976257,-0.2833789885044098,-0.2939509451389313
1782968831994242000,1.362241943359375,-0.7691488862037659,-0.1933489590883255,-0.32483693957328796
1782968832004169000,1.3721689453125,-0.8092302680015564,-0.06585811078548431,-0.34874120354652405
1782968832014094800,1.3820947265625,-0.8387151956558228,0.08968354761600494,-0.3641422688961029
1782968832024021000,1.39202099609375,-0.8403934836387634,0.19722598791122437,-0.3504626750946045
1782968832033948000,1.401947998046875,-0.8506165742874146,0.25796523690223694,-0.35062485933303833
1782968832043873800,1.411873779296875,-0.8558012247085571,0.30073878169059753,-0.39980146288871765
1782968832053800000,1.421800048828125,-0.8516221642494202,0.2855830192565918,-0.485737681388855
1782968832063726800,1.431726806640625,-0.845880925655365,0.20723015069961548,-0.5735862851142883
1782968832073653000,1.441653076171875,-0.8367393612861633,0.08215559273958206,-0.6384374499320984
1782968832083579000,1.451578857421875,-0.8255631327629089,-0.08670879900455475,-0.6656746864318848
1782968832093505000,1.461505126953125,-0.818153440952301,-0.24051406979560852,-0.6652291417121887
1782968832103432000,1.471431884765625,-0.8243463635444641,-0.34417709708213806,-0.638984739780426
1782968832113357800,1.48135791015625,-0.8467837572097778,-0.37961655855178833,-0.623445451259613
1782968832123284000,1.491283935546875,-0.8669990301132202,-0.3739807903766632,-0.6454309225082397
1782968832133211000,1.5012109375,-0.8830419182777405,-0.32284969091415405,-0.7174830436706543
1782968832143137000,1.511136962890625,-0.8983380198478699,-0.2388991266489029,-0.8071562051773071
1782968832153063000,1.52106298828125,-0.9153758883476257,-0.13192634284496307,-0.8797094821929932
1782968832162989800,1.53098974609375,-0.9385237693786621,-0.02594371698796749,-0.9278900623321533
1782968832172916000,1.540916015625,-0.9660030603408813,0.07712434232234955,-0.9368997812271118
1782968832182841900,1.550841796875,-1.007561445236206,0.16377349197864532,-0.9149057865142822
1782968832192768800,1.560768798828125,-1.0440542697906494,0.21124033629894257,-0.8807217478752136
1782968832202695000,1.57069482421875,-1.0558892488479614,0.22836525738239288,-0.8287919759750366
1782968832212621000,1.58062109375,-1.0330026149749756,0.21400177478790283,-0.7654356360435486
1782968832222546700,1.590546630859375,-0.9835333228111267,0.15414535999298096,-0.7026686668395996
1782968832232473900,1.600473876953125,-0.9260410070419312,0.09793481975793839,-0.6495609879493713
1782968832242400000,1.61039990234375,-0.8751919865608215,0.05920366942882538,-0.6097557544708252
1782968832252326000,1.620325927734375,-0.8140875697135925,0.04318208992481232,-0.5723455548286438
1782968832262252800,1.630252685546875,-0.7488172650337219,0.06196403503417969,-0.5539692044258118
1782968832272179000,1.640178955078125,-0.688305139541626,0.09389613568782806,-0.5391007661819458
1782968832282105000,1.65010498046875,-0.6356731057167053,0.12665754556655884,-0.528166651725769
1782968832292032000,1.660031982421875,-0.5712171792984009,0.15489424765110016,-0.5313248634338379
1782968832301958000,1.6699580078125,-0.48389503359794617,0.17478805780410767,-0.5345717668533325
1782968832311884000,1.679884033203125,-0.3882769048213959,0.16338279843330383,-0.5202586054801941
1782968832321811000,1.68981103515625,-0.29336050152778625,0.13522759079933167,-0.4848441779613495
1782968832331736800,1.69973681640625,-0.17884378135204315,0.1306922286748886,-0.4112706184387207
1782968832341663000,1.7096630859375,-0.07611261308193207,0.1863325983285904,-0.3599323332309723
1782968832351588900,1.7195888671875,0.06397205591201782,0.2061624825000763,-0.17630845308303833
1782968832361516000,1.72951611328125,0.16679377853870392,0.1839543879032135,0.061460431665182114
1782968832371442000,1.73944189453125,0.23140978813171387,0.1399403214454651,0.2812678813934326
1782968832381367800,1.749367919921875,0.2936100363731384,0.07398954033851624,0.43234768509864807
1782968832391295000,1.759294921875,0.3584766685962677,0.006716492120176554,0.4953165352344513
1782968832401220900,1.769220947265625,0.4293857216835022,-0.05775437504053116,0.4658052325248718
1782968832411146800,1.779146728515625,0.5006998181343079,-0.11650557070970535,0.4261622428894043
1782968832421074000,1.789073974609375,0.5664548873901367,-0.14339417219161987,0.4173775315284729
1782968832431000000,1.799,0.6142442226409912,-0.13826386630535126,0.44250792264938354
1782968832440926000,1.808926025390625,0.649747908115387,-0.09483622759580612,0.49877145886421204
1782968832450852900,1.818852783203125,0.6877719759941101,-0.023621972650289536,0.5815824270248413
1782968832460779000,1.828779052734375,0.7373669743537903,0.06147481128573418,0.6761028170585632
1782968832470705000,1.838704833984375,0.79641193151474,0.15356558561325073,0.7693217396736145
1782968832480630800,1.848630859375,0.8596974015235901,0.2317674458026886,0.8431623578071594
1782968832490558000,1.858557861328125,0.9285513162612915,0.25335928797721863,0.9029216170310974
1782968832500484000,1.868484130859375,0.9997594356536865,0.22684246301651,0.9472683072090149
1782968832510409700,1.87840966796875,1.0589336156845093,0.1934882402420044,0.9708937406539917
1782968832520337000,1.8883369140625,1.1014900207519531,0.1366121768951416,0.9677983522415161
1782968832530263000,1.898262939453125,1.140428900718689,0.05233777314424515,0.9437726140022278
1782968832540188700,1.908188720703125,1.1865123510360718,-0.06054377183318138,0.9023937582969666
1782968832550115800,1.91811572265625,1.2365174293518066,-0.18193012475967407,0.8530019521713257
1782968832560042000,1.9280419921875,1.274741530418396,-0.2830388844013214,0.8109791278839111
1782968832569967900,1.9379677734375,1.2660161256790161,-0.3529902696609497,0.7647384405136108
1782968832579894800,1.947894775390625,1.1971585750579834,-0.387222021818161,0.6923078894615173
1782968832589821000,1.957821044921875,1.0720586776733398,-0.36662885546684265,0.6064819097518921
1782968832599746800,1.967746826171875,0.9082944989204407,-0.28028544783592224,0.5300590395927429
1782968832609672700,1.977672607421875,0.7503536343574524,-0.1577819138765335,0.4701445996761322
1782968832619600000,1.987599853515625,0.6311268210411072,-0.0311089176684618,0.42927199602127075
1782968832629526000,1.997526123046875,0.5348519682884216,0.0718933641910553,0.4006001353263855
1782968832639452000,2.007451904296875,0.47098588943481445,0.12117276340723038,0.37672463059425354
1782968832649378800,2.01737890625,0.467919260263443,0.10947589576244354,0.36285170912742615
1782968832659305000,2.027304931640625,0.5342476963996887,0.056410543620586395,0.3880041837692261
1782968832669230800,2.03723095703125,0.6425470113754272,-0.024399615824222565,0.4411909878253937
1782968832679158000,2.047157958984375,0.7589545845985413,-0.12109339982271194,0.5019195675849915
1782968832689084000,2.057083984375,0.8628101348876953,-0.24070848524570465,0.5674498677253723
1782968832699009800,2.067009765625,0.927688717842102,-0.37156450748443604,0.6315646767616272
1782968832708937000,2.07693701171875,0.9490973353385925,-0.4803687334060669,0.6837983131408691
1782968832718863000,2.086863037109375,0.9307020902633667,-0.5448563694953918,0.6843759417533875
1782968832728788700,2.096788818359375,0.8878928422927856,-0.5210554599761963,0.6266199350357056
1782968832738715000,2.10671484375,0.8144695162773132,-0.3830661475658417,0.506892204284668
1782968832748642000,2.11664208984375,0.7230911254882812,-0.18543750047683716,0.34848740696907043
1782968832758568000,2.12656787109375,0.6072670221328735,0.01540665328502655,0.18802636861801147
1782968832768493800,2.136493896484375,0.47089269757270813,0.19600732624530792,0.04589105769991875
1782968832778421000,2.1464208984375,0.32649317383766174,0.31937241554260254,-0.07601061463356018
1782968832788347000,2.156346923828125,0.20423009991645813,0.35755547881126404,-0.1592908501625061
1782968832798272800,2.166272705078125,0.12120179086923599,0.3237333297729492,-0.20688340067863464
1782968832808200000,2.176199951171875,0.09517578035593033,0.25628745555877686,-0.22674153745174408
1782968832818126000,2.1861259765625,0.10077401250600815,0.17811967432498932,-0.2198450118303299
1782968832828051700,2.1960517578125,0.10348804295063019,0.1247778832912445,-0.17560112476348877
1782968832837979000,2.205978759765625,0.11635670065879822,0.09627433866262436,-0.08404403924942017
1782968832847905000,2.215905029296875,0.11868324130773544,0.09826158732175827,-0.012969061732292175
1782968832857831000,2.225830810546875,0.14102981984615326,0.1300022006034851,0.030186131596565247
1782968832867756800,2.2357568359375,0.17832207679748535,0.143738254904747,0.11516254395246506
1782968832877684000,2.24568408203125,0.15331152081489563,0.13920742273330688,0.15878884494304657
1782968832887609900,2.25560986328125,0.07664897292852402,0.14101943373680115,0.11741823703050613
1782968832897535700,2.26553564453125,-0.027486484497785568,0.15848444402217865,0.010610832832753658
1782968832907463000,2.275462890625,-0.16363739967346191,0.18449154496192932,-0.1423875093460083
1782968832917388800,2.285388916015625,-0.29441937804222107,0.24742071330547333,-0.3007427752017975
1782968832927315000,2.29531494140625,-0.4110245704650879,0.31790900230407715,-0.4532226026058197
1782968832937241900,2.305241943359375,-0.5193134546279907,0.40837711095809937,-0.5814191699028015
1782968832947168000,2.31516796875,-0.6161186099052429,0.538123369216919,-0.6809138059616089
1782968832957094000,2.325093994140625,-0.690535306930542,0.6776325702667236,-0.7645155191421509
1782968832967021000,2.33502099609375,-0.7276176810264587,0.7490382790565491,-0.7677770853042603
1782968832976947000,2.344947021484375,-0.7649392485618591,0.8075010776519775,-0.7653352618217468
1782968832986872800,2.354872802734375,-0.7808835506439209,0.8242337107658386,-0.7420429587364197
1782968832996800000,2.364800048828125,-0.7697781920433044,0.771462082862854,-0.7216876149177551
1782968833006726000,2.374725830078125,-0.7246628999710083,0.672825276851654,-0.6985098719596863
1782968833016651800,2.38465185546875,-0.668941080570221,0.5343672633171082,-0.6462157964706421
1782968833026578000,2.394577880859375,-0.6155111193656921,0.3801923394203186,-0.5677920579910278
1782968833036505000,2.404505126953125,-0.5891894698143005,0.2278190553188324,-0.49861058592796326
1782968833046430700,2.4144306640625,-0.6103877425193787,0.09613478928804398,-0.4845469892024994
1782968833056356900,2.42435693359375,-0.657810628414154,-0.004159058444201946,-0.5379965901374817
1782968833066284000,2.434283935546875,-0.7085872888565063,-0.06654094159603119,-0.6293758153915405
1782968833076209700,2.444209716796875,-0.7563438415527344,-0.07402203232049942,-0.743357241153717
1782968833086135800,2.4541357421875,-0.8479872345924377,-0.07213518023490906,-0.8575291037559509
1782968833096063000,2.46406298828125,-0.9161244630813599,0.049068208783864975,-0.936435341835022
1782968833105988900,2.47398876953125,-0.9727528691291809,0.1744317263364792,-0.9858545660972595
1782968833115914800,2.483914794921875,-1.0711209774017334,0.18486838042736053,-1.0411287546157837
1782968833125842000,2.493842041015625,-1.1360193490982056,0.12136344611644745,-1.059272289276123
1782968833135768000,2.50376806640625,-1.0934909582138062,0.10760954767465591,-0.9666709899902344
1782968833145693700,2.513693603515625,-0.9805066585540771,0.07685483247041702,-0.8330029845237732
1782968833155619800,2.523619873046875,-0.8866041302680969,-0.01098660472780466,-0.7012350559234619
1782968833165547000,2.533547119140625,-0.8545830845832825,-0.13547340035438538,-0.5972396731376648
1782968833175473000,2.543472900390625,-0.7823408246040344,-0.10545425117015839,-0.5021914839744568
1782968833185398800,2.553398681640625,-0.702118992805481,-0.05541159212589264,-0.48166143894195557
1782968833195326000,2.563325927734375,-0.6677197217941284,-0.06932900846004486,-0.500598132610321
1782968833205251800,2.573251953125,-0.6629324555397034,-0.05722999945282936,-0.5178647041320801
1782968833215177700,2.583177734375,-0.6537922024726868,-0.08424030989408493,-0.5372090935707092
1782968833225105000,2.59310498046875,-0.6300458312034607,-0.09510520845651627,-0.5397348403930664
1782968833235030800,2.60303076171875,-0.6186968088150024,-0.1343279778957367,-0.534676194190979
1782968833244957000,2.61295703125,-0.6178128719329834,-0.1757659614086151,-0.5058003067970276
1782968833254884000,2.622884033203125,-0.6342664361000061,-0.1347932368516922,-0.5607299208641052
1782968833264809700,2.632809814453125,-0.5866323113441467,-0.1797977238893509,-0.6227964758872986
1782968833274735900,2.64273583984375,-0.5793022513389587,-0.0054730623960494995,-0.621056079864502
1782968833284662000,2.652662109375,-0.6066721081733704,0.17114964127540588,-0.5430262684822083
1782968833294589000,2.6625888671875,-0.6301878094673157,0.21446329355239868,-0.45267826318740845
1782968833304514800,2.672514892578125,-0.6077200174331665,0.2136518359184265,-0.3392092287540436
1782968833314441000,2.68244091796875,-0.5707231163978577,0.22660250961780548,-0.18772675096988678
1782968833324368100,2.6923681640625,-0.5131258964538574,0.19939327239990234,-0.00791278388351202
1782968833334293800,2.702293701171875,-0.3815542757511139,0.12473207712173462,0.19131989777088165
1782968833344220000,2.712219970703125,-0.26875609159469604,0.05372314900159836,0.39545226097106934
1782968833354147000,2.72214697265625,-0.08837459981441498,-0.03682086616754532,0.6170730590820312
1782968833364072700,2.73207275390625,0.07703299820423126,-0.09732868522405624,0.7422336339950562
1782968833373998800,2.741998779296875,0.18140867352485657,-0.07618558406829834,0.8126692175865173
1782968833383925000,2.751925048828125,0.2852373421192169,-0.06411293894052505,0.7961999177932739
1782968833393852000,2.761851806640625,0.38128796219825745,-0.06292117387056351,0.7080676555633545
1782968833403777800,2.77177783203125,0.43873289227485657,-0.04417465254664421,0.6016781330108643
1782968833413704000,2.781703857421875,0.457981675863266,-0.014706774614751339,0.5047393441200256
1782968833423630800,2.791630859375,0.4646094739437103,0.0330522246658802,0.44365841150283813
1782968833433556700,2.801556640625,0.46705907583236694,0.09720644354820251,0.4215288758277893
1782968833443483000,2.81148291015625,0.4997411072254181,0.1631881296634674,0.4481503665447235
1782968833453409800,2.821409912109375,0.5717700123786926,0.2171512246131897,0.5220714211463928
1782968833463336000,2.8313359375,0.6791334748268127,0.261694997549057,0.6378057599067688
1782968833473261800,2.84126171875,0.8121935725212097,0.29504603147506714,0.7707632780075073
1782968833483189000,2.85118896484375,0.9596394896507263,0.29419222474098206,0.9197914004325867
1782968833493115000,2.861114990234375,1.1090643405914307,0.24968013167381287,1.0684863328933716
1782968833503040800,2.871040771484375,1.2408010959625244,0.14127004146575928,1.1966674327850342
1782968833512967000,2.880966796875,1.3513376712799072,-0.0213612150400877,1.2675738334655762
1782968833522893800,2.890893798828125,1.4280441999435425,-0.20936787128448486,1.2722705602645874
1782968833532820000,2.900820068359375,1.4718377590179443,-0.4000704288482666,1.22164785861969
1782968833542745900,2.910745849609375,1.466352939605713,-0.5660263895988464,1.1369359493255615
1782968833552672800,2.9206728515625,1.403630018234253,-0.6989055871963501,1.0439645051956177
1782968833562599000,2.930598876953125,1.3176602125167847,-0.7530120015144348,0.9586953520774841
1782968833572524800,2.94052490234375,1.2289271354675293,-0.7400271892547607,0.9082830548286438
1782968833582451700,2.95045166015625,1.1331212520599365,-0.6920285224914551,0.8953813910484314
1782968833592377900,2.9603779296875,1.034443974494934,-0.5766079425811768,0.8928614854812622
1782968833602304000,2.970303955078125,0.9331820011138916,-0.3885008692741394,0.8600156903266907
1782968833612230700,2.980230712890625,0.8262438774108887,-0.1795244812965393,0.7707321047782898
1782968833622156800,2.99015673828125,0.7154529094696045,-0.01471556257456541,0.6370307803153992
1782968833632083000,3.0000830078125,0.5980133414268494,0.05796609818935394,0.4956187903881073
1782968833642008800,3.0100087890625,0.47924649715423584,0.04850681498646736,0.3775472939014435
1782968833651935700,3.019935791015625,0.3780391812324524,-0.022756177932024002,0.28162288665771484
1782968833661862000,3.02986181640625,0.33654525876045227,-0.11899536103010178,0.1936054229736328
1782968833671788000,3.0397880859375,0.35144510865211487,-0.22189484536647797,0.1383299082517624
1782968833681715000,3.04971484375,0.4156113266944885,-0.30082640051841736,0.12051789462566376
1782968833691640800,3.059640869140625,0.5150780081748962,-0.33797910809516907,0.1435374617576599
1782968833701567000,3.06956689453125,0.6194025278091431,-0.35558846592903137,0.19058646261692047
1782968833711494000,3.079493896484375,0.684257447719574,-0.35797491669654846,0.245949849486351
1782968833721419800,3.089419677734375,0.6876012682914734,-0.32494720816612244,0.29241880774497986
1782968833731346000,3.099345947265625,0.6218792796134949,-0.26852068305015564,0.31918811798095703
1782968833741272800,3.10927294921875,0.5287773013114929,-0.21145844459533691,0.30568960309028625
1782968833751198700,3.11919873046875,0.42040419578552246,-0.15891055762767792,0.25140586495399475
1782968833761124900,3.129124755859375,0.31595343351364136,-0.09249237924814224,0.1718207597732544
1782968833771051000,3.139051025390625,0.22993279993534088,-0.041546110063791275,0.08562728762626648
1782968833780978000,3.14897802734375,0.17857426404953003,-0.005937783978879452,0.010341853834688663
1782968833790903800,3.15890380859375,0.15539811551570892,-0.01564021222293377,-0.05022402107715607
1782968833800830000,3.168829833984375,0.131297305226326,-0.07217752188444138,-0.08602382987737656
1782968833810756900,3.1787568359375,0.10123980045318604,-0.1229376420378685,-0.1543799787759781
1782968833820682800,3.188682861328125,0.0674261748790741,-0.17143140733242035,-0.19135157763957977
1782968833830609000,3.19860888671875,0.020793162286281586,-0.20407696068286896,-0.18179883062839508
1782968833840535800,3.208535888671875,-0.03164394572377205,-0.1632421910762787,-0.16077396273612976
1782968833850462000,3.2184619140625,-0.06957162171602249,-0.07077377289533615,-0.14519500732421875
1782968833860387800,3.228387939453125,-0.09800432622432709,0.048657551407814026,-0.1349242627620697
1782968833870314800,3.238314697265625,-0.11752529442310333,0.16507843136787415,-0.11674632132053375
1782968833880241000,3.248240966796875,-0.13658633828163147,0.24217748641967773,-0.09185215830802917
1782968833890166800,3.258166748046875,-0.1630602926015854,0.26678216457366943,-0.07905726879835129
1782968833900093700,3.26809375,-0.19552315771579742,0.22770985960960388,-0.10490750521421432
1782968833910019800,3.278019775390625,-0.2287261188030243,0.16139954328536987,-0.15312670171260834
1782968833919946000,3.287946044921875,-0.27681028842926025,0.088895782828331,-0.2089148610830307
1782968833929872000,3.297871826171875,-0.3388523459434509,0.03320588916540146,-0.27647048234939575
1782968833939798800,3.307798828125,-0.4322347640991211,0.003317499766126275,-0.3485438823699951
1782968833949725000,3.317724853515625,-0.5328798890113831,0.019467175006866455,-0.40251654386520386
1782968833959650800,3.32765087890625,-0.6494914293289185,0.07244090735912323,-0.4261939227581024
1782968833969577700,3.33757763671875,-0.7624734044075012,0.1504872441291809,-0.419577032327652
1782968833979503900,3.34750390625,-0.8493126630783081,0.23216906189918518,-0.4043053984642029
1782968833989430000,3.357429931640625,-0.8907772898674011,0.282244473695755,-0.3832421898841858
1782968833999356700,3.367356689453125,-0.8982189893722534,0.2975989282131195,-0.3674302101135254
1782968834009282800,3.37728271484375,-0.8921528458595276,0.2799365818500519,-0.3647438883781433
1782968834019209000,3.387208984375,-0.8858741521835327,0.23625434935092926,-0.3765837550163269
1782968834029136000,3.397135986328125,-0.870090663433075,0.17755508422851562,-0.3839189112186432
1782968834039061800,3.407061767578125,-0.8595442771911621,0.13653813302516937,-0.40144994854927063
1782968834048988000,3.41698779296875,-0.8698669672012329,0.10776294767856598,-0.44797325134277344
1782968834058914000,3.4269140625,-0.9112359881401062,0.10046695172786713,-0.5271226763725281
1782968834068840700,3.4368408203125,-0.9588533043861389,0.097907654941082,-0.614171028137207
1782968834078766800,3.446766845703125,-1.0181001424789429,0.08849550783634186,-0.6936557292938232
1782968834088693000,3.45669287109375,-1.078489899635315,0.07707108557224274,-0.777881383895874
1782968834098620000,3.466619873046875,-1.1183143854141235,0.0465288870036602,-0.8399391770362854
1782968834108545800,3.4765458984375,-1.124657392501831,0.004341751337051392,-0.8759975433349609
1782968834118472000,3.486471923828125,-1.0899578332901,-0.07198444753885269,-0.8801736831665039
1782968834128398800,3.49639892578125,-1.0393427610397339,-0.18358686566352844,-0.8612966537475586
1782968834138324700,3.50632470703125,-0.9798579216003418,-0.2869287133216858,-0.8046488165855408
1782968834148251000,3.5162509765625,-0.9263582229614258,-0.3657201826572418,-0.7260006070137024
1782968834158177800,3.526177734375,-0.8753789067268372,-0.40163716673851013,-0.6441507339477539
1782968834168104000,3.53610400390625,-0.8383798599243164,-0.4013761878013611,-0.5889703035354614
1782968834178029800,3.54602978515625,-0.8084635138511658,-0.3771134614944458,-0.5536419153213501
1782968834187956000,3.5559560546875,-0.7921364903450012,-0.3378020226955414,-0.5421609878540039
1782968834197883000,3.5658828125,-0.7822234034538269,-0.2870243191719055,-0.5453735589981079
1782968834207808800,3.575808837890625,-0.7818585634231567,-0.2215409129858017,-0.5375843644142151
1782968834217735000,3.58573486328125,-0.7726655602455139,-0.13504597544670105,-0.5100544691085815
1782968834227661800,3.595661865234375,-0.7387866973876953,-0.05693758651614189,-0.4625924229621887
1782968834237588000,3.605587890625,-0.7100821137428284,-0.008379369974136353,-0.4079850912094116
1782968834247513900,3.615513916015625,-0.6796653270721436,0.03289856016635895,-0.35273969173431396
1782968834257440800,3.625440673828125,-0.6467273831367493,0.058169830590486526,-0.2984335720539093
1782968834267367000,3.635366943359375,-0.6077067255973816,0.05697673186659813,-0.2699577212333679
1782968834277293000,3.64529296875,-0.56815105676651,0.0907733142375946,-0.26950711011886597
1782968834287219700,3.6552197265625,-0.5292004942893982,0.15726631879806519,-0.31067904829978943
1782968834297145900,3.665145751953125,-0.5071292519569397,0.2435186505317688,-0.40385133028030396
1782968834307072000,3.675072021484375,-0.4884759485721588,0.36118537187576294,-0.5295544266700745
1782968834316998000,3.684997802734375,-0.4438687860965729,0.4302046298980713,-0.6191180944442749
1782968834326924800,3.6949248046875,-0.36977726221084595,0.42896467447280884,-0.6053135991096497
1782968834336851000,3.704850830078125,-0.2709055244922638,0.36252546310424805,-0.5120939016342163
1782968834346777000,3.714777099609375,-0.13234978914260864,0.17965897917747498,-0.221800297498703
1782968834356703700,3.724703857421875,0.0010641991393640637,-0.0202163215726614,0.13668647408485413
1782968834366630000,3.7346298828125,0.13240544497966766,-0.09801231324672699,0.42300745844841003
1782968834376556000,3.74455615234375,0.2830681800842285,-0.06562268733978271,0.6089006066322327
1782968834386483000,3.75448291015625,0.44473111629486084,0.024472586810588837,0.6740931868553162
1782968834396408800,3.764408935546875,0.591686487197876,0.10208988189697266,0.656475305557251
1782968834406335000,3.7743349609375,0.6893494129180908,0.14127349853515625,0.6126700639724731
1782968834416262000,3.784261962890625,0.7570440173149109,0.11891467124223709,0.5657358169555664
1782968834426187800,3.794187744140625,0.7954968810081482,0.038115426898002625,0.5388602614402771
1782968834436114000,3.804114013671875,0.8017278909683228,-0.05239955708384514,0.5326388478279114
1782968834446039800,3.814039794921875,0.7832804322242737,-0.11666908860206604,0.5398877263069153
1782968834455967000,3.823967041015625,0.7644705176353455,-0.13721245527267456,0.5780148506164551
1782968834465892900,3.833892822265625,0.7843422293663025,-0.09732095897197723,0.6477790474891663
1782968834475818800,3.84381884765625,0.8454199433326721,-0.002375007141381502,0.7346808910369873
1782968834485746000,3.853745849609375,0.9289689064025879,0.1264500766992569,0.8288146257400513
1782968834495671800,3.863671875,1.0447282791137695,0.26418423652648926,0.923732578754425
1782968834505598000,3.873597900390625,1.1555285453796387,0.3897504210472107,1.0124083757400513
1782968834515524900,3.88352490234375,1.2351174354553223,0.45885971188545227,1.095739483833313
1782968834525451000,3.893450927734375,1.2873797416687012,0.43136632442474365,1.1373589038848877
1782968834535377000,3.903376953125,1.352155089378357,0.30802521109580994,1.1338695287704468
1782968834545302800,3.913302734375,1.4113878011703491,0.1266935020685196,1.0817837715148926
1782968834555230000,3.92322998046875,1.4724808931350708,-0.08579053729772568,0.9999000430107117
1782968834565155800,3.93315576171875,1.514980673789978,-0.2951053977012634,0.9002834558486938
1782968834575081700,3.943081787109375,1.5302225351333618,-0.4528020918369293,0.8145248889923096
1782968834585009000,3.9530087890625,1.4933617115020752,-0.5412606000900269,0.7426586747169495
1782968834594935000,3.96293505859375,1.3954428434371948,-0.5426070690155029,0.6433038711547852
1782968834604860700,3.972860595703125,1.2337636947631836,-0.4427105784416199,0.5093362331390381
1782968834614787800,3.982787841796875,1.0355520248413086,-0.2550855576992035,0.34118369221687317
1782968834624714000,3.9927138671875,0.8246496915817261,-0.02719673328101635,0.14404772222042084
1782968834634637800,4.002637939453125,0.6137489080429077,0.20128224790096283,-0.0383433923125267
1782968834644564000,4.01256396484375,0.42781364917755127,0.3717120289802551,-0.18389447033405304
1782968834654491000,4.022490966796875,0.3107682466506958,0.3977694809436798,-0.2386874109506607
1782968834664416800,4.032416748046875,0.3155425190925598,0.29140520095825195,-0.16557058691978455
1782968834674343000,4.042343017578125,0.41798606514930725,0.08518413454294205,0.018271150067448616
1782968834684269000,4.05226904296875,0.5866778492927551,-0.15251684188842773,0.24302516877651215
1782968834694195700,4.06219580078125,0.7738738656044006,-0.34330490231513977,0.4431990087032318
1782968834704121900,4.072121826171875,0.9392926692962646,-0.5006990432739258,0.6721139550209045
1782968834714048000,4.082048095703125,1.0164105892181396,-0.5930436253547668,0.8226286172866821
1782968834723975000,4.091974853515625,1.009739875793457,-0.5917099118232727,0.8652234673500061
1782968834733900800,4.10190087890625,0.9324315190315247,-0.5138880610466003,0.8269477486610413
1782968834743827000,4.111826904296875,0.796636164188385,-0.3830653727054596,0.7284547090530396
1782968834753754000,4.121754150390625,0.6333194375038147,-0.2627677023410797,0.5967462062835693
1782968834763680300,4.13168017578125,0.47523656487464905,-0.16553756594657898,0.4507373571395874
1782968834773606100,4.141606201171875,0.325020432472229,-0.11937645822763443,0.29559701681137085
1782968834783533000,4.151532958984375,0.18702900409698486,-0.1395336538553238,0.13859622180461884
1782968834793459200,4.161459228515625,0.0966586321592331,-0.19517002999782562,-0.0034402713645249605
1782968834803385000,4.171385009765625,0.046655651181936264,-0.23865891993045807,-0.12381275743246078
1782968834813311000,4.18131103515625,0.012409265153110027,-0.24339108169078827,-0.2094123512506485
1782968834823238100,4.191238037109375,-0.009918410331010818,-0.19382619857788086,-0.25159361958503723
1782968834833164300,4.201164306640625,-0.036973197013139725,-0.07935260981321335,-0.22926194965839386
1782968834843090200,4.211090087890625,-0.05506431683897972,0.06402026116847992,-0.14051397144794464
1782968834853017000,4.22101708984375,-0.0676722526550293,0.2030753493309021,-0.011215370148420334
1782968834862943200,4.230943115234375,-0.08439291268587112,0.30235373973846436,0.08541982620954514
1782968834872869000,4.240869140625,-0.10196391493082047,0.3424130082130432,0.12985865771770477
1782968834882796000,4.250796142578125,-0.12213043868541718,0.3070693910121918,0.10803299397230148
1782968834892722200,4.26072216796875,-0.13803163170814514,0.21028080582618713,0.02425207570195198
1782968834902648300,4.2706484375,-0.13449682295322418,0.09261888265609741,-0.0778050497174263
1782968834912575000,4.280574951171875,-0.12566392123699188,-0.04132746532559395,-0.181956484913826
1782968834922501000,4.290501220703125,-0.13248880207538605,-0.16083548963069916,-0.24864976108074188
1782968834932427300,4.30042724609375,-0.16344565153121948,-0.2564312517642975,-0.2702309489250183
1782968834942354200,4.310354248046875,-0.1957721710205078,-0.3156471848487854,-0.2514846920967102
1782968834952280000,4.320280029296875,-0.22091959416866302,-0.29378288984298706,-0.20287828147411346
1782968834962206200,4.330206298828125,-0.25011342763900757,-0.19487228989601135,-0.14808374643325806
1782968834972132000,4.340132080078125,-0.2897780239582062,-0.06889251619577408,-0.11781691759824753
1782968834982059000,4.35005908203125,-0.34914013743400574,0.050565171986818314,-0.09433102607727051
1782968834991985200,4.359985107421875,-0.42494702339172363,0.15748150646686554,-0.08781827241182327
1782968835001911000,4.3699111328125,-0.5254448652267456,0.23493368923664093,-0.09993644803762436
1782968835011838200,4.379838134765625,-0.6363570094108582,0.2643328607082367,-0.14607571065425873
1782968835021765000,4.38976513671875,-0.752411425113678,0.23440131545066833,-0.24695439636707306
1782968835031691000,4.39969091796875,-0.8674357533454895,0.18231920897960663,-0.3940889835357666
1782968835041617200,4.4096171875,-0.9506646394729614,0.11800892651081085,-0.5471280813217163
1782968835051544000,4.4195439453125,-0.991797685623169,0.06352011859416962,-0.6828302145004272
1782968835061470000,4.429469970703125,-0.9962403774261475,0.0328676700592041,-0.7783301472663879
1782968835071396000,4.43939599609375,-0.9848646521568298,0.02538498491048813,-0.8353188633918762
1782968835081323300,4.4493232421875,-0.9645380973815918,0.06042898818850517,-0.8570553064346313
1782968835091249000,4.459248779296875,-0.9522454738616943,0.11086766421794891,-0.8304939866065979
1782968835101175000,4.469175048828125,-0.9363147020339966,0.16566592454910278,-0.7550554275512695
1782968835111102200,4.479102294921875,-0.9078529477119446,0.19095663726329803,-0.6595811247825623
1782968835121028000,4.489028076171875,-0.8736486434936523,0.19319608807563782,-0.5767759680747986
1782968835130954000,4.4989541015625,-0.8425538539886475,0.18846657872200012,-0.5190836191177368
1782968835140880100,4.508880126953125,-0.8192874193191528,0.16909287869930267,-0.4893909990787506
1782968835150807000,4.51880712890625,-0.8092281222343445,0.15572328865528107,-0.487045019865036
1782968835160733000,4.52873291015625,-0.8073735237121582,0.13801433145999908,-0.5076472163200378
1782968835170659000,4.5386591796875,-0.81016606092453,0.10817653685808182,-0.5320510864257812
1782968835180586000,4.5485859375,-0.8029276132583618,0.04430807754397392,-0.5469211339950562
1782968835190512000,4.55851220703125,-0.7642731666564941,-0.035659462213516235,-0.5398491024971008
1782968835200438000,4.56843798828125,-0.6943822503089905,-0.08733437210321426,-0.5671161413192749
1782968835210365200,4.578365234375,-0.5992701053619385,-0.1410122513771057,-0.5483701825141907
1782968835220291000,4.588291015625,-0.4967959225177765,-0.2036929428577423,-0.4795314371585846
1782968835230217200,4.59821728515625,-0.43483906984329224,-0.2272118479013443,-0.40542739629745483
1782968835240144100,4.60814404296875,-0.38346004486083984,-0.21402519941329956,-0.3387333154678345
1782968835250070000,4.618070068359375,-0.3457257151603699,-0.20536300539970398,-0.32609474658966064
1782968835259996200,4.62799609375,-0.30335214734077454,-0.2058224081993103,-0.3747381865978241
1782968835269922000,4.637922119140625,-0.2557300329208374,-0.1997104436159134,-0.4701773524284363
1782968835279849000,4.647848876953125,-0.21961012482643127,-0.18538397550582886,-0.5606715679168701
1782968835289775000,4.657775146484375,-0.20676755905151367,-0.16628298163414001,-0.6423874497413635
1782968835299701200,4.667701171875,-0.22518384456634521,-0.0963694155216217,-0.7120432257652283
1782968835309628000,4.6776279296875,-0.2605724632740021,0.013846307061612606,-0.7133423686027527
1782968835319554000,4.687553955078125,-0.3021862208843231,0.13676556944847107,-0.6445707082748413
1782968835329480200,4.697480224609375,-0.3133009374141693,0.2995864450931549,-0.5135908722877502
1782968835339407000,4.707406982421875,-0.2641112804412842,0.5031150579452515,-0.3915131688117981
1782968835349333000,4.7173330078125,-0.19218063354492188,0.6819641590118408,-0.30065250396728516
1782968835359259100,4.727259033203125,-0.13726012408733368,0.8099490404129028,-0.23219941556453705
1782968835369185300,4.737185302734375,-0.0711577981710434,0.7944374680519104,-0.13824816048145294
1782968835379112000,4.74711181640625,0.013799169100821018,0.5872696042060852,-0.03550499677658081
1782968835389038000,4.7570380859375,0.1327069103717804,0.28725627064704895,0.03905179351568222
1782968835398964200,4.766964111328125,0.29351338744163513,0.004387291613966227,0.11796072125434875
1782968835408891100,4.77689111328125,0.4627703130245209,-0.2200183868408203,0.22113610804080963
1782968835418817000,4.786817138671875,0.6079900860786438,-0.31612628698349,0.3404710292816162
1782968835428743200,4.7967431640625,0.718177855014801,-0.2700687646865845,0.4672657251358032
1782968835438670000,4.806670166015625,0.7868538498878479,-0.1211240291595459,0.590641438961029
1782968835448596000,4.816595947265625,0.8253138661384583,0.07647427171468735,0.7015359997749329
1782968835458522000,4.826522216796875,0.8427810072898865,0.24810248613357544,0.7940795421600342
1782968835468449000,4.836448974609375,0.8428614735603333,0.3565780818462372,0.8566023111343384
1782968835478375200,4.846375244140625,0.8394659161567688,0.40117910504341125,0.8849583268165588
1782968835488301000,4.856301025390625,0.8318955898284912,0.3849354386329651,0.8766500353813171
1782968835498228000,4.86622802734375,0.8620375394821167,0.3331630527973175,0.8637177348136902
1782968835508154000,4.876154052734375,0.928444504737854,0.24122220277786255,0.8542078733444214
1782968835518080000,4.886080078125,1.0306220054626465,0.09038262814283371,0.8326639533042908
1782968835528006100,4.896006103515625,1.1273722648620605,-0.09601680934429169,0.8034946322441101
1782968835537933000,4.90593310546875,1.2092114686965942,-0.30249541997909546,0.7650851607322693
1782968835547859200,4.915859130859375,1.2643948793411255,-0.5115706324577332,0.734616219997406
1782968835557785000,4.92578515625,1.2815381288528442,-0.6745744347572327,0.6833458542823792
1782968835567712000,4.9357119140625,1.254355549812317,-0.750461220741272,0.6103251576423645
1782968835577638100,4.94563818359375,1.1687791347503662,-0.7263116836547852,0.5008500218391418
1782968835587564000,4.95556396484375,1.022797703742981,-0.6329612135887146,0.36542776226997375
1782968835597491000,4.965490966796875,0.8284881114959717,-0.48582687973976135,0.25438594818115234
1782968835607417000,4.9754169921875,0.6164738535881042,-0.29617705941200256,0.19987130165100098
1782968835617343200,4.98534326171875,0.4289388358592987,-0.11298886686563492,0.19055582582950592
1782968835627270000,4.995269775390625,0.2851838171482086,0.036376651376485825,0.20125961303710938
1782968835637196000,5.005196044921875,0.19581957161426544,0.14142610132694244,0.209565207362175
1782968835647122200,5.0151220703125,0.1800438016653061,0.2043965458869934,0.227310910820961
1782968835657049000,5.025049072265625,0.24177294969558716,0.22545069456100464,0.279144823551178
1782968835666975000,5.03497509765625,0.3449200987815857,0.20826399326324463,0.3592844009399414
1782968835676901000,5.044901123046875,0.4498814046382904,0.14774231612682343,0.43605560064315796
1782968835686827300,5.0548271484375,0.525783360004425,0.03392015025019646,0.4916355013847351
1782968835696754200,5.064754150390625,0.5724025368690491,-0.10956963896751404,0.5105615258216858
1782968835706680000,5.07468017578125,0.592664897441864,-0.2509225010871887,0.5096302032470703
1782968835716606200,5.084606201171875,0.5939695835113525,-0.34595659375190735,0.49501505494117737
1782968835726533000,5.094533203125,0.5728352665901184,-0.3746044933795929,0.46674826741218567
1782968835736459000,5.104458984375,0.5419759154319763,-0.33722198009490967,0.4331516921520233
1782968835746385200,5.11438525390625,0.5059918165206909,-0.24781939387321472,0.4027937948703766
1782968835756312300,5.124312255859375,0.45083028078079224,-0.12477495521306992,0.3715045750141144
1782968835766238500,5.134238525390625,0.3887064754962921,-0.006566289812326431,0.3200696110725403
1782968835776164400,5.144164306640625,0.32290613651275635,0.07086964696645737,0.2525970935821533
1782968835786091300,5.15409130859375,0.25148388743400574,0.07942318916320801,0.16036304831504822
1782968835796017400,5.164017333984375,0.1591542363166809,0.020959876477718353,0.04350406676530838
1782968835805943300,5.173943359375,0.05104933679103851,-0.04868870973587036,-0.067487433552742
1782968835815869400,5.183869384765625,-0.04584711790084839,-0.10992543399333954,-0.14679716527462006
1782968835825796400,5.19379638671875,-0.11402430385351181,-0.13611336052417755,-0.17866641283035278
1782968835835722500,5.203722412109375,-0.14785124361515045,-0.08614899963140488,-0.15205956995487213
1782968835845648400,5.2136484375,-0.15411339700222015,0.02172287181019783,-0.08225785195827484
1782968835855575300,5.2235751953125,-0.14405544102191925,0.16807688772678375,0.018322015181183815
1782968835865501400,5.23350146484375,-0.11019068956375122,0.31418004631996155,0.1297132521867752
1782968835875427300,5.24342724609375,-0.08580465614795685,0.41628456115722656,0.1567017287015915
1782968835885354200,5.253354248046875,-0.08466668426990509,0.40638798475265503,0.19146503508090973
1782968835895280400,5.2632802734375,-0.12438134104013443,0.2777029871940613,0.18435652554035187
1782968835905206500,5.27320654296875,-0.19833838939666748,0.12310488522052765,0.1252596527338028
1782968835915132200,5.283132080078125,-0.3002738058567047,-0.018012024462223053,0.015353123657405376
1782968835925059300,5.293059326171875,-0.4134536385536194,-0.13065148890018463,-0.12638697028160095
1782968835934985500,5.3029853515625,-0.534900426864624,-0.18284517526626587,-0.24280892312526703
1782968835944911400,5.312911376953125,-0.6368536949157715,-0.15976276993751526,-0.3032464385032654
1782968835954838300,5.32283837890625,-0.7156936526298523,-0.06114058569073677,-0.323784202337265
1782968835964764400,5.332764404296875,-0.7800060510635376,0.08375481516122818,-0.3315022885799408
1782968835974690600,5.342690673828125,-0.8347625136375427,0.2636372447013855,-0.33254334330558777
1782968835984617200,5.3526171875,-0.8852525949478149,0.4519229829311371,-0.3385902941226959
1782968835994543400,5.36254345703125,-0.9293193817138672,0.5959624648094177,-0.33972427248954773
1782968836004469500,5.372469482421875,-0.9609103202819824,0.6661543250083923,-0.33804595470428467
1782968836014396400,5.382396484375,-0.9725174307823181,0.6833181381225586,-0.3346317708492279
1782968836024322300,5.392322265625,-0.9614421725273132,0.6497803926467896,-0.3486080467700958
1782968836034248400,5.40224853515625,-0.9467638731002808,0.5911924839019775,-0.39460375905036926
1782968836044175400,5.41217529296875,-0.9480611085891724,0.5122179985046387,-0.4694684147834778
1782968836054101500,5.4221015625,-0.9490272998809814,0.3979337811470032,-0.5798692107200623
1782968836064027400,5.43202734375,-0.956680178642273,0.23311235010623932,-0.7011397480964661
1782968836073953300,5.441953369140625,-0.9613186120986938,0.041003890335559845,-0.8076533675193787
1782968836083880400,5.45188037109375,-0.9560324549674988,-0.1301811784505844,-0.8788554072380066
1782968836093806300,5.461806396484375,-0.9481263756752014,-0.27046558260917664,-0.9360161423683167
1782968836103732200,5.471732177734375,-0.9453960657119751,-0.34021005034446716,-0.9778800010681152
1782968836113659400,5.481659423828125,-0.9337894916534424,-0.33042266964912415,-0.9885190725326538
1782968836123585500,5.49158544921875,-0.9193253517150879,-0.27334365248680115,-0.960643470287323
1782968836133511400,5.501511474609375,-0.8971356153488159,-0.2158643901348114,-0.9092580676078796
1782968836143438300,5.511438232421875,-0.8766899704933167,-0.15799735486507416,-0.8486583232879639
1782968836153364500,5.521364501953125,-0.8553072214126587,-0.11395985633134842,-0.7913109064102173
1782968836163290400,5.531290283203125,-0.8331300020217896,-0.09136346727609634,-0.7443705797195435
1782968836173217300,5.54121728515625,-0.8051431179046631,-0.0946255773305893,-0.6870492100715637
1782968836183143400,5.551143310546875,-0.7741162180900574,-0.11210363358259201,-0.6254668235778809
1782968836193069600,5.561069580078125,-0.7364721894264221,-0.1545190066099167,-0.5485467314720154
1782968836202995200,5.5709951171875,-0.6867203116416931,-0.1994830071926117,-0.45211100578308105
1782968836212922400,5.58092236328125,-0.6301590204238892,-0.25154781341552734,-0.3354991674423218
1782968836222848500,5.5908486328125,-0.5618516206741333,-0.3413107097148895,-0.22981135547161102
1782968836232774100,5.600774169921875,-0.48647910356521606,-0.4229446053504944,-0.1412450075149536
1782968836242701300,5.610701416015625,-0.41750001907348633,-0.4520502984523773,-0.06539738178253174
1782968836252627500,5.62062744140625,-0.3589341938495636,-0.4254772663116455,-0.01483327429741621
1782968836262553300,5.63055322265625,-0.33112040162086487,-0.3382158577442169,-0.008830242790281773
1782968836272480300,5.640480224609375,-0.33179232478141785,-0.20868264138698578,-0.06274087727069855
1782968836282406400,5.650406494140625,-0.34704849123954773,-0.02593519352376461,-0.184235081076622
1782968836292332300,5.660332275390625,-0.3556007146835327,0.22343894839286804,-0.37750548124313354
1782968836302259500,5.670259521484375,-0.3713000416755676,0.40323346853256226,-0.5585436820983887
1782968836312185300,5.680185302734375,-0.4054609537124634,0.43866708874702454,-0.6467859745025635
1782968836322111500,5.690111572265625,-0.41005969047546387,0.33822357654571533,-0.5522831678390503
1782968836332037400,5.700037353515625,-0.36727309226989746,0.1801053285598755,-0.3241623640060425
1782968836341964300,5.70996435546875,-0.27138543128967285,0.03588103502988815,-0.03303784504532814
1782968836351890400,5.719890380859375,-0.1573488712310791,-0.01005316711962223,0.21826443076133728
1782968836361816300,5.72981640625,-0.027517378330230713,0.04628227651119232,0.38860899209976196
1782968836371743500,5.739743408203125,0.08018697798252106,0.1385914385318756,0.46138253808021545
1782968836381669400,5.74966943359375,0.15895050764083862,0.22549304366111755,0.47824540734291077
1782968836391595300,5.75959521484375,0.2102123647928238,0.28094297647476196,0.4613950550556183
1782968836401522400,5.7695224609375,0.2343754917383194,0.279816210269928,0.4282565414905548
1782968836411448300,5.7794482421875,0.24941861629486084,0.22626934945583344,0.38558071851730347
1782968836421374200,5.789374267578125,0.2496015727519989,0.1681935340166092,0.3453778922557831
1782968836431301400,5.79930126953125,0.23294669389724731,0.12266786396503448,0.3137832283973694
1782968836441227500,5.8092275390625,0.2178252637386322,0.08361074328422546,0.2733665704727173
1782968836451153200,5.819153076171875,0.20819367468357086,0.03971225768327713,0.24421346187591553
1782968836461079300,5.829079345703125,0.23196958005428314,0.022306904196739197,0.2521619498729706
1782968836471006500,5.83900634765625,0.3013553023338318,0.039633430540561676,0.3008384108543396
1782968836480932400,5.848932373046875,0.4203546643257141,0.06495635956525803,0.370749294757843
1782968836490858200,5.858858154296875,0.5744848847389221,0.11411511898040771,0.467395156621933
1782968836500785400,5.868785400390625,0.7096408009529114,0.17505091428756714,0.5723460912704468
1782968836510711600,5.878711669921875,0.8123815655708313,0.22249779105186462,0.669844925403595
1782968836520637200,5.88863720703125,0.8853692412376404,0.22837191820144653,0.7326577305793762
1782968836530564400,5.898564453125,0.9304419159889221,0.17715880274772644,0.7471876740455627
1782968836540490500,5.908490478515625,0.9595089554786682,0.06984858959913254,0.7158872485160828
1782968836550416400,5.91841650390625,0.9680824875831604,-0.09527139365673065,0.6586951017379761
1782968836560343300,5.92834326171875,0.9569100141525269,-0.3004743456840515,0.5740267634391785
1782968836570269400,5.93826953125,0.9087725281715393,-0.5492615103721619,0.44828537106513977
1782968836580195300,5.9481953125,0.843187153339386,-0.8180400133132935,0.30262404680252075
1782968836590121200,5.958121337890625,0.8232078552246094,-0.9902881979942322,0.1882663071155548
1782968836600048400,5.96804833984375,0.8508405685424805,-1.0345057249069214,0.14355529844760895
1782968836609974300,5.977974365234375,0.8991920948028564,-0.9754801988601685,0.1967889666557312
1782968836619900400,5.987900390625,0.9389195442199707,-0.8251218795776367,0.3455275595188141
1782968836629827300,5.997827392578125,0.9496099948883057,-0.6324543952941895,0.5410193204879761
1782968836639753200,6.007753173828125,0.9263986945152283,-0.44763290882110596,0.7245481014251709
1782968836649679400,6.017679443359375,0.8643515706062317,-0.2837933599948883,0.858128547668457
1782968836659606500,6.0276064453125,0.7695832252502441,-0.1340118646621704,0.9081405997276306
1782968836669532400,6.037532470703125,0.6606519818305969,0.011621768586337566,0.8588500022888184
1782968836679458300,6.047458251953125,0.5379103422164917,0.13682149350643158,0.7246461510658264
1782968836689385500,6.057385498046875,0.4043450951576233,0.22222959995269775,0.5331014394760132
1782968836699311400,6.067311279296875,0.27789339423179626,0.2449817955493927,0.33414068818092346
1782968836709237200,6.0772373046875,0.1624046266078949,0.18917977809906006,0.13971689343452454
1782968836719163400,6.087163330078125,0.06394116580486298,0.07048135995864868,-0.0300188846886158
1782968836729090600,6.097090576171875,0.029621275141835213,-0.04870175942778587,-0.12811322510242462
1782968836739016200,6.10701611328125,0.09524369239807129,-0.13372796773910522,-0.09579043835401535
1782968836748942300,6.1169423828125,0.19566138088703156,-0.21048320829868317,0.050093259662389755
1782968836758869500,6.126869384765625,0.31574705243110657,-0.23682186007499695,0.2772688865661621
1782968836768795400,6.13679541015625,0.41113296151161194,-0.23574994504451752,0.48064810037612915
1782968836778721300,6.14672119140625,0.4537864029407501,-0.2411111444234848,0.6000522375106812
1782968836788648400,6.1566484375,0.4473165273666382,-0.2659914791584015,0.6187077164649963
1782968836798574300,6.16657421875,0.4106213450431824,-0.2802601456642151,0.5528687834739685
1782968836808500200,6.176500244140625,0.34183695912361145,-0.27177318930625916,0.4315359592437744
1782968836818427400,6.186427490234375,0.23776808381080627,-0.21962742507457733,0.2808886468410492
1782968836828353300,6.196353271484375,0.11477585136890411,-0.12874412536621094,0.11326956748962402
1782968836838279400,6.206279541015625,-0.00646615494042635,-0.03837215527892113,-0.05052788928151131
1782968836848205300,6.216205322265625,-0.10876642912626266,0.03145832195878029,-0.17188067734241486
1782968836858132500,6.226132568359375,-0.1686135083436966,0.09875400364398956,-0.21734750270843506
1782968836868058400,6.236058349609375,-0.1917625069618225,0.15682902932167053,-0.18839333951473236
1782968836877984300,6.245984375,-0.19261126220226288,0.1938597559928894,-0.0974048525094986
1782968836887911400,6.255911376953125,-0.18003927171230316,0.19302351772785187,0.02095002308487892
1782968836897837300,6.26583740234375,-0.16450293362140656,0.15482500195503235,0.14173290133476257
1782968836907763500,6.275763427734375,-0.1673959195613861,0.08752398937940598,0.2289716601371765
1782968836917690400,6.2856904296875,-0.17715267837047577,-0.0017696705181151628,0.26617470383644104
1782968836927616300,6.2956162109375,-0.19241392612457275,-0.10229281336069107,0.23918701708316803
1782968836937542400,6.30554248046875,-0.2159631848335266,-0.21628037095069885,0.154587984085083
1782968836947469600,6.315469482421875,-0.25484347343444824,-0.31977373361587524,0.05257266387343407
1782968836957395200,6.325395263671875,-0.31809142231941223,-0.3779646158218384,-0.03779212012887001
1782968836967321300,6.3353212890625,-0.41196998953819275,-0.36562326550483704,-0.10170239210128784
1782968836977248500,6.34524853515625,-0.5104707479476929,-0.27640601992607117,-0.15258873999118805
1782968836987174400,6.35517431640625,-0.6145683526992798,-0.13010846078395844,-0.21677997708320618
1782968836997100300,6.365100341796875,-0.7142750024795532,0.03193609416484833,-0.29508569836616516
1782968837007026400,6.3750263671875,-0.792293906211853,0.21869292855262756,-0.37724369764328003
1782968837016953300,6.384953369140625,-0.840343713760376,0.394021600484848,-0.4384460747241974
1782968837026879200,6.394879150390625,-0.856118381023407,0.499262273311615,-0.43132954835891724
1782968837036805400,6.404805419921875,-0.8563681840896606,0.5707165002822876,-0.3631949722766876
1782968837046732500,6.414732666015625,-0.8450830578804016,0.6019409894943237,-0.2870296537876129
1782968837056658400,6.424658447265625,-0.8388770818710327,0.5745162963867188,-0.23979608714580536
1782968837066584300,6.434584228515625,-0.8175459504127502,0.520254909992218,-0.2265673577785492
1782968837076511500,6.444511474609375,-0.806865394115448,0.4596163332462311,-0.24782204627990723
1782968837086437400,6.454437255859375,-0.8144239783287048,0.3884710371494293,-0.31855854392051697
1782968837096363300,6.46436328125,-0.8527513742446899,0.30199286341667175,-0.4209275245666504
1782968837106290400,6.47429052734375,-0.906766414642334,0.20115521550178528,-0.5480388402938843
1782968837116216300,6.48421630859375,-0.9647617936134338,0.11364293843507767,-0.7275915741920471
1782968837126142500,6.494142578125,-0.9900354743003845,0.008051268756389618,-0.8547593951225281
1782968837136068400,6.504068359375,-0.964156985282898,-0.12192004919052124,-0.948017418384552
1782968837145995300,6.513995361328125,-0.9141814112663269,-0.2561018168926239,-1.0495035648345947
1782968837155921400,6.52392138671875,-0.8578590154647827,-0.35815733671188354,-1.1686536073684692
1782968837165847300,6.533847412109375,-0.7808856964111328,-0.39289456605911255,-1.264822006225586
1782968837175774200,6.543774169921875,-0.6832574009895325,-0.3484562635421753,-1.308831810951233
1782968837185700400,6.553700439453125,-0.5778058171272278,-0.24334900081157684,-1.326473355293274
1782968837195626500,6.56362646484375,-0.45008033514022827,-0.08300966769456863,-1.2961519956588745
1782968837205553400,6.573553466796875,-0.3466716706752777,0.08052919805049896,-1.2365336418151855
1782968837215479300,6.583479248046875,-0.2869894206523895,0.19558919966220856,-1.1680315732955933
1782968837225405400,6.593405517578125,-0.28267163038253784,0.2893553674221039,-1.0876432657241821
1782968837235332600,6.60333251953125,-0.34437230229377747,0.37349262833595276,-0.9792059659957886
1782968837245258200,6.61325830078125,-0.4974939227104187,0.4774397909641266,-0.8406587243080139
1782968837255184400,6.623184326171875,-0.6894846558570862,0.45059406757354736,-0.6557427048683167
1782968837265110500,6.633110595703125,-0.8077971935272217,0.45527032017707825,-0.4335311949253082
1782968837275037200,6.643037109375,-0.760994017124176,0.5941453576087952,-0.2885012924671173
1782968837284963300,6.65296337890625,-0.6510507464408875,0.7070533037185669,-0.24390506744384766
1782968837294889500,6.662889404296875,-0.6347506046295166,0.7698037624359131,-0.264383465051651
1782968837304816400,6.67281640625,-0.6852481365203857,0.7362008094787598,-0.3257349729537964
1782968837314742300,6.6827421875,-0.6564550995826721,0.7618566155433655,-0.46346405148506165
1782968837324668400,6.69266845703125,-0.49318546056747437,0.9159063696861267,-0.7114363312721252
1782968837334595300,6.70259521484375,-0.04077752307057381,0.6176360249519348,-0.6317108869552612
1782968837344521200,6.712521240234375,0.33241763710975647,0.3247237503528595,-0.33002904057502747
1782968837354447400,6.722447265625,0.39031848311424255,0.299471914768219,-0.21797068417072296
1782968837364374300,6.732374267578125,0.5707958340644836,0.3274337947368622,-0.04111840948462486
1782968837374300400,6.742300537109375,0.6713842153549194,0.14281068742275238,0.17523573338985443
1782968837384226300,6.752226318359375,0.7263819575309753,-0.09084148705005646,0.3646714389324188
1782968837394153500,6.762153564453125,0.775870680809021,-0.10935471951961517,0.5233258008956909
1782968837404079400,6.772079345703125,0.8285565376281738,0.048165131360292435,0.6355793476104736
1782968837414005200,6.782005126953125,0.8404723405838013,0.21813233196735382,0.696065366268158
1782968837423931400,6.791931396484375,0.9854673147201538,0.2798321843147278,0.7859582304954529
1782968837433858300,6.8018583984375,1.0966074466705322,0.2946995496749878,0.9308823943138123
1782968837443784400,6.811784423828125,1.0965325832366943,0.3051319420337677,1.0616403818130493
1782968837453710300,6.82171044921875,0.8959164023399353,0.26608335971832275,1.136224627494812
1782968837463637200,6.83163720703125,0.5766580104827881,0.29658904671669006,1.1716464757919312
1782968837473563400,6.8415634765625,0.30597829818725586,0.33429035544395447,1.211163878440857
1782968837483489300,6.8514892578125,0.10576744377613068,0.3069554269313812,1.2369823455810547
1782968837493416200,6.861416259765625,-0.06591802835464478,0.13192208111286163,1.1960514783859253
1782968837503342300,6.87134228515625,-0.2458539754152298,-0.13249360024929047,1.0865271091461182
1782968837513268500,6.8812685546875,-0.4321601986885071,-0.3387865722179413,0.937701404094696
1782968837523194400,6.8911943359375,-0.6089740991592407,-0.39928773045539856,0.793657124042511
1782968837533121300,6.901121337890625,-0.7259998321533203,-0.14691275358200073,0.6540795564651489
1782968837543047400,6.91104736328125,-0.6949079632759094,0.36288684606552124,0.4258919060230255
1782968837552973600,6.9209736328125,-0.5368373394012451,0.530868411064148,0.22857458889484406
1782968837562900200,6.930900146484375,-0.1927952915430069,1.0264850854873657,-0.12421009689569473
1782968837572826400,6.940826416015625,0.12231765687465668,1.2851406335830688,-0.3542150557041168
1782968837582752500,6.95075244140625,0.4306824207305908,1.4510246515274048,-0.5136539936065674
1782968837592679400,6.960679443359375,0.7453396916389465,1.426439642906189,-0.6025705337524414
1782968837602605300,6.970605224609375,1.0485565662384033,1.2287812232971191,-0.5863606929779053
1782968837612531500,6.980531494140625,1.4207605123519897,0.7846642136573792,-0.4837472438812256
1782968837622458400,6.990458251953125,1.7430570125579834,0.3704683482646942,-0.31922805309295654
1782968837632384300,7.00038427734375,1.7815601825714111,0.10853420197963715,-0.0957060158252716
1782968837642310400,7.010310302734375,1.5609242916107178,-0.18660743534564972,0.1778395026922226
1782968837652236500,7.020236572265625,1.254887342453003,-0.4927729368209839,0.49239397048950195
1782968837662163500,7.03016357421875,1.067927360534668,-0.7303143739700317,0.7529762983322144
1782968837672089300,7.04008935546875,0.9588890075683594,-0.8529436588287354,0.8862392902374268
1782968837682015500,7.050015380859375,0.8718920350074768,-0.8835074305534363,0.9026712775230408
1782968837691942400,7.0599423828125,0.8118585348129272,-0.8236757516860962,0.8229798674583435
1782968837701868300,7.069868408203125,0.8108987212181091,-0.6715048551559448,0.7086969614028931
1782968837711794400,7.07979443359375,0.8757344484329224,-0.45923149585723877,0.6182762980461121
1782968837721721300,7.089721435546875,0.96109938621521,-0.22431273758411407,0.5756763815879822
1782968837731647500,7.0996474609375,1.0091137886047363,-0.011136540211737156,0.586611807346344
1782968837741573400,7.109573486328125,1.0103031396865845,0.07846204936504364,0.6218878030776978
1782968837751500000,7.1195,0.9607484340667725,0.0838024914264679,0.6470400094985962
1782968837761426200,7.12942626953125,0.8868350386619568,0.010824950411915779,0.6436482071876526
1782968837771352000,7.13935205078125,0.81345134973526,-0.08324242383241653,0.6238846182823181
1782968837781279000,7.149279052734375,0.8004881739616394,-0.12561118602752686,0.6126463413238525
1782968837791205000,7.159205078125,0.8273783922195435,-0.09284684807062149,0.5997087359428406
1782968837801131300,7.16913134765625,0.8762982487678528,-0.02214019000530243,0.5708072781562805
1782968837811057200,7.17905712890625,0.9241184592247009,0.049250371754169464,0.5180647373199463
1782968837820984000,7.188984130859375,0.9784749150276184,0.13861674070358276,0.44755834341049194
1782968837830910200,7.19891015625,0.9960387349128723,0.21973422169685364,0.3479297459125519
1782968837840836000,7.208836181640625,0.9585108160972595,0.25999268889427185,0.2261015772819519
1782968837850763000,7.218762939453125,0.864630937576294,0.21738025546073914,0.10463985800743103
1782968837860689200,7.228689208984375,0.7467953562736511,0.1414482146501541,-0.01073946338146925
1782968837870615300,7.238615234375,0.6192680597305298,0.11684086918830872,-0.10757199674844742
1782968837880542000,7.2485419921875,0.49446406960487366,0.19809897243976593,-0.16699671745300293
1782968837890468000,7.258468017578125,0.3802237808704376,0.3064099848270416,-0.183336541056633
1782968837900394200,7.268394287109375,0.3148990869522095,0.42019516229629517,-0.17446129024028778
1782968837910321200,7.278321044921875,0.30907875299453735,0.6171348690986633,-0.13057132065296173
1782968837920247000,7.2882470703125,0.3647436201572418,0.809934139251709,-0.06755933910608292
1782968837930173200,7.298173095703125,0.42722830176353455,0.9455050230026245,-0.014918762259185314
1782968837940099300,7.308099365234375,0.4732668995857239,1.047682523727417,0.019278623163700104
1782968837950026000,7.31802587890625,0.4771162271499634,1.0375244617462158,0.029318207874894142
1782968837959952100,7.3279521484375,0.43691447377204895,0.955492377281189,0.02058037556707859
1782968837969878300,7.337878173828125,0.3551913797855377,0.7647179365158081,-0.0020852552261203527
1782968837979805200,7.34780517578125,0.22811731696128845,0.5030788779258728,-0.0354437455534935
1782968837989731000,7.35773095703125,0.04881893843412399,0.21836429834365845,-0.04568466544151306
1782968837999657200,7.3676572265625,-0.14436116814613342,-0.0731586292386055,-0.049972619861364365
1782968838009584000,7.377584228515625,-0.3177715837955475,-0.3215436637401581,-0.06434383243322372
1782968838019510000,7.387510009765625,-0.5061625242233276,-0.6471531987190247,-0.1435430496931076
1782968838029436200,7.397436279296875,-0.6335321664810181,-0.7938669919967651,-0.17336753010749817
1782968838039363000,7.407363037109375,-0.6803697347640991,-0.6916229128837585,-0.199421226978302
1782968838049289200,7.417289306640625,-0.7018723487854004,-0.735968828201294,-0.25151798129081726
1782968838059215000,7.427215087890625,-0.6637665033340454,-0.5599352121353149,-0.2499893307685852
1782968838069142000,7.43714208984375,-0.587645947933197,-0.3854614198207855,-0.1906285434961319
1782968838079068200,7.447068115234375,-0.5383604168891907,-0.31744053959846497,-0.10066162794828415
1782968838088994000,7.456994140625,-0.5765655636787415,-0.2862567901611328,0.01950232870876789
1782968838098920200,7.466920166015625,-0.6920468807220459,-0.23578456044197083,0.18417197465896606
1782968838108847000,7.47684716796875,-0.8695127964019775,-0.1492408812046051,0.37430596351623535
1782968838118773200,7.486773193359375,-1.0774548053741455,-0.09789779782295227,0.4626275599002838
1782968838128699100,7.49669921875,-1.311584234237671,-0.061591725796461105,0.35116761922836304
1782968838138626000,7.5066259765625,-1.5659676790237427,0.045523274689912796,0.045630067586898804
1782968838148552200,7.51655224609375,-1.8024511337280273,0.17966270446777344,-0.36442482471466064
1782968838158478300,7.526478271484375,-2.0008673667907715,0.21694563329219818,-0.7743591070175171
1782968838168405000,7.536405029296875,-2.158442497253418,0.1352989673614502,-1.117019772529602
1782968838178331100,7.5463310546875,-2.1864097118377686,-0.14262506365776062,-1.3499637842178345
1782968838188257300,7.55625732421875,-2.228395700454712,-0.5625834465026855,-1.4886857271194458
1782968838198183200,7.56618310546875,-2.296628713607788,-0.8774908185005188,-1.5554897785186768
1782968838208110000,7.576110107421875,-2.3297975063323975,-1.1829493045806885,-1.539013385772705
1782968838218036200,7.5860361328125,-2.32434344291687,-1.4669396877288818,-1.4508494138717651
1782968838227962400,7.59596240234375,-2.3149209022521973,-1.600750207901001,-1.3540141582489014
1782968838237889000,7.605888916015625,-2.2991111278533936,-1.5867012739181519,-1.2728922367095947
1782968838247815200,7.615815185546875,-2.267155885696411,-1.5035003423690796,-1.193393588066101
1782968838257741300,7.6257412109375,-2.257124423980713,-1.4225884675979614,-1.0953147411346436
1782968838267668200,7.635668212890625,-2.2484018802642822,-1.2644600868225098,-0.9897782206535339
1782968838277594000,7.645593994140625,-2.0596585273742676,-0.9144080877304077,-0.9741888642311096
1782968838287520300,7.655520263671875,-1.7301374673843384,-0.4328629970550537,-1.0470439195632935
1782968838297447200,7.665447265625,-1.4998323917388916,0.044018324464559555,-1.1250158548355103
1782968838307373000,7.675373046875,-1.3637349605560303,0.3208954632282257,-1.2123183012008667
1782968838317299200,7.68529931640625,-1.1913573741912842,0.3509873151779175,-1.3114478588104248
1782968838327226000,7.69522607421875,-0.9816973805427551,0.19283762574195862,-1.3515270948410034
1782968838337152300,7.70515234375,-0.7677914500236511,-0.049616023898124695,-1.3527822494506836
1782968838347078100,7.715078125,-0.5722815990447998,-0.3513260781764984,-1.3194506168365479
1782968838357004300,7.72500439453125,-0.3895898461341858,-0.5972226858139038,-1.2403403520584106
1782968838366931200,7.73493115234375,-0.23095917701721191,-0.7147093415260315,-1.1098108291625977
1782968838376857000,7.744857177734375,-0.10085444152355194,-0.7187067270278931,-0.9505380988121033
1782968838386783200,7.754783203125,-0.0424095094203949,-0.7670891880989075,-0.6730513572692871
1782968838396710100,7.764710205078125,-0.07956406474113464,-0.8121954202651978,-0.2764987051486969
1782968838406636300,7.77463623046875,-0.16676421463489532,-0.8281980752944946,0.14688611030578613
1782968838416562200,7.784562255859375,-0.2158161848783493,-0.8463349938392639,0.48482954502105713
1782968838426489000,7.794489013671875,-0.18453948199748993,-0.7126075625419617,0.746285617351532
1782968838436415200,7.804415283203125,-0.02557060681283474,-0.41508588194847107,0.8243988156318665
1782968838446341000,7.814341064453125,0.25620222091674805,-0.19710853695869446,0.8218666911125183
1782968838456268000,7.82426806640625,0.5873250365257263,0.11387117207050323,0.7387923002243042
1782968838466194200,7.834194091796875,0.8361204862594604,0.4598890244960785,0.5716994404792786
1782968838476120300,7.844120361328125,0.9462770819664001,0.7684479355812073,0.43810224533081055
1782968838486046000,7.8540458984375,0.9293739795684814,0.995913565158844,0.36353373527526855
1782968838495973000,7.86397314453125,0.7921718955039978,1.0413711071014404,0.299247145652771
1782968838505899300,7.873899169921875,0.6750431656837463,0.9944688081741333,0.2690546214580536
1782968838515825200,7.8838251953125,0.645703911781311,0.8014892339706421,0.18754859268665314
1782968838525752000,7.893751953125,0.5670604705810547,0.5140202045440674,0.06494544446468353
1782968838535678200,7.90367822265625,0.45110008120536804,0.29405346512794495,-0.031626902520656586
1782968838545604400,7.913604248046875,0.441209614276886,0.10210852324962616,-0.062651127576828
1782968838555531000,7.923531005859375,0.522576630115509,-0.032180305570364,-0.0033878071699291468
1782968838565457200,7.93345703125,0.6713831424713135,-0.11977380514144897,0.15417519211769104
1782968838575383300,7.94338330078125,0.8565964102745056,-0.13229012489318848,0.4265449345111847
1782968838585310200,7.953310302734375,0.979096531867981,-0.23340901732444763,0.7252730131149292
1782968838595236000,7.963236083984375,1.1057740449905396,-0.22346211969852448,1.0015085935592651
1782968838605162200,7.973162353515625,1.3415911197662354,-0.31277334690093994,1.1729331016540527
1782968838615089200,7.983089111328125,1.5385712385177612,-0.34005478024482727,1.1941348314285278
1782968838625015300,7.993015380859375,1.5668977499008179,-0.27450719475746155,1.1864601373672485
1782968838634941200,8.002941162109375,1.506737470626831,-0.2500247657299042,1.1518679857254028
1782968838644867000,8.0128671875,1.3612449169158936,-0.3311832547187805,1.0597162246704102
1782968838654793000,8.02279296875,1.1944588422775269,-0.4508824944496155,0.921424150466919
1782968838664719000,8.032718994140625,1.0732227563858032,-0.5907738208770752,0.8387740254402161
1782968838674646000,8.04264599609375,1.0049105882644653,-0.7122637629508972,0.8576944470405579
1782968838684572200,8.052572265625,0.9740631580352783,-0.7951099276542664,0.9200907349586487
1782968838694498000,8.062498046875,0.9510550498962402,-0.8272992968559265,0.9757691621780396
1782968838704424200,8.072424072265624,0.9170869588851929,-0.7828034162521362,0.9800273180007935
1782968838714351000,8.08235107421875,0.8498503565788269,-0.7233523726463318,0.910654604434967
1782968838724277200,8.09227734375,0.7626709938049316,-0.6026754975318909,0.8016604781150818
1782968838734203100,8.102203125,0.6805649399757385,-0.4625071883201599,0.6656251549720764
1782968838744130000,8.112130126953126,0.5850429534912109,-0.3173832893371582,0.5249655246734619
1782968838754055700,8.1220556640625,0.4927431344985962,-0.1976718008518219,0.37757444381713867
1782968838763981800,8.13198193359375,0.41771388053894043,-0.06372678279876709,0.2613184154033661
1782968838773908700,8.14190869140625,0.3636615574359894,0.07639516890048981,0.1860998272895813
1782968838783835000,8.1518349609375,0.3322722315788269,0.2138153463602066,0.16799326241016388
1782968838793760800,8.1617607421875,0.30459797382354736,0.31059569120407104,0.18198631703853607
1782968838803688000,8.17168798828125,0.34278663992881775,0.35571202635765076,0.21499831974506378
1782968838813613800,8.18161376953125,0.3600519299507141,0.33303388953208923,0.2822173237800598
1782968838823539700,8.191539794921875,0.43175408244132996,0.23513156175613403,0.33923637866973877
1782968838833467000,8.201466796875,0.4473002851009369,0.1706540286540985,0.41488826274871826
1782968838843392800,8.211392822265625,0.4410698115825653,0.04013916477560997,0.48044756054878235
1782968838853319000,8.22131884765625,0.4069805443286896,-0.11963798105716705,0.49453088641166687
1782968838863244800,8.231244873046874,0.32115912437438965,-0.2742672264575958,0.47001758217811584
1782968838873171700,8.241171630859375,0.18803249299526215,-0.3930562138557434,0.40588971972465515
1782968838883097900,8.251097900390626,0.027689151465892792,-0.47281894087791443,0.2815222144126892
1782968838893024000,8.26102392578125,-0.11274918168783188,-0.5128329396247864,0.10955844819545746
1782968838902950700,8.27095068359375,-0.2263449877500534,-0.4887944459915161,-0.09384021162986755
1782968838912876800,8.280876708984374,-0.34069952368736267,-0.39956018328666687,-0.28388869762420654
1782968838922803000,8.290802978515625,-0.4227704405784607,-0.2836644649505615,-0.4101651608943939
1782968838932729900,8.300729736328124,-0.41343897581100464,-0.04869962856173515,-0.5479392409324646
1782968838942655700,8.31065576171875,-0.42042019963264465,0.12758591771125793,-0.5634162425994873
1782968838952582000,8.320581787109376,-0.3757967948913574,0.27213725447654724,-0.4451473653316498
1782968838962508800,8.3305087890625,-0.345344603061676,0.3811958134174347,-0.25002554059028625
1782968838972434700,8.3404345703125,-0.3547911047935486,0.5285775661468506,-0.05289570614695549
1782968838982360800,8.35036083984375,-0.3563924729824066,0.4368990361690521,0.027900340035557747
1782968838992287000,8.360286865234375,-0.3566092550754547,0.31220370531082153,0.031268440186977386
1782968839002214000,8.3702138671875,-0.3701258599758148,0.17576037347316742,-0.03128867968916893
1782968839012141800,8.380141845703125,-0.42752256989479065,0.003501790575683117,-0.1641109138727188
1782968839022068700,8.39006884765625,-0.530786395072937,-0.14747121930122375,-0.3233937621116638
1782968839031995000,8.399994873046875,-0.6195766925811768,-0.2638241946697235,-0.4770943820476532
1782968839041921000,8.409921142578124,-0.6599137187004089,-0.3255527913570404,-0.5934225916862488
1782968839051848000,8.419847900390625,-0.6641018390655518,-0.33820387721061707,-0.6769973635673523
1782968839061773800,8.42977392578125,-0.6064252257347107,-0.3506930470466614,-0.7427873015403748
1782968839071700000,8.439699951171875,-0.5598044395446777,-0.20779819786548615,-0.7355315089225769
1782968839081627000,8.449626953125,-0.5128251910209656,-0.03879959508776665,-0.6704604029655457
1782968839091552800,8.459552734375,-0.4891566336154938,0.08836688101291656,-0.584435224533081
1782968839101479000,8.46947900390625,-0.4753018021583557,0.20205429196357727,-0.5226203203201294
1782968839111405800,8.47940576171875,-0.50374436378479,0.27371329069137573,-0.4927942454814911
1782968839121332000,8.48933203125,-0.5564755201339722,0.264239102602005,-0.5104113221168518
1782968839131257900,8.4992578125,-0.6408289670944214,0.28229427337646484,-0.5551527142524719
1782968839141183700,8.509183837890625,-0.7311863303184509,0.2860248386859894,-0.6446461081504822
1782968839151111000,8.51911083984375,-0.7739819884300232,0.30965134501457214,-0.7751372456550598
1782968839161037000,8.529037109375,-0.8078752160072327,0.36964941024780273,-0.8936764001846313
1782968839170962700,8.538962646484375,-0.838409423828125,0.4405811131000519,-0.9982534646987915
1782968839180889900,8.548889892578124,-0.8680397868156433,0.5052477121353149,-1.0783178806304932
1782968839190816000,8.55881591796875,-0.8593602776527405,0.5697601437568665,-1.1295243501663208
1782968839200742000,8.568741943359376,-0.7903356552124023,0.6109991669654846,-1.1808781623840332
1782968839210668800,8.578668701171875,-0.7206436395645142,0.6530065536499023,-1.2315727472305298
1782968839220595000,8.588594970703125,-0.6702249646186829,0.6757227778434753,-1.2904319763183594
1782968839230521000,8.59852099609375,-0.6163955330848694,0.7064180970191956,-1.3153266906738281
1782968839240447700,8.60844775390625,-0.5581575632095337,0.7627434730529785,-1.2883720397949219
1782968839250374000,8.618373779296874,-0.5044053792953491,0.8184386491775513,-1.2729449272155762
1782968839260300000,8.628300048828125,-0.47705602645874023,0.8189244270324707,-1.1980879306793213
1782968839270225700,8.6382255859375,-0.4534665644168854,0.7102775573730469,-1.0009852647781372
1782968839280152800,8.64815283203125,-0.4050622582435608,0.44584885239601135,-0.8131924867630005
1782968839290079000,8.658078857421875,-0.3394302725791931,0.3141065239906311,-0.6611068248748779
1782968839300004900,8.6680048828125,-0.29324865341186523,0.2281346321105957,-0.5436374545097351
1782968839309931800,8.677931884765625,-0.21000276505947113,0.18049733340740204,-0.48406389355659485
1782968839319858000,8.68785791015625,-0.15391233563423157,0.1681501269340515,-0.438850075006485
1782968839329783800,8.69778369140625,-0.08644700795412064,0.1454317569732666,-0.4064508378505707
1782968839339711000,8.7077109375,-0.02948012761771679,0.13556049764156342,-0.34967944025993347
1782968839349636900,8.717636962890625,-0.01896383799612522,0.1174030601978302,-0.27799272537231445
1782968839359562800,8.727562744140625,0.01743891090154648,0.09444261342287064,-0.22914184629917145
1782968839369490000,8.737489990234375,0.082935631275177,0.10056761652231216,-0.24868863821029663
1782968839379415800,8.747415771484375,0.10582230240106583,0.1276993751525879,-0.3008647561073303
1782968839389342000,8.757342041015624,0.10260041058063507,0.0890800729393959,-0.3262563943862915
1782968839399268900,8.767268798828125,0.12831775844097137,-0.05994296073913574,-0.2620888650417328
1782968839409195000,8.777195068359376,0.19448186457157135,-0.23561838269233704,-0.11016538739204407
1782968839419121000,8.787120849609375,0.33655884861946106,-0.39275261759757996,0.03725868836045265
1782968839429046800,8.797046875,0.4652326703071594,-0.4030182957649231,0.32661300897598267
1782968839438974000,8.806973876953125,0.6127651333808899,-0.45193150639533997,0.6064968705177307
1782968839448899800,8.81689990234375,0.7751671075820923,-0.39039039611816406,0.8122550845146179
1782968839458825700,8.82682568359375,0.8949246406555176,-0.29307156801223755,0.8874041438102722
1782968839468753000,8.8367529296875,0.9357181787490845,-0.1736612766981125,0.8512037992477417
1782968839478679000,8.846678955078126,0.928818941116333,-0.12273816764354706,0.7629743218421936
1782968839488604700,8.856604736328125,0.9010970592498779,-0.14985208213329315,0.6941452026367188
1782968839498531800,8.86653173828125,0.8580287098884583,-0.24893711507320404,0.6744686961174011
1782968839508458000,8.8764580078125,0.8049249649047852,-0.3931211829185486,0.6936227083206177
1782968839518383600,8.886383544921875,0.7732983231544495,-0.5061721205711365,0.7749404311180115
1782968839528310800,8.896310791015624,0.779522180557251,-0.559471845626831,0.9125574231147766
1782968839538237000,8.90623681640625,0.8154734969139099,-0.5245668292045593,1.0357056856155396
1782968839548162800,8.916162841796876,0.8715794086456299,-0.46521854400634766,1.134299397468567
1782968839558088700,8.926088623046875,0.9468749165534973,-0.3728582561016083,1.2054252624511719
1782968839568016000,8.936015869140626,1.0183045864105225,-0.23139913380146027,1.2732367515563965
1782968839577942000,8.94594189453125,1.0739338397979736,-0.11648347228765488,1.3416709899902344
1782968839587867600,8.95586767578125,1.1261093616485596,0.046964045614004135,1.4439829587936401
1782968839597794800,8.965794921875,1.1244488954544067,0.09695051610469818,1.4561562538146973
1782968839607721000,8.975720947265625,1.108279824256897,0.08771147578954697,1.4031250476837158
1782968839617646800,8.985646728515626,1.0955296754837036,-0.014965900219976902,1.3023555278778076
1782968839627574000,8.995573974609375,1.0112075805664062,-0.24448910355567932,1.226180076599121
1782968839637500000,9.0055,0.8337060213088989,-0.515396237373352,1.2121175527572632
1782968839647425800,9.01542578125,0.7140344977378845,-0.6490775942802429,1.249118447303772
1782968839657353000,9.02535302734375,0.7868828773498535,-0.7198976874351501,1.2639237642288208
1782968839667278800,9.03527880859375,0.8292609453201294,-0.7846170663833618,1.2674225568771362
1782968839677204700,9.045204833984375,0.8222419023513794,-0.753894031047821,1.2588996887207031
1782968839687132000,9.0551318359375,0.7918304800987244,-0.7125135660171509,1.2210828065872192
1782968839697058000,9.06505810546875,0.7350881099700928,-0.643468976020813,1.1566462516784668
1782968839706983700,9.074983642578125,0.65870201587677,-0.5620513558387756,1.0769459009170532
1782968839716909800,9.084909912109374,0.5527023077011108,-0.47855913639068604,0.9794581532478333
1782968839726837000,9.0948369140625,0.4472036063671112,-0.37021854519844055,0.8478508591651917
1782968839736763000,9.104762939453124,0.3249754309654236,-0.2509182393550873,0.7113500237464905
1782968839746688800,9.114688720703125,0.21987031400203705,-0.10517328977584839,0.5844413638114929
1782968839756616200,9.1246162109375,0.14541658759117126,0.0702882781624794,0.443973183631897
1782968839766542000,9.1345419921875,0.11271243542432785,0.26741358637809753,0.29271548986434937
1782968839776468200,9.14446826171875,0.10603509098291397,0.43201690912246704,0.11063330620527267
1782968839786395400,9.1543955078125,0.12166251987218857,0.6084601283073425,-0.011678759939968586
1782968839796321300,9.1643212890625,0.13061606884002686,0.7035432457923889,-0.06436993181705475
1782968839806247200,9.1742470703125,0.12454485893249512,0.6749222278594971,-0.0335257351398468
1782968839816174300,9.18417431640625,0.18096259236335754,0.5753524899482727,0.10627477616071701
1782968839826100200,9.194100341796876,0.2731143534183502,0.3598516583442688,0.29582738876342773
1782968839836026000,9.204026123046875,0.35666224360466003,0.09434834122657776,0.46610379219055176
1782968839845952300,9.2139521484375,0.40277114510536194,-0.1323162317276001,0.5794199705123901
1782968839855879400,9.22387939453125,0.3900441825389862,-0.27251407504081726,0.5941368341445923
1782968839865805000,9.23380517578125,0.3533862829208374,-0.3451584577560425,0.5450310707092285
1782968839875731200,9.243731201171874,0.32764124870300293,-0.35612988471984863,0.4346955418586731
1782968839885658400,9.253658447265625,0.270140141248703,-0.3525457978248596,0.26725485920906067
1782968839895584300,9.263584228515626,0.1653820425271988,-0.3493100702762604,0.060916878283023834
1782968839905510100,9.27351025390625,0.03917376697063446,-0.35442572832107544,-0.13893364369869232
1782968839915437300,9.283437255859376,-0.0743221640586853,-0.3483606278896332,-0.27772003412246704
1782968839925363200,9.29336328125,-0.17530417442321777,-0.30648377537727356,-0.33289194107055664
1782968839935289000,9.3032890625,-0.253776878118515,-0.21381747722625732,-0.30232977867126465
1782968839945216300,9.31321630859375,-0.292185515165329,-0.06559046357870102,-0.2042069286108017
1782968839955142100,9.32314208984375,-0.29336822032928467,0.13502199947834015,-0.09212220460176468
1782968839965068300,9.333068359375,-0.2316521406173706,0.3621393144130707,-0.00635004136711359
1782968839974994200,9.342994140625,-0.16156892478466034,0.5254595279693604,0.02640550769865513
1782968839984921300,9.35292138671875,-0.10543374717235565,0.5517725944519043,-0.02395513467490673
1782968839994847200,9.36284716796875,-0.1096668392419815,0.43879014253616333,-0.12955400347709656
1782968840004773000,9.372773193359375,-0.17348816990852356,0.21067042648792267,-0.25087136030197144
1782968840014700300,9.3827001953125,-0.31667834520339966,-0.08213881403207779,-0.3349153995513916
1782968840024626200,9.392626220703125,-0.6146839261054993,-0.34043240547180176,-0.380382239818573
1782968840034552300,9.40255224609375,-0.8333446383476257,-0.45898008346557617,-0.4254719316959381
1782968840044479200,9.412479248046875,-0.9006648063659668,-0.5107538104057312,-0.4950433075428009
1782968840054405000,9.422405029296876,-0.9396905303001404,-0.48946982622146606,-0.5922534465789795
1782968840064331300,9.432331298828124,-1.0291253328323364,-0.33421021699905396,-0.6910916566848755
1782968840074258400,9.442258544921875,-1.1171412467956543,-0.0405716598033905,-0.7437095642089844
1782968840084184000,9.45218408203125,-1.1315393447875977,0.1800834834575653,-0.8228898644447327
1782968840094110200,9.462110107421875,-1.0774204730987549,0.323825478553772,-0.933823823928833
1782968840104036400,9.472036376953126,-1.0297157764434814,0.44557082653045654,-1.019066333770752
1782968840113963000,9.481962890625,-1.0135260820388794,0.5909216403961182,-1.0959069728851318
1782968840123889200,9.49188916015625,-0.9238787889480591,0.6553463935852051,-1.153266191482544
1782968840133815300,9.501815185546874,-0.8792495727539062,0.5127442479133606,-1.2723995447158813
1782968840143742200,9.5117421875,-0.9079352617263794,0.29265981912612915,-1.3995842933654785
1782968840153668000,9.521668212890624,-1.0083523988723755,0.2646644115447998,-1.4919062852859497
1782968840163594200,9.53159423828125,-1.0746781826019287,0.23602664470672607,-1.5062663555145264
1782968840173521400,9.541521484375,-1.1106306314468384,0.2482934296131134,-1.4769763946533203
1782968840183447000,9.551447021484375,-1.148632287979126,0.3226377069950104,-1.4219772815704346
1782968840193373200,9.561373291015625,-1.1772061586380005,0.3799896836280823,-1.3856834173202515
1782968840203300400,9.57130029296875,-1.1998683214187622,0.31485727429389954,-1.4154397249221802
1782968840213226200,9.581226318359375,-1.2112115621566772,0.15391233563423157,-1.5142807960510254
1782968840223152000,9.591152099609374,-1.22819983959198,-0.043528035283088684,-1.6626559495925903
1782968840233078300,9.601078369140625,-1.2879127264022827,-0.22323015332221985,-1.8426792621612549
1782968840243005200,9.611005126953126,-1.3882163763046265,-0.41472315788269043,-2.0187275409698486
1782968840252931000,9.62093115234375,-1.5037986040115356,-0.633605420589447,-2.1519508361816406
1782968840262857200,9.630857177734375,-1.5797897577285767,-0.7632781863212585,-2.196913480758667
1782968840272784100,9.6407841796875,-1.5760719776153564,-0.8021001815795898,-2.1678380966186523
1782968840282710300,9.650710205078125,-1.5472235679626465,-0.7862858176231384,-2.039262533187866
1782968840292636200,9.66063623046875,-1.5124720335006714,-0.7262261509895325,-1.7860729694366455
1782968840302563000,9.67056298828125,-1.4578557014465332,-0.5555828213691711,-1.4378262758255005
1782968840312489200,9.6804892578125,-1.3576552867889404,-0.25903528928756714,-1.0861414670944214
1782968840322415000,9.6904150390625,-1.222745656967163,0.19084106385707855,-0.7689781785011292
1782968840332342300,9.70034228515625,-1.0804133415222168,0.3723275065422058,-0.5496772527694702
1782968840342268200,9.71026806640625,-0.9486648440361023,0.3536568582057953,-0.37019243836402893
1782968840352194300,9.7201943359375,-0.8100323677062988,0.33712849020957947,-0.1613718420267105
1782968840362121200,9.730121337890624,-0.660880446434021,0.38929980993270874,0.08655273169279099
1782968840372047000,9.740047119140625,-0.5132441520690918,0.410232275724411,0.3317379951477051
1782968840381973200,9.74997314453125,-0.3877522647380829,0.3675455152988434,0.5230136513710022
1782968840391899100,9.759899169921875,-0.2531752586364746,0.33390873670578003,0.6109430193901062
1782968840401826000,9.769825927734376,-0.07460073381662369,0.36830079555511475,0.581595778465271
1782968840411752200,9.779752197265625,0.0698310136795044,0.38425153493881226,0.517048180103302
1782968840421678300,9.78967822265625,0.11681583523750305,0.4068892002105713,0.440010666847229
1782968840431605200,9.799605224609374,0.09732548892498016,0.39464426040649414,0.34943869709968567
1782968840441531100,9.80953125,0.0961821898818016,0.29357996582984924,0.2510189116001129
1782968840451457300,9.819457275390626,0.12388572841882706,0.1498912274837494,0.1685035228729248
1782968840461384200,9.82938427734375,0.21047867834568024,0.09840140491724014,0.14679662883281708
1782968840471310000,9.83931005859375,0.30335721373558044,0.14169801771640778,0.20841845870018005
1782968840481236200,9.849236328125,0.44809550046920776,0.28331106901168823,0.3786410391330719
1782968840491163100,9.8591630859375,0.6042800545692444,0.5698448419570923,0.5864054560661316
1782968840501089300,9.86908935546875,0.7448858618736267,0.8022394776344299,0.7696671485900879
1782968840511015200,9.87901513671875,0.812557578086853,0.9628874659538269,0.8883607387542725
1782968840520941300,9.88894140625,0.8685675859451294,0.9274623394012451,0.9777953028678894
1782968840530868200,9.8988681640625,0.9225586652755737,0.7680388689041138,1.0565404891967773
1782968840540794000,9.908794189453126,0.9325175881385803,0.5698363184928894,1.0655837059020996
1782968840550720300,9.91872021484375,0.9234476089477539,0.3667750656604767,1.0237654447555542
1782968840560647200,9.928647216796875,0.911629319190979,0.25913381576538086,0.9921201467514038
1782968840570573300,9.9385732421875,0.9284530282020569,0.2879697382450104,0.9415438175201416
1782968840580499200,9.948499267578125,0.9645950794219971,0.3739336431026459,0.8963720798492432
1782968840590426000,9.958426025390626,1.0272706747055054,0.446397989988327,0.842660665512085
1782968840600352300,9.968352294921875,1.1021648645401,0.4889792799949646,0.7727872729301453
1782968840610278100,9.978278076171875,1.2171900272369385,0.5275163054466248,0.6976779103279114
1782968840620205000,9.988205078125,1.371209979057312,0.5585101246833801,0.6408055424690247
1782968840630131200,9.998131103515625,1.5496127605438232,0.5342569947242737,0.6160107254981995
1782968840640057300,10.008057373046874,1.7286325693130493,0.43785110116004944,0.6351112127304077
1782968840649983200,10.017983154296875,1.9168330430984497,0.2550908923149109,0.692546010017395
1782968840659910100,10.02791015625,2.067356586456299,0.06180424615740776,0.7465423941612244
1782968840669836300,10.037836181640625,2.143524169921875,-0.020082898437976837,0.7575367093086243
1782968840679762200,10.04776220703125,2.1488120555877686,-0.048344895243644714,0.7587891817092896
1782968840689689000,10.057689208984375,2.065180540084839,-0.2409771978855133,0.7632707357406616
1782968840699615200,10.067615234375,1.9267618656158447,-0.4388415515422821,0.8019270896911621
1782968840709541400,10.077541259765624,1.769814372062683,-0.6153284311294556,0.8851085305213928
1782968840719468000,10.087468017578125,1.6054086685180664,-0.7536458373069763,1.0006239414215088
1782968840729394200,10.097394287109376,1.427103877067566,-0.8154854774475098,1.0972518920898438
1782968840739320300,10.1073203125,1.2471798658370972,-0.812698483467102,1.1315348148345947
1782968840749247200,10.117247314453126,1.0158169269561768,-0.740146279335022,1.1114319562911987
1782968840759173000,10.127173095703125,0.8385325074195862,-0.5938657522201538,1.064205527305603
1782968840769099000,10.13709912109375,0.7596834897994995,-0.41796875,1.01944899559021
1782968840779025200,10.147025146484374,0.733132541179657,-0.27435192465782166,0.9472523331642151
1782968840788952000,10.1569521484375,0.6981551051139832,-0.15725673735141754,0.792237401008606
1782968840798878200,10.166878173828126,0.6740849614143372,-0.08642623573541641,0.553881824016571
1782968840808804000,10.17680419921875,0.6932263970375061,-0.041606564074754715,0.33092784881591797
1782968840818731000,10.18673095703125,0.752699077129364,-0.044648427516222,0.16559669375419617
1782968840828657200,10.1966572265625,0.7575585246086121,-0.08747099339962006,0.04994012787938118
1782968840838583000,10.2065830078125,0.649820864200592,-0.15607082843780518,-0.042335204780101776
1782968840848510000,10.216510009765624,0.49138492345809937,-0.17734229564666748,-0.10875151306390762
1782968840858436000,10.22643603515625,0.2928811311721802,-0.14494839310646057,-0.10379350930452347
1782968840868362200,10.2363623046875,0.13848836719989777,-0.07223264873027802,-0.006613694131374359
1782968840878289000,10.246288818359375,0.09013708680868149,-0.07689877599477768,0.1531756967306137
1782968840888215000,10.256215087890626,0.08328290283679962,-0.11190949380397797,0.34785225987434387
1782968840898141200,10.26614111328125,0.07779785990715027,-0.13568885624408722,0.5190706253051758
1782968840908068000,10.276068115234375,0.04622155800461769,-0.13087359070777893,0.6263611316680908
1782968840917994000,10.285993896484374,-0.006976949516683817,-0.0739746242761612,0.6690124273300171
1782968840927920000,10.295920166015625,-0.0013206616276875138,-0.04382604360580444,0.6388359069824219
1782968840937846300,10.30584619140625,0.04948419705033302,-0.07925353944301605,0.5503925681114197
1782968840947773200,10.315773193359375,0.14448954164981842,-0.10757812857627869,0.4158041179180145
1782968840957699000,10.325698974609375,0.1951141059398651,-0.11975117027759552,0.2689249515533447
1782968840967625200,10.335625244140624,0.15350887179374695,-0.14413081109523773,0.1097848191857338
1782968840977552100,10.34555224609375,0.04096927121281624,-0.21045896410942078,-0.048044491559267044
1782968840987478000,10.35547802734375,-0.125789612531662,-0.29132533073425293,-0.19521422684192657
1782968840997404200,10.365404052734375,-0.3088667690753937,-0.37347930669784546,-0.33415400981903076
1782968841007331000,10.3753310546875,-0.4777314066886902,-0.3737426996231079,-0.45403432846069336
1782968841017257200,10.38525732421875,-0.6272109150886536,-0.27730217576026917,-0.5641027688980103
1782968841027183000,10.39518310546875,-0.7664396166801453,-0.09367828816175461,-0.6708515882492065
1782968841037110000,10.405110107421875,-0.8643766045570374,0.08366480469703674,-0.7336348295211792
1782968841047036200,10.4150361328125,-0.8342754244804382,0.2661536633968353,-0.669240415096283
1782968841056962000,10.424962158203124,-0.6600027084350586,0.470535546541214,-0.48981764912605286
1782968841066888200,10.43488818359375,-0.5305511951446533,0.6048758029937744,-0.3201678991317749
1782968841076815000,10.444815185546876,-0.48371925950050354,0.5060866475105286,-0.18173757195472717
1782968841086741200,10.4547412109375,-0.4637961685657501,0.3616040050983429,0.0406251922249794
1782968841096667100,10.464667236328125,-0.5186316967010498,0.13151727616786957,0.09004253894090652
1782968841106594000,10.474593994140625,-0.6524885892868042,-0.09490227699279785,-0.005894640926271677
1782968841116520200,10.484520263671875,-0.813382625579834,-0.19507893919944763,-0.14891411364078522
1782968841126446000,10.494446044921874,-0.9558729529380798,-0.26216742396354675,-0.2849816679954529
1782968841136373000,10.504373046875,-1.0499491691589355,-0.2558099329471588,-0.37834838032722473
1782968841146299100,10.514299072265626,-1.1123347282409668,-0.24738529324531555,-0.41806861758232117
1782968841156225300,10.524225341796875,-1.1528006792068481,-0.2649799883365631,-0.38137105107307434
