time,seconds_elapsed,z,y,x
1782952655517192700,0.060192626953125,0.023584873726963995,-0.006015205168910324,-0.009722302358807064
1782952655527119400,0.070119384765625,0.03360883961319923,-0.008784706414863466,-0.008190206553856843
1782952655537047300,0.08004736328125,0.018944938966631887,-0.007143460280168801,-0.014694291218253783
1782952655546975500,0.0899755859375,0.03061784110367298,-0.012529665096849203,-0.015728972594812513
1782952655556902400,0.09990234375,0.03091711631119251,-0.02088029094338417,-0.011613732995442114
1782952655566830300,0.109830322265625,0.01879413231909275,-0.022027068092022088,-0.007814094117307104
1782952655576757500,0.119757568359375,0.01595335593521595,0.00276752848457545,-0.0050067907447693865
1782952655586685400,0.129685546875,0.019992986714839935,-0.013371267020143568,-0.008868777102278545
1782952655596613400,0.13961328125,0.012664251261949538,0.0002719305428676307,-0.011845002734358422
1782952655606540500,0.14954052734375,0.022093758386373518,0.01144842746509239,-0.004368145781359635
1782952655616468500,0.159468505859375,0.008025485545396805,0.004048745667841285,0.0002200222591171041
1782952655626395400,0.1693955078125,0.012517536267638206,-0.008178721612039953,-0.01725002184936311
1782952655636323300,0.1793232421875,0.0199988319337368,-0.006678527915850281,-0.014355378120089881
1782952655646251500,0.18925146484375,0.021493454405665396,-0.018764266903791574,-0.01217754089066293
1782952655656178400,0.199178466796875,0.023591887989640233,-0.014534429048001766,-0.02459004588124808
1782952655666106400,0.2091064453125,0.02239654072523117,0.0009668540044687687,-0.019791815286665224
1782952655676033500,0.219033447265625,0.03167231859266758,-0.005852598485723138,-0.002136080446932465
1782952655685961500,0.22896142578125,0.02104629516005516,-0.001762826687749475,-0.007870989103429019
1782952655695889400,0.238889404296875,0.014462240594625472,-0.004636592025775462,-0.015301965654664672
1782952655705816600,0.248816650390625,0.018052374041080475,-0.004592643286194652,-0.02292799442054238
1782952655715744500,0.25874462890625,0.013564999493956564,-0.009881671338714659,-0.01977525231093168
1782952655725671400,0.26867138671875,0.016710311782360075,0.007376739313080906,-0.005050871915090829
1782952655735599600,0.278599609375,0.01805821925997734,-0.006611508827935904,-0.020797343633975833
1782952655745526500,0.288526611328125,0.014766776499152182,0.001436480810213834,-0.004348418167582713
1782952655755454500,0.298454345703125,0.014618892461061477,0.012796499339491129,-0.010022614179365336
1782952655765382700,0.308382568359375,0.0283861365288496,0.007086469395924359,-0.008228049779636785
1782952655775309600,0.3183095703125,0.04050795147716999,-0.0016076543923467398,-0.019360068239318205
1782952655785237500,0.328237548828125,0.016563012266159055,-0.0052284204390831285,-0.022866135564935393
1782952655795164700,0.33816455078125,0.016261398971080778,0.0011126374170184134,-0.028625352112203836
1782952655805092600,0.348092529296875,0.024940964511036872,-0.010584065720718353,-0.014132378452597185
1782952655815020500,0.3580205078125,0.023145313265919683,-0.009393138903100043,-0.005960278377588838
1782952655824947700,0.36794775390625,0.026586978152394292,-0.008820417049061507,-0.0021555888650007546
1782952655834875600,0.377875732421875,0.03242459826469421,-0.01053922193199396,-0.0199992657585768
1782952655844802600,0.387802490234375,0.00892974090874195,-0.006132840199209749,-0.005197970501892269
1782952655854730500,0.39773046875,0.022546178328990935,-0.003583831569831818,-0.008093367716413922
1782952655864658700,0.40765869140625,0.02598725869357586,-0.00281681098639965,-0.030531477994471787
1782952655874585300,0.41758544921875,0.0219464588701725,-0.005350914307590574,-0.019059144497406668
1782952655884513500,0.427513427734375,0.03615852409601211,-0.0018042729429900645,0.000025632198178209362
1782952655894440400,0.4374404296875,0.02583469848036766,-0.014398326779250055,-0.00679780691396445
1782952655904368400,0.447368408203125,0.032119477838277816,0.003045907034538686,-0.02691664849817753
1782952655914296300,0.45729638671875,0.018056465694308278,0.016421521436236798,-0.02285214357220102
1782952655924223500,0.467223388671875,0.023893501284718514,0.004572678210400045,-0.01922566930388566
1782952655934151400,0.4771513671875,0.01700783342421055,0.001214727818313986,-0.017832808439689686
1782952655944078300,0.487078369140625,0.030474633240699767,-0.005613127174042165,-0.012049334233999252
1782952655954006500,0.497006591796875,0.029877251869440076,-0.009081186877097934,0.0006063318626955152
1782952655963933400,0.506933349609375,0.03107493722140789,-0.017503380122501404,-0.0298999431918608
1782952655973861400,0.516861328125,0.01805471212863922,-0.019419863002002238,-0.02431012382816989
1782952655983789600,0.52678955078125,0.02493745737969875,-0.005794676019717008,-0.02286775669986382
1782952655993716500,0.536716552734375,0.035113398957252503,0.013774276596773416,-0.013666327276849187
1782952656003644400,0.54664453125,0.02972644522190094,-0.0011937580955214797,-0.011294118252792395
1782952656013571600,0.556571533203125,0.021042203506827353,0.00872364214370027,-0.01283531981280539
1782952656023499500,0.56649951171875,0.002187280911207199,0.0000681515990756452,-0.00538525496860966
1782952656033427500,0.576427490234375,0.027476035946607587,-0.0019746245412155983,0.0021746680248063057
1782952656043354600,0.586354736328125,0.02194119817316532,-0.012372903632558881,-0.02287723234768491
1782952656053282600,0.596282470703125,0.03092237700819969,-0.004495777049288154,-0.009843732214812188
1782952656063209500,0.60620947265625,0.009973697003722191,-0.003458378559257835,-0.011982840302470139
1782952656073137400,0.616137451171875,0.027182021436095237,0.013144783054199069,-0.021809087092941624
1782952656083065600,0.626065673828125,0.033462709140777584,-0.0006412205129861831,-0.012709396444773301
1782952656092992500,0.635992431640625,0.03197042475640774,-0.007362966516055166,-0.006562865646928548
1782952656102920400,0.64592041015625,0.03107610626518726,0.005077869519870728,-0.015274251097254454
1782952656112847600,0.65584765625,0.009379822763800621,0.002488857673667371,-0.010948437487124464
1782952656122775600,0.665775634765625,0.02135258463025093,0.004951758922170847,-0.015918645381438546
1782952656132702500,0.675702392578125,0.013121931901574135,-0.003581676145363599,-0.01201292948005721
1782952656142630700,0.685630615234375,0.01551671808362007,0.00206266815084964,-0.014186743554915301
1782952656152558600,0.69555859375,0.01641395918428898,-0.0025454649654217064,-0.013518561969767324
1782952656162485200,0.7054853515625,0.019110943183302878,-0.015510160478670149,-0.016135069177672268
1782952656172413400,0.715413330078125,0.005042670342326164,0.005681169175263494,-0.014766023013903758
1782952656182340400,0.72534033203125,0.016716741523146627,-0.00944651305815205,-0.008835404555639251
1782952656192268300,0.735268310546875,0.0467903927475214,-0.0015747750360518692,-0.013719084943970665
1782952656202196500,0.745196533203125,0.01925590461194515,0.003419215592648834,-0.0048432479132432486
1782952656212123400,0.755123291015625,0.0177636202275753,-0.012277827493939549,-0.022739047719701193
1782952656222051300,0.76505126953125,0.01881283701956272,0.012219357038661836,-0.006081493604462593
1782952656231978500,0.774978515625,0.02494622520804405,0.008085216375999153,-0.006710238228365779
1782952656241906400,0.784906494140625,0.022698738542199132,0.002942684122081846,-0.01270946494343225
1782952656251834400,0.79483447265625,0.02299333757460117,-0.006951682301424443,-0.018927353077591396
1782952656261761500,0.804761474609375,0.011771101814508437,-0.009180391201563179,-0.015553383132466115
1782952656271689500,0.814689453125,0.0226958159327507,-0.0011338811344467103,-0.02134831488050986
1782952656281616400,0.824616455078125,0.005636544582247734,-0.015805618027597664,-0.024442065945034844
1782952656291544300,0.83454443359375,0.029877836391329765,-0.015613365124817936,0.0002652679066406563
1782952656301472500,0.844472412109375,0.02434241409599781,-0.009236103444173931,-0.009212010182533413
1782952656311399400,0.8543994140625,0.017162731724977492,-0.015199669757392257,-0.009744733386323787
1782952656321327400,0.864327392578125,0.02763151876926422,-0.010972571847960352,-0.015092373458016664
1782952656331254500,0.874254638671875,0.03212181592583656,-0.018032883889321238,-0.022085913006635382
1782952656341182500,0.884182373046875,0.024193945536017416,-0.005286196774616837,0.0019638839514926074
1782952656351109600,0.894109619140625,0.021347908455133437,0.0029157778488472104,-0.0032071437445469198
1782952656361037600,0.90403759765625,0.01880406919121742,-0.006652480159141123,-0.011832398981112055
1782952656370965500,0.913965576171875,0.014015081349015236,-0.0034631277996115383,-0.02561182211046107
1782952656380892400,0.923892333984375,0.009078209468722342,-0.007683686370402574,-0.010772058006911538
1782952656390820600,0.933820556640625,0.01416296538710594,-0.0019193872226402162,-0.005168068553972989
1782952656400747500,0.94374755859375,0.016706220129132268,-0.013596107018273323,-0.007238308089924976
1782952656410675500,0.953675537109375,0.024186931273341178,0.000976955273374915,-0.031597746385959906
1782952656420603400,0.963603271484375,0.015209844091534613,0.00495508339041844,-0.01790237567771692
1782952656430530600,0.973530517578125,0.01176701016128063,0.0032079109295271337,-0.02926138499341905
1782952656440458500,0.98345849609375,0.022989245921373365,0.0005036204068921506,-0.0067131973704323165
1782952656450385700,0.9933857421875,0.025683307310938833,-0.00808304268522188,-0.007328493424295447
1782952656460313600,1.003313720703125,0.01236614509820938,-0.010365618930757044,-0.017757578645856118
1782952656470240300,1.013240234375,0.00982289035618305,-0.009326923532783984,-0.025619626391003836
1782952656480168400,1.02316845703125,0.021795652222633362,-0.000552701979316771,-0.02804030963270925
1782952656490096600,1.0330966796875,0.027480712121725082,-0.012181070854887366,-0.02048452395829372
1782952656500023300,1.043023193359375,0.012962941947579383,-0.0037104718904942273,-0.01564558689398691
1782952656509951200,1.052951171875,0.014158289211988449,-0.0024761077899485826,-0.017045361556159332
1782952656519878400,1.06287841796875,0.015206336960196494,-0.0008664806362241506,-0.01483690085960552
1782952656529806300,1.072806396484375,0.025681553745269772,0.0009192337367683648,-0.02483181418129243
1782952656539734300,1.082734375,0.0319675021469593,-0.0014629669583402574,-0.007615904664085247
1782952656549661400,1.092661376953125,0.025233225455880165,-0.009657324530929327,-0.015774378072540274
1782952656559589400,1.10258935546875,0.02822363944351673,0.00465041962172836,-0.01768877402623184
1782952656569516500,1.1125166015625,0.038549218624830246,-0.001542206207010895,-0.02410057729729451
1782952656579444500,1.122444580078125,0.026128712990880012,0.0018908917805179953,-0.0036782775207888333
1782952656589372400,1.132372314453125,0.02597615277767181,-0.006540105825848877,-0.0010332246384117752
1782952656599299300,1.14229931640625,0.015204583394527434,0.0034174254943616688,-0.02270699948046822
1782952656609227500,1.1522275390625,0.017747838136553763,-0.0032708018315955995,-0.029896545658377
1782952656619154400,1.162154541015625,0.016401099702715874,-0.006844824393466115,-0.01637654065019451
1782952656629082400,1.172082275390625,0.014902970099449157,-0.00338914924794808,-0.009635213163821026
1782952656639009500,1.182009521484375,0.016847674426436424,-0.0046952451441437,-0.015151967291301116
1782952656648937500,1.1919375,0.00935936449766159,-0.019139676087442783,-0.011260028753522782
1782952656658865400,1.201865478515625,0.015343115082383155,-0.013847451430838554,-0.009460500484309159
1782952656668792600,1.21179248046875,0.014144845208525656,-0.013059990847576409,-0.0051437423968920485
1782952656678720500,1.221720458984375,0.021475334227085113,-0.016756215017009527,-0.02566291754345875
1782952656688647400,1.2316474609375,0.011598083335161208,-0.009399002388305962,-0.014226582374959253
1782952656698575600,1.24157568359375,0.011744213807582855,-0.010225297144614159,-0.007407714406657032
1782952656708502500,1.25150244140625,0.014886018964648246,0.009531250465847551,-0.019416821661544962
1782952656718430500,1.261430419921875,0.0205740014731884,-0.007316825819388031,-0.01833387612989172
1782952656728358400,1.2713583984375,0.015792027893662453,0.010099624938331544,-0.016913533603725953
1782952656738285600,1.28128564453125,0.01983458128273487,-0.004937657331582158,-0.02873608247768134
1782952656748213500,1.291213623046875,0.018939093747735024,-0.0012323182739317417,-0.013595869556255637
1782952656758140700,1.301140625,0.027465514552593228,-0.009789773537870496,-0.020989167278492822
1782952656768068600,1.311068603515625,0.019832243195176125,-0.008534622377622873,-0.02200469643000979
1782952656777996500,1.32099658203125,0.0145960961073637,0.005510159989912063,-0.014773955158609896
1782952656787923500,1.33092333984375,0.023723989936709402,-0.002693166340421885,-0.02213894466839265
1782952656797851600,1.3408515625,0.018785364490747452,-0.0010393712514080106,-0.016358776664640754
1782952656807778300,1.3507783203125,0.014147183296084402,0.0011905980240553616,-0.013469681326742283
1782952656817706200,1.360706298828125,0.030906594917178152,-0.011518953684344886,-0.009599068704782984
1782952656827633400,1.37063330078125,0.027467852640151978,-0.005164597955252975,-0.014857226695003918
1782952656837561300,1.380561279296875,0.02851590038836002,-0.012053188425209372,-0.007477130947634577
1782952656847489300,1.3904892578125,0.019688450810313222,0.0031965492852963507,-0.021751132660894654
1782952656857416400,1.40041650390625,0.027171500042080878,-0.0023895620176568625,-0.023985659380466675
1782952656867344400,1.410344482421875,0.027616905722022054,-0.01022394543774426,0.0024064903195714577
1782952656877271300,1.420271240234375,0.02133037279844284,-0.008648458015639335,-0.02041344518319238
1782952656887199500,1.430199462890625,0.013999299257993697,0.011490165981277823,-0.01033946157619357
1782952656897127400,1.44012744140625,0.019984218886494636,-0.01198768544094637,-0.01486076579238288
1782952656907054300,1.450054443359375,0.021329203754663465,-0.00023055735286325215,-0.01614564080403652
1782952656916982500,1.459982421875,0.021929507735371587,0.0006130903970450163,0.0028969178847502914
1782952656926909400,1.469909423828125,0.013251695761084556,0.008984868629463016,-0.005806622185837477
1782952656936837400,1.47983740234375,0.015201660785079002,0.0021211568724364043,0.004638455189298838
1782952656946764500,1.4897646484375,0.011762333986163139,0.0006837444804608821,-0.008699969007167964
1782952656956692500,1.4996923828125,0.025980244430899618,-0.001356766637507826,-0.01275026731127873
1782952656966620400,1.509620361328125,0.019695465072989464,0.0002927176025696099,-0.007247865936136804
1782952656976547600,1.519547607421875,0.023436405166983604,0.013746146480832248,-0.011596727061714045
1782952656986475500,1.5294755859375,0.019096330136060713,-0.015112886523082852,-0.012830698436615056
1782952656996402400,1.53940234375,0.020595044261217117,-0.0026216902730986473,-0.014466830004774965
1782952657006330400,1.549330322265625,0.021337971583008764,-0.005438482993189245,-0.006293222959269769
1782952657016258600,1.559258544921875,0.01370119309425354,-0.006790847450215369,-0.011171377789112738
1782952657026185500,1.569185546875,0.02896656676530838,-0.00027463395660743117,-0.024338596437405793
1782952657036113400,1.579113525390625,0.0169967275083065,-0.0025231618020683526,-0.029960706068924627
1782952657046040600,1.58904052734375,0.016098901885747908,0.00020684768371284008,-0.01160597894724924
1782952657055968500,1.598968505859375,0.027621581897139546,0.011551869573257862,0.004653177834395319
1782952657065895700,1.608895751953125,0.019243629652261732,0.00701714875306934,-0.004982085561775602
1782952657075823600,1.61882373046875,0.018944938966631887,0.00475289361551404,-0.01308148572675418
1782952657085751600,1.62875146484375,0.019842764589190483,-0.017062705416604877,-0.008177584534301422
1782952657095678500,1.638678466796875,0.017146949633955955,0.004718790416512638,0.0038443959018914027
1782952657105606700,1.648606689453125,0.02357902850806713,0.003161952895950526,-0.0063280339777469635
1782952657115533300,1.658533203125,0.024929858595132828,-0.012084095020126551,-0.0029779791977489365
1782952657125461500,1.66846142578125,0.0038321255087852475,-0.016877886901609598,-0.013443062747875227
1782952657135388400,1.678388427734375,0.005782090532779693,-0.011807999758794903,-0.016135480169625953
1782952657145316400,1.68831640625,0.017152210330963133,-0.0014226532142609357,-0.01371640436311718
1782952657155244300,1.698244384765625,0.022835516664385793,-0.0031171639061532913,-0.02287106290180236
1782952657165171500,1.70817138671875,0.022237550771236417,-0.019160134353581815,-0.0171722302056849
1782952657175099400,1.718099365234375,0.011913725155591965,0.0008525251761078834,-0.02052670543247368
1782952657185026300,1.7280263671875,0.026730186015367505,0.0018260646496899425,-0.008646243225666693
1782952657194954500,1.73795458984375,0.021193010154366494,-0.00039542905837297435,-0.01863672696740832
1782952657204882400,1.74788232421875,0.01834697307348251,-0.01692859417553991,0.0006902427199063822
1782952657214809300,1.757809326171875,0.01864332567155361,-0.022060075312480328,-0.006747862258437089
1782952657224737300,1.7677373046875,0.026424481067061422,-0.02474754256447777,-0.01583196261182893
1782952657234664400,1.77766455078125,0.027175007173418995,-0.01104587454618886,-0.023466078786039724
1782952657244592400,1.78759228515625,0.01251519818007946,0.00116959176864475,-0.00472697372296825
1782952657254519600,1.79751953125,0.01475683962702751,0.005743566886987537,-0.001193890526262112
1782952657264447500,1.807447509765625,0.020591537129878996,0.010605181573983281,0.00785553580597043
1782952657274375400,1.81737548828125,0.027924948757886883,-0.011596622030436992,-0.004148954639304429
1782952657284302600,1.827302490234375,0.030469372543692586,-0.004417487648688256,-0.012922724101622589
1782952657294230500,1.83723046875,0.022687048104405402,-0.01288940178733319,-0.006865552087663673
1782952657304157400,1.847157470703125,0.01699906559586525,0.0010618570778518914,-0.018480271463794634
1782952657314085400,1.85708544921875,0.019693126985430718,-0.013333766287658363,0.0018625379022909328
1782952657324013600,1.867013671875,0.0011386486411094664,-0.00692769863763824,0.007927966287941672
1782952657333940500,1.8769404296875,0.022388357418775557,-0.007878569621685892,0.008181361093698068
1782952657343868400,1.886868408203125,0.03196867119073868,-0.004565024626906961,0.01384445575615391
1782952657353795600,1.896795654296875,0.023588380858302116,0.0005444638739340007,0.003796729968418367
1782952657363723500,1.9067236328125,0.019099837267398834,-0.014001180687826126,-0.01579486830472015
1782952657373650400,1.916650390625,0.009820552268624305,-0.004793134294357151,-0.017524719738052225
1782952657383578600,1.92657861328125,0.011463643300533293,0.0053708793833851815,-0.025499466043477876
1782952657393506600,1.936506591796875,0.032115970706939695,-0.00009166033882647752,-0.00613544314824976
1782952657403433500,1.94643359375,0.022543255719542504,0.0008141293944790959,-0.007936309424601495
1782952657413361700,1.956361572265625,0.02134206323623657,0.001662014928087592,-0.0014921382538974285
1782952657423288300,1.966288330078125,0.03181318836808204,0.008814845824800431,-0.010184248181595466
1782952657433216500,1.976216552734375,0.03032031946182251,-0.0043352161927148695,-0.027902275701775215
1782952657443143400,1.986143310546875,0.02657937936782837,-0.006572985182143747,-0.025152433570940047
1782952657453071400,1.9960712890625,0.015653496205806732,-0.00856167478132993,-0.006827599264029413
1782952657462999300,2.005999267578125,0.023737433940172192,-0.0007613945602439343,-0.016709982988797126
1782952657472926500,2.015926513671875,0.025385785669088362,-0.011901925119943917,-0.012536816356843337
1782952657482854400,2.0258544921875,0.027333412605524063,0.0003146919723600149,-0.004295445871329866
1782952657492781300,2.03578125,0.030180034208297728,0.005434921062923968,0.0007468591448152438
1782952657502709500,2.04570947265625,0.031231589087843892,-0.0009756766317412257,-0.000671912478771992
1782952657512637400,2.055637451171875,0.02524725398123264,-0.00445308868503198,-0.014845728053455241
1782952657522564400,2.065564453125,0.021657705056667326,-0.009288436419609934,-0.01985670634957496
1782952657532492300,2.0754921875,0.0282423441439867,-0.007196414310112595,-0.011686378106544725
1782952657542419500,2.08541943359375,0.02091302416920662,-0.005025079886708408,-0.0032644542891997843
1782952657552347400,2.095347412109375,0.03407996425628662,0.0065190082388930015,-0.008981324965506791
1782952657562274600,2.105274658203125,0.02076221752166748,-0.011607490484323352,-0.02056586383250542
1782952657572202500,2.115202392578125,0.021206454157829284,0.00888098812988028,-0.0027246254911879077
1782952657582130400,2.12513037109375,0.026439094114303587,-0.0009943265332840383,0.001844454256328754
1782952657592057300,2.135057373046875,0.02224573407769203,-0.013151505055930464,-0.0002823058064095676
1782952657601985500,2.144985595703125,0.03406652025282383,-0.015230740749090909,-0.014798642075294627
1782952657611912400,2.154912353515625,0.010277648386359214,-0.01952074782690033,-0.014288733491511083
1782952657621840400,2.16484033203125,0.018958967491984367,-0.002836940458975732,0.003686634357180446
1782952657631767600,2.174767578125,0.016712065348029135,0.003056885086279362,-0.008394670484238304
1782952657641695500,2.184695556640625,0.018505378505587578,0.012515727903041987,-0.00766477617395576
1782952657651623400,2.19462353515625,0.031821956196427345,0.006099942576605826,-0.0038614886005874723
1782952657661550600,2.204550537109375,0.03196984023451805,-0.005534180186316371,-0.010981590838055126
1782952657671478500,2.214478515625,-0.012926117068529128,-0.019747578852716833,-0.02042977983006276
1782952657681405400,2.224405517578125,0.020744097343087194,-0.024760000187251715,-0.021569547282601704
1782952657691333600,2.234333740234375,0.006973930665850639,0.00021601737085729836,0.00033505434037651863
1782952657701260500,2.244260498046875,0.029123218631744382,0.004476359962765127,0.001176373135880567
1782952657711188500,2.2541884765625,0.018949030619859693,0.014020013252459466,0.015273890337650663
1782952657721116400,2.264116455078125,0.028977088159322737,-0.0010620214746333658,-0.006700091293687
1782952657731043600,2.274043701171875,0.007578910821676253,-0.020791480148769914,-0.021300201422465033
1782952657740971500,2.283971435546875,0.01296703360080719,-0.029776841968577352,-0.02160989755929913
1782952657750898400,2.2938984375,0.016706804651021957,-0.027303181864041834,-0.032955207143211734
1782952657760826400,2.303826416015625,0.027775895676016807,-0.019982739315461365,-0.01815331823148299
1782952657770754600,2.313754638671875,0.030621932756900786,0.0040100393589586015,0.011347026616963558
1782952657780681500,2.323681396484375,0.01775192978978157,0.005667999166436493,-0.013590143068367614
1782952657790609400,2.333609375,0.02688333075046539,-0.006144092245586216,0.028171781392116096
1782952657800536300,2.343536376953125,0.01701250959932804,0.007147186607215553,-0.005025696374638937
1782952657810464300,2.35346435546875,0.02494680972993374,-0.020364980098698287,-0.010261140209552832
1782952657820391400,2.363391357421875,0.009384498938918113,-0.017399700552318244,-0.01783877695617266
1782952657830319400,2.3733193359375,0.039760347980260846,-0.02711555033745244,-0.030920614309376104
1782952657840247300,2.383247314453125,0.006691022071242332,-0.022183719958458095,0.006061861888808198
1782952657850174500,2.393174560546875,0.02644552385509014,-0.0104338435950689,-0.01649271437576972
1782952657860102400,2.403102294921875,0.02405482932627201,0.007831954000983387,0.0017232070634141563
1782952657870029600,2.413029541015625,0.023607085558772084,0.004652465448342263,0.00767769958761055
1782952657879957500,2.42295751953125,0.020910101559758185,0.008941979335807263,0.007297993254754692
1782952657889884400,2.432884521484375,0.0017477204501628876,0.008895400247722864,-0.005116982254129834
1782952657899812400,2.442812255859375,0.02149637701511383,-0.00461396006885916,-0.008369645640836096
1782952657909740500,2.452740478515625,0.01700724890232086,-0.04220220644073561,-0.036125357045349665
1782952657919667500,2.46266748046875,-0.005585691177845001,-0.045400217030756175,-0.03185247463227715
1782952657929595400,2.472595458984375,0.009075871381163596,-0.03362834803126752,-0.021534233940625563
1782952657939522600,2.4825224609375,0.014018588480353355,-0.009554430412035434,-0.002691020049108192
1782952657949450500,2.492450439453125,0.028385552006959913,0.029798925936222076,0.028788785345875655
1782952657959377400,2.50237744140625,0.021201777982711792,0.05738620370496064,0.03604574333734344
1782952657969305600,2.5123056640625,0.03556348081231117,0.03297337298756465,0.01948678619179409
1782952657979233500,2.522233642578125,0.022395956203341484,-0.015216986218374222,-0.03580825392019469
1782952657989160400,2.532160400390625,-0.003041267392039299,-0.0237816932070069,-0.032353871116042134
1782952657999088600,2.542088623046875,0.057412909048795695,-0.04249919835962355,-0.03894729629801586
1782952658009015600,2.552015625,-0.03521042959094047,-0.021183055015932768,-0.02695003474454861
1782952658018943500,2.561943603515625,0.052629766425490374,0.0013088906414806842,-0.00947552452350501
1782952658028871400,2.571871337890625,0.019113281270861624,0.006481306577008217,0.019508486566948702
1782952658038798600,2.581798583984375,0.029887773263454435,0.028596454811282455,0.0022313438152195882
1782952658048726500,2.5917265625,0.0010088847815990446,0.03633181656999513,0.011794163029687478
1782952658058653400,2.6016533203125,0.037970541954040524,-0.008432586775254458,-0.006829809487424791
1782952658068582000,2.611581787109375,-0.004230184915661812,-0.029690113533195107,-0.0364758235839894
1782952658078508800,2.6215087890625,0.0345294615894556,-0.052546106730028984,-0.041516539431246925
1782952658088436700,2.631436767578125,-0.007813304099440574,-0.029019557327870277,-0.01698520603387151
1782952658098365000,2.641364990234375,0.03244213392138481,0.002938007946964353,-0.02980375280838925
1782952658108291800,2.651291748046875,0.003260463100671768,0.015183577139116822,0.0077331378355855115
1782952658118219800,2.6612197265625,0.04261456836760044,0.02510755324959755,0.012521915615233591
1782952658128147000,2.67114697265625,0.03154138568937778,0.010871796620916575,0.00898304656513501
1782952658138075000,2.681074951171875,0.020166005194187164,-0.005328264084365219,0.0001763475141720846
1782952658148001800,2.691001708984375,0.03482815227508545,-0.0234900533166714,-0.021554048319370484
1782952658157930000,2.700929931640625,0.005800210711359977,-0.023060922918096183,-0.024411775838048197
1782952658167858000,2.71085791015625,0.018674889853596686,-0.021433248651027678,-0.007949753428064286
1782952658177784800,2.720784912109375,0.012391279539465904,-0.0027858495925553142,0.004568148165754973
1782952658187713000,2.730713134765625,0.03244564105272293,0.009731303082592785,0.00847291421906557
1782952658197640000,2.740639892578125,0.021370704808831215,0.006198251851927489,0.018357088042120447
1782952658207568000,2.75056787109375,0.030948680493235587,0.005847977109532803,0.008603239767579362
1782952658217494800,2.760494873046875,0.014791326418519019,-0.01474907644568011,-0.011219637377629987
1782952658227423000,2.770423095703125,0.025111060380935666,-0.026413028091285377,-0.015240549757052212
1782952658237351000,2.780350830078125,0.028100889846682547,-0.02586631746133789,-0.021555253895767963
1782952658247277800,2.79027783203125,0.013888240098953246,-0.009658731036726384,-0.007764697451051324
1782952658257205800,2.800205810546875,0.016137480330467222,-0.001559084276575595,-0.00794731487580575
1782952658267132700,2.810132568359375,0.02661328163743019,0.00720373910004273,-0.0029218605297617615
1782952658277060900,2.820060791015625,0.022275544694066046,0.007156411093287169,0.0038426058036042376
1782952658286987800,2.82998779296875,0.01644084719121456,-0.0031925672299228606,0.008387875417270697
1782952658296915700,2.839915771484375,0.013297872990369795,-0.020195030359271914,0.0013222341802436857
1782952658306843600,2.84984375,0.016287117934226988,-0.019942754364944994,-0.0015486176814883945
1782952658316770800,2.859770751953125,0.02751169178187847,-0.011795907462202012,-0.009143616554862819
1782952658326698800,2.86969873046875,0.016142741027474403,-0.010144048601947724,-0.02235352813398931
1782952658336626000,2.8796259765625,0.020782091265916822,-0.005083897401858121,-0.008834276611055247
1782952658346553900,2.889553955078125,0.017341010901331902,-0.0003482471820898354,0.010400996204814873
1782952658356481800,2.899481689453125,0.009558101940155028,-0.0032767749146558342,-0.011939891643309965
1782952658366408700,2.90940869140625,0.018381459864974022,-0.000567607287503779,-0.014376498539932071
1782952658376337000,2.9193369140625,0.02451192544400692,-0.00922609350681305,-0.007745143367210403
1782952658386263800,2.929263916015625,0.030794951236248015,-0.007350527159590274,-0.015199130901275202
1782952658396191700,2.939191650390625,0.020465280401706695,-0.0010568886417895555,-0.014413780076708644
1782952658406119000,2.949118896484375,0.025251345634460447,-0.008556103557068854,-0.002065321332239546
1782952658416046800,2.959046875,0.006397592082619667,-0.004967394882719963,0.0012361496322555467
1782952658425974800,2.968974853515625,0.024203297886252403,-0.005848981756530701,-0.0022784069604938847
1782952658435902000,2.97890185546875,0.018069325175881383,0.018185042243730274,0.001998393575870432
1782952658445830000,2.988829833984375,0.011787468427419661,0.002206643198803067,0.008828988514584489
1782952658455756800,2.9987568359375,0.023307810351252553,-0.0007238024962134659,-0.014385248101968317
1782952658465685000,3.00868505859375,0.033033670073747634,-0.004613722606841474,-0.01640555211554747
1782952658475612000,3.01861181640625,0.019269933137297628,-0.016427695448696614,-0.012396914695808663
1782952658485539800,3.028539794921875,0.010440729993581772,-0.014775069403462111,-0.0015104045629501341
1782952658495467800,3.0384677734375,0.029592005187273025,-0.004518354207277297,-0.0071925783852115266
1782952658505395000,3.04839501953125,0.02570259653329849,-0.002449986968003213,-0.003118661743495613
1782952658515323000,3.058322998046875,0.013135960426926612,-0.0007715140954591334,-0.004080405748006888
1782952658525249800,3.068249755859375,0.02181611048877239,0.008271167402155697,-0.00323372579079587
1782952658535178000,3.078177978515625,0.03304068433642387,-0.015275255744252352,-0.0037906883866991843
1782952658545104600,3.088104736328125,0.030498598638176916,-0.01204135185694322,-0.012727260895026847
1782952658555032800,3.09803271484375,0.0055097033321857445,0.0005335954200476408,-0.019050915525178423
1782952658564960800,3.107960693359375,0.01134615440070629,-0.001401646958850324,-0.013997431527893059
1782952658574887700,3.1178876953125,0.011343816313147544,0.001547412105090916,-0.010904388282843866
1782952658584815600,3.127815673828125,0.025109891337156295,-0.010541085095517337,-0.0028102944806450976
1782952658594742800,3.13774267578125,0.015090601626038551,-0.02034865001840517,-0.0008704626915976405
1782952658604670700,3.147670654296875,0.010153729745745658,-0.001840367169678211,-0.0013291890774155034
1782952658614598000,3.157597900390625,0.017033552387356758,0.0034835677994415164,-0.020464408185449427
1782952658624525800,3.16752587890625,0.008803484180569648,-0.013561565427854656,-0.007404755264590494
1782952658634453800,3.177453857421875,0.023168694141507146,-0.009940653250645845,-0.006424283726722933
1782952658644381000,3.187380859375,0.014492051210999488,-0.0047833435527049,0.00015496223284862935
1782952658654308900,3.197308837890625,0.026615619724988937,-0.018348671840224415,0.01072085297605954
1782952658664235800,3.20723583984375,0.010606734210252761,0.007595332233514636,0.006550864681880921
1782952658674163700,3.217163818359375,0.010007014751434326,-0.0028653628358617424,-0.006866862695338204
1782952658684091000,3.2270908203125,0.030505612900853154,0.005231708374712616,-0.0014577153944876043
1782952658694018800,3.237018798828125,0.01285071374475956,-0.009529241171851754,-0.015627005491103043
1782952658703946800,3.24694677734375,0.02317863101363182,0.002611589004192501,-0.007314999188482761
1782952658713874000,3.2568740234375,0.021834815189242362,-0.00749240158200264,0.002773556366562843
1782952658723801900,3.2668017578125,0.02438157706260681,-0.005508442956861108,-0.0009962536288890987
1782952658733728800,3.276728759765625,0.017798691540956497,-0.0030324812973849475,-0.004266845397930592
1782952658743657000,3.286656982421875,0.026177812829613685,-0.014242661293502896,-0.007850855064275674
1782952658753583900,3.296583984375,0.030218612653017042,-0.00826687481952831,-0.008605491090170107
1782952658763511800,3.30651171875,0.016453706672787664,-0.0014326083526946603,-0.0022870743241393938
1782952658773440000,3.31643994140625,0.02154430781006813,-0.004535341874696314,0.015678575848136096
1782952658783367000,3.326366943359375,0.02094692643880844,-0.004748053043615073,0.003634694107389077
1782952658793294800,3.336294921875,0.01930091279745102,0.005271254933811724,0.0068748450723942365
1782952658803222000,3.346221923828125,0.021693945413827895,-0.003985270243883132,-0.005042711441521533
1782952658813150000,3.35614990234375,0.029328385815024373,-0.0059141376809217034,0.005349352538166568
1782952658823076600,3.36607666015625,0.02513794838786125,-0.01275392057308927,0.00573405470654834
1782952658833005000,3.376005126953125,0.016607435929775236,0.002254336531739682,-0.0019254379375139251
1782952658842933000,3.38593310546875,0.01930266636312008,-0.009180957457143812,-0.005834355009556748
1782952658852859600,3.395859619140625,0.025284078860282895,-0.003966401146631687,-0.005704632249241694
1782952658862787800,3.405787841796875,0.023037176716327667,-0.0007360591895878315,-0.011206622632429934
1782952658872714800,3.41571484375,0.02588029118776321,0.00451654584268108,0.004684230559784919
1782952658882642700,3.425642578125,0.020194646766781805,-0.00671611997988075,-0.019673454170580952
1782952658892569900,3.43556982421875,0.018397826477885244,0.00124614586988464,0.003932590208575129
1782952658902497800,3.445497802734375,0.017649638459086417,-0.0007314195470884442,0.00011912373448722064
1782952658912425700,3.45542578125,0.02408347089886665,0.001558901613485068,-0.0055305086581967765
1782952658922353000,3.465352783203125,0.007024199548363685,0.005281429267954081,0.0027546461701160297
1782952658932280800,3.47528076171875,0.024386253237724302,-0.007703943707142025,0.0019028973121428862
1782952658942207700,3.485207763671875,0.0264864403873682,-0.0038475057410076257,-0.0104916336303344
1782952658952135700,3.4951357421875,0.01227203707396984,-0.006853135564085096,-0.006175213469634764
1782952658962062800,3.505062744140625,0.0023965397477149963,0.0016967574479058384,0.0053016409389209
1782952658971990800,3.51499072265625,0.014216741400957108,-0.000042268239147961134,0.0000036806612741202114
1782952658981918700,3.524918701171875,0.018705869513750074,-0.010648527525365352,0.005890715706138872
1782952658991846000,3.534845947265625,0.03651157531738281,-0.018381350267119706,-0.0028628009860171004
1782952659001773800,3.54477392578125,0.03726385498940944,-0.016125333234947175,0.0020650290712947023
1782952659011701000,3.554700927734375,0.029033786782622334,-0.014476013391651213,-0.013484102577739394
1782952659021629000,3.56462890625,0.029627661022543904,-0.0011863785066641866,-0.010022294518956913
1782952659031555800,3.574555908203125,0.02663549346923828,0.001786919949389994,0.0011985849676886572
1782952659041483800,3.58448388671875,0.03905307649374008,-0.00009584332359954714,-0.013112456253753043
1782952659051412000,3.594411865234375,-0.0004506663769483566,0.0027322927744127807,0.00004946059833746403
1782952659061339000,3.6043388671875,0.02304185289144516,-0.011492467536218463,0.001502709880261682
1782952659071266600,3.6142666015625,0.031273674663901324,-0.011835070428811012,-0.002504493634216487
1782952659081193700,3.62419384765625,0.021101824739575385,-0.02120378727670759,-0.0025210383436409757
1782952659091121700,3.63412158203125,0.024245383462309835,-0.00400077834026888,-0.004463002724270336
1782952659101049600,3.644049560546875,0.02244973221719265,0.013674305087327957,0.005895410147565417
1782952659110976800,3.653976806640625,0.009130816438794136,-0.010237060647644102,-0.003859853765927255
1782952659120904700,3.66390478515625,0.02514671621620655,-0.00019672814849764107,0.007001371228625066
1782952659130831600,3.67383154296875,0.013776596418023108,0.0015555588789284227,0.00568983197233174
1782952659140759800,3.683759765625,0.019314941322803498,-0.002846128412429243,-0.014637857456435449
1782952659150686700,3.693686767578125,0.030237317353487014,-0.012688088795263319,-0.01660552710047923
1782952659160614700,3.70361474609375,0.027995091384649274,-0.00662889835415408,-0.0043250372919952495
1782952659170541800,3.713541748046875,0.028896424138545988,-0.005723327816557139,-0.006196078161150216
1782952659180469800,3.7234697265625,0.023061142113804816,-0.00632997020650655,0.002080464102444239
1782952659190397700,3.733397705078125,0.021715572723746298,-0.010548501216992735,0.0025620096748461946
1782952659200324900,3.743324951171875,0.022309446963667868,0.010095131426304579,0.00442261134837754
1782952659210252800,3.753252685546875,0.02141103681921959,0.006778663822077214,0.010811517801042645
1782952659220179700,3.7631796875,0.032332828328013416,-0.000336849005240947,0.0017133067239075898
1782952659230108000,3.77310791015625,0.02320610354244709,-0.021454766363091765,-0.0002978047696407884
1782952659240034800,3.783034912109375,0.022160393881797788,-0.006996635688003152,-0.011977049882500432
1782952659249962800,3.792962646484375,-0.00043429976403713225,-0.008381769903469831,-0.0024085498459171504
1782952659259890700,3.802890625,0.012581249153614044,-0.008400712065957485,0.0014248999702744184
1782952659269817900,3.81281787109375,0.019013912549614907,-0.021670802000258116,-0.011079607852431944
1782952659279745800,3.822745849609375,0.026049802535772323,-0.01637543553849682,-0.020925774052925408
1782952659289672700,3.832672607421875,0.026197686573863028,-0.006770973705966025,0.0024947850909549743
1782952659299600600,3.8426005859375,0.023058219504356384,-0.015111206022650002,-0.0032165052279364316
1782952659309528800,3.85252880859375,0.015873860958218574,-0.002042520411964506,-0.01122051872704178
1782952659319455700,3.862455810546875,0.021413374906778335,-0.010820632689259946,0.00011436536097899079
1782952659329383700,3.8723837890625,0.007945406046509743,-0.01616358288610354,-0.0031994216623948885
1782952659339310600,3.882310546875,0.012431611549854277,-0.020560685333888978,-0.015213081794814206
1782952659349238500,3.892238525390625,0.026494623693823813,-0.009841412393562496,-0.01583781696388032
1782952659359165700,3.902165771484375,0.02200491105914116,-0.005926211711205541,-0.012999479132262058
1782952659369093600,3.91209375,0.020811317360401153,-0.004557937298994511,-0.0056615100601455194
1782952659379021600,3.922021484375,0.011537293058633803,-0.010805380321200937,-0.005805503374407999
1782952659388948700,3.93194873046875,0.013633973076939582,-0.0074471559344790874,-0.0053900681410450485
1782952659398876700,3.941876708984375,0.011836568266153334,-0.01590798242352903,-0.0027257123365765435
1782952659408803600,3.951803466796875,0.011834814700484276,-0.008247603863477707,-0.020308843164402058
1782952659418731800,3.961731689453125,-0.0013297872990369797,0.00003262362796813249,-0.0025862308006500824
1782952659428658700,3.97165869140625,0.021863456761837003,0.00203687612246722,-0.004635126154473982
1782952659438586600,3.981586669921875,0.012733809366822241,-0.012135715609509497,-0.002620028038974851
1782952659448513800,3.991513671875,0.024257658421993254,-0.0057183776468038554,-0.000531841854378581
1782952659458441700,4.001441650390625,0.03742576755285263,-0.00048159123817458744,-0.0029149056325899437
1782952659468369700,4.01136962890625,0.017081483182311057,-0.005663542187027633,0.006259220224968157
1782952659478296800,4.021296875,0.021423896300792694,-0.010108611962385475,0.0014489612658740952
1782952659488224800,4.031224853515625,0.02501519879102707,-0.006190141610708087,-0.004286362949153408
1782952659498151700,4.041151611328125,0.03025485301017761,-0.007198642799817025,0.0035850006136111915
1782952659508079900,4.051079833984375,0.017685878816246985,-0.010939601160120218,-0.003353041321528144
1782952659518006800,4.0610068359375,0.012004326048493384,-0.0016644626135006546,0.0033884551282040774
1782952659527934700,4.070934814453125,0.015902502530813215,-0.003257047300878912,0.001060240509500727
1782952659537862700,4.080862548828125,0.010071896681189536,-0.01708731013489887,-0.010133919933578
1782952659547789800,4.090789794921875,0.018002105158567427,-0.024092951113265006,-0.01101679001559969
1782952659557717800,4.1007177734375,0.027426936107873914,-0.012956110347993672,-0.0035785937057109547
1782952659567644700,4.110644775390625,0.029073534271121023,-0.022541648284345864,-0.0014756300770910457
1782952659577572900,4.12057275390625,0.018294950625300406,-0.024505641833692787,-0.0003477768246317282
1782952659587499500,4.13049951171875,0.026678748089075086,-0.01612849330641329,-0.0002554908647201955
1782952659597427700,4.140427734375,0.025337854874134064,-0.003598298486601561,-0.0061972335051978
1782952659607355600,4.150355712890625,0.0239899473965168,-0.004317223878297955,0.0007878944081021473
1782952659617282600,4.160282470703125,0.008874211329221724,-0.0034998065481893718,-0.010805211357842199
1782952659627210500,4.17021044921875,0.026378303837776184,-0.008025266349688172,-0.01798246887633577
1782952659637137700,4.1801376953125,0.012459668600559234,-0.004676449112128466,-0.011191899987333453
1782952659647065600,4.190065673828125,0.022633856612443923,0.0004646035707555711,-0.005481559516512789
1782952659656992800,4.19999267578125,0.029367548781633376,-0.011780965621396898,-0.008108327823528088
1782952659666920700,4.209920654296875,0.030417934617400166,-0.004261201108433306,-0.009577331797010265
1782952659676848600,4.2198486328125,0.031020576685667035,-0.003023731735348701,-0.011744885094440542
1782952659686775800,4.22977587890625,0.013513561567664145,-0.007264931235369295,-0.010478217026335187
1782952659696703700,4.239703857421875,0.025633038428425788,-0.017693221872486172,0.003898866035486571
1782952659706630700,4.249630615234375,0.031017654076218603,-0.007440159938111901,-0.0075036536283791064
1782952659716558600,4.25955859375,0.02413841595649719,-0.009218531254865228,-0.008814142571901901
1782952659726485800,4.26948583984375,0.019658640193939207,-0.011055080765951424,0.009519327132613397
1782952659736413700,4.27941357421875,0.023849077621102333,0.005988627689238637,-0.011370384659664706
1782952659746341600,4.289341552734375,0.01741641422510147,-0.013495057796593754,-0.023564762520696968
1782952659756268800,4.299268798828125,0.014423662149906157,-0.024555052199680356,-0.01002289274057839
1782952659766196700,4.30919677734375,0.02400163783431053,-0.013795520314201712,-0.010208642837335354
1782952659776123600,4.31912353515625,0.025051439148187638,-0.012054156539589167,-0.00727468544440344
1782952659786051800,4.3290517578125,0.020412088909745215,-0.007112316223233938,-0.002649012104864232
1782952659795978800,4.338978759765625,0.03073942165672779,-0.00807710613477975,0.003352931723673828
1782952659805906700,4.34890673828125,0.014578560450673102,-0.004356240714434534,-0.009444015140389091
1782952659815835000,4.3588349609375,0.026551322317123413,0.0021817279532551762,-0.009205676339869387
1782952659825761800,4.36876171875,0.03613046704530716,-0.007656469569914042,-0.016064145666197873
1782952659835689700,4.378689697265625,0.027899814316630363,-0.014038334360439329,-0.008598440294875763
1782952659845617000,4.388616943359375,0.01248947921693325,-0.015898922334238886,-0.0063279928785515945
1782952659855544800,4.398544921875,0.020119827964901922,-0.00853878709608689,0.0056035053957486525
1782952659865471500,4.408471435546875,0.030894904479384422,0.0012821304987184702,0.0028845744264079255
1782952659875400000,4.41839990234375,0.02595803259909153,-0.006817662391904741,-0.018019175024377183
1782952659885326600,4.42832666015625,0.03657996437847614,-0.01255942091429606,0.001230414011212997
1782952659895254500,4.438254638671875,0.021168460234999655,-0.0009051138798706233,0.0026039354206994175
1782952659905182700,4.4481826171875,0.030444238102436065,-0.008471165219973773,-0.0011052349952748045
1782952659915109600,4.458109619140625,0.016824878072738646,-0.014505385616607963,-0.0016065447140717877
1782952659925037600,4.46803759765625,0.009790741652250289,-0.0019217801091261208,-0.006526004235260188
1782952659934964700,4.47796484375,0.03358253612816334,-0.006277198839653283,-0.0006953298869775608
1782952659944892700,4.487892578125,0.013235329148173332,-0.0031151728784665463,0.007093410593364388
1782952659954819600,4.497819580078125,0.01069090536236763,-0.006969692882150411,-0.0007445073575247079
1782952659964747800,4.507747802734375,0.03328559900820255,-0.016220318042021245,0.005118407026235945
1782952659974675700,4.51767578125,0.02206102516055107,-0.005635503402631729,0.007231234461744315
1782952659984602600,4.5276025390625,0.013236498191952705,-0.008440989277418702,-0.018971548412344417
1782952659994530600,4.537530517578125,0.03223638221621513,-0.01188338481625542,-0.0018653417807305232
1782952660004457700,4.547457763671875,0.025802549776434897,-0.023853607665747404,-0.0010835163538111374
1782952660014385700,4.5573857421875,0.017124737802147863,-0.012975929293315857,0.008942152865743264
1782952660024312800,4.567312744140625,0.02879822446107864,-0.010952040516585111,-0.004446722876327112
1782952660034240800,4.57724072265625,0.022809213179349898,-0.007399115541670471,0.0010928732706233857
1782952660044168700,4.587168701171875,0.03612403730452061,0.006889869111590087,-0.007384214800060726
1782952660054096000,4.597095947265625,0.019960838010907173,-0.009774301974102855,-0.0007703222187934443
1782952660064023800,4.60702392578125,0.022652561312913894,-0.006244337749667465,-0.0017346600391902028
1782952660073950500,4.616950439453125,0.027737901753187178,-0.0055701465488411485,-0.009678632180439307
1782952660083878400,4.62687841796875,0.007836684975028037,0.000955291430838406,-0.008286401503905654
1782952660093805600,4.6368056640625,0.01741349161565304,-0.0270538467454724,0.011478772371006198
1782952660103733500,4.6467333984375,0.017860650861263275,0.003246690303646028,0.003890157572645694
1782952660113661400,4.656661376953125,0.029082886621356007,0.004619787021446973,0.0028342279120814056
1782952660123588600,4.666588623046875,0.018159926068782806,-0.0013949980223551392,0.003382180651044473
1782952660133516500,4.6765166015625,0.020554712250828742,-0.008453081574011593,-0.006330700858868658
1782952660143443500,4.686443359375,0.019957915401458737,-0.02691801847135648,-0.009307689109351485
1782952660153371600,4.69637158203125,0.013975333860516548,-0.0034863990773446856,-0.011672431779582984
1782952660163298300,4.70629833984375,0.013672551521658896,-0.021728286074846982,0.0015030478069791569
1782952660173226200,4.716226318359375,0.013820435559749603,-0.008180950101744383,-0.012666087026009335
1782952660183154400,4.726154541015625,0.01681727928817272,-0.009661544048320501,0.007041447510686702
1782952660193081300,4.736081298828125,0.02130640740096569,-0.011914419275335967,-0.012652072200388647
1782952660203009300,4.74600927734375,0.02340074933171272,-0.016229451196547597,-0.0026171556618763132
1782952660212936400,4.7559365234375,0.01741641422510147,-0.013879180009663105,0.00425761177870445
1782952660222864400,4.765864501953125,0.0210053786277771,-0.010972845842596142,-0.014089087300142272
1782952660232791300,4.775791259765625,0.02803893052637577,-0.00816830981587991,-0.0012462189351208507
1782952660242719500,4.785719482421875,0.02190028164088726,-0.008367412584554404,-0.01259063346988987
1782952660252647400,4.7956474609375,0.033869536375999446,0.00008694763109087943,-0.005213770859222859
1782952660262574300,4.80557421875,0.022046412113308905,-0.021254056159220634,-0.006246625604876317
1782952660272502500,4.81550244140625,0.01994914757311344,-0.009526428160257637,0.0011513345927465707
1782952660282429400,4.825429443359375,0.008574936121702193,-0.012026062956266105,-0.001956910788011737
1782952660292357400,4.835357421875,0.020843466064333915,-0.016146010696794836,-0.0007092442478984594
1782952660302284500,4.845284423828125,0.03954582844674587,-0.010249591335654258,-0.004966865159757435
1782952660312212500,4.85521240234375,0.022785832303762434,-0.0015733319976367055,-0.002372181624593213
1782952660322139400,4.865139404296875,0.022190789020061493,-0.0033199199366383252,-0.006602836897713132
1782952660332067600,4.875067626953125,0.02922492544054985,-0.01709589530015364,-0.004293824736401439
1782952660341995500,4.88499560546875,0.023987609308958054,-0.003929978126380592,-0.01462548203205224
1782952660351922400,4.89492236328125,0.011867547926306723,-0.0038139139986597,-0.0045926204533083366
1782952660361850600,4.9048505859375,0.01680734241604805,-0.00717977370256558,0.0017489671257557347
1782952660371777500,4.914777587890625,0.020699089157581327,-0.006926401729695499,-0.003469712804025039
1782952660381705500,4.92470556640625,0.023391396981477738,-0.026335231881029902,-0.010816965727717615
1782952660391632600,4.934632568359375,0.022642039918899536,-0.0162790807582438,-0.019251365434145552
1782952660401560600,4.944560546875,0.03371405355334282,-0.0009596753450110554,-0.009907577531528659
1782952660411488500,4.954488525390625,0.016059738919138908,-0.0037677185030654072,-0.0072429431658471
1782952660421415700,4.964415771484375,0.008879472026228904,0.002540076404251158,-0.006250370198232122
1782952660431343600,4.974343505859375,0.017107786667346952,0.0006353570277802645,-0.0026909013180993497
1782952660441270300,4.984270263671875,0.0293751475661993,0.0016482238647527992,0.0015289950989885255
1782952660451198500,4.994198486328125,0.03356032429635525,-0.01776436914624646,0.011541476043406874
1782952660461125400,5.00412548828125,0.028321839120984075,-0.01190985269807279,-0.00444824354655575
1782952660471053300,5.01405322265625,0.034006899020075795,-0.004849412792548537,-0.000030057211546227334
1782952660480981200,5.023981201171875,0.03071194912791252,0.006456793190259486,-0.0036468366363318636
1782952660490908400,5.033908447265625,0.01620294678211212,-0.002257240874879062,-0.0056728762709535654
1782952660500836400,5.04383642578125,0.020996026277542112,-0.010761669043637812,-0.006002245222637429
1782952660510763500,5.053763427734375,0.008429390171170234,-0.018493870730884373,-0.016132941152667626
1782952660520691500,5.06369140625,0.036114100432395935,-0.013044628881663084,-0.022537077140505426
1782952660530618400,5.073618408203125,0.020252514433860776,-0.0018133512985892594,-0.006216938286088406
1782952660540546300,5.08354638671875,0.019506664502620695,-0.0031890966312028467,-0.012901069392240606
1782952660550473500,5.093473388671875,0.017112462842464447,-0.003504628853779286,0.004695797699992545
1782952660560401400,5.1034013671875,0.020105214917659757,-0.01832130890926346,-0.020884798155142926
1782952660570329300,5.113329345703125,0.013219547057151794,-0.00954873132361099,-0.013932645496260374
1782952660580256500,5.123256591796875,0.03985679409205913,-0.003613441256806254,0.007482003485574386
1782952660590184400,5.133184326171875,0.04180208294093608,-0.01074296434316784,-0.00849701204728335
1782952660600111400,5.143111328125,0.02279869178533554,-0.011797441832162438,-0.023369879269413647
1782952660610039600,5.15303955078125,0.02145195335149765,-0.009860464153904467,-0.015024984477343968
1782952660619966500,5.162966552734375,0.016813187634944916,-0.002827569842431694,-0.008724404762103222
1782952660629894400,5.172894287109375,0.018759645527601242,-0.0036424664218910035,0.000024399222317151723
1782952660639822600,5.182822509765625,0.01217617548406124,-0.003977598394080996,-0.0005246905943844467
1782952660649749500,5.19274951171875,0.02534136200547218,-0.01269389748154208,-0.0040735695818439124
1782952660659677400,5.202677490234375,0.013220131579041481,-0.004903901192452758,0.003479471579636447
1782952660669604600,5.2126044921875,0.009478606963157653,-0.023739114440605044,-0.019871780621120706
1782952660679532500,5.222532470703125,0.005445990446209907,-0.010213935500383376,-0.012374949459172785
1782952660689459500,5.23245947265625,0.015325579425692558,-0.0019165011458098888,0.001997795354248956
1782952660699387600,5.2423876953125,0.03657645724713802,-0.014387640988454221,-0.012458673086715862
1782952660709314300,5.252314208984375,0.0328302564561367,-0.017501425627432763,-0.00872976592381019
1782952660719242500,5.262242431640625,0.02325052720606327,-0.0043850649501197035,-0.006951111479266546
1782952660729170700,5.272170654296875,0.014272855502367019,0.0014230185404419898,-0.014419045340293086
1782952660739097300,5.282097412109375,0.02309972055852413,-0.010287987117283046,-0.010214268860523588
1782952660749025300,5.292025390625,0.021759411865472793,-0.008555427703633904,-0.011900568846496753
1782952660758952400,5.301952392578125,0.014576222363114356,-0.014947686024010181,-0.009499640618031845
1782952660768877600,5.311877685546875,0.014576806885004043,-0.01497461056355387,-0.009503051851247437
1782952660778805500,5.321805419921875,0.0241553670912981,-0.012503507742285728,-0.011751292002340779
1782952660788732400,5.331732421875,0.012484803041815757,0.001680774427484721,0.008738807746791281
1782952660798660600,5.34166064453125,0.029391514179110526,-0.0048169718276709315,0.012948379132687114
1782952660808587500,5.35158740234375,0.019962007054686544,-0.01958204956008121,-0.005832624276774004
1782952660818515500,5.361515380859375,0.025348376268148422,-0.005936386045347899,0.011188484187540598
1782952660828442600,5.371442626953125,0.01711830806136131,-0.015514306930825113,0.0003183315344387665
1782952660838370600,5.38137060546875,0.03402794180810451,0.000006027881987392902,-0.011271020504995248
1782952660848298500,5.391298583984375,0.0325339038580656,-0.004380772367492318,0.009763346755248493
1782952660858225400,5.401225341796875,0.02146247474551201,0.0018425773930735884,-0.0024642483887961134
1782952660868153600,5.411153564453125,0.03493102812767029,-0.002517006055917591,-0.0029904094210593027
1782952660878080300,5.421080322265625,0.03328442996442318,0.0004798742051236331,-0.0027403390835504977
1782952660888008400,5.431008544921875,0.017122399714589117,-0.00435587538825348,-0.012859732734854332
1782952660897935400,5.440935302734375,0.011134557476639747,-0.0041316564446315165,0.0037636359829921274
1782952660907863300,5.45086328125,0.02055997294783592,0.00013588307304307818,-0.0011671760492725297
1782952660917791500,5.46079150390625,0.023102058646082876,0.010807188685797154,-0.004752551122219301
1782952660927718400,5.470718505859375,0.016967501413822174,-0.000435925465542823,0.0004910897188819944
1782952660937646300,5.480646240234375,0.02310147412419319,-0.01805273936726153,0.0004501001213677227
1782952660947573500,5.490573486328125,0.030133856979012486,-0.004871953417919576,-0.003324212519265711
1782952660957501400,5.50050146484375,0.023702362626791,-0.014123656290024518,-0.01747085695923306
1782952660967428400,5.510428466796875,0.02235737775862217,-0.008813238389603793,-0.016632058914378283
1782952660977356500,5.5203564453125,0.02205634898543358,-0.012603661914821714,-0.0009445462745381519
1782952660987283500,5.530283447265625,0.027594693890213965,-0.005635010212287307,-0.0027323019075673072
1782952660997211400,5.54021142578125,0.025349545311927794,-0.002909896097332239,-0.006270874130143784
1782952661007139300,5.550139404296875,0.027743162450194356,-0.00038039588602259753,-0.003428901303024031
1782952661017066500,5.56006640625,0.023700024539232253,-0.006294953692052513,-0.003964300521090627
1782952661026994400,5.569994384765625,0.01891045217514038,-0.0002396174421533942,0.001929424559464678
1782952661036921600,5.579921630859375,0.02220657111108303,-0.01339855688586831,-0.0035602588979993014
1782952661046849500,5.589849609375,0.014129063117504118,-0.020808577414043246,-0.015029048731108195
1782952661056776400,5.5997763671875,0.01817453911602497,-0.010352375856693833,-0.004457299069268629
1782952661066704400,5.609704345703125,0.02925064440369606,-0.015394699139147996,-0.022146429288526996
1782952661076632300,5.61963232421875,0.031043957561254498,-0.020711765976063907,-0.02187137064023409
1782952661086559200,5.629559326171875,0.025953940945863722,-0.004767561461683363,0.003294159874296747
1782952661096487200,5.639487060546875,0.01757423513531685,0.002708436974789947,0.008798556843702681
1782952661106414300,5.649414306640625,0.025205168405175206,0.0016917707455344497,0.012744216596405022
1782952661116342300,5.65934228515625,0.03149053228497505,-0.007452544495649635,-0.0007415984478080645
1782952661126269400,5.66926953125,0.01592763697206974,-0.007120682192780077,-0.0025139281828422096
1782952661136197400,5.679197265625,0.019067104041576386,-0.013469740692246705,0.00015936441333033144
1782952661146126300,5.689126220703125,0.013981179079413413,-0.009303780119214206,-0.004528418943565339
1782952661156054300,5.69905419921875,0.012934884896874428,0.0003730893624015152,0.00030279603858944027
1782952661165981200,5.708981201171875,0.040915947756171224,0.004776256224792451,0.0012155498022213577
1782952661175909400,5.718909423828125,0.02326104860007763,-0.020767112892493604,0.008226300780544989
1782952661185837300,5.72883740234375,0.023709376889467237,-0.003515040649939328,0.0040657607347238806
1782952661195764200,5.73876416015625,0.027303017467260358,-0.01946503558428958,-0.0008771116280928253
1782952661205692400,5.7486923828125,0.023419454032182693,-0.00025532646793872114,-0.017599232579255476
1782952661215619300,5.758619384765625,0.02207622272968292,-0.01366407595425844,0.0010217853623675183
1782952661225547300,5.76854736328125,0.011304068824648857,-0.01699206959949806,0.010441186651308089
1782952661235474400,5.778474365234375,0.025672785916924474,-0.000043583413399755955,-0.0003970364935696125
1782952661245402400,5.78840234375,0.02522854928076267,-0.00034848464410752055,-0.020773067709244787
1782952661255330300,5.798330322265625,0.019092238482832907,0.0032600064429454505,-0.017829680334264412
1782952661265257500,5.808257568359375,0.02208382151424885,-0.002241787577420473,-0.0009610772842308506
1782952661275185400,5.818185302734375,0.02941314148902893,-0.006062186115793884,0.0030668630575994026
1782952661285112300,5.8281123046875,0.015197569131851196,-0.010413129600603133,-0.0023301051816903054
1782952661295040300,5.838040283203125,0.031956980752944945,-0.009657488927710801,0.0017486885645426808
1782952661304967400,5.847967529296875,0.010260697251558303,-0.005664309372007847,0.007707195110153406
1782952661314895400,5.857895263671875,0.02792085710465908,-0.007564681366924196,0.008315390136372298
1782952661324823300,5.8678232421875,0.024181670576333997,0.0022862477736547587,0.000681981781637296
1782952661334750500,5.87775048828125,0.03271627468764782,-0.0004258972618728876,0.0018850465616211294
1782952661344678400,5.887678466796875,0.006232172387838363,-0.02100484890481457,-0.010895245995162986
1782952661354605300,5.897605224609375,0.01984802528619766,-0.01751949100708589,-0.008899455368332565
1782952661364533500,5.907533447265625,0.03795943603813648,-0.02381789703154936,-0.008250279877753928
1782952661374460400,5.91746044921875,0.02284662258028984,-0.010998838800378143,-0.00179188838545233
1782952661384388400,5.927388427734375,0.040054947012662885,-0.004879442604631185,-0.004845051711262203
1782952661394315500,5.9373154296875,0.01806172639131546,-0.0024631204442121086,0.0025033656896324826
1782952661404243500,5.947243408203125,0.015970891591906546,0.006516487488243728,0.015164972903346643
1782952661414171400,5.95717138671875,0.007588847693800926,-0.009681271662097424,0.00496576461463701
1782952661424098600,5.9670986328125,0.028831542208790778,-0.010845146076008677,-0.0033237010626122354
1782952661434026500,5.977026611328125,0.01880290014743805,-0.008026179665140807,-0.01208244191915728
1782952661443953200,5.986953125,0.028226562052965164,-0.01422244048938155,-0.013989604414463975
1782952661453881300,5.99688134765625,0.01595335593521595,-0.013364837279357016,-0.006067277849442325
1782952661463808300,6.006808349609375,0.002782324194908142,0.00516240599816665,0.0035627522491849957
1782952661473736200,6.016736083984375,0.01924012252092361,-0.001548599415179342,0.006971492113592103
1782952661483664400,6.026664306640625,0.031057986086606978,-0.009695482850540428,-0.0027643547133775425
1782952661493591300,6.03659130859375,0.03838789058327675,0.00040132907619699833,0.012413103212206624
1782952661503519200,6.046519287109375,0.007114215919375419,-0.010833729632850736,0.004092283415468409
1782952661513446400,6.0564462890625,0.0144523037225008,0.001242912733182311,0.0012616630994249135
1782952661523374300,6.066374267578125,0.021340309670567513,0.0018027933719567952,-0.007314697794383391
1782952661533301200,6.07630126953125,0.034359365719556806,-0.010792466040700673,-0.006584310293756425
1782952661543229400,6.0862294921875,0.027031799310445782,-0.005839866868313401,-0.0035056015347363426
1782952661553156400,6.09615625,0.019251812958717345,-0.017527016726415604,-0.026580639743153004
1782952661563084300,6.106084228515625,0.007878186029195785,-0.014326485385745763,-0.008555185675038955
1782952661573012200,6.11601220703125,0.00907528685927391,-0.007002919298317283,-0.007516796237742528
1782952661582939400,6.125939453125,0.012067454412579537,-0.006805223035439848,-0.005646029363223351
1782952661592867300,6.135867431640625,0.025087679505348202,-0.013727843639161437,0.0015868627660674973
1782952661602794500,6.14579443359375,0.017312369328737257,-0.015451397762447595,-0.011020196682238019
1782952661612722400,6.155722412109375,0.01686228747367859,-0.014486845312919466,0.008034321872401051
1782952661622649300,6.1656494140625,0.03960603420138359,-0.0060734198958612975,-0.0016788153658388182
1782952661632577500,6.17557763671875,0.01880757632255554,-0.013270564858336002,-0.006055569145339541
1782952661642505500,6.18550537109375,0.035571079596877095,-0.011449742639344184,0.00029477256233803926
1782952661652432400,6.195432373046875,0.018214286604523656,-0.01224131314214319,-0.004507051928550936
1782952661662360300,6.2053603515625,0.02091127060353756,-0.01778513793963939,0.01408625145566184
1782952661672287500,6.21528759765625,0.02286006658375263,0.0017013240251690148,0.00469215357133653
1782952661682215400,6.22521533203125,0.026605098330974578,-0.0006661174922250211,-0.008238438742910512
1782952661692142600,6.235142578125,0.024060674545168876,0.002503470720909536,-0.010061676681274547
1782952661702070500,6.245070556640625,0.021661212188005447,0.0016064305496402084,0.0003375248586758971
1782952661711997200,6.2549970703125,0.02480067925751209,-0.010991185216885059,-0.006839664161158725
1782952661721925400,6.26492529296875,0.029587329012155533,-0.01484446311155334,-0.01255763994916342
1782952661731853600,6.274853515625,0.017468436673283575,-0.025651249938551335,0.006965875223558396
1782952661741780200,6.2847802734375,0.024804770910739897,-0.013106423805188387,-0.005392228132090531
1782952661751708200,6.294708251953125,0.023608839124441144,0.007478866246994584,-0.026128329398389903
1782952661761635300,6.30463525390625,0.018518237987160683,-0.01247961541004479,-0.0030392672311980277
1782952661771563300,6.314563232421875,0.01746785215139389,-0.012547566079720854,-0.01225894013037905
1782952661781490400,6.324490478515625,0.020158990931510926,-0.018580745296739042,-0.006882777217100374
1782952661791418400,6.33441845703125,0.01582008494436741,-0.0037398806480690833,0.0029981954352930186
1782952661801346300,6.34434619140625,0.02000584619641304,-0.0037685039543546733,-0.010375532969995402
1782952661811273200,6.354273193359375,0.011923077505826949,-0.021200170547515152,0.0025919253224972634
1782952661821201400,6.364201416015625,0.025090602114796638,-0.010114237985573708,-0.00937720611502882
1782952661831128300,6.37412841796875,0.028378537744283675,0.0033659510354511436,-0.0036312783075962214
1782952661841056300,6.38405615234375,0.020892565903067588,-0.012920600643195211,0.0029431499129626898
1782952661850983400,6.3939833984375,0.03151800481379032,-0.005593052500393241,-0.0000775541816605255
1782952661860911400,6.403911376953125,0.01909866822361946,-0.0012503288546577096,0.0019920642997836692
1782952661870838500,6.413838623046875,0.020444237613677977,-0.0017928017009049653,-0.009499298124737106
1782952661880766500,6.423766357421875,0.03840016554296016,-0.004137666060309857,-0.009032434098236262
1782952661890694400,6.4336943359375,0.025683891832828522,-0.004813099370151758,-0.0026773842494003473
1782952661900621300,6.443621337890625,0.022541502153873443,-0.024856537630595265,-0.026590992173808625
1782952661910549500,6.453549560546875,0.018196166425943374,-0.0038274128010496494,0.00229300630800426
1782952661920476400,6.463476318359375,0.033009120154380796,-0.0097658264067024,-0.019125752593367358
1782952661930404400,6.473404296875,0.007867080113291739,0.0027598201021552084,-0.008790866727591492
1782952661940331500,6.48333154296875,0.015200491741299628,-0.012243559898156672,0.0032344610097352414
1782952661950259500,6.493259521484375,0.024329554614424705,-0.01794290405092761,0.006435617971490137
1782952661960186400,6.503186279296875,0.016395254483819007,-0.009286080065742134,-0.005618045377754606
1782952661970114600,6.513114501953125,0.022830255967378615,-0.02006351293409243,-0.016033170572621748
1782952661980042500,6.52304248046875,0.02043546978533268,-0.015244604877661912,0.0021024567385436966
1782952661989969400,6.532969482421875,0.024324293917417524,-0.018761545223742723,-0.0008521872493904083
1782952661999897600,6.542897705078125,0.027464345508813857,-0.018806937001738695,0.005814161604898982
1782952662009824300,6.55282421875,0.017737316742539404,-0.007283453272748738,-0.006967825152049772
1782952662019752200,6.562752197265625,0.016394085440039632,-0.009172591487597673,-0.005487993823876604
1782952662029679400,6.572679443359375,0.015346622213721274,-0.01186009527221322,-0.00006032448564656079
1782952662039607300,6.582607177734375,0.021328034710884094,-0.0009714388480409979,-0.008113250593817792
1782952662049534200,6.5925341796875,0.01923369278013706,-0.008001191354356705,-0.006684989622677676
1782952662059462400,6.60246240234375,0.014593173497915267,-0.023224698645062745,-0.021406954299146307
1782952662069390300,6.612390380859375,0.02162789444029331,-0.018234653539117424,-0.007535217810422182
1782952662079317200,6.622317138671875,0.021031682112812995,0.0022940840202383696,-0.0024068465125979856
1782952662089245400,6.632245361328125,0.010707271975278853,-0.0034002916964702306,-0.002254651625570841
1782952662099172400,6.64217236328125,0.01025777464210987,0.0006562902179546654,-0.006623286030697636
1782952662109100300,6.652100341796875,0.020429040044546126,-0.0021809790345840153,0.0011169619656866416
1782952662119027500,6.66202734375,0.018186814075708387,-0.009726645173784345,-0.0003415251803584397
1782952662128955400,6.671955322265625,0.01923544634580612,-0.017689349414967,-0.0031065100813983007
1782952662138883300,6.68188330078125,0.022379005068540573,-0.012913020124938338,0.002807842228654772
1782952662148810500,6.691810546875,0.027913258320093153,0.004825904052797704,-0.00448181245601736
1782952662158738400,6.701738525390625,0.03524491638243198,-0.008903236494306474,-0.008013543945853598
1782952662168665300,6.711665283203125,0.024468086302280423,-0.010294014999270438,0.01624680419014767
1782952662178593300,6.72159326171875,0.026566519886255264,-0.002340864037722349,0.011567400502529926
1782952662188520400,6.7315205078125,0.010562310546636582,-0.0070431417108513415,-0.013734282513102516
1782952662198448400,6.741448486328125,0.02612520585954189,-0.01511644845334813,-0.011551696043321862
1782952662208375600,6.75137548828125,0.028815175595879552,-0.01471687294282019,0.011299260218790732
1782952662218303500,6.761303466796875,0.01684533633887768,-0.006026530280523002,-0.0190728442291962
1782952662228231400,6.7712314453125,0.030913024657964704,-0.01223565058633685,-0.015495940157072619
1782952662238158600,6.78115869140625,0.01685176607966423,-0.011766644835099578,-0.0016297018273733555
1782952662248086500,6.79108642578125,0.03704933545589447,0.004388005825877189,0.002970124684856273
1782952662258013400,6.801013427734375,0.027321137645840644,0.00039186712810769677,0.002173695343849249
1782952662267941400,6.81094140625,0.02343172899186611,-0.0029254955252632497,0.002970741172786802
1782952662277868300,6.820868408203125,0.019243045130372047,-0.0022401984085328877,0.005123932584724389
1782952662287796200,6.830796142578125,0.02956862431168556,-0.014253657611552626,-0.013512515821470878
1782952662297723400,6.840723388671875,0.031363106513023375,-0.006724504215735941,0.004782626600074582
1782952662307651300,6.8506513671875,0.021481763967871666,-0.007111201978381723,-0.013242201846954411
1782952662317579300,6.860579345703125,0.019689619854092597,-0.013223401248361915,0.0020612479453207926
1782952662327506200,6.870506103515625,0.0190969146579504,-0.011914492340572177,0.003399478845717385
1782952662337434400,6.880434326171875,0.024786650732159615,-0.0006465542752295732,0.0022888552892720323
1782952662347361300,6.890361328125,0.028676059386134146,-0.01739257669178769,0.0012825186577858402
1782952662357289200,6.900289306640625,0.01595510950088501,-0.010011983187496661,-0.0036651394780026748
1782952662367216400,6.91021630859375,0.008473813834786414,0.005696476342249662,-0.015619721800368278
1782952662377144300,6.920144287109375,0.020593875217437742,-0.022417510448023675,-0.01293247374407947
1782952662387071500,6.930071533203125,0.025234979021549222,-0.01275404843725264,-0.005977065115608275
1782952662396999400,6.93999951171875,0.014905308187007903,-0.015267145503032951,0.008321404318627901
1782952662406927400,6.94992724609375,0.02134264775812626,-0.014495448744483292,-0.0007211812808644026
1782952662416854300,6.959854248046875,0.021490531796216964,0.008281396535225211,-0.011207398950564674
1782952662426782500,6.969782470703125,0.006077858608961105,-0.006087978144176304,-0.001960276355454698
1782952662436709400,6.97970947265625,0.03420914359390735,-0.010269428547285497,-0.002569375563971698
1782952662446637300,6.98963720703125,0.023282675909996033,-0.009119290397781879,0.003728797565051354
1782952662456564500,6.999564453125,0.012805121037364005,-0.006437978891935199,0.004311077265301719
1782952662466492400,7.009492431640625,0.019688450810313222,-0.0013701375757344066,-0.004431210213364102
1782952662476420400,7.01942041015625,0.039141339299082756,0.0032650296779349443,0.012731845738599076
1782952662486347500,7.029347412109375,0.012203063490986822,0.00515066076144576,0.003930964507069439
1782952662496275500,7.039275390625,0.016395254483819007,0.003859543238673359,-0.003565277566411532
1782952662506202400,7.049202392578125,0.02373100419938564,-0.009287559636775404,-0.00604639489161782
1782952662516130600,7.059130615234375,0.010865092885494232,-0.0042940439321100705,0.005542938881507143
1782952662526057500,7.069057373046875,0.020740590211749076,-0.0155158960997127,-0.002223534968099557
1782952662535985400,7.0789853515625,0.036298224827647205,-0.015508772239182143,0.000029226094484329223
1782952662545912300,7.088912353515625,0.018790040665864944,-0.003379321973677724,-0.0010362796786008402
1782952662555840500,7.098840576171875,0.012206570622324943,-0.010545030618272722,-0.014394344723876564
1782952662565768400,7.1087685546875,0.01564531289935112,-0.009565189268067478,-0.002752824105788022
1782952662575695400,7.1186953125,0.019385083949565885,-0.011323175383917987,-0.001718594820378348
1782952662585623300,7.128623291015625,0.015045008918642997,-0.014401578182261437,-0.0045619787198724225
1782952662595550200,7.13855029296875,0.020278233397006986,-0.0042250520828180016,0.0053626047453843055
1782952662605478400,7.148478515625,0.01040332059264183,-0.0008104943989776074,-0.006541886790981516
1782952662615405300,7.1584052734375,0.022077391773462293,-0.00894338584160432,-0.0010171548530226572
1782952662625333200,7.168333251953125,0.011306406912207603,-0.01472686461387202,0.005730629773600958
1782952662635260400,7.178260498046875,0.022079145339131353,-0.005100921601895242,0.004359574315836653
1782952662645188400,7.188188232421875,0.0330003523260355,-0.005334072770643979,-0.006275783200701698
1782952662655116300,7.1981162109375,0.01938625299334526,0.006377206881716847,0.0013293534741969778
1782952662665043500,7.20804345703125,0.01789046147763729,-0.021921561890933663,0.013149573393748141
1782952662674971400,7.217971435546875,0.018940262791514395,-0.014657160378526895,-0.004597113965335302
1782952662684898300,7.227898193359375,0.009813538005948067,-0.007640102957002818,-0.021593782108137383
1782952662694826200,7.237826171875,0.015949264281988142,-0.005835574285686016,0.004407893269858323
1782952662704753400,7.24775341796875,0.025671616873145103,-0.012578016016911714,-0.0010807946737622842
1782952662714681300,7.257681396484375,0.0160948102325201,-0.02171023896150291,-0.008589430437935516
1782952662724608500,7.2676083984375,0.01609539475440979,-0.00018662687959149479,-0.0048569156789919354
1782952662734536400,7.277536376953125,0.015494506251811981,-0.016150924333930016,-0.0043913668267428875
1782952662744464400,7.28746435546875,0.0175894327044487,0.00027655191905796525,0.007572152287326753
1782952662754391600,7.2973916015625,0.021776363000273705,-0.012951543770730494,-0.009109024732094257
1782952662764319500,7.307319580078125,0.026865795093774795,-0.019468031258974224,-0.008182301808614283
1782952662774246400,7.317246337890625,0.031205285602807997,-0.019488982715457678,0.0005920567421708255
1782952662784174300,7.32717431640625,0.013849661654233932,-0.01163083482729271,0.014983958347211591
1782952662794101500,7.3371015625,0.030908933004736898,-0.005086107625253499,0.003513876172737218
1782952662804029400,7.347029541015625,0.025073650979995726,-0.008677811974287032,0.004635907039185986
1782952662813956400,7.356956298828125,0.02866319990456104,-0.008915310524590313,-0.005767166958283633
1782952662823884500,7.366884521484375,0.005617839881777763,-0.010926705145929009,-0.011769055987894534
1782952662833812500,7.3768125,0.01519172391295433,-0.0026043190131895245,0.00979557309099473
1782952662843739400,7.386739501953125,0.024018004447221755,0.002750979208573699,0.009642405523010529
1782952662853667300,7.396667236328125,0.023413608813285827,-0.0033248701063916084,-0.00007451740778051316
1782952662863594200,7.40659423828125,0.012494155392050742,-0.005953391979075968,-0.013305805135075933
1782952662873522200,7.416522216796875,0.015339023429155349,0.000445241283159703,0.00028595450164284553
1782952662883449300,7.426449462890625,0.026412790629267692,-0.0031727665509097276,0.004600315135996788
1782952662893377300,7.436377197265625,0.023415362378954887,-0.004363346308656036,0.007220731334039009
1782952662903304400,7.446304443359375,0.013544541227817534,0.0005651596020907163,0.0016773494945373385
1782952662913232400,7.456232421875,0.01579085884988308,-0.0039951340507715935,-0.008227314560697413
1782952662923160300,7.466160400390625,0.022532149803638456,-0.02189089275803417,0.0054445748072583225
1782952662933087200,7.476087158203125,0.010263035339117049,-0.0030941666230559347,-0.013119808443146757
1782952662943015400,7.486015380859375,0.014005144476890562,-0.0010212693391367792,-0.00708179778738413
1782952662952942300,7.4959423828125,0.02912204958796501,-0.009833046424016357,-0.008924238183139822
1782952662962870300,7.505870361328125,0.016102993538975714,-0.0014574140003882348,-0.009320849985023959
1782952662972797400,7.51579736328125,0.02253156528174877,-0.016397263777814804,-0.010495738983293994
1782952662982725400,7.525725341796875,0.030163083073496817,-0.016845738197676836,0.004899019521358423
1782952662992652500,7.535652587890625,0.025223873105645177,-0.002424359336402267,0.007376072592800482
1782952663002580500,7.54558056640625,0.024919921723008154,-0.01811831541676074,0.002397357165045105
1782952663012508400,7.55550830078125,0.026264322069287298,-0.0153646875933744,0.012990939632779919
1782952663022435300,7.565435302734375,0.023420623075962065,-0.005165785265341401,0.0044584087475435805
1782952663032363500,7.575363525390625,0.018336451679468155,0.0035388233843259512,-0.00501825285369996
1782952663042290400,7.58529052734375,0.019532383465766905,0.0033209793825633824,0.007731991624692455
1782952663052218400,7.59521826171875,0.020728315252065657,-0.00440853715725243,0.007492428981466218
1782952663062145500,7.6051455078125,0.027757190975546835,-0.01296615681797266,-0.012333156144060194
1782952663072073200,7.6150732421875,0.029855040037631987,-0.01051876366585493,0.0017298103341367094
1782952663082000100,7.625000244140625,0.015639467680454253,0.002515928343683481,0.0013737634380813688
1782952663091928300,7.63492822265625,0.004864975687861442,-0.011099358299095183,0.007852558397594838
1782952663101856300,7.644856201171875,0.018334113591909406,-0.013740191664081067,0.008215464292699471
1782952663111783200,7.654783203125,0.023123101434111594,-0.003568122544046491,-0.009985259577352553
1782952663121711400,7.66471142578125,0.022374913415312767,-0.002823039797786623,0.008646425888757222
1782952663131638300,7.67463818359375,0.024171733704209327,-0.011389244623761624,-0.005819472534256055
1782952663141566200,7.684566162109375,0.0033750293910503387,-0.00850389844579622,0.0025805408453801644
1782952663151493400,7.694493408203125,0.0032242227435111998,-0.005790657431725413,0.008409763022093102
1782952663161421300,7.70442138671875,0.01025952820777893,-0.0072027892519719895,-0.0039022818352794273
1782952663171348000,7.714347900390625,0.027318799558281898,-0.005537468121945857,0.003919137071957812
1782952663181276400,7.7242763671875,0.019538813206553457,0.0019155330314300954,0.010851685414649545
1782952663191204400,7.734204345703125,0.019693711507320404,-0.0025821985129266976,0.004317370008770376
1782952663201131000,7.744131103515625,0.019999416455626487,-0.010292151835747063,-0.010603807034227065
1782952663211059200,7.75405908203125,0.018955460360646246,-0.0027557101826183495,0.016395852705440483
1782952663220986000,7.763986083984375,0.013114917638897895,-0.019497184288222343,0.0023984851096291093
1782952663230914000,7.7739140625,0.0253840321034193,-0.018240206497069446,0.0057878398535540325
1782952663240841200,7.78384130859375,0.014913491493463516,-0.009240889217145741,0.0019496818962041287
1782952663250769200,7.79376904296875,0.032122984969615936,-0.01256880979714915,0.006136776588810607
1782952663260696000,7.803696044921875,0.025241408762335774,-0.012943707524146884,0.0011731765317963435
1782952663270624300,7.813624267578125,0.024495558831095693,-0.007342088124807924,0.007267945176362991
1782952663280552200,7.82355224609375,0.024492051699757576,-0.020106950217019765,-0.007778990837885066
1782952663290479000,7.83347900390625,0.023892916762828825,-0.010812303252331911,0.014963436148990875
1782952663300407300,7.8434072265625,0.008480828097462654,-0.009635788552556186,-0.01066040062624961
1782952663310334200,7.853334228515625,0.009082301121950149,-0.002260711473599076,-0.009654306023358367
1782952663320262100,7.86326220703125,0.020306290447711945,-0.006063939681462943,0.008653357953042723
1782952663330189300,7.873189208984375,0.015815993291139602,-0.001418598093651235,0.012458531522820704
1782952663340117200,7.8831171875,0.003994622594118118,-0.013221866878401487,-0.008573351519391871
1782952663350044200,7.893044189453125,0.022700492107868193,-0.022688947800546883,-0.0007746513340389355
1782952663359972400,7.902972412109375,0.012524550530314444,-0.011547631789557635,-0.007744768907874822
1782952663369900300,7.912900390625,0.012074468675255775,-0.005530673054978251,-0.008753466459806077
1782952663379827200,7.9228271484375,0.021802081963419914,-0.01217279621688649,0.00332618071406614
1782952663389755100,7.932755126953125,0.03407353451550007,-0.001608878235053271,0.0001072688999120146
1782952663399682300,7.942682373046875,0.01701075603365898,-0.006405903253238648,0.010254500406212173
1782952663409610200,7.9526103515625,0.011325111612677574,-0.013768266981095074,-0.011777248427504673
1782952663419537400,7.962537353515625,0.02643383341729641,-0.022720548515208064,-0.00509963839368429
1782952663429465300,7.97246533203125,0.025533669707179067,-0.01364394648168236,0.0013392355473944917
1782952663439392300,7.982392333984375,0.02882745055556297,-0.005771222078893333,0.0023073818932287395
1782952663449320200,7.9923203125,0.014766191977262496,-0.003940937911812215,-0.0036232319984585044
1782952663459248400,8.002248291015626,0.02240004785656929,0.0015215470114722848,0.01198591817554552
1782952663469175000,8.012175048828125,0.019856208592653274,-0.008406319822836667,0.002498410953301936
1782952663479103200,8.022103271484376,0.012824410259723662,-0.0014556969673372804,0.0037784545262111347
1782952663489030100,8.032030029296875,0.03242810539603233,-0.002243468077853322,-0.0017585158388130366
1782952663498958000,8.0419580078125,0.006838906109333038,-0.0066956069148145616,-0.0008846145145362242
1782952663508885200,8.05188525390625,0.028235914403200148,0.004230952100642026,-0.0026577616669004782
1782952663518813200,8.061813232421875,0.03212532305717468,-0.004386964646261185,-0.010237389441207051
1782952663528740000,8.071739990234375,0.01970657098889351,-0.014277056753449141,0.015032322967005893
1782952663538668000,8.08166796875,0.02255377711355686,-0.00691237320434302,-0.006703945484897122
1782952663548596200,8.09159619140625,0.012679448831081389,-0.004708214223571121,0.005220383263099938
1782952663558523100,8.101523193359375,0.027792846810817718,0.007256199939642101,0.01207324026597198
1782952663568451000,8.111451171875,0.020462357792258263,0.0026891842850483953,0.00944806569442153
1782952663578378200,8.121378173828125,0.02600070269703865,-0.0022867044313810763,-0.0024307160119526085
1782952663588306200,8.13130615234375,0.020916531300544737,-0.01856819634241983,-0.00020185641476418823
1782952663598233300,8.1412333984375,0.029001638078689572,-0.009459792664833367,-0.007865573142794891
1782952663608161300,8.151161376953125,0.01867956602871418,-0.011469616383593529,-0.007856892079417593
1782952663618088200,8.161088134765626,0.030351883643865582,-0.014183441919554025,-0.0018234708338044582
1782952663628016000,8.17101611328125,0.019730536386370658,-0.0027366036233492192,-0.01431476298191119
1782952663637944300,8.1809443359375,0.020933482435345648,-0.0200150158835575,-0.014812611235142685
1782952663647871200,8.190871337890625,0.026323358780145644,-0.0006283427651040255,-0.004038607866317033
1782952663657799200,8.200799072265625,0.004775543838739395,-0.003931329833250493,-0.005290242762072011
1782952663667726300,8.210726318359375,0.05864858832359313,-0.02067642066804692,-0.011314919012226164
1782952663677654300,8.220654296875,-0.001356090784072876,-0.0022674334753304717,-0.002911887125018984
1782952663687581200,8.230581298828126,0.031417467048764226,-0.015247984144836663,-0.008920740184956229
1782952663697509400,8.24050927734375,0.011371288841962814,-0.004195223200134933,0.01474939153951127
1782952663707436300,8.250436279296874,0.045642391756176945,-0.01073182189464569,-0.006317909875954501
1782952663717364200,8.2603642578125,0.007782324439287185,-0.008594736800715326,0.007516394378943368
1782952663727292400,8.27029248046875,0.030676293292641637,-0.0020032661138102413,0.0028608647572575135
1782952663737219000,8.280218994140625,0.01840542526245117,-0.015167192259896546,0.004263612261228263
1782952663747147300,8.290147216796875,0.03321837899088859,-0.010822861178964376,-0.0017060732655227184
1782952663757074200,8.30007421875,0.023643325915932652,-0.0037272220958955585,0.013258467995165847
1782952663767002000,8.310002197265625,0.021094810476899147,-0.017775584660004822,0.00997726350056473
1782952663776929000,8.319928955078124,0.02752572030723095,-0.010361015820875763,-0.007649386808578856
1782952663786857200,8.329857177734375,0.019743395867943762,-0.006133698715735226,0.007849306994583458
1782952663796784000,8.3397841796875,0.01914835258424282,0.0009457746838219464,0.00880981345665641
1782952663806712000,8.349712158203126,0.013612345767021179,-0.0038649683324620127,-0.000271213590237312
1782952663816639200,8.35963916015625,0.01451367852091789,-0.019351857533399016,0.01395166072398424
1782952663826567200,8.369567138671876,0.04039923040568828,-0.009264525821059941,-0.008570839901897125
1782952663836495000,8.3794951171875,-0.049236032333970066,-0.00978332553077489,-0.0030535240854136646
1782952663846422300,8.38942236328125,0.04862929861247539,-0.004425616156216711,-0.011858259508153423
1782952663856350200,8.39935009765625,0.02020049198567867,-0.025170389352738857,0.025641235434613188
1782952663866277000,8.409277099609374,0.0016419219881296156,0.017740275884605944,-0.009210407313914037
1782952663876205300,8.419205322265626,0.033217794468998904,-0.003895235606562346,0.0030373447021702304
1782952663886132200,8.42913232421875,0.014663316124677658,-0.013499624373856932,0.01746505283953156
1782952663896060200,8.43906005859375,0.04938157828450203,-0.009511577650997787,-0.01874179021050222
1782952663905987300,8.4489873046875,-0.00852583628296852,-0.026214254116173834,0.002355924609536305
1782952663915915300,8.458915283203124,0.029930443361401556,-0.012685440180450678,-0.016821745400736107
1782952663925843200,8.46884326171875,0.0007470189750194549,-0.012398695660941301,-0.0003890038841636851
1782952663935770400,8.478770263671874,0.026335633739829063,-0.0001283390874043107,0.00178277349723503
1782952663945698300,8.4886982421875,0.02304302193522453,0.0021384002681821583,0.019473310222290454
1782952663955625200,8.498625244140625,0.02424129180908203,-0.0005729958486743271,0.004477277844795026
1782952663965553400,8.508553466796876,0.025888474494218824,-0.001491352802608162,0.0017171700482722372
1782952663975480300,8.518480224609375,0.03367196797728538,-0.017586747557017952,0.00427844450417906
1782952663985408300,8.528408203125,0.0076326868355274195,-0.012084624743089079,-0.006248315238463692
1782952663995335200,8.538335205078125,0.023343466186523436,-0.01499979980373755,0.008244749752688222
1782952664005263400,8.548263427734375,0.0416010074108839,-0.017760478422418235,-0.01089582595047541
1782952664015191300,8.55819140625,0.004642272847890853,-0.012446772586368024,0.006267755157873034
1782952664025118200,8.5681181640625,0.026489362996816635,-0.010833674833923577,-0.007930573803558945
1782952664035046100,8.578046142578126,0.009881927067041397,-0.0031439971141517162,-0.0036774372705724086
1782952664044973000,8.58797314453125,0.027384850531816482,0.0006183145614340901,0.004772050407133065
1782952664054901200,8.5979013671875,0.018704700469970702,-0.003371467460785061,-0.005498131625400856
1782952664064828200,8.607828125,0.021841244930028914,0.0023444990332238376,-0.0139792337174993
1782952664074756600,8.617756591796875,0.014659224471449852,-0.003768650084827095,-0.011156563812470995
1782952664084683800,8.627683837890626,-0.0029991818159818646,-0.009083634562510996,-0.015209433099580928
1782952664094611700,8.63761181640625,0.01734627159833908,0.001090937041863799,0.018802895580860787
1782952664104538600,8.64753857421875,0.022584172251820564,-0.002224361518584192,0.000040642537642270326
1782952664114466600,8.657466552734375,0.016301146459579467,-0.006164112120307982,0.004875446849525906
1782952664124394800,8.667394775390624,0.015707272219657897,-0.007229275400098413,0.009338595704268664
1782952664134321700,8.67732177734375,0.013610592201352118,-0.032029333603102714,-0.001183848622860387
1782952664144249600,8.68724951171875,0.01256312897503376,-0.01510092209065333,-0.007231316660135052
1782952664154176800,8.6971767578125,0.01211129355430603,-0.0020623028246685863,0.0008001785009400918
1782952664164104700,8.707104736328125,0.004630582410097122,-0.0020773542633280156,0.016336770328809508
1782952664174031600,8.717031494140626,0.014807108509540557,0.00011849354682490229,0.017341819185507482
1782952664183959800,8.726959716796875,0.015707272219657897,-0.00626671397825703,0.010273844427498988
1782952664193886700,8.73688671875,0.020942834785580632,-0.01847807037355378,-0.00790382736052852
1782952664203814700,8.746814697265625,0.029025018954277036,-0.018570187370106576,-0.017253739043255334
1782952664213742800,8.756742919921875,0.024687282010912893,-0.014860245202574878,-0.002488857673667371
1782952664223669800,8.766669677734376,0.035464112091064454,-0.007318725515529513,-0.001507915778341703
1782952664233597700,8.77659765625,0.01810556553304195,-0.006855163124389946,0.01554828683224041
1782952664243524900,8.78652490234375,0.02708382175862789,-0.00744717420078814,0.002097520268522203
1782952664253452800,8.796452880859375,0.022743746727705,-0.008054638574644923,0.00451344057014212
1782952664263379700,8.806379638671874,0.02333937453329563,-0.0009306684462353586,-0.005457288158359006
1782952664273308000,8.816307861328125,0.026028759747743605,-0.023994915832579136,0.004522062268014997
1782952664283234600,8.826234619140624,0.02198386827111244,-0.014838508294802159,0.0030841247196542096
1782952664293162800,8.836162841796876,0.020336685585975647,-0.023031970818247646,-0.00559628563709557
1782952664303090700,8.846090576171875,0.02437865445315838,-0.020355262422282246,-0.001960920242848806
1782952664313017600,8.856017578125,0.019440029007196425,-0.017745280853286385,0.014197945368941872
1782952664322945500,8.865945556640625,0.023930910685658453,-0.011808894807938486,0.0011636323853163049
1782952664332872700,8.875872802734374,0.013760814327001571,0.012699194711167365,0.004454650454455986
1782952664342800600,8.885800537109375,0.011514496704936027,-0.011942403260804712,0.014724827920412643
1782952664352727600,8.8957275390625,0.018844401201605795,-0.00598681932464242,0.00725293483689893
1782952664362655700,8.90565576171875,0.024534721797704696,0.00016646087439730763,0.0017277371080592274
1782952664372582700,8.915582763671875,0.015247838014364242,-0.01148393716989085,-0.005165397106274031
1782952664382510600,8.925510498046876,0.020483985102176666,-0.01772568110367283,-0.0058878981279674916
1782952664392438500,8.9354384765625,0.026019991919398307,-0.0064864942087791855,-0.008037322113662957
1782952664402365700,8.94536572265625,0.01988601920902729,-0.002027286310214549,-0.0024111756278434766
1782952664412293600,8.955293701171875,0.02842003879845142,-0.006213632084149867,-0.0026715390305034814
1782952664422220800,8.965220703125,0.02332885313928127,-0.006566701571829617,0.0060805026571964845
1782952664432148700,8.975148681640626,0.027219430837035177,-0.011508140029385685,0.0006645876888418569
1782952664442075600,8.98507568359375,0.032009587723016736,-0.004673873562552035,-0.0038011093160137534
1782952664452003800,8.99500390625,0.03126139970421791,-0.009904997415374964,-0.00749189925850369
1782952664461930800,9.0049306640625,0.011510989573597908,-0.006956742069032043,-0.005163241681805811
1782952664471858700,9.014858642578124,0.02079261265993118,-0.009030205608531832,0.005213738893182017
1782952664481785900,9.024785888671875,0.021985037314891813,-0.011138594330940395,0.015750723202317022
1782952664491713800,9.0347138671875,0.01015840592086315,-0.010803224896732718,-0.00550099943592213
1782952664501641700,9.044641845703126,0.0219768540084362,-0.007726794859766959,-0.008770271464134565
1782952664511569000,9.05456884765625,0.010302782827615738,-0.009730535897612571,-0.014063980258349328
1782952664521496800,9.064496826171874,0.02451367900967598,-0.01717407510289922,-0.005453306102985516
1782952664531423700,9.074423828125,0.021820202142000197,-0.008194649833533912,-0.0021515063449274747
1782952664541351700,9.0843515625,0.007006079369783401,-0.013104944234155117,0.005719820685219019
1782952664551278600,9.094278564453125,0.007457330268621444,-0.00014081497648730872,-0.005651627986948005
1782952664561206800,9.104206787109375,0.025862755531072614,0.007213475042767823,0.014464240755466743
1782952664571133700,9.1141337890625,0.03184825968146324,-0.009517879527620971,0.0003816060289973393
1782952664581061600,9.1240615234375,0.02451660161912441,-0.013144819586817175,0.0024218111862894147
1782952664590989800,9.13398974609375,0.014790741896629333,-0.010204601416457444,0.0039472991539398206
1782952664600916700,9.143916748046875,0.03169920659959316,-0.018547939005680383,-0.003930777277401648
1782952664610844700,9.1538447265625,0.026912556844949722,-0.01997188912788406,-0.004756510344706475
1782952664620771600,9.163771484375,0.027357962524890898,0.00711030692923814,-0.00806732909285929
1782952664630699500,9.173699462890625,0.026909634235501287,-0.0018783610925078391,-0.0014662000950425862
1782952664640626700,9.183626708984375,0.03499006483852863,-0.007417911573685705,-0.0002572170309256762
1782952664650554600,9.1935546875,0.03887771992683411,-0.00413815925065428,-0.0010532673460198565
1782952664660481800,9.203481689453126,0.022564883029460907,-0.0036427952154539523,0.0005169045801507308
1782952664670409700,9.21340966796875,0.015979659420251844,-0.003013630466442555,0.01585316979663912
1782952664680337700,9.223337646484374,0.03198912945687771,-0.008804854153748602,0.000933860483742319
1782952664690264600,9.2332646484375,0.021363106024265287,-0.00932851270167157,-0.004676732239918783
1782952664700192800,9.24319287109375,0.022411153772473335,-0.007563220062199979,0.013103355065267532
1782952664710119700,9.25311962890625,0.024357027143239972,-0.0005485737934708594,0.008000460701994597
1782952664720047600,9.263047607421875,0.015375263786315917,-0.019934461460635065,0.004224239232065156
1782952664729974800,9.272974853515626,0.027045827835798262,-0.008066657806001604,0.012282225107843986
1782952664739902700,9.28290283203125,0.013275661158561707,-0.007658424064982682,-0.013647983335983008
1782952664749830000,9.292829833984374,0.02734218043386936,-0.018152089822199194,-0.0031376450051786376
1782952664759757800,9.3027578125,0.011933014377951622,-0.01122389799421653,-0.0012918664414435625
1782952664769684700,9.312684814453124,0.011032266145944594,-0.019001948117185384,0.0021791706699877977
1782952664779610600,9.322610595703125,0.01656593487560749,-0.011284505607653409,-0.011761096443724818
1782952664789538600,9.33253857421875,0.030775662013888358,0.0016040741957724094,-0.001413857986452058
1782952664799465700,9.3424658203125,0.02284136188328266,-0.009502334898617118,-0.0030920614309376104
1782952664809393700,9.3523935546875,0.01805471212863922,-0.013124379586987197,-0.003747529664984904
1782952664819320600,9.362320556640626,0.028679566517472267,-0.008191581093613058,-0.003235223628138192
1782952664829248800,9.372248779296875,0.010870938104391097,-0.0027623773854225874,0.012076423170324414
1782952664839175700,9.38217578125,0.024487375524640084,-0.01877097063921392,-0.00086009656121023
1782952664849103600,9.392103515625,0.02358721181452274,-0.0017400851329788564,-0.008285159394890069
1782952664859031600,9.402031494140624,0.02104278802871704,0.01071541874911636,0.003330395664880052
1782952664868958700,9.411958740234375,0.017600538620352744,-0.015733667036239057,0.005283639491349458
1782952664878886700,9.42188671875,0.030916531789302825,-0.00623829160137102,0.0012807605255395174
1782952664888813800,9.431813720703126,0.016698621344566345,-0.010509119054675102,-0.010993779032770544
1782952664898741800,9.44174169921875,0.015056114834547041,-0.016435111570172013,-0.006837714232667349
1782952664908668700,9.451668701171876,0.016853519645333288,-0.0006148074300959705,0.0039096340246731415
1782952664918596900,9.461596923828125,0.02912204958796501,0.004662475385703146,0.013396013302332721
1782952664928523800,9.471523681640624,0.016253800186514854,-0.004505531258322299,0.014640076812985353
1782952664938451700,9.48145166015625,0.02508183428645134,-0.008369768938422202,0.0036871869130292905
1782952664948379000,9.49137890625,0.02238601933121681,-0.016403273393493144,0.004308497149148024
1782952664958306800,9.501306884765626,0.006228080734610557,-0.016336966691631823,0.009973888799967244
1782952664968234800,9.51123486328125,0.01640636039972305,-0.014473675304092467,0.014064761143061332
1782952664978162000,9.521161865234374,0.019399112474918365,-0.005810659040138125,-0.006694063411699608
1782952664988089900,9.53108984375,0.010271218645572662,0.007769282294623554,-0.005152049000933766
1782952664998016500,9.5410166015625,0.026133389165997504,-0.012890990956220776,0.02314440451704431
1782952665007944700,9.55094482421875,0.025835283002257344,-0.005888144723139703,-0.006626637898408808
1782952665017871600,9.56087158203125,0.01625789183974266,-0.009315507089626043,-0.0052876809122273695
1782952665027799600,9.570799560546876,0.014014496827125548,-0.024929365404788403,0.0033266510715242474
1782952665037726700,9.580726806640625,0.018058803781867028,-0.01595026892898604,0.004537141106138005
1782952665047654700,9.590654541015626,0.023899931025505066,-0.010418134569283574,0.002225790857267566
1782952665057581600,9.60058154296875,0.026444354811310765,-0.006425448203925043,-0.009794189418083988
1782952665067509800,9.610509765625,0.029137831678986547,-0.014155183939449489,0.01674348339959979
1782952665077437700,9.620437744140625,0.0258504805713892,-0.010244714231137186,0.003400789453391917
1782952665087364600,9.630364501953125,0.02046411135792732,-0.01387786483541131,-0.02825840022964403
1782952665097292500,9.64029248046875,0.017176175728440282,0.0018387232018634676,-0.0016433330605039372
1782952665107219700,9.6502197265625,0.024657471394538878,-0.014923775425460188,0.012800431162514723
1782952665117147600,9.660147705078124,0.017625673061609268,-0.021840696940757333,0.0011672171484678983
1782952665127074600,9.670074462890625,0.013582535150647163,-0.012178184778057039,0.005439533305959776
1782952665137002500,9.68000244140625,0.017324644288420676,-0.002935231467988342,0.015208894243463873
1782952665146931700,9.689931640625,0.01567395447194576,-0.005291914129350334,0.007319643397559411
1782952665156859600,9.699859619140625,0.019711831685900686,-0.011950166442152112,0.005803288584435358
1782952665166786600,9.70978662109375,0.02719312735199928,-0.012363076358288526,0.007433342038257978
1782952665176714800,9.71971484375,0.026894436666369436,-0.016864972621109336,-0.0015392607646761462
1782952665186642700,9.729642578125,0.018668460112810134,-0.01029578683124855,-0.008710631965077481
1782952665196569600,9.739569580078125,0.012387772408127783,-0.0035562311768531796,0.010306463488889857
1782952665206497800,9.749497802734375,0.03947393225431442,-0.021890052507817743,0.013874960492271928
1782952665216424700,9.7594248046875,0.017774726143479348,-0.00549839648688212,-0.005560794198606163
1782952665226352600,9.7693525390625,0.03154021664559841,-0.008460662092268466,0.0023802005342673507
1782952665236279600,9.779279541015624,0.03154255473315715,-0.008404803719185292,0.004268703994876705
1782952665246207500,9.78920751953125,0.012688216659426689,-0.00806373519655317,0.021622592644090763
1782952665256134400,9.799134521484374,0.008643325182795524,-0.013154939122032373,-0.002037446944625117
1782952665266062600,9.8090625,0.023609423646330834,-0.012341284651588649,0.0011627784353680907
1782952665275989500,9.818989501953125,0.013887071055173873,-0.03210433506807312,-0.012754929786664433
1782952665285917400,9.82891748046875,0.029603695625066755,-0.014306867369823157,-0.016975355926714838
1782952665295845600,9.838845703125,0.02616319978237152,-0.008211199109535664,0.008070073605794459
1782952665305772500,9.8487724609375,0.020776246047019956,-0.018217026550881563,0.014250903965462929
1782952665315700500,9.858700439453125,0.028708792611956593,0.001229377398174256,0.013121237781830131
1782952665325627600,9.868627685546874,0.023020225581526756,-0.005445826049428433,0.010803466925327665
1782952665335555600,9.8785556640625,0.019279285487532615,-0.0044027284709736705,0.011206563266925514
1782952665345482500,9.888482421875,0.01942892309129238,-0.0213098414670676,0.001834951209044084
1782952665355410700,9.89841064453125,0.025861586487293243,-0.016452373232226817,-0.008967154876259155
1782952665365337600,9.908337646484375,0.023766075512766837,-0.0032793869968503714,-0.0002043041001772508
1782952665375265500,9.918265625,0.0165828860104084,0.0039272747126407916,0.0008698736031306907
1782952665385192700,9.928192626953125,0.017031798821687698,-0.007477478007506579,0.0033223082565469663
1782952665395120600,9.93812060546875,0.03858078280687332,-0.01931994629148394,0.0026579671628773212
1782952665405048600,9.948048583984376,0.02286708084642887,-0.0222296779920347,-0.005488340883748606
1782952665414975700,9.957975830078125,0.008799977049231529,0.0003767974231392145,-0.0068603416230063885
1782952665424903700,9.967903564453126,0.018379121777415273,-0.010339552907738834,-0.0011818986943690107
1782952665434830600,9.97783056640625,0.02316343344449997,-0.021876170112937687,0.004806537198624573
1782952665444758500,9.987758544921874,0.018369184905290603,-0.0037306196293793617,0.0036865567253669723
1782952665454685700,9.997685791015625,0.02121171485483646,0.0028863325586542484,0.004942548135831021
1782952665464613600,10.007613525390624,0.02375730768442154,-0.007042100531235337,-0.0023747343412833287
1782952665474540500,10.01754052734375,0.047101942914724346,0.010580138464272021,0.0010619210099335758
1782952665484468700,10.02746875,0.017325228810310362,-0.008624383020307868,-0.0024081936528906225
1782952665494396700,10.037396728515626,0.03303776172697544,-0.0255905875261873,-0.008536439875373617
1782952665504323600,10.047323486328125,0.02181611048877239,-0.015912238473538308,0.0018901702613104135
1782952665514251500,10.05725146484375,0.005055529823899269,-0.006444646094739437,0.012992916960734874
1782952665524178400,10.067178466796875,0.02002104376554489,0.0009972308764234184,0.0030176810204749927
1782952665534106400,10.0771064453125,0.0251139829903841,0.0014299780041910708,0.00905181008556392
1782952665544033500,10.087033447265625,0.029303251373767852,-0.0009499028696678579,0.01730035009738058
1782952665553961500,10.09696142578125,0.029603695625066755,-0.015360395010747015,0.018164223217987455
1782952665563888600,10.106888671875,0.0340939927816391,-0.0026839601206593215,0.008414968920173124
1782952665573816600,10.116816650390625,0.026314590951800346,-0.007252254416886717,0.0016015899777412413
1782952665583744500,10.12674462890625,0.021976269486546515,0.005258724245801568,0.012440205848263577
1782952665593671700,10.136671630859375,0.020332009410858155,-0.007248948214948177,-0.0015573078780202194
1782952665603599600,10.146599609375,0.014348258826136589,-0.011005250274855643,0.011916273305704817
1782952665613526500,10.156526611328125,0.03963935194909572,-0.016311339060030877,0.015142966567515395
1782952665623454500,10.166454345703125,0.015848141995072364,-0.00781962424237281,-0.00011883604011964052
1782952665633381600,10.176381591796876,0.018089783442020415,-0.015843977276608346,-0.0004246186202391982
1782952665643309600,10.1863095703125,0.009258242210745811,-0.00976779916808009,0.015189554788754321
1782952665653236700,10.19623681640625,0.013894669839739799,-0.024216595759242773,0.009326033050217666
1782952665663164700,10.20616455078125,0.019732874473929404,-0.014748619787953793,0.01340108676967211
1782952665673091600,10.216091552734374,0.02631692903935909,-0.0075624894098378715,0.0007187564283376559
1782952665683019500,10.22601953125,0.027210663008689878,0.0052723691786639385,-0.002254240633617155
1782952665692947700,10.23594775390625,0.02601414670050144,-0.006561988864094019,0.008644960017455742
1782952665702874600,10.24587451171875,0.015387538745999336,-0.013516246715094894,-0.010500150296930223
1782952665712802600,10.255802490234375,0.023469138392806052,-0.014590981540828942,-0.016423786458559332
1782952665722729700,10.265729736328124,0.039483284604549404,-0.022779968818556515,0.01980555611765012
1782952665732657700,10.27565771484375,0.022576573467254637,-0.001017433414235711,-0.007586847532959655
1782952665742584600,10.28558447265625,0.012106032857298851,-0.004004906526114791,0.0055579537875484674
1782952665752512800,10.2955126953125,0.03036298955976963,0.00015592121407389639,-0.003662892721989192
1782952665762439400,10.305439453125,0.023477321699261665,0.0014029073341749608,0.006793359067710116
1782952665772367400,10.315367431640626,0.014048983618617056,-0.008433244362380354,0.00574075387539342
1782952665782294500,10.32529443359375,0.014347089782357216,-0.0015015636693686246,-0.008733889543078839
1782952665792222500,10.335222412109376,0.02138181072473526,-0.017130363825336097,-0.022204520717891862
1782952665802150400,10.345150390625,0.015846388429403304,-0.019586250811163334,-0.0038992861605947836
1782952665812077600,10.35507763671875,0.019583236870169638,-0.004191058481670916,0.010383574712555854
1782952665822005500,10.365005615234375,0.01703998212814331,-0.0018417919417843221,0.01134510408793576
1782952665831932700,10.3749326171875,0.04068447708785534,-0.0005230009607970714,0.004266863664239645
1782952665841860600,10.384860595703126,0.03140460756719112,-0.0070207654822617765,0.005335840036044828
1782952665851787500,10.39478759765625,0.024517186141014096,0.006605992402601987,-0.0037122619887813924
1782952665861715500,10.404715576171874,0.01374386319220066,-0.014046134074404835,-0.013364645483111962
1782952665871642600,10.414642578125,0.01554419061243534,-0.013455218976549804,-0.0022587615451076996
1782952665881570600,10.424570556640624,0.01255436114668846,-0.013400346984155475,-0.0008283862486947327
1782952665891497700,10.434497802734375,0.021834230667352676,-0.008676551598962396,0.0002579750827513635
1782952665901425700,10.44442578125,0.020187632504105567,-0.010741667435225099,-0.010299983515753411
1782952665911353600,10.454353515625,0.029767946276068685,-0.006952869611512869,-0.016241452161595223
1782952665921280500,10.464280517578125,0.028723990181088444,-0.0015713044373318551,0.013308622713247313
1782952665931208700,10.474208740234374,0.024833412483334538,-0.014734262469038367,0.009600004853121936
1782952665941135600,10.484135498046875,0.023782442125678063,-0.004756784339342266,-0.0008194768564542755
1782952665951063600,10.4940634765625,0.02437865445315838,0.003700370621588081,-0.0026851017649751154
1782952665960990700,10.50399072265625,0.028116087415814398,-0.00723371411319822,0.0027800272065447644
1782952665970918700,10.513918701171875,0.0309568637996912,0.005396634879149496,-0.008038176063611171
1782952665980845600,10.523845458984376,0.015391045877337455,-0.013901720635034143,0.006429439392453059
1782952665990773800,10.533773681640625,0.013448095116019248,-0.011287830075901001,-0.008267696803435682
1782952666000700400,10.543700439453126,0.032004911547899244,-0.000007598784565925598,-0.0011398450843524187
1782952666010628600,10.553628662109375,0.01719604947268963,-0.008592015120666473,0.010209574419097043
1782952666020556800,10.563556884765624,0.019440029007196425,-0.015917827964108438,-0.00043529071130324153
1782952666030483500,10.5734833984375,0.023930326163768768,-0.014310356234852224,-0.012140309586236252
1782952666040411400,10.583411376953125,0.007916179952025412,-0.02067229248220101,-0.007284955676668323
1782952666050338600,10.593338623046876,0.01420095930993557,0.010758161912299693,0.009346313219843432
1782952666060266500,10.6032666015625,0.03904313962161541,0.00319006474558264,0.030089702743454835
1782952666070193400,10.613193359375,0.005823591586947441,-0.011057071793638169,0.025095314822532234
1782952666080121300,10.623121337890625,0.013902853146195411,0.003504007799271494,0.006493969695759006
1782952666090048300,10.63304833984375,0.02826630954146385,-0.016591416376736015,-0.0014042042421177029
1782952666099976200,10.64297607421875,0.03454875081181526,-0.012474062452092765,-0.0021800748522859065
1782952666109903400,10.6529033203125,0.024372224712371826,-0.017835004963353274,-0.003270582635886967
1782952666119831300,10.662831298828126,0.02227671373784542,-0.011217833579611033,0.0005187631770968437
1782952666129759200,10.67275927734375,0.022574819901585576,-0.014171915878541767,0.003991540154465474
1782952666139686400,10.682686279296876,0.028559739530086517,-0.009668430446833371,0.018801543873990884
1782952666149614300,10.6926142578125,0.010153145223855973,0.004456760213151574,0.005788976931292563
1782952666159541200,10.702541259765624,0.031101240706443784,-0.01315815399242565,0.012693938580737448
1782952666169469400,10.712469482421875,0.028104396978020665,-0.013627050145808606,0.013390528843039646
1782952666179396000,10.72239599609375,0.022716274198889733,-0.01899584716996178,-0.0002889958421001211
1782952666189324000,10.732323974609375,0.031392332607507706,-0.022339074916951356,-0.009322699448815546
1782952666199251200,10.742251220703125,0.01987199068367481,0.0011128383464179931,-0.016554020675527862
1782952666209179100,10.75217919921875,0.017028291690349577,-0.011856168015766888,0.007231074631540105
1782952666219106300,10.762106201171875,0.01942541595995426,-0.0016123123011551796,0.0033089281851658597
1782952666229034200,10.7720341796875,0.014340660041570663,-0.005719838951528072,0.005483212617482058
1782952666238962200,10.781962158203125,0.03828033855557442,-0.0035373803459107876,-0.005239704451500438
1782952666248889000,10.79188916015625,0.01239186406135559,0.0028068375816568732,0.00206636251185555
1782952666258817300,10.8018173828125,0.011045710149407386,-0.006138210494071245,0.0043312798031140114
1782952666268744200,10.811744140625,0.014785481199622154,-0.005339570929668844,0.0065523853521095585
1782952666278672100,10.821672119140626,0.014339490997791289,-0.010484970994107425,0.0014954444558359682
1782952666288599300,10.831599365234375,0.009855039060115813,-0.009446348661370575,0.011358552657975815
1782952666298527200,10.84152734375,0.016138649374246597,-0.012401490406226366,0.0019464989918516948
1782952666308454400,10.851454345703125,0.02825929527878761,-0.006121094962488859,0.006540156058198772
1782952666318382300,10.86138232421875,0.011199439406394958,-0.0054806964334100485,0.001751095150760375
1782952666328309200,10.871309326171875,0.024069442373514174,0.020231818705704063,-0.001328992714593187
1782952666338237200,10.8812373046875,0.020326748713850974,0.008799063733778893,-0.00017909659368451684
1782952666348165400,10.891165283203126,0.023320085310935972,-0.008724811187479644,0.011890380812622605
1782952666358092300,10.90109228515625,0.016589315751194954,-0.011523246266972273,0.003914511129190214
1782952666368020200,10.911020263671874,0.019885434687137604,-0.0040167065617628395,-0.007862600300996564
1782952666377947400,10.920947509765625,0.031551907083392144,-0.01760934298131615,-0.010572799974610097
1782952666387875300,10.930875244140625,0.0014747487276792525,-0.003393569694738835,0.00010310418144799768
1782952666397802200,10.94080224609375,0.029903555354475975,-0.021577570758853106,-0.0022055152542190624
1782952666407730400,10.95073046875,0.018381459864974022,-0.017057462985906748,0.0033979353426024316
1782952666417657000,10.960656982421876,0.02018003371953964,-0.0038321803077124056,0.007535190410958603
1782952666427585300,10.970585205078125,0.035595044994354244,0.0019046645775437354,-0.006908427681587636
1782952666437512200,10.98051220703125,0.014495558342337608,-0.0067257463247515255,-0.010414284944650716
1782952666447440100,10.990440185546875,0.014045476487278937,-0.005081157455500215,-0.007095497519173659
1782952666457368000,11.0003681640625,0.03798573952317238,-0.00624740648958832,-0.00767962668321561
1782952666467295200,11.010295166015625,0.026615619724988937,-0.003034563656616956,0.0023396082289749757
1782952666477223200,11.02022314453125,0.017041151171922682,-0.01973831783402711,-0.0021051464525517075
1782952666487150000,11.030150146484376,0.028262802410125732,-0.004740088932868093,0.004157503271941095
1782952666497078300,11.040078369140625,0.0315536606490612,-0.016815324793104082,0.005242869089543819
1782952666507005200,11.050005126953126,0.008638649007678032,-0.017243962001334875,0.008225127170188352
1782952666516933000,11.05993310546875,0.009976619613170623,-0.00822277994947508,-0.000705453988770023
1782952666526860300,11.0698603515625,0.025837621089816094,-0.016012392646074295,0.0015814513720106332
1782952666536788200,11.079788330078125,0.025546529188752172,-0.029832627276424318,0.011235510800196788
1782952666546715100,11.089715087890625,0.02525426824390888,-0.01051167633794248,0.01341480020119343
1782952666556643300,11.099643310546876,0.016137480330467222,-0.0031262605280615386,0.0035553452608641234
1782952666566571300,11.1095712890625,0.013300795599818229,-0.01854125353656709,0.009810670195426792
1782952666576498200,11.119498291015624,0.013151157996058463,-0.021530845540296287,-0.011349643265735357
1782952666586426400,11.12942626953125,0.011207038190960883,-0.007491360402386635,-0.0024793911590008065
