time,seconds_elapsed,z,y,x
1782952655517192700,0.060192626953125,0.0018706461414694786,0.0019796015694737434,0.0015403605066239834
1782952655527119400,0.070119384765625,-0.0000164681114256382,0.002064637839794159,-0.0007913984009064734
1782952655537047300,0.08004736328125,-0.00006387237226590514,-0.003025728277862072,0.0005921138217672706
1782952655546975500,0.0899755859375,0.0016305686440318823,-0.001585398567840457,-0.00043072656262665987
1782952655556902400,0.09990234375,-0.0018698903732001781,0.00009665405377745628,-0.0027620578184723854
1782952655566830300,0.109830322265625,0.0004554365004878491,0.0004236297681927681,0.0015025915345177054
1782952655576757500,0.119757568359375,0.0008511822088621557,-0.0012118173763155937,0.0003401216818019748
1782952655586685400,0.129685546875,-0.0010092387674376369,-0.0004076240584254265,-0.0010119871003553271
1782952655596613400,0.13961328125,-0.00015223358059301972,-0.0003831232897937298,-0.0004436685121618211
1782952655606540500,0.14954052734375,0.0008388251299038529,-0.0017603074666112661,0.0003729083691723645
1782952655616468500,0.159468505859375,-0.000937236996833235,0.0007595755159854889,0.0001444091321900487
1782952655626395400,0.1693955078125,-0.0014337161555886269,0.0012300643138587475,-0.002279428066685796
1782952655636323300,0.1793232421875,-0.0037783628795295954,0.002662578597664833,-0.002163846744224429
1782952655646251500,0.18925146484375,0.00031855818815529346,0.0006153457798063755,-0.0014952560886740685
1782952655656178400,0.199178466796875,0.0016879555769264698,-0.002966073341667652,-0.0019141712691634893
1782952655666106400,0.2091064453125,0.00035523937549442053,0.0012237457558512688,-0.00026594114024192095
1782952655676033500,0.219033447265625,0.00024312030291184783,0.000663416925817728,-0.00009869463974609971
1782952655685961500,0.22896142578125,-0.0029631706420332193,0.001792022492736578,-0.0012466027401387691
1782952655695889400,0.238889404296875,0.00011437828652560711,0.0029281270690262318,0.002243736293166876
1782952655705816600,0.248816650390625,0.0017673149704933167,-0.0021236122120171785,-0.00046720547834411263
1782952655715744500,0.25874462890625,0.003265343140810728,0.001344622578471899,0.0015820967964828014
1782952655725671400,0.26867138671875,-0.002731318585574627,0.0010707462206482887,-0.0025489386171102524
1782952655735599600,0.278599609375,-0.0002868029987439513,0.0018803472630679607,-0.0014216224662959576
1782952655745526500,0.288526611328125,-0.0008280230103991926,-0.0010700447019189596,0.0009043605532497168
1782952655755454500,0.298454345703125,0.0006622819928452373,-0.002834655111655593,-0.0014586623292416334
1782952655765382700,0.308382568359375,0.0020503473933786154,0.0016050455160439014,-0.0004328231152612716
1782952655775309600,0.3183095703125,0.0007339469157159328,0.000925140455365181,0.001373332692310214
1782952655785237500,0.328237548828125,-0.001402934198267758,0.0004329071380198002,0.0006994463037699461
1782952655795164700,0.33816455078125,0.0011680814204737544,0.00014129141345620155,-0.0003399855049792677
1782952655805092600,0.348092529296875,0.0017477916553616524,0.0007080687209963799,0.0008423432591371238
1782952655815020500,0.3580205078125,0.0006204755627550185,0.0013397703878581524,0.00026683416217565536
1782952655824947700,0.36794775390625,0.0033018740359693766,0.0015731104649603367,-0.0005187146016396582
1782952655834875600,0.377875732421875,-0.0006172338034957647,0.00028680358082056046,-0.0006593294674530625
1782952655844802600,0.387802490234375,-0.0006422228761948645,0.00012072641402482986,-0.0007468106341548264
1782952655854730500,0.39773046875,-0.0016632787883281708,8.842907845973969e-7,0.0014028928708285093
1782952655864658700,0.40765869140625,-0.0013242695713415742,0.0009340764954686165,0.0004632904310710728
1782952655874585300,0.41758544921875,0.0005263609928078949,0.0006211549043655396,-0.0008645616471767426
1782952655884513500,0.427513427734375,-0.0010909299599006772,0.0007006186060607433,-0.0001776395074557513
1782952655894440400,0.4374404296875,-0.0003122215857729316,0.0005650636740028858,-0.0014170745853334665
1782952655904368400,0.447368408203125,-0.0005788992857560515,-0.00028777215629816055,-0.0013555896002799273
1782952655914296300,0.45729638671875,0.0019561636727303267,0.0013865572400391102,0.000855366641189903
1782952655924223500,0.467223388671875,-0.000810208497568965,-0.0020866869017481804,-0.0005113224033266306
1782952655934151400,0.4771513671875,0.001075575826689601,0.001041728537529707,0.0008279812755063176
1782952655944078300,0.487078369140625,-0.003936944529414177,-0.0019105593673884869,0.0008674564305692911
1782952655954006500,0.497006591796875,0.000307069014525041,0.0022418415173888206,-0.0010353721445426345
1782952655963933400,0.506933349609375,0.0019340068101882935,0.002059762831777334,-0.000957498443312943
1782952655973861400,0.516861328125,-0.002500689122825861,0.00019048992544412613,-0.00009410158963873982
1782952655983789600,0.52678955078125,-0.0032790089026093483,0.002402717247605324,0.0003101046313531697
1782952655993716500,0.536716552734375,0.0009578140452504158,0.00010680640116333961,-0.001342919422313571
1782952656003644400,0.54664453125,0.002017694991081953,-0.0003606164827942848,0.0003145853988826275
1782952656013571600,0.556571533203125,-0.0005868764710612595,0.00031129922717809677,0.0019167430000379682
1782952656023499500,0.56649951171875,-0.0002812809543684125,-0.0019270170014351606,0.00001258862903341651
1782952656033427500,0.576427490234375,-0.0019888998940587044,-0.00028118351474404335,0.0012363111600279808
1782952656043354600,0.586354736328125,0.00007273280061781406,0.0003837747499346733,-0.0033186969812959433
1782952656053282600,0.596282470703125,0.001866638194769621,-0.00003141211345791817,-0.0020853872410953045
1782952656063209500,0.60620947265625,-0.0039075263775885105,-0.0006934488192200661,-0.0003016566624864936
1782952656073137400,0.616137451171875,-0.0008281134068965912,0.0006687580607831478,0.0008506931480951607
1782952656083065600,0.626065673828125,-0.0029476769268512726,0.00043570855632424355,-0.001542970072478056
1782952656092992500,0.635992431640625,-0.0009694808977656066,0.0011494355276226997,0.0004730428918264806
1782952656102920400,0.64592041015625,0.001131253782659769,-0.00003561144694685936,-0.00039412209298461676
1782952656112847600,0.65584765625,-0.0015441577415913343,0.0009462963789701462,-0.0026274491101503372
1782952656122775600,0.665775634765625,-0.003836817340925336,0.002066649030894041,-0.0021002236753702164
1782952656132702500,0.675702392578125,-0.002612296026200056,-0.0004785340279340744,0.0004686614265665412
1782952656142630700,0.685630615234375,0.0007348275394178927,0.0007871412672102451,0.00017918733647093177
1782952656152558600,0.69555859375,0.0009311024914495647,0.0007266872562468052,-0.0006748884334228933
1782952656162485200,0.7054853515625,0.0003472862590570003,0.0008610873483121395,-0.0012441931758075953
1782952656172413400,0.715413330078125,0.000178441870957613,-0.0019464169163256884,-0.0007288714987225831
1782952656182340400,0.72534033203125,0.003253202186897397,-0.0010159986559301615,-0.000858248386066407
1782952656192268300,0.735268310546875,0.0022731588687747717,-0.0005142590962350368,0.0014275427674874663
1782952656202196500,0.745196533203125,0.0030636503361165524,-0.001567525789141655,-0.00020207552006468177
1782952656212123400,0.755123291015625,-0.0011188439093530178,-0.0012170537374913692,-0.001690516248345375
1782952656222051300,0.76505126953125,0.0005326951504684985,0.0009609153494238853,0.00010583800030872226
1782952656231978500,0.774978515625,-0.00039115536492317915,-0.000505687203258276,0.0030885785818099976
1782952656241906400,0.784906494140625,-0.0018863065633922815,-0.0005282028578221798,-0.0007221819250844419
1782952656251834400,0.79483447265625,-0.0020085456781089306,0.000842259731143713,0.0013654700014740229
1782952656261761500,0.804761474609375,-0.0003770962357521057,-0.0018348079174757004,-0.0006672324379906058
1782952656271689500,0.814689453125,-0.00018960965098813176,0.0013442072086036205,0.0012257425114512444
1782952656281616400,0.824616455078125,0.0004384992644190788,-0.00036344025284051895,-0.00041274394607171416
1782952656291544300,0.83454443359375,0.0006057457649149001,-0.0012476097326725721,0.000569429830648005
1782952656301472500,0.844472412109375,0.004065452143549919,0.0003768596798181534,-0.00014197098789736629
1782952656311399400,0.8543994140625,-0.00007443182403221726,0.0018980572931468487,0.0014492678456008434
1782952656321327400,0.864327392578125,-0.0007859604083932936,-0.0004054363816976547,-0.0008173392270691693
1782952656331254500,0.874254638671875,0.0009581437916494906,0.0011338707990944386,-0.001310823019593954
1782952656341182500,0.884182373046875,0.002455912996083498,-0.00016638264060020447,-0.0012654854217544198
1782952656351109600,0.894109619140625,0.00035494528128765523,-0.00007663434371352196,0.0027569530066102743
1782952656361037600,0.90403759765625,-0.0005484718712978065,-0.0009268522262573242,0.00025892991106957197
1782952656370965500,0.913965576171875,0.00035460604703985155,-0.00011645210906863213,0.00004640960833057761
1782952656380892400,0.923892333984375,-0.0010466575622558594,0.0002470598556101322,0.0003410833887755871
1782952656390820600,0.933820556640625,0.001515569631010294,0.0018292437307536602,0.0007283069426193833
1782952656400747500,0.94374755859375,-0.0001641482231207192,0.0013634157367050648,-0.001881221542134881
1782952656410675500,0.953675537109375,-0.0028835020493716,-0.0009727091528475285,-0.0005970452330075204
1782952656420603400,0.963603271484375,-0.001426425762474537,-0.0013916848693042994,0.0008654315606690943
1782952656430530600,0.973530517578125,0.0020258298609405756,-0.0011962088756263256,-0.00014523809659294784
1782952656440458500,0.98345849609375,0.0010592908365651965,0.003149903379380703,-0.00007345783524215221
1782952656450385700,0.9933857421875,-0.0015010721981525421,0.0018705208785831928,0.0002224193885922432
1782952656460313600,1.003313720703125,-0.00017268600640818477,0.0002743019722402096,0.0008231339161284268
1782952656470240300,1.013240234375,-0.0000070374226197600365,-0.0020506377331912518,-0.000628022535238415
1782952656480168400,1.02316845703125,0.0007299819844774902,0.0015175831504166126,0.0005911354091949761
1782952656490096600,1.0330966796875,0.00013396656140685081,0.0004941304214298725,0.00046010786900296807
1782952656500023300,1.043023193359375,0.0007071628933772445,0.0017403033562004566,0.001521407626569271
1782952656509951200,1.052951171875,-0.0001301349257119,0.0000814204104244709,0.0017072963528335094
1782952656519878400,1.06287841796875,0.0008857068605720997,-0.0009216854814440012,0.00037340872222557664
1782952656529806300,1.072806396484375,0.002043116604909301,-0.0019331539515405893,0.002005127491429448
1782952656539734300,1.082734375,-0.0007621063268743455,-0.000094663817435503,-0.0029689341317862272
1782952656549661400,1.092661376953125,-0.001884628552943468,-0.002819876652210951,0.0006124848150648177
1782952656559589400,1.10258935546875,0.0003536891017574817,0.0015632887370884418,0.000027644680812954903
1782952656569516500,1.1125166015625,-0.0004710918292403221,-0.00002289004623889923,0.00083085399819538
1782952656579444500,1.122444580078125,-0.0013934205053374171,0.001827725674957037,0.0009267593850381672
1782952656589372400,1.132372314453125,-0.00038807711098343134,0.0010921605862677097,0.00143755367025733
1782952656599299300,1.14229931640625,0.00006016244878992438,0.0008940431289374828,-0.00011455267667770386
1782952656609227500,1.1522275390625,-0.0003459696308709681,-0.0015310314483940601,0.0013600395759567618
1782952656619154400,1.162154541015625,-0.00164921791292727,-0.000219627283513546,0.00045327976113185287
1782952656629082400,1.172082275390625,-0.0010585286654531956,0.0008600181899964809,0.0010133425239473581
1782952656639009500,1.182009521484375,0.00220243027433753,-0.0008058873936533928,0.001335869892500341
1782952656648937500,1.1919375,-0.0016655449289828539,0.001660998910665512,0.002057852689176798
1782952656658865400,1.201865478515625,-0.003601222764700651,-0.00009719980880618095,0.00020116439554840326
1782952656668792600,1.21179248046875,-0.0003678789362311363,0.0011169356293976307,0.0010549738071858883
1782952656678720500,1.221720458984375,-0.0003362587303854525,-0.0018195875454694033,0.001633521169424057
1782952656688647400,1.2316474609375,-0.00016927852993831038,0.003059589769691229,0.000535766186658293
1782952656698575600,1.24157568359375,0.0008778861374594271,-0.001618779730051756,0.0019320010906085372
1782952656708502500,1.25150244140625,-0.0013083027442917228,0.0019895373843610287,-0.0021490268409252167
1782952656718430500,1.261430419921875,-0.0014084813883528113,-0.0009487143252044916,-0.0009206072427332401
1782952656728358400,1.2713583984375,0.00007676356472074986,0.0009578429162502289,-0.0023565837182104588
1782952656738285600,1.28128564453125,0.0008475700160488486,-0.00039608636870980263,-0.0000010950607247650623
1782952656748213500,1.291213623046875,0.0002731261192820966,-0.00030979979783296585,-0.00039577551069669425
1782952656758140700,1.301140625,-0.000192240288015455,-0.0009920054581016302,0.00023528648307546973
1782952656768068600,1.311068603515625,-0.00123939523473382,-0.00013979384675621986,0.0018795221112668514
1782952656777996500,1.32099658203125,0.0014125473098829389,-0.0001683942973613739,-0.0006694438052363694
1782952656787923500,1.33092333984375,-0.0012902949238196015,0.000633483286947012,0.0008493569912388921
1782952656797851600,1.3408515625,0.0018462712178006768,0.0010477169416844845,-0.0021853293292224407
1782952656807778300,1.3507783203125,-0.0005535032832995057,0.001985948532819748,-0.00025027652736753225
1782952656817706200,1.360706298828125,-0.0010056401370093226,-0.00129563151858747,-0.0006594491424039006
1782952656827633400,1.37063330078125,-0.00007166952127590775,-0.0004817694425582886,-0.002868807641789317
1782952656837561300,1.380561279296875,0.0021810014732182026,-0.00006817281246185303,0.00021666358225047588
1782952656847489300,1.3904892578125,-0.0018124085618183017,-0.0007134568877518177,-0.001020374707877636
1782952656857416400,1.40041650390625,0.0006307571893557906,0.0010016434825956821,0.00025143229868263006
1782952656867344400,1.410344482421875,-0.001661691814661026,0.0003646155819296837,0.0029958197847008705
1782952656877271300,1.420271240234375,0.0033756988123059273,0.0009645526297390461,-0.00016831024549901485
1782952656887199500,1.430199462890625,-0.0008456780342385173,0.0008212747052311897,-0.0012365041766315699
1782952656897127400,1.44012744140625,0.00037271564360708,-0.000050385016947984695,0.00023611343931406736
1782952656907054300,1.450054443359375,-0.0016243888530880213,-0.0016197855584323406,-0.001231821021065116
1782952656916982500,1.459982421875,0.0009268556605093181,-0.00092465546913445,-0.001706575625576079
1782952656926909400,1.469909423828125,0.003265111241489649,-0.0010748575441539288,-0.001353174215182662
1782952656936837400,1.47983740234375,0.0008412817260250449,-0.0013063112273812294,0.002079918049275875
1782952656946764500,1.4897646484375,-0.00044742197496816516,-0.00008152332156896591,-0.0010682045249268413
1782952656956692500,1.4996923828125,-0.004212093539535999,-0.0005063964053988457,-0.0002352184965275228
1782952656966620400,1.509620361328125,-0.0013310855720192194,-0.0007218457758426666,0.00028063583886250854
1782952656976547600,1.519547607421875,0.00014172436203807592,-0.0006631896831095219,0.0014919342938810587
1782952656986475500,1.5294755859375,0.0021785099525004625,0.0004097982309758663,-0.0011299478355795145
1782952656996402400,1.53940234375,-0.0016340604051947594,0.0005288952961564064,-0.00032895777258090675
1782952657006330400,1.549330322265625,-0.0017472447361797094,0.001677516382187605,0.0028098439797759056
1782952657016258600,1.559258544921875,-0.00045853399205952883,-0.00020823627710342407,-0.002783214906230569
1782952657026185500,1.569185546875,-0.0017661460442468524,0.0006501004099845886,0.0013803711626678705
1782952657036113400,1.579113525390625,0.0005985003663226962,-0.0009499224834144115,0.000672786554787308
1782952657046040600,1.58904052734375,-0.000859846593812108,0.00047673285007476807,-0.0007536025368608534
1782952657055968500,1.598968505859375,-0.0017164875753223896,0.0010076621547341347,0.0001300073927268386
1782952657065895700,1.608895751953125,0.0011376220500096679,-0.0009138085879385471,-0.0033134599216282368
1782952657075823600,1.61882373046875,0.0009277905337512493,-0.0010297656990587711,-0.000740678224246949
1782952657085751600,1.62875146484375,0.001277463510632515,-0.0004920735955238342,0.0007922373479232192
1782952657095678500,1.638678466796875,-0.0016703063156455755,-0.000009357929229736328,0.001407173345796764
1782952657105606700,1.648606689453125,0.0017579809064045548,-0.00040563615038990974,0.0029669865034520626
1782952657115533300,1.658533203125,-0.003395012579858303,0.00059078773483634,-0.0017238521249964833
1782952657125461500,1.66846142578125,0.0017890968592837453,-0.0005029723979532719,-0.001157664111815393
1782952657135388400,1.678388427734375,-0.00001928920391947031,-0.0009271854069083929,-0.0004556189524009824
1782952657145316400,1.68831640625,0.0015485137701034546,0.00023981183767318726,0.001375037943944335
1782952657155244300,1.698244384765625,0.0008540270500816405,0.00001605972647666931,0.0016397468280047178
1782952657165171500,1.70817138671875,0.0012324622366577387,-0.00008966773748397827,-0.0010540406219661236
1782952657175099400,1.718099365234375,0.0005353607120923698,0.0012746681459248066,-0.00048057903768494725
1782952657185026300,1.7280263671875,0.00029487727442756295,-0.000017231330275535583,-0.0016185478307306767
1782952657194954500,1.73795458984375,-0.00022665836149826646,-0.0007467130199074745,0.0004019500338472426
1782952657204882400,1.74788232421875,-0.002488747239112854,0.0005156253464519978,0.0013689438346773386
1782952657214809300,1.757809326171875,0.00019231927581131458,-0.003145037218928337,-0.0005920190596953034
1782952657224737300,1.7677373046875,0.00002374115865677595,0.002138141542673111,0.0012956294231116772
1782952657234664400,1.77766455078125,-0.002666180022060871,0.0020589670166373253,-0.00169477635063231
1782952657244592400,1.78759228515625,0.001409521559253335,0.00039289332926273346,-0.0027824114076793194
1782952657254519600,1.79751953125,0.0009424650925211608,0.0012516798451542854,0.0028266767039895058
1782952657264447500,1.807447509765625,0.0030780541710555553,-0.0003755115903913975,0.000515585474204272
1782952657274375400,1.81737548828125,0.000040504441130906343,0.0012559657916426659,-0.0008875187486410141
1782952657284302600,1.827302490234375,0.0031982145737856627,-0.001351002836599946,-0.0006510299863293767
1782952657294230500,1.83723046875,-0.00020176469115540385,0.0005647363141179085,0.002198887290433049
1782952657304157400,1.847157470703125,-0.0005668841185979545,0.0021056411787867546,-0.00006240274524316192
1782952657314085400,1.85708544921875,0.0014665864873677492,-0.0012717689387500286,0.0017955435905605555
1782952657324013600,1.867013671875,-0.0005161368753761053,0.00039670150727033615,0.0014868832658976316
1782952657333940500,1.8769404296875,0.0007267030887305737,0.0005200128071010113,-0.0010675977682694793
1782952657343868400,1.886868408203125,-0.0007303122547455132,0.0010047079995274544,-0.0011482915142551064
1782952657353795600,1.896795654296875,0.0019128243438899517,-0.0008537769317626953,0.00002189422957599163
1782952657363723500,1.9067236328125,0.001719745108857751,-0.001018626382574439,0.0015686582773923874
1782952657373650400,1.916650390625,-0.00022009335225448012,-0.0005421480163931847,0.0025824429467320442
1782952657383578600,1.92657861328125,0.0024510573130100965,-0.0010548066347837448,-0.0006730053573846817
1782952657393506600,1.936506591796875,-0.0014948216266930103,0.001084652729332447,-0.0017501383554190397
1782952657403433500,1.94643359375,0.0008913706988096237,0.001115545630455017,-0.0012787588639184833
1782952657413361700,1.956361572265625,0.0002195231500081718,0.0007929159328341484,0.0017169119091704488
1782952657423288300,1.966288330078125,0.0022352696396410465,0.00089278444647789,-0.000721478252671659
1782952657433216500,1.976216552734375,0.0007932691369205713,-0.00010854564607143402,-0.0012288233265280724
1782952657443143400,1.986143310546875,0.001035883091390133,-0.0004760618321597576,-0.0005747509421780705
1782952657453071400,1.9960712890625,-0.0021326858550310135,0.0023273625411093235,-0.0009833094663918018
1782952657462999300,2.005999267578125,-0.0016386695206165314,0.001124679110944271,-0.0009457589476369321
1782952657472926500,2.015926513671875,-0.0002446766593493521,-0.0006949622184038162,-0.0005830827867612243
1782952657482854400,2.0258544921875,0.003462443593889475,-0.001000426709651947,0.0017796738538891077
1782952657492781300,2.03578125,0.00017977127572521567,-0.00126868044026196,-0.0005627234932035208
1782952657502709500,2.04570947265625,-0.0013994831824675202,0.0017111306078732014,-0.0005422171670943499
1782952657512637400,2.055637451171875,0.0009981297189369798,-0.001979848137125373,-0.00095865543698892
1782952657522564400,2.065564453125,0.0013328890781849623,0.0020878640934824944,-0.001294746296480298
1782952657532492300,2.0754921875,0.0011491861660033464,0.00028880732133984566,0.000020654581021517515
1782952657542419500,2.08541943359375,-0.00012407120084390044,-0.002203112468123436,-0.001099204644560814
1782952657552347400,2.095347412109375,-0.0018072290113195777,0.0009008739143610001,0.0013078437186777592
1782952657562274600,2.105274658203125,-0.000948625965975225,0.0006369547918438911,0.00037360674468800426
1782952657572202500,2.115202392578125,-0.0009021395235322416,0.0020456453785300255,0.0020808374974876642
1782952657582130400,2.12513037109375,-0.0014765833038836718,0.000291687436401844,0.0021644607186317444
1782952657592057300,2.135057373046875,-0.0015742819523438811,-0.00021983683109283447,0.001921128830872476
1782952657601985500,2.144985595703125,0.00030990445520728827,-0.0004893485456705093,-0.0021092991810292006
1782952657611912400,2.154912353515625,0.0019051121780648828,-0.00005676271393895149,-0.0016151138115674257
1782952657621840400,2.16484033203125,0.00018071540398523211,0.001198651734739542,-0.0004539754881989211
1782952657631767600,2.174767578125,0.000004778092261403799,0.002919398248195648,0.00104030582588166
1782952657641695500,2.184695556640625,-0.00003303878474980593,-0.0001485631801187992,0.000505010480992496
1782952657651623400,2.19462353515625,-0.002391189569607377,0.0021690968424081802,-0.0001753377728164196
1782952657661550600,2.204550537109375,0.0005859582452103496,0.00009369570761919022,0.0016241602133959532
1782952657671478500,2.214478515625,-0.0003684160765260458,0.0022123679518699646,-0.00009318039519712329
1782952657681405400,2.224405517578125,0.0034612095914781094,0.0019287411123514175,0.00016328203491866589
1782952657691333600,2.234333740234375,0.0014741800259798765,-0.0006414647214114666,0.002219727262854576
1782952657701260500,2.244260498046875,0.0009127856465056539,0.001823290716856718,0.0011336901225149632
1782952657711188500,2.2541884765625,0.0013765271287411451,-0.0020235173869878054,-0.0015357967931777239
1782952657721116400,2.264116455078125,0.0010942320805042982,0.001503306906670332,0.0006551857804879546
1782952657731043600,2.274043701171875,0.0010653582867234945,-0.0018143558409065008,-0.0009538005688227713
1782952657740971500,2.283971435546875,0.0011553731746971607,0.001905015204101801,0.0018971133977174759
1782952657750898400,2.2938984375,-0.001154758152551949,-0.0019304747693240643,0.0010621265973895788
1782952657760826400,2.303826416015625,-0.000999495736323297,0.00018141185864806175,0.0009848949266597629
1782952657770754600,2.313754638671875,-0.00008526747114956379,-0.003112138481810689,-0.0007375142304226756
1782952657780681500,2.323681396484375,-0.002189164748415351,0.001309774350374937,-0.0020943947602063417
1782952657790609400,2.333609375,-0.0007628340390510857,-0.00008909078314900398,-0.003178488463163376
1782952657800536300,2.343536376953125,-0.00046589161502197385,0.0019141389057040215,-0.0003829682827927172
1782952657810464300,2.35346435546875,-0.00135146570391953,0.0007631257176399231,0.0004396755248308182
1782952657820391400,2.363391357421875,0.0010171497706323862,0.00009360723197460175,-0.001271405490115285
1782952657830319400,2.3733193359375,0.0005756202735938132,0.0024618180468678474,-0.001462617190554738
1782952657840247300,2.383247314453125,0.0005047802114859223,-0.00008336454629898071,-0.00013236829545348883
1782952657850174500,2.393174560546875,0.00201052357442677,0.00016506807878613472,-0.00005212437827140093
1782952657860102400,2.403102294921875,-0.000021201965864747763,-0.00017874594777822495,-0.0009706486016511917
1782952657870029600,2.413029541015625,0.0022273208014667034,0.0014621037989854813,0.0007210972835309803
1782952657879957500,2.42295751953125,-0.0012763336999341846,0.0015755542553961277,0.0028202009852975607
1782952657889884400,2.432884521484375,-0.0032411967404186726,0.0025044959038496017,0.0008472765330225229
1782952657899812400,2.442812255859375,0.0005325023084878922,0.0036437958478927612,0.00038388650864362717
1782952657909740500,2.452740478515625,-0.0004107311833649874,-0.00005036825314164162,-0.0015909268986433744
1782952657919667500,2.46266748046875,0.0015197943430393934,-0.0012639707420021296,-0.0005765288369730115
1782952657929595400,2.472595458984375,-0.00011684250785037875,-0.0016433254349976778,-0.0010085159447044134
1782952657939522600,2.4825224609375,0.0020323283970355988,-0.0006403792649507523,-0.0012292920146137476
1782952657949450500,2.492450439453125,0.0013658306561410427,-0.001284850062802434,0.003494594246149063
1782952657959377400,2.50237744140625,-0.00008319533662870526,-0.0020366604439914227,-0.000037023681215941906
1782952657969305600,2.5123056640625,-0.0005579862045124173,-0.002771030878648162,0.00175396166741848
1782952657979233500,2.522233642578125,-0.0019007519586011767,0.0017078733071684837,-0.00018375436775386333
1782952657989160400,2.532160400390625,-0.0009935474954545498,-0.0024318464566022158,0.00023189972853288054
1782952657999088600,2.542088623046875,-0.0016902303323149681,-0.0011215712875127792,-0.0008986121392808855
1782952658009015600,2.552015625,0.0032821500208228827,-0.001962904818356037,-0.002013326622545719
1782952658018943500,2.561943603515625,0.0018962409812957048,0.0013130493462085724,0.0004916426260024309
1782952658028871400,2.571871337890625,-0.000015236146282404661,-0.0008597671985626221,-0.0005362017545849085
1782952658038798600,2.581798583984375,-0.001693560159765184,-0.0022273005452007055,-0.0036390507593750954
1782952658048726500,2.5917265625,-0.0035172600764781237,0.0009699305519461632,-0.0006911459495313466
1782952658058653400,2.6016533203125,-0.000402426696382463,-0.0019811182282865047,0.0018425853922963142
1782952658068582000,2.611581787109375,-0.00015037506818771362,-0.00010963529348373413,0.00007275579264387488
1782952658078508800,2.6215087890625,0.0019207652658224106,-0.0009701026137918234,-0.0007637431262992322
1782952658088436700,2.631436767578125,0.0006590841803699732,-0.001581444637849927,-0.002216738648712635
1782952658098365000,2.641364990234375,-0.00106398097705096,0.0001229783520102501,0.0017042334657162428
1782952658108291800,2.651291748046875,0.0013967737322673202,-0.0007463376969099045,0.0014209276996552944
1782952658118219800,2.6612197265625,0.0002950239577330649,-0.002172726672142744,0.0016363775357604027
1782952658128147000,2.67114697265625,0.0014628124190494418,0.0002895914949476719,-0.0008764974190853536
1782952658138075000,2.681074951171875,0.000011655967682600021,-0.0014515831135213375,0.0015389895997941494
1782952658148001800,2.691001708984375,0.0015459612477570772,-0.002183246659114957,0.00047604291466996074
1782952658157930000,2.700929931640625,0.0024327938444912434,-0.0011464781127870083,-0.0012587402015924454
1782952658167858000,2.71085791015625,0.002337744692340493,0.0006192629225552082,-0.001379243447445333
1782952658177784800,2.720784912109375,-0.0011712363921105862,-0.00007635494694113731,-0.0003480674640741199
1782952658187713000,2.730713134765625,0.0013416055589914322,0.0009092018008232117,0.0022803638130426407
1782952658197640000,2.740639892578125,0.0011112422216683626,0.00016484828665852547,0.0014675672864541411
1782952658207568000,2.75056787109375,-0.0015297563513740897,0.001640678383409977,-0.0004153665795456618
1782952658217494800,2.760494873046875,-0.000263423309661448,-0.0005420483648777008,0.0010656171943992376
1782952658227423000,2.770423095703125,-0.0007700732094235718,0.00301159406080842,0.0016809655353426933
1782952658237351000,2.780350830078125,-0.0005466340226121247,-0.0014625161420553923,-0.0021755581256002188
1782952658247277800,2.79027783203125,-0.0015411420026794076,0.000915981363505125,-0.0006685330299660563
1782952658257205800,2.800205810546875,0.0006804669392295182,-0.0009426386095583439,-0.0008613458485342562
1782952658267132700,2.810132568359375,-0.0005341345677152276,0.0004040682688355446,0.0000024214969016611576
1782952658277060900,2.820060791015625,-0.0005011113826185465,-0.0011315105948597193,0.0006197422044351697
1782952658286987800,2.82998779296875,0.00007071974687278271,0.001859352458268404,0.0006122887716628611
1782952658296915700,2.839915771484375,0.0013077580370008945,-0.0020341891795396805,0.001049313461408019
1782952658306843600,2.84984375,-0.00014485412975773215,0.0015780008397996426,-0.0015949595253914595
1782952658316770800,2.859770751953125,-0.0021989501547068357,0.002827822230756283,-0.000778167974203825
1782952658326698800,2.86969873046875,0.0020272526890039444,0.00000551203265786171,-0.002648989437147975
1782952658336626000,2.8796259765625,0.0015414922963827848,-0.0006999596953392029,0.0000985938822850585
1782952658346553900,2.889553955078125,0.002255055820569396,0.001997636165469885,-0.0007784055196680129
1782952658356481800,2.899481689453125,0.00009896064875647426,0.0008594011887907982,0.002149207517504692
1782952658366408700,2.90940869140625,-0.00010996352648362517,0.0011639073491096497,0.0027447487227618694
1782952658376337000,2.9193369140625,0.00006846821634098887,-0.0015589084941893816,0.0018427360337227583
1782952658386263800,2.929263916015625,0.00021842785645276308,-0.0003399602137506008,0.0010226175654679537
1782952658396191700,2.939191650390625,-0.00046414026292040944,-0.0005527464672923088,0.000034851080272346735
1782952658406119000,2.949118896484375,0.003422288689762354,-0.002055815188214183,-0.0012381811393424869
1782952658416046800,2.959046875,0.001185766072012484,-0.0020201290026307106,-0.000667199376039207
1782952658425974800,2.968974853515625,-0.00009561621118336916,0.0010204426944255829,0.00018797075608745217
1782952658435902000,2.97890185546875,0.0007773680263198912,0.001544020138680935,-0.0011369518470019102
1782952658445830000,2.988829833984375,0.001201324863359332,0.0025248248130083084,0.0009128125966526568
1782952658455756800,2.9987568359375,0.0006082388572394848,-0.0004533883184194565,0.0003104055649600923
1782952658465685000,3.00868505859375,-0.0009743865230120718,0.00018392037600278854,-0.0018249466083943844
1782952658475612000,3.01861181640625,0.0009028756758198142,0.0004920484498143196,0.0008640471496619284
1782952658485539800,3.028539794921875,0.00025043904315680265,-0.0007383543998003006,0.0018123757326975465
1782952658495467800,3.0384677734375,0.0017290260875597596,0.00005979510024189949,0.0008155545219779015
1782952658505395000,3.04839501953125,-0.00004803360207006335,-0.000680945347994566,0.0013490745332092047
1782952658515323000,3.058322998046875,-0.00014523894060403109,0.001469823531806469,-0.0004682666913140565
1782952658525249800,3.068249755859375,-0.0011105132289230824,0.001351505983620882,-0.0007321162265725434
1782952658535178000,3.078177978515625,-0.00029691768577322364,-0.0004573129117488861,0.00035658403066918254
1782952658545104600,3.088104736328125,-0.0016594830667600036,-0.001028991537168622,-0.00027246883837506175
1782952658555032800,3.09803271484375,-0.0008157937554642558,-0.001207423396408558,0.0001019716146402061
1782952658564960800,3.107960693359375,-0.00017939682584255934,-0.0006445301696658134,-0.00035165369627065957
1782952658574887700,3.1178876953125,-0.00015329779125750065,0.0005411095917224884,0.0006686033448204398
1782952658584815600,3.127815673828125,-0.00024124770425260067,-0.00033377576619386673,-0.003046650206670165
1782952658594742800,3.13774267578125,0.0008296093437820673,0.0005903411656618118,-0.00203704577870667
1782952658604670700,3.147670654296875,-0.00012873043306171894,0.000672818161547184,-0.0008863963303156197
1782952658614598000,3.157597900390625,-0.0009913283865898848,0.0020970767363905907,-0.0008006425341591239
1782952658624525800,3.16752587890625,-0.0014456788776442409,-0.000899552833288908,-0.0005600373260676861
1782952658634453800,3.177453857421875,-0.00022648379672318697,0.002005157060921192,0.000737454742193222
1782952658644381000,3.187380859375,-0.0006090358947403729,-0.0010008770041167736,-0.001204867148771882
1782952658654308900,3.197308837890625,0.0003489031223580241,0.00016984855756163597,-0.0019034143770113587
1782952658664235800,3.20723583984375,0.000827042676974088,0.002661834005266428,0.00032217492116615176
1782952658674163700,3.217163818359375,0.0015277203638106585,0.0003667217679321766,-0.00018648890545591712
1782952658684091000,3.2270908203125,0.0007350515224970877,0.001019506249576807,0.0016913132276386023
1782952658694018800,3.237018798828125,-0.002387238433584571,0.001025897916406393,-0.0021987659856677055
1782952658703946800,3.24694677734375,0.00013288104673847556,0.000015332363545894623,-0.003060610732063651
1782952658713874000,3.2568740234375,0.0004652435309253633,-0.00026137009263038635,-0.0006666951812803745
1782952658723801900,3.2668017578125,-0.0011629578657448292,0.000869284849613905,-0.0014452985487878323
1782952658733728800,3.276728759765625,-0.001365624601021409,-0.00006308779120445251,-0.0000364864245057106
1782952658743657000,3.286656982421875,0.0022067397367209196,-0.0005875434726476669,0.001714436337351799
1782952658753583900,3.296583984375,0.0012056574923917651,0.001498776488006115,-0.00023419869830831885
1782952658763511800,3.30651171875,-0.0017524322029203176,-0.00109655293636024,-0.0008196699200198054
1782952658773440000,3.31643994140625,0.0010236469097435474,0.0013674036599695683,0.0003641051589511335
1782952658783367000,3.326366943359375,0.0010688294423744082,0.0009436807595193386,0.0001505491673015058
1782952658793294800,3.336294921875,0.001847804058343172,-0.0018971131648868322,0.0022685611620545387
1782952658803222000,3.346221923828125,-0.00016318168491125107,0.002642934676259756,-0.0005349972052499652
1782952658813150000,3.35614990234375,-0.0009360311087220907,0.0003906995989382267,-0.00123381067533046
1782952658823076600,3.36607666015625,0.001072349725291133,0.00009776744991540909,0.0015454338863492012
1782952658833005000,3.376005126953125,-0.0004134277696721256,-0.00014777621254324913,-0.0004910853458568454
1782952658842933000,3.38593310546875,0.00012000335846096277,0.0007060333155095577,0.0017696721479296684
1782952658852859600,3.395859619140625,0.0019735635723918676,-0.001019162591546774,0.0011038818629458547
1782952658862787800,3.405787841796875,0.0008044613641686738,0.00024137506261467934,0.0000989444088190794
1782952658872714800,3.41571484375,-0.0010624144924804568,0.00018065469339489937,-0.002635589335113764
1782952658882642700,3.425642578125,0.0002782464143820107,-0.0010627128649502993,0.0017811384750530124
1782952658892569900,3.43556982421875,0.0001224515144713223,0.001413227990269661,0.002301520202308893
1782952658902497800,3.445497802734375,0.00145386578515172,-0.0009733077604323626,-0.0010451555717736483
1782952658912425700,3.45542578125,-0.000014334917068481445,0.0007420345209538937,0.0024893919471651316
1782952658922353000,3.465352783203125,0.00012052868260070682,-0.0004220106638967991,-0.001753088552504778
1782952658932280800,3.47528076171875,0.00034849526127800345,-0.0015898069832473993,-0.0022779975552111864
1782952658942207700,3.485207763671875,-0.0016803336329758167,0.0007526003755629063,-0.0010849501704797149
1782952658952135700,3.4951357421875,-0.0011759309563785791,-0.0017696793656796217,0.00250552361831069
1782952658962062800,3.505062744140625,0.0013679687399417162,0.00004739314317703247,-0.00032723668846301734
1782952658971990800,3.51499072265625,-0.0006230104481801391,-0.0011491654440760612,-0.000437757873442024
1782952658981918700,3.524918701171875,-0.00046413642121478915,0.0010606460273265839,-0.000005368958227336407
1782952658991846000,3.534845947265625,-0.0002609372022561729,-0.002175094559788704,-0.001229624031111598
1782952659001773800,3.54477392578125,0.00041561524267308414,0.0006606727838516235,-0.001106917392462492
1782952659011701000,3.554700927734375,-0.0010912013240158558,0.0003384300507605076,0.0015658310148864985
1782952659021629000,3.56462890625,0.0010228675091639161,0.0018632127903401852,0.0009437368134967983
1782952659031555800,3.574555908203125,-0.0015585345681756735,-0.0003898213617503643,-0.0004682711442001164
1782952659041483800,3.58448388671875,-0.001240248093381524,0.002501875627785921,0.0014732974814251065
1782952659051412000,3.594411865234375,0.001009590458124876,-0.002835898194462061,-0.0007461810600943863
1782952659061339000,3.6043388671875,0.00005966867320239544,-0.0007824008353054523,0.000511634920258075
1782952659071266600,3.6142666015625,-0.0001121052191592753,-0.0010239495895802975,-0.0023182400036603212
1782952659081193700,3.62419384765625,-0.0015631928108632565,-0.002949824556708336,-0.0011456292122602463
1782952659091121700,3.63412158203125,-0.0005317504401318729,-0.000812105368822813,0.0005116559332236648
1782952659101049600,3.644049560546875,0.0006612730212509632,0.0011415611952543259,0.000944125116802752
1782952659110976800,3.653976806640625,-0.0014793758746236563,0.0009301062673330307,-0.0002194099361076951
1782952659120904700,3.66390478515625,0.0024281563237309456,-0.002823480172082782,-0.0033853892236948013
1782952659130831600,3.67383154296875,0.0012529034866020083,-0.0015582123305648565,-0.0006625732639804482
1782952659140759800,3.683759765625,-0.0010594211053103209,-0.0008263112977147102,-0.00028826051857322454
1782952659150686700,3.693686767578125,-0.0011598223354667425,0.0008181906305253506,0.0009921872988343239
1782952659160614700,3.70361474609375,-0.0005161952576600015,0.0008861571550369263,-0.0011165286414325237
1782952659170541800,3.713541748046875,0.0001256265677511692,-0.0006547477096319199,0.0019061592174693942
1782952659180469800,3.7234697265625,-0.00035735947312787175,-0.0010444652289152145,0.0007647649035789073
1782952659190397700,3.733397705078125,0.0022109930869191885,-0.0011595138348639011,0.000043580890633165836
1782952659200324900,3.743324951171875,0.000934936513658613,0.0022443514317274094,0.0023565413430333138
1782952659210252800,3.753252685546875,0.00012373767094686627,0.002359133679419756,-0.0007516340701840818
1782952659220179700,3.7631796875,0.0003587125684134662,-0.0006145844236016273,0.00039438827661797404
1782952659230108000,3.77310791015625,0.00042023160494863987,0.0009542838670313358,-0.0005920465337112546
1782952659240034800,3.783034912109375,-0.000518492772243917,-0.0005049719475209713,-0.0020043684635311365
1782952659249962800,3.792962646484375,0.0005028294399380684,0.0016569825820624828,-0.0006690595764666796
1782952659259890700,3.802890625,-0.0002066644956357777,-0.0011036135256290436,0.00043113582069054246
1782952659269817900,3.81281787109375,0.0007022723439149559,-0.00023249350488185883,0.0004255432286299765
1782952659279745800,3.822745849609375,-0.0003383597359061241,0.0005050762556493282,0.0021030609495937824
1782952659289672700,3.832672607421875,0.000881634303368628,0.00044808443635702133,0.0019222323317080736
1782952659299600600,3.8426005859375,0.0015409468906000257,-0.00013483595103025436,-0.001197587582282722
1782952659309528800,3.85252880859375,-0.000017268641386181116,-0.0008216649293899536,-0.0006194153102114797
1782952659319455700,3.862455810546875,0.0018926744814962149,-0.0013536631595343351,-0.0005100173293612897
1782952659329383700,3.8723837890625,-0.0010514501482248306,-0.0009850815404206514,0.002080972073599696
1782952659339310600,3.882310546875,0.0016953182639554143,-0.0008600135333836079,0.0018201353959739208
1782952659349238500,3.892238525390625,0.00011260167229920626,0.0011464119888842106,-0.00001984252594411373
1782952659359165700,3.902165771484375,-0.0014142661821097136,0.00044351164251565933,0.00016068870900198817
1782952659369093600,3.91209375,0.0006829730118624866,-0.001459050690755248,-0.001226285588927567
1782952659379021600,3.922021484375,-0.001679800683632493,0.00020122947171330452,-0.0009081167518161237
1782952659388948700,3.93194873046875,0.0004565869749058038,0.001969302073121071,0.000006146437954157591
1782952659398876700,3.941876708984375,0.0008895174833014607,0.0019964827224612236,0.0006106590153649449
1782952659408803600,3.951803466796875,-0.0000250120647251606,0.000573023222386837,-0.001992580946534872
1782952659418731800,3.961731689453125,0.0001342534669674933,-0.001562363002449274,0.00027785461861640215
1782952659428658700,3.97165869140625,0.0013475896557793021,-0.0009216065518558025,0.00025575037579983473
1782952659438586600,3.981586669921875,0.00008336181053891778,-0.0001015705056488514,-0.00008337042527273297
1782952659448513800,3.991513671875,-0.0005709768156521022,-0.0017279630992561579,0.00011929613538086414
1782952659458441700,4.001441650390625,0.0021249454002827406,-0.0005843266844749451,-0.0005545378080569208
1782952659468369700,4.01136962890625,-0.00023328379029408097,0.0019946787506341934,-0.000989698339253664
1782952659478296800,4.021296875,0.001374394167214632,-0.0014881882816553116,0.001388964126817882
1782952659488224800,4.031224853515625,0.0012249909341335297,-0.0001717875711619854,-0.00016019662143662572
1782952659498151700,4.041151611328125,0.0011642074678093195,-0.00008091283962130547,-0.0012636836618185043
1782952659508079900,4.051079833984375,-0.00005552027141675353,-0.0013001076877117157,0.0003094455460086465
1782952659518006800,4.0610068359375,0.0006906852358952165,-0.00012151151895523071,-0.004341999068856239
1782952659527934700,4.070934814453125,-0.00048669835086911917,-0.0010426989756524563,-0.00035258388379588723
1782952659537862700,4.080862548828125,-0.0036573540419340134,0.0003604358062148094,-0.00041468528797850013
1782952659547789800,4.090789794921875,-0.000138252682518214,-0.0019567804411053658,0.00038559461245313287
1782952659557717800,4.1007177734375,-0.0015804787399247289,0.0011946586892008781,0.0006468703504651785
1782952659567644700,4.110644775390625,-0.0007056302856653929,0.0008689537644386292,-0.00006445992039516568
1782952659577572900,4.12057275390625,0.001167028327472508,0.0011513670906424522,0.0009726846474222839
1782952659587499500,4.13049951171875,-0.0012351430486887693,-0.0016340329311788082,-0.0028047431260347366
1782952659597427700,4.140427734375,0.00046824925811961293,-0.0004608877934515476,-0.0009025516919791698
1782952659607355600,4.150355712890625,0.002176134381443262,0.000731143169105053,0.002666883170604706
1782952659617282600,4.160282470703125,-0.0005533394869416952,0.0009542331099510193,0.0002326598041690886
1782952659627210500,4.17021044921875,-0.0014114100486040115,0.000007212627679109573,0.00226385286077857
1782952659637137700,4.1801376953125,0.0002468785969540477,0.0000858488492667675,-0.0012690017465502024
1782952659647065600,4.190065673828125,0.0035513287875801325,0.0002658781595528126,0.0026461114175617695
1782952659656992800,4.19999267578125,0.0004800626484211534,-0.002853511366993189,0.00048496725503355265
1782952659666920700,4.209920654296875,0.0005959101254120469,-0.0009248501155525446,0.0008503530407324433
1782952659676848600,4.2198486328125,-0.0009773692581802607,-0.0007667206227779388,-0.0010365197667852044
1782952659686775800,4.22977587890625,0.00037924505886621773,0.0006341021507978439,-0.0010064260568469763
1782952659696703700,4.239703857421875,0.000939920311793685,-0.0003199712373316288,0.001796912169083953
1782952659706630700,4.249630615234375,-0.0012736991047859192,0.0011418377980589867,-0.001148277660831809
1782952659716558600,4.25955859375,-0.0013262485153973103,0.00016475189477205276,-0.0030159070156514645
1782952659726485800,4.26948583984375,-0.0031012455001473427,0.0012300163507461548,0.0002243609633296728
1782952659736413700,4.27941357421875,0.0018056854605674744,-0.0015518369618803263,0.00046850554645061493
1782952659746341600,4.289341552734375,-0.0010380379389971495,-0.0019036405719816685,-0.001435388345271349
1782952659756268800,4.299268798828125,0.000010775751434266567,-0.0040231370367109776,-0.001538828480988741
1782952659766196700,4.30919677734375,-0.00005207484355196357,-0.000707767903804779,0.000656947901006788
1782952659776123600,4.31912353515625,-0.00035980140091851354,-0.0005291150882840157,-0.0003414801904000342
1782952659786051800,4.3290517578125,0.001239693141542375,0.0007878178730607033,-0.0011532116914168
1782952659795978800,4.338978759765625,0.002165872137993574,-0.00012683449313044548,-0.00034807666088454425
1782952659805906700,4.34890673828125,-0.0016001039184629917,-0.0011127369944006205,-0.0025688866153359413
1782952659815835000,4.3588349609375,-0.0004132437752559781,0.0009969170205295086,-0.0008658616570755839
1782952659825761800,4.36876171875,0.00034202865208499134,9.592622518539429e-8,0.002169343177229166
1782952659835689700,4.378689697265625,-0.0008553044172003865,0.000583333894610405,-0.0020136546809226274
1782952659845617000,4.388616943359375,0.00044298666762188077,-0.0011024472769349813,-0.0005110992933623493
1782952659855544800,4.398544921875,0.0012318938970565796,0.001528825145214796,-0.0020013940520584583
1782952659865471500,4.408471435546875,0.00019832112593576312,-0.0010863991919904947,0.00009797600796446204
1782952659875400000,4.41839990234375,0.00017486384604126215,0.00003224983811378479,0.0014332346618175507
1782952659885326600,4.42832666015625,0.0012659609783440828,-0.0010841474868357182,0.0009306962019763887
1782952659895254500,4.438254638671875,-0.0018598532769829035,-0.00032143620774149895,0.0009114979766309261
1782952659905182700,4.4481826171875,-0.0016713014338165522,-0.001782979117706418,0.0008608978241682053
1782952659915109600,4.458109619140625,0.002127621555700898,0.0019649858586490154,0.0024755222257226706
1782952659925037600,4.46803759765625,0.0010197465308010578,0.00008772360160946846,-0.00043424745672382414
1782952659934964700,4.47796484375,-0.0013528687413781881,0.0017288154922425747,-0.0003684037073981017
1782952659944892700,4.487892578125,0.00006180250784382224,-0.0003460529260337353,-0.0015646957326680422
1782952659954819600,4.497819580078125,0.0017562785651534796,0.0018401537090539932,0.00027061637956649065
1782952659964747800,4.507747802734375,-0.001482125255279243,0.0008832798339426517,0.00010896258754655719
1782952659974675700,4.51767578125,0.0004433149006217718,-0.001754773547872901,-0.0002657156437635422
1782952659984602600,4.5276025390625,0.0010371998650953174,-0.0010463728103786707,0.00007623422425240278
1782952659994530600,4.537530517578125,0.0007950023864395916,-0.0006260569207370281,0.0027236591558903456
1782952660004457700,4.547457763671875,0.001167844980955124,-0.0005168672651052475,-0.0003642762021627277
1782952660014385700,4.5573857421875,0.0007473777513951063,0.0024833190254867077,-0.00010443618521094322
1782952660024312800,4.567312744140625,-0.000030265306122601032,-0.0007071476429700851,0.001732079777866602
1782952660034240800,4.57724072265625,0.000880673062056303,0.0010110787115991116,0.0007438278989866376
1782952660044168700,4.587168701171875,-0.00037207797868177295,0.001178591512143612,0.0033755635377019644
1782952660054096000,4.597095947265625,-0.0006077404250390828,-0.002197484951466322,-0.0011000112863257527
1782952660064023800,4.60702392578125,0.0003712375764735043,0.00039590150117874146,0.002421486657112837
1782952660073950500,4.616950439453125,0.0007790623931214213,-0.0006768917664885521,-0.00037115439772605896
1782952660083878400,4.62687841796875,-0.0006694308831356466,0.0009795944206416607,0.0009609587723389268
1782952660093805600,4.6368056640625,0.001184311811812222,-0.0001147300936281681,0.0006570388795807958
1782952660103733500,4.6467333984375,-0.0015747230499982834,-0.00011313240975141525,0.0004969828296452761
1782952660113661400,4.656661376953125,-0.0003676902852021158,0.0012200972996652126,-0.001268203603103757
1782952660123588600,4.666588623046875,-0.00018233427545055747,-0.0007327990606427193,-0.0015025617321953177
1782952660133516500,4.6765166015625,0.0009283946128562093,-0.0004466758109629154,0.0026334053836762905
1782952660143443500,4.686443359375,0.0002466253354214132,0.0000891522504389286,-0.001901425188407302
1782952660153371600,4.69637158203125,-0.00018942623864859343,-0.001080439891666174,-0.0013989792205393314
1782952660163298300,4.70629833984375,0.0002111132489517331,0.0011148038320243359,0.0005102409631945193
1782952660173226200,4.716226318359375,-0.0004712832160294056,0.00045163463801145554,-0.0006979642203077674
1782952660183154400,4.726154541015625,0.0012882673181593418,0.0010939892381429672,-0.00039995647966861725
1782952660193081300,4.736081298828125,-0.00017264735652133822,-0.0010690668132156134,0.0010586718562990427
1782952660203009300,4.74600927734375,0.0034031791146844625,0.0014087380841374397,0.0003361562266945839
1782952660212936400,4.7559365234375,0.0009214229066856205,0.0009406781755387783,0.0010669415351003408
1782952660222864400,4.765864501953125,0.0007589700981043279,0.00021683098748326302,-0.00028594431933015585
1782952660232791300,4.775791259765625,0.0005316644674167037,0.0022130152210593224,0.001558281946927309
1782952660242719500,4.785719482421875,0.0001998345833271742,0.0007299007847905159,0.0010919624473899603
1782952660252647400,4.7956474609375,-0.0012156564043834805,0.00009342329576611519,-0.0005981823778711259
1782952660262574300,4.80557421875,0.0015588249079883099,0.00025081587955355644,0.0009286078857257962
1782952660272502500,4.81550244140625,0.0008758857729844749,0.0015290598385035992,0.002394122537225485
1782952660282429400,4.825429443359375,0.0009927985956892371,0.0006299763917922974,0.0013152762548997998
1782952660292357400,4.835357421875,0.002179590053856373,-0.0014219258446246386,0.0017670532688498497
1782952660302284500,4.845284423828125,-0.0029853442683815956,0.0027634981088340282,-0.0012561669573187828
1782952660312212500,4.85521240234375,0.002123121405020356,-0.0006323619745671749,-0.0012092612450942397
1782952660322139400,4.865139404296875,0.000008305301889777184,-0.0021298574283719063,-0.0009232377633452415
1782952660332067600,4.875067626953125,0.0006069517694413662,0.0018190289847552776,-0.0005517839454114437
1782952660341995500,4.88499560546875,-0.0002636355347931385,0.00020089233294129372,-0.0012801585253328085
1782952660351922400,4.89492236328125,-0.0002559071290306747,-0.0005457527004182339,0.0012227327097207308
1782952660361850600,4.9048505859375,-0.0001531090820208192,0.002202629577368498,-0.002156818751245737
1782952660371777500,4.914777587890625,0.0021197772584855556,-0.0008308207616209984,-0.0012795673683285713
1782952660381705500,4.92470556640625,-0.0005250079557299614,0.000010205432772636414,0.0022014505229890347
1782952660391632600,4.934632568359375,-0.001614208216778934,-0.000909195514395833,0.0025561386719346046
1782952660401560600,4.944560546875,0.0017669410444796085,0.0027779508382081985,-0.0008873286424204707
1782952660411488500,4.954488525390625,-0.00011753162834793329,0.0015975609421730042,-0.002309514209628105
1782952660421415700,4.964415771484375,0.0003605057718232274,0.0012854384258389473,-0.000859422842040658
1782952660431343600,4.974343505859375,-0.0006622276268899441,-0.0006383308209478855,0.0011552604846656322
1782952660441270300,4.984270263671875,0.0012139693135395646,0.0004572938196361065,0.0019142613746225834
1782952660451198500,4.994198486328125,0.0014794145245105028,-0.00006396975368261337,0.0015825798036530614
1782952660461125400,5.00412548828125,0.00047620179248042405,0.0017642900347709656,-0.0014246618375182152
1782952660471053300,5.01405322265625,-0.002695986768230796,-0.0012775349896401167,0.0009096584981307387
1782952660480981200,5.023981201171875,-0.004003332927823067,0.00008254125714302063,-0.00026399653870612383
1782952660490908400,5.033908447265625,-0.0009574543801136315,-0.0013014182914048433,-0.0012005718890577555
1782952660500836400,5.04383642578125,0.00010541314259171486,-0.0015275205951184034,-0.0023555848747491837
1782952660510763500,5.053763427734375,0.0014646134804934263,-0.001137956976890564,-0.0011941352859139442
1782952660520691500,5.06369140625,0.000035294913686811924,0.0000764443539083004,0.0007736743427813053
1782952660530618400,5.073618408203125,0.0011831816518679261,-0.0019958794582635164,0.0008294944418594241
1782952660540546300,5.08354638671875,0.0011602784506976604,0.0002246643416583538,-0.0025082454085350037
1782952660550473500,5.093473388671875,0.0020542286802083254,-0.0013372700195759535,0.0019072768045589328
1782952660560401400,5.1034013671875,0.00007603270933032036,-0.0014765532687306404,0.000843077665194869
1782952660570329300,5.113329345703125,0.0021423278376460075,-0.0013549011200666428,0.0027635933365672827
1782952660580256500,5.123256591796875,-0.001122707617469132,-0.0001029488630592823,-0.0009200910571962595
1782952660590184400,5.133184326171875,-0.0005582250305451453,0.000655067153275013,0.001732705975882709
1782952660600111400,5.143111328125,0.0008934640791267157,0.0007813009433448315,0.001958542037755251
1782952660610039600,5.15303955078125,-0.0018819405231624842,-0.00026604020968079567,-0.0010827442165464163
1782952660619966500,5.162966552734375,0.00009279331425204873,0.0007646027952432632,0.001203046878799796
1782952660629894400,5.172894287109375,0.0010550819570198655,-0.0008283909410238266,-0.0007121464004740119
1782952660639822600,5.182822509765625,-0.0012445575557649136,-0.0002816435880959034,0.0006798879476264119
1782952660649749500,5.19274951171875,0.0022469409741461277,0.00031685177236795425,0.0030013974756002426
1782952660659677400,5.202677490234375,0.0012447935296222568,0.0019022319465875626,-0.0006239638314582407
1782952660669604600,5.2126044921875,-0.0013857369776815176,-0.001974189653992653,-0.0025101620703935623
1782952660679532500,5.222532470703125,-0.001729284878820181,-0.0026453060563653708,-0.0004699144046753645
1782952660689459500,5.23245947265625,-0.00022714422084391117,-0.001180263003334403,-0.0011122857686132193
1782952660699387600,5.2423876953125,-0.002246352843940258,0.00018460676074028015,0.0036039059050381184
1782952660709314300,5.252314208984375,0.0013998757349327207,0.0009876028634607792,0.002948594745248556
1782952660719242500,5.262242431640625,-0.001437456114217639,-0.000529333483427763,-0.000713784305844456
1782952660729170700,5.272170654296875,0.0015155721921473742,0.00031952792778611183,0.0014284250792115927
1782952660739097300,5.282097412109375,0.000083856750279665,-0.0015231133438646793,-0.002027559094130993
1782952660749025300,5.292025390625,-0.002300502732396126,-0.002402834827080369,0.00034786382457241416
1782952660758952400,5.301952392578125,0.0009552117553539574,0.00041638733819127083,0.001436031423509121
1782952660768877600,5.311877685546875,-0.000643260485958308,-0.0014484457205981016,-0.0016101538203656673
1782952660778805500,5.321805419921875,0.0000635423930361867,-0.0003980947658419609,-0.0003206512192264199
1782952660788732400,5.331732421875,0.001314357272349298,-0.0018747977446764708,0.00409659743309021
1782952660798660600,5.34166064453125,0.0007692082435823977,-0.001104611437767744,0.0006802944699302316
1782952660808587500,5.35158740234375,0.0011922664707526565,0.0005071796476840973,0.0014360593631863594
1782952660818515500,5.361515380859375,-0.0004152175970375538,0.000029408838599920273,0.0012762697879225016
1782952660828442600,5.371442626953125,0.0016757710836827755,0.0013772486709058285,-0.0011799032799899578
1782952660838370600,5.38137060546875,-0.0013013767311349511,0.0001719016581773758,-0.00009732833132147789
1782952660848298500,5.391298583984375,-0.0024955684784799814,-0.0016183087136596441,0.00013316917465999722
1782952660858225400,5.401225341796875,-0.0007376160356216133,-0.00041456008329987526,0.00034995051100850105
1782952660868153600,5.411153564453125,0.0013732892693951726,0.0016177627258002758,-0.0016176278004422784
1782952660878080300,5.421080322265625,0.0005833957111462951,-0.0007380698807537556,0.0007304813480004668
1782952660888008400,5.431008544921875,0.0019230967154726386,-0.0018793563358485699,0.00045337690971791744
1782952660897935400,5.440935302734375,-0.00001435296144336462,0.0010008523240685463,0.0027207923121750355
1782952660907863300,5.45086328125,0.0011731473496183753,-0.0005281586199998856,-0.00012486206833273172
1782952660917791500,5.46079150390625,-0.003814420895650983,0.0005283174104988575,-0.0001091493759304285
1782952660927718400,5.470718505859375,0.0006079522427171469,-0.00006140489131212234,0.0014553783694282174
1782952660937646300,5.480646240234375,0.0018183588981628418,-0.000667273998260498,0.0016588439466431737
1782952660947573500,5.490573486328125,-0.00048110028728842735,0.0005467385053634644,-0.0005768900155089796
1782952660957501400,5.50050146484375,0.00046858296263962984,0.0009896224364638329,-0.0008559892885386944
1782952660967428400,5.510428466796875,-0.0018206804525107145,-0.001834118040278554,0.00005092547507956624
1782952660977356500,5.5203564453125,-0.0007532854215241969,-0.001396027859300375,-0.001856696791946888
1782952660987283500,5.530283447265625,0.0008931608754210174,0.0016742856241762638,0.0009682852542027831
1782952660997211400,5.54021142578125,-0.0009255118202418089,0.0017872038297355175,0.0008620251901447773
1782952661007139300,5.550139404296875,-0.0021677047479897738,0.002675779163837433,0.0008349375566467643
1782952661017066500,5.56006640625,0.00028693070635199547,0.0003982437774538994,0.0013241603737697005
1782952661026994400,5.569994384765625,-0.0019584749825298786,-0.0014263733755797148,-0.0009689616272225976
1782952661036921600,5.579921630859375,-0.00047988799633458257,-0.0005041207186877728,-0.0015878803096711636
1782952661046849500,5.589849609375,-0.002789985854178667,-0.00017415033653378487,-0.0017416103510186076
1782952661056776400,5.5997763671875,-0.0008546665194444358,-0.0017874932382255793,-0.0033317836932837963
1782952661066704400,5.609704345703125,0.00016394839622080326,-0.00007698265835642815,0.0008845750708132982
1782952661076632300,5.61963232421875,-0.0020880205556750298,0.0012434124946594238,0.00294985668733716
1782952661086559200,5.629559326171875,-0.0006808842299506068,0.00027887430042028427,0.0011203931644558907
1782952661096487200,5.639487060546875,-0.00016769312787801027,-0.000040971674025058746,-0.0005486097652465105
1782952661106414300,5.649414306640625,0.00018605211516842246,-0.0007431213743984699,0.0007214866927824914
1782952661116342300,5.65934228515625,0.0013325429754331708,-0.001050450373440981,-0.0013046462554484606
1782952661126269400,5.66926953125,0.001373537816107273,-0.0000731353648006916,0.0026745586656033993
1782952661136197400,5.679197265625,-0.002868078649044037,-0.0001485031098127365,0.0006425668252632022
1782952661146126300,5.689126220703125,0.00019044580403715372,-0.001665804535150528,-0.0004131313180550933
1782952661156054300,5.69905419921875,-0.0005682887858711183,-0.0012530144304037094,0.00021803780691698194
1782952661165981200,5.708981201171875,0.004238930996507406,-0.0020939146634191275,0.00218177423812449
1782952661175909400,5.718909423828125,0.0044724904000759125,-0.0010709946509450674,-0.0006805914454162121
1782952661185837300,5.72883740234375,-0.00025956693571060896,-0.0004925080575048923,0.0004446677630767226
1782952661195764200,5.73876416015625,-0.0015168453101068735,0.0013746339827775955,-0.0028017256408929825
1782952661205692400,5.7486923828125,0.00007224775617942214,-0.001597514608874917,-0.0007435985608026385
1782952661215619300,5.758619384765625,0.001315677654929459,-0.0005394406616687775,-0.0012410769704729319
1782952661225547300,5.76854736328125,0.00008061277912929654,-0.00295827304944396,0.0012940712040290236
1782952661235474400,5.778474365234375,0.0009309601155109704,0.0016665724106132984,-0.0032791090197861195
1782952661245402400,5.78840234375,-0.0003644201788119972,0.001489826012402773,-0.0009829088812693954
1782952661255330300,5.798330322265625,-0.0018379471730440855,-0.0006931670941412449,-0.0007544096442870796
1782952661265257500,5.808257568359375,0.0019366401247680187,0.0007731416262686253,0.0015199449844658375
1782952661275185400,5.818185302734375,0.0009265031549148262,0.001995266415178776,-0.0010129875736311078
1782952661285112300,5.8281123046875,0.0012945099733769894,-0.0007884269580245018,0.0019452841952443123
1782952661295040300,5.838040283203125,0.0022346058394759893,0.0010416973382234573,0.0007702974253334105
1782952661304967400,5.847967529296875,0.0022961818613111973,-0.0011695441789925098,-0.0005175055703148246
1782952661314895400,5.857895263671875,0.0010325119365006685,-0.0005399729125201702,0.0004548145807348192
1782952661324823300,5.8678232421875,-0.00023004633840173483,-0.0018797589000314474,-0.0011134063825011253
1782952661334750500,5.87775048828125,0.00005544460145756602,0.0006081662140786648,-0.0023541729897260666
1782952661344678400,5.887678466796875,-0.0010100126964971423,-0.0008982471190392971,0.00022762268781661987
1782952661354605300,5.897605224609375,0.00030239304760470986,0.00022747088223695755,-0.0017452470492571592
1782952661364533500,5.907533447265625,0.00006558193126693368,-0.00011078454554080963,0.00042330846190452576
1782952661374460400,5.91746044921875,-0.0005610599182546139,0.0008037453517317772,0.000762861454859376
1782952661384388400,5.927388427734375,0.0012845604214817286,0.0017575724050402641,0.0007391705876216292
1782952661394315500,5.9373154296875,0.000705589191056788,0.0006837858818471432,-0.0004480666248127818
1782952661404243500,5.947243408203125,0.0006812764331698418,0.00028857961297035217,-0.0025610204320400953
1782952661414171400,5.95717138671875,-0.00042899546679109335,-0.0004360666498541832,0.0015730045270174742
1782952661424098600,5.9670986328125,0.001278273994103074,0.00010880501940846443,0.0016747122863307595
1782952661434026500,5.977026611328125,0.0004471014253795147,-0.0005194344557821751,-0.0014971126802265644
1782952661443953200,5.986953125,0.00005883857375010848,0.0020970781333744526,0.001418661093339324
1782952661453881300,5.99688134765625,-0.001602707663550973,-0.0009865961037576199,0.000916122633498162
1782952661463808300,6.006808349609375,-0.0007468204712495208,0.00041739456355571747,0.0005468890885822475
1782952661473736200,6.016736083984375,-0.002173209562897682,0.0018067657947540283,0.0016616883222013712
1782952661483664400,6.026664306640625,0.000049276743084192276,0.0010509975254535675,0.0016256491653621197
1782952661493591300,6.03659130859375,-0.0018109411466866732,-0.0001852419227361679,-0.0019997120834887028
1782952661503519200,6.046519287109375,0.0008526759338565171,-0.0018885750323534012,-0.00025464233476668596
1782952661513446400,6.0564462890625,-0.0006251122104004025,0.0001620589755475521,-0.003459756728261709
1782952661523374300,6.066374267578125,0.0006145176594145596,0.0008516586385667324,-0.0010977232595905662
1782952661533301200,6.07630126953125,0.0009418201516382396,0.00004072580486536026,-0.0022889552637934685
1782952661543229400,6.0862294921875,0.0010270822094753385,-0.0021520573645830154,-0.0023503436241298914
1782952661553156400,6.09615625,-0.0022302300203591585,-0.0013525763060897589,0.00179486651904881
1782952661563084300,6.106084228515625,-0.0005383797688409686,0.0014567198231816292,-0.000753114465624094
1782952661573012200,6.11601220703125,-0.0006960389437153935,0.00015842868015170097,0.0010511772707104683
1782952661582939400,6.125939453125,-0.00215624226257205,0.0015323529951274395,-0.00019539159256964922
1782952661592867300,6.135867431640625,-0.0017346638487651944,0.00044551678001880646,0.0008618833962827921
1782952661602794500,6.14579443359375,0.00042470748303458095,-0.0007703904993832111,-0.0012718155048787594
1782952661612722400,6.155722412109375,-0.0004714461974799633,0.00031884247437119484,-0.002261712681502104
1782952661622649300,6.1656494140625,0.001023156801238656,0.0008182544261217117,0.0009448857163079083
1782952661632577500,6.17557763671875,0.0010950621217489243,-0.0011455605272203684,-0.0006966867949813604
1782952661642505500,6.18550537109375,0.0013965161051601171,0.00078197056427598,-0.0006050463998690248
1782952661652432400,6.195432373046875,-0.0014554630033671856,0.0011857058852910995,-0.002973928116261959
1782952661662360300,6.2053603515625,-0.0012629381380975246,0.0015804586000740528,-0.0004683790320996195
1782952661672287500,6.21528759765625,0.0007101980154402554,-0.0007327627390623093,-0.0031565737444907427
1782952661682215400,6.22521533203125,0.0012014859821647406,-0.0003870767541229725,-0.00044402314233593643
1782952661692142600,6.235142578125,-0.00028722110437229276,0.000017457641661167145,-0.00011911749606952071
1782952661702070500,6.245070556640625,0.00020823738304898143,0.00028541265055537224,0.0007446150411851704
1782952661711997200,6.2549970703125,0.0010987984715029597,-0.00039236200973391533,0.00030918820993974805
1782952661721925400,6.26492529296875,0.0016780428122729063,-0.00007732072845101357,-0.0007886748062446713
1782952661731853600,6.274853515625,-0.00007777934661135077,0.0014904821291565895,0.0005453025223687291
1782952661741780200,6.2847802734375,-0.0005906118894927204,0.0004560500383377075,-0.0010500745847821236
1782952661751708200,6.294708251953125,-0.00048009067540988326,0.0014619259163737297,0.00036992289824411273
1782952661761635300,6.30463525390625,0.0008006126736290753,0.0010926821269094944,0.0006632549338974059
1782952661771563300,6.314563232421875,0.00042643852066248655,-0.00016113417223095894,0.0005830937880091369
1782952661781490400,6.324490478515625,0.0012174448929727077,-0.0018548641819506884,-0.000643782434053719
1782952661791418400,6.33441845703125,-0.0014513086061924696,-0.0000758725218474865,-0.000997716560959816
1782952661801346300,6.34434619140625,-0.0032163558062165976,0.0013123364187777042,0.0018835678929463029
1782952661811273200,6.354273193359375,-0.0013233809731900692,-0.000022439751774072647,-0.000012336531654000282
1782952661821201400,6.364201416015625,-0.0011841070372611284,-0.00064851064234972,0.0017118379473686218
1782952661831128300,6.37412841796875,0.00023509160382673144,0.000042046885937452316,0.004038907587528229
1782952661841056300,6.38405615234375,0.0016026119701564312,0.00023269793018698692,0.0004513708408921957
1782952661850983400,6.3939833984375,0.0011141883442178369,0.0008260500617325306,-0.00022959941998124123
1782952661860911400,6.403911376953125,-0.0011092372005805373,-0.001527485903352499,0.001464738161303103
1782952661870838500,6.413838623046875,0.0003768066526390612,0.0009774835780262947,0.001143028261139989
1782952661880766500,6.423766357421875,0.00034305412555113435,-0.004227496217936277,-0.0005792374722659588
1782952661890694400,6.4336943359375,-0.0002399118384346366,-0.00032756291329860687,0.000375239469576627
1782952661900621300,6.443621337890625,0.0013766426127403975,-0.0029614244122058153,0.0025237062945961952
1782952661910549500,6.453549560546875,0.0030933162197470665,0.00022158585488796234,0.0018589813262224197
1782952661920476400,6.463476318359375,0.0008446268038824201,0.0006599989719688892,0.0006383037543855608
1782952661930404400,6.473404296875,0.000001469976268708706,0.000511661171913147,0.00037704763235524297
1782952661940331500,6.48333154296875,0.00017104815924540162,-0.0015443423762917519,0.00035409186966717243
1782952661950259500,6.493259521484375,-0.0011243133340030909,0.0003430396318435669,0.0011812697630375624
1782952661960186400,6.503186279296875,-0.000816168962046504,-0.0025313941296190023,-0.00012342212721705437
1782952661970114600,6.513114501953125,-0.003181588603183627,0.00025773467496037483,0.0012270668521523476
1782952661980042500,6.52304248046875,0.001085336203686893,0.00038188230246305466,0.00020047207362949848
1782952661989969400,6.532969482421875,-0.0005482467822730541,-0.0019611669704318047,0.0017373822629451752
1782952661999897600,6.542897705078125,0.0008838750654831529,0.0017914953641593456,-0.001967920921742916
1782952662009824300,6.55282421875,0.0008319434127770364,-0.0025151025038212538,0.0006060241139493883
1782952662019752200,6.562752197265625,-0.0017525431467220187,-0.0006327927112579346,0.00018319161608815193
1782952662029679400,6.572679443359375,-0.00191046844702214,0.0003147600218653679,0.0014101099222898483
1782952662039607300,6.582607177734375,0.00093238236149773,-0.0005319663323462009,-0.000716605456545949
1782952662049534200,6.5925341796875,0.0013286607572808862,0.00021132221445441246,-0.0006345800939016044
1782952662059462400,6.60246240234375,-0.0008888649754226208,0.000050922390073537827,0.000057574594393372536
1782952662069390300,6.612390380859375,-0.0006025751354172826,0.003784141968935728,-0.004488707520067692
1782952662079317200,6.622317138671875,0.0008664362831041217,-0.00011853920295834541,0.00011841114610433578
1782952662089245400,6.632245361328125,0.001248333603143692,0.0008425959385931492,-0.0007100983057171106
1782952662099172400,6.64217236328125,0.0007891759159974754,0.00043052341789007187,0.0032991431653499603
1782952662109100300,6.652100341796875,-0.00006037240382283926,-0.0004682932049036026,0.0006554233841598034
1782952662119027500,6.66202734375,-0.0008749859989620745,0.00030891411006450653,-0.0008860098314471543
1782952662128955400,6.671955322265625,-0.00033702742075547576,-0.0027593139093369246,0.0012676885817199945
1782952662138883300,6.68188330078125,-0.00043222797103226185,-0.000617077574133873,0.0007191062904894352
1782952662148810500,6.691810546875,-0.0002090550260618329,-0.0004831203259527683,0.002273859456181526
1782952662158738400,6.701738525390625,-0.001026952057145536,0.0015657208859920502,0.00017625303007662296
1782952662168665300,6.711665283203125,-0.001032544649206102,0.0008740979246795177,-0.00009965046774595976
1782952662178593300,6.72159326171875,0.0007572191534563899,-0.00006447033956646919,-0.0029345527291297913
1782952662188520400,6.7315205078125,-0.0004369422676973045,-0.0025726354215294123,-0.003242680337280035
1782952662198448400,6.741448486328125,0.0019600384403020144,0.0008985600434243679,-0.0028602376114577055
1782952662208375600,6.75137548828125,0.0016353990649804473,-0.001471919473260641,0.0030964547768235207
1782952662218303500,6.761303466796875,0.0016862752381712198,-0.0009691733866930008,-0.0025408309884369373
1782952662228231400,6.7712314453125,0.0011403273092582822,-0.0008195037953555584,-0.0010710323695093393
1782952662238158600,6.78115869140625,-0.00022505037486553192,-0.000024129636585712433,-0.00031869919621385634
1782952662248086500,6.79108642578125,0.0028293291106820107,0.0005862670950591564,0.0024597765877842903
1782952662258013400,6.801013427734375,0.0011243532644584775,-0.000006932299584150314,-0.00030227057868614793
1782952662267941400,6.81094140625,0.0002444448182359338,0.0005624513141810894,0.00016191840404644608
1782952662277868300,6.820868408203125,0.002543181646615267,0.00020799366757273674,-0.0003163944638799876
1782952662287796200,6.830796142578125,0.0014017507201060653,0.0019174767658114433,-0.0033649150282144547
1782952662297723400,6.840723388671875,0.002478045178577304,-0.0005510547198355198,0.0018904716707766056
1782952662307651300,6.8506513671875,0.0021382258273661137,-0.00071696937084198,0.0008806010591797531
1782952662317579300,6.860579345703125,0.0021170368418097496,-0.0015317806974053383,-0.0022675362415611744
1782952662327506200,6.870506103515625,-0.001910728053189814,0.0012192646972835064,-0.0014717838494107127
1782952662337434400,6.880434326171875,-0.0006925426423549652,0.0012126597575843334,-0.0034332911018282175
1782952662347361300,6.890361328125,-0.00008773885201662779,0.004157050047069788,0.0013923568185418844
1782952662357289200,6.900289306640625,-0.002266990952193737,-0.0003151348792016506,-0.0004932169103994966
1782952662367216400,6.91021630859375,-0.0004437908064574003,-0.0009572231210768223,-0.0004359589656814933
1782952662377144300,6.920144287109375,0.0001240995479747653,-0.0003472631797194481,-0.0004242285212967545
1782952662387071500,6.930071533203125,-0.0014929717872291803,0.00032225577160716057,0.00043197773629799485
1782952662396999400,6.93999951171875,-0.000058087403886020184,-0.0008468804880976677,-0.0016538569470867515
1782952662406927400,6.94992724609375,0.00018958660075441003,0.0017345217056572437,-0.00037793649244122207
1782952662416854300,6.959854248046875,-0.0008688640082255006,-0.0007644020952284336,0.0014134930679574609
1782952662426782500,6.969782470703125,-0.0009482261957600713,0.0014457553625106812,-0.000597459904383868
1782952662436709400,6.97970947265625,-0.001650557154789567,-0.0007166760042309761,0.00010090583236888051
1782952662446637300,6.98963720703125,0.00039501680294051766,-0.0015084336046129465,0.0005741495988331735
1782952662456564500,6.999564453125,-0.0025890832766890526,-0.0008017499931156635,-0.00016819656593725085
1782952662466492400,7.009492431640625,0.002288496121764183,0.0018395730294287205,-0.0011764693772420287
1782952662476420400,7.01942041015625,-0.0012141087790951133,0.00012033944949507713,-0.0009349462925456464
1782952662486347500,7.029347412109375,0.0007025682716630399,0.0007818685844540596,-0.0006625049281865358
1782952662496275500,7.039275390625,0.0012219662312418222,0.0002978956326842308,-0.001981828361749649
1782952662506202400,7.049202392578125,0.0006030476070009172,-0.0004507191479206085,-0.002177836839109659
1782952662516130600,7.059130615234375,-0.0008205308113247156,0.0017135655507445335,0.0012348436284810305
1782952662526057500,7.069057373046875,-0.0009544878266751766,0.0007287287153303623,0.00043482991168275476
1782952662535985400,7.0789853515625,-0.00015239062486216426,0.0009390953928232193,0.00000780180562287569
1782952662545912300,7.088912353515625,0.00012777390656992793,-0.0003426838666200638,0.00036679592449218035
1782952662555840500,7.098840576171875,0.0016195446951314807,0.0007993518374860287,0.0011228458024561405
1782952662565768400,7.1087685546875,0.0004112685564905405,-0.0005423487164080143,0.001421652501448989
1782952662575695400,7.1186953125,-0.000019275059457868338,-0.0016357202548533678,-0.0006448068306781352
1782952662585623300,7.128623291015625,0.0006656899349763989,-0.001877269009128213,0.0030021260026842356
1782952662595550200,7.13855029296875,0.0011614745017141104,-0.002184789627790451,0.00023735943250358105
1782952662605478400,7.148478515625,0.0022725453600287437,-0.0021741369273513556,0.00024321838282048702
1782952662615405300,7.1584052734375,-0.0008137387922033668,0.0009315330535173416,-0.002126606646925211
1782952662625333200,7.168333251953125,-0.0012465025065466762,0.0004170103929936886,0.0010920896893367171
1782952662635260400,7.178260498046875,0.0002624227781780064,0.00011500436812639236,-0.0019485577940940857
1782952662645188400,7.188188232421875,0.0002432480687275529,-0.0006221584044396877,0.0004738534917123616
1782952662655116300,7.1981162109375,-0.0015111068496480584,0.0007958286441862583,-0.002153896726667881
1782952662665043500,7.20804345703125,-0.001495926990173757,0.0006943619810044765,-0.0008841014932841063
1782952662674971400,7.217971435546875,0.0009204368689097464,-0.0028459723107516766,-0.00011450430611148477
1782952662684898300,7.227898193359375,0.0028546906542032957,-0.0016326361801475286,0.0006540839676745236
1782952662694826200,7.237826171875,0.0022664740681648254,-0.0011688419617712498,0.0008080746629275382
1782952662704753400,7.24775341796875,-0.0025280145928263664,0.001843992155045271,-0.00015146227087825537
1782952662714681300,7.257681396484375,0.0009077882277779281,0.00032178591936826706,-0.001752497861161828
1782952662724608500,7.2676083984375,-0.00033297849586233497,0.0002477499656379223,-0.0012728625442832708
1782952662734536400,7.277536376953125,-0.0004762541502714157,0.001984856091439724,0.00022538122721016407
1782952662744464400,7.28746435546875,-0.0023689628578722477,0.000646351370960474,-0.0003104468050878495
1782952662754391600,7.2973916015625,-0.000020859413780272007,-0.00039257435128092766,0.0023391051217913628
1782952662764319500,7.307319580078125,-0.0011955797672271729,0.0030253268778324127,-0.00048597619752399623
1782952662774246400,7.317246337890625,0.00185389572288841,-0.001537857810035348,-0.0017827422125265002
1782952662784174300,7.32717431640625,0.0009084735065698624,0.0014310339465737343,-0.0003845827013719827
1782952662794101500,7.3371015625,-0.00007788947550579906,-0.0007864674553275108,0.001563159516081214
1782952662804029400,7.347029541015625,-0.0010779064614325762,-0.0013151050079613924,0.0013794014230370522
1782952662813956400,7.356956298828125,0.00018912105588242412,0.0008925814181566238,0.0015693462919443846
1782952662823884500,7.366884521484375,-0.0006756074144504964,-0.0026334435679018497,0.004108137916773558
1782952662833812500,7.3768125,-0.0003473859978839755,0.001806140411645174,0.00245669879950583
1782952662843739400,7.386739501953125,0.0005519634578377008,-0.0008255951106548309,0.0017437704373151064
1782952662853667300,7.396667236328125,-0.0004659544792957604,-0.0034410743974149227,0.00044451566645875573
1782952662863594200,7.40659423828125,0.0017708345549181104,-0.0033012584317475557,0.0007286749896593392
1782952662873522200,7.416522216796875,0.0020961775444447994,0.0011973478831350803,0.000418992480263114
1782952662883449300,7.426449462890625,-0.0020090853795409203,0.0016940273344516754,0.0019228796008974314
1782952662893377300,7.436377197265625,0.0008617810090072453,-0.0009095347486436367,0.000500028021633625
1782952662903304400,7.446304443359375,0.0008655094425193965,-0.0006288373842835426,-0.001249136170372367
1782952662913232400,7.456232421875,-0.00112270493991673,0.0008562584407627583,-0.0022140387445688248
1782952662923160300,7.466160400390625,0.0018632311839610338,-0.001757367979735136,-0.000604690401814878
1782952662933087200,7.476087158203125,-0.0009877309203147888,-0.000111372210085392,0.0018542680190876126
1782952662943015400,7.486015380859375,0.002301805652678013,0.0007733297534286976,-0.001408104319125414
1782952662952942300,7.4959423828125,-0.0006857261178083718,0.001799291931092739,0.0001472548465244472
1782952662962870300,7.505870361328125,-0.0007336630369536579,-0.0005504153668880463,0.0005789532442577183
1782952662972797400,7.51579736328125,-0.0015861175488680601,0.0007641096599400043,0.001568879233673215
1782952662982725400,7.525725341796875,-0.002769359853118658,-0.00025508180260658264,0.0008924364228732884
1782952662992652500,7.535652587890625,-0.001968022668734193,-0.0010588127188384533,0.0005572751979343593
1782952663002580500,7.54558056640625,-0.0012316587381064892,0.0012248479761183262,0.002837739884853363
1782952663012508400,7.55550830078125,0.0011184952454641461,0.0008095731027424335,-0.0009276774362660944
1782952663022435300,7.565435302734375,0.0015278230421245098,0.0010141036473214626,-0.0012789483880624175
1782952663032363500,7.575363525390625,-0.00032523093977943063,0.00046513089910149574,0.0014605995966121554
1782952663042290400,7.58529052734375,0.0020881255622953176,-0.0011570004280656576,0.00012289377627894282
1782952663052218400,7.59521826171875,0.0006451669614762068,-0.000013289973139762878,-0.0013932135188952088
1782952663062145500,7.6051455078125,0.002299788873642683,0.0008817985653877258,0.00011599983554333448
1782952663072073200,7.6150732421875,0.0015565898502245545,-0.0002548806369304657,-0.0009665836114436388
1782952663082000100,7.625000244140625,-0.0015649012057110667,0.0008087856695055962,0.0008821828523650765
1782952663091928300,7.63492822265625,-0.0024596373550593853,0.001221414189785719,-0.0012915355619043112
1782952663101856300,7.644856201171875,-0.0008217933354899287,0.0016238177195191383,-0.002288090530782938
1782952663111783200,7.654783203125,-0.002760819159448147,-0.0011450413148850203,0.0000734106870368123
1782952663121711400,7.66471142578125,0.002555649261921644,0.0008608517237007618,0.0013804901391267776
1782952663131638300,7.67463818359375,0.000053230731282383204,-0.0005528680048882961,-0.0021041438449174166
1782952663141566200,7.684566162109375,-0.0014248236548155546,-0.00011531077325344086,0.00007006089435890317
1782952663151493400,7.694493408203125,-0.00018907058984041214,0.0005921665579080582,0.001487171626649797
1782952663161421300,7.70442138671875,-0.0016924251103773713,-0.00289550912566483,-0.0008920963737182319
1782952663171348000,7.714347900390625,-0.00009687338024377823,0.0006563086062669754,0.00018194655422121286
1782952663181276400,7.7242763671875,0.00455620139837265,-0.0014606381300836802,-0.0013669478939846158
1782952663191204400,7.734204345703125,-0.0019111852161586285,-0.0010707664769142866,-0.0007961482624523342
1782952663201131000,7.744131103515625,-0.0009617683244869113,-0.001991154858842492,-0.001974064391106367
1782952663211059200,7.75405908203125,-0.0015881200088188052,-0.00013996940106153488,0.0005557843833230436
1782952663220986000,7.763986083984375,0.0006286952993832529,-0.0007895142771303654,0.0024168011732399464
1782952663230914000,7.7739140625,0.00010934111196547747,0.0006556292064487934,-0.001241127261891961
1782952663240841200,7.78384130859375,-0.0013804311165586114,-0.0006586411036550999,-0.0018432679353281856
1782952663250769200,7.79376904296875,0.00010305113391950727,0.0010404516942799091,0.0007887918618507683
1782952663260696000,7.803696044921875,0.003396848915144801,0.001885206438601017,-0.0021707790438085794
1782952663270624300,7.813624267578125,0.0005156775005161762,0.0017792186699807644,0.0003254243638366461
1782952663280552200,7.82355224609375,-0.0017778369365260005,0.0030543399043381214,0.0009872198570519686
1782952663290479000,7.83347900390625,-0.00042636721627786756,-0.00043492671102285385,-0.0010574744082987309
1782952663300407300,7.8434072265625,-0.000026626745238900185,0.0021723080426454544,-0.0011426955461502075
1782952663310334200,7.853334228515625,0.001457881648093462,-0.00012525636702775955,0.0010842508636415005
1782952663320262100,7.86326220703125,-0.0017509611789137125,0.0001248144544661045,0.00047971331514418125
1782952663330189300,7.873189208984375,-0.0023222630843520164,0.0006077275611460209,0.001564391073770821
1782952663340117200,7.8831171875,0.0015483750030398369,-0.0003566034138202667,-0.002041262574493885
1782952663350044200,7.893044189453125,-0.0010256029199808836,0.0009073256514966488,0.0008948368486016989
1782952663359972400,7.902972412109375,-0.0013470464618876576,-0.0009009605273604393,0.0022589080035686493
1782952663369900300,7.912900390625,0.00037886109203100204,0.0018153386190533638,-0.0010135825723409653
1782952663379827200,7.9228271484375,0.00018737977370619774,-0.0010504887904971838,-0.00322347367182374
1782952663389755100,7.932755126953125,0.0027751754969358444,0.001968658994883299,0.0009604222141206264
1782952663399682300,7.942682373046875,0.0009213490411639214,-0.002098787110298872,0.0009814612567424774
1782952663409610200,7.9526103515625,0.00010408507660031319,0.002081646118313074,0.0004724537720903754
1782952663419537400,7.962537353515625,-0.001582761062309146,0.0012046671472489834,0.0008040172979235649
1782952663429465300,7.97246533203125,-0.0016156547935679555,-0.0000703190453350544,-0.0020613367669284344
1782952663439392300,7.982392333984375,-0.0009301572572439909,-0.00016592629253864288,-0.0013452129205688834
1782952663449320200,7.9923203125,0.0005375640466809273,-0.0021469993516802788,-0.0019504509400576353
1782952663459248400,8.002248291015626,0.000992432003840804,0.0009031188674271107,-0.0009999687317758799
1782952663469175000,8.012175048828125,-0.0017678136937320232,0.0035059135407209396,0.0013966429978609085
1782952663479103200,8.022103271484376,0.0028418516740202904,-0.0005274438299238682,-0.001074770581908524
1782952663489030100,8.032030029296875,0.0012921742163598537,-0.00068671815097332,-0.0009648538543842733
1782952663498958000,8.0419580078125,0.0002213172265328467,0.0012792274355888367,-0.001784841064363718
1782952663508885200,8.05188525390625,-0.0012903636088594794,-0.0019260032568126917,0.001849536201916635
1782952663518813200,8.061813232421875,-0.000616850215010345,-0.0018999041058123112,0.0007342043099924922
1782952663528740000,8.071739990234375,0.0009082068572752178,-0.0020479317754507065,0.0002906094305217266
1782952663538668000,8.08166796875,0.0006514781271107495,-0.0017049165908247232,-0.0011842490639537573
1782952663548596200,8.09159619140625,0.00349655793979764,-0.0003971680998802185,0.00026103085838258266
1782952663558523100,8.101523193359375,0.003514667274430394,0.0002036411315202713,-0.00031128243426792324
1782952663568451000,8.111451171875,-0.001156472135335207,-0.0015081125311553478,-0.0015641609206795692
1782952663578378200,8.121378173828125,0.0030875413212925196,-0.0005906536243855953,-0.0011409844737499952
1782952663588306200,8.13130615234375,-0.0006919761653989553,0.0006082318723201752,-0.003066499950364232
1782952663598233300,8.1412333984375,-0.00013164710253477097,0.00017120689153671265,0.000013978511560708284
1782952663608161300,8.151161376953125,0.0021430728957057,-0.0008909078314900398,-0.0012181797064840794
1782952663618088200,8.161088134765626,-0.00019891088595613837,0.0017128647305071354,0.0014138224069029093
1782952663628016000,8.17101611328125,0.0011217688443139195,-0.0011360591743141413,-0.00012475851690396667
1782952663637944300,8.1809443359375,0.00016569398576393723,0.003505830653011799,-0.0015468865167349577
1782952663647871200,8.190871337890625,0.0006494213594123721,0.004928587935864925,0.0018133551348000765
1782952663657799200,8.200799072265625,0.000896030047442764,-0.0018076114356517792,-0.0011787062976509333
1782952663667726300,8.210726318359375,0.0020612278021872044,0.0005832207389175892,-0.0022631408646702766
1782952663677654300,8.220654296875,0.002134731039404869,0.0009328937157988548,-0.00015072146197780967
1782952663687581200,8.230581298828126,-0.0005702099879272282,-0.00045196013525128365,-0.001357208238914609
1782952663697509400,8.24050927734375,-0.00027033808873966336,-0.001826950116083026,-0.003202512627467513
1782952663707436300,8.250436279296874,0.0013726770412176847,-0.0009861011058092117,0.00035823608050122857
1782952663717364200,8.2603642578125,0.001290385378524661,0.0013766554184257984,-0.0003400447021704167
1782952663727292400,8.27029248046875,-0.0007324558100663126,0.0008978014811873436,-0.00005609926301985979
1782952663737219000,8.280218994140625,-0.0015724168624728918,0.0005995277315378189,0.0005313940928317606
1782952663747147300,8.290147216796875,-0.0006233977037481964,0.0015761693939566612,-0.0011306081432849169
1782952663757074200,8.30007421875,-0.0001642688293941319,0.0009900075383484364,-0.0002613523101899773
1782952663767002000,8.310002197265625,0.0008224783814512193,0.0011217333376407623,0.0005729292752221227
1782952663776929000,8.319928955078124,-0.001243868377059698,0.0019076322205364704,0.0011013004695996642
1782952663786857200,8.329857177734375,-0.0010118975769728422,-0.0011997288092970848,0.0011981658171862364
1782952663796784000,8.3397841796875,0.003455555299296975,-0.0010447327513247728,-0.000026622088626027107
1782952663806712000,8.349712158203126,0.0006506269564852118,-0.002707605715841055,0.00023007753770798445
1782952663816639200,8.35963916015625,-0.0012370217591524124,0.0004184129647910595,-0.001142781926319003
1782952663826567200,8.369567138671876,-0.002225126139819622,0.0012992527335882187,-0.003347251331433654
1782952663836495000,8.3794951171875,0.001514484640210867,0.008847450837492943,0.006918702274560928
1782952663846422300,8.38942236328125,0.0011381511576473713,0.0003458564169704914,-0.0008692870615050197
1782952663856350200,8.39935009765625,-0.00019555987091735005,-0.003985774703323841,-0.0016053847502917051
1782952663866277000,8.409277099609374,0.0015765074640512466,0.0025123381055891514,0.0006220830837264657
1782952663876205300,8.419205322265626,-0.001813962822780013,0.0027802521362900734,-0.000034918717574328184
1782952663886132200,8.42913232421875,0.001473768032155931,0.0020469888113439083,0.000586054113227874
1782952663896060200,8.43906005859375,0.000024742097593843937,-0.0008619818836450577,-0.0005822746315971017
1782952663905987300,8.4489873046875,-0.00043395289685577154,-0.0028431490063667297,-0.001424793852493167
1782952663915915300,8.458915283203124,0.00002837186912074685,-0.00039756810292601585,0.0024085603654384613
1782952663925843200,8.46884326171875,0.001358499750494957,0.0020241723395884037,-0.0007790189702063799
1782952663935770400,8.478770263671874,-0.0011304905638098717,-0.0008200835436582565,-0.000047981273382902145
1782952663945698300,8.4886982421875,-0.001424764166586101,-0.00007369648665189743,0.00007668836042284966
1782952663955625200,8.498625244140625,-0.003265807405114174,0.00017024902626872063,-0.0016423821216449142
1782952663965553400,8.508553466796876,-0.0008905311115086079,0.0012033721432089806,-0.0009422773728147149
1782952663975480300,8.518480224609375,0.0010410596150904894,-0.0012994669377803802,-0.0002384038525633514
1782952663985408300,8.528408203125,-0.0008297092863358557,0.0013571991585195065,0.002004119334742427
1782952663995335200,8.538335205078125,-0.00040360348066315055,0.0006509288214147091,-0.0030726646073162556
1782952664005263400,8.548263427734375,-0.0016550049185752869,0.0009739291854202747,0.0004347729845903814
1782952664015191300,8.55819140625,-0.0015085311606526375,0.0001874975860118866,-0.0001721614971756935
1782952664025118200,8.5681181640625,-0.0003060764283873141,0.0009749745950102806,0.00037997483741492033
1782952664035046100,8.578046142578126,-0.0021588376257568598,-0.0011070845648646355,0.00025134417228400707
1782952664044973000,8.58797314453125,-0.0001413499121554196,0.001797669567167759,0.00082395103527233
1782952664054901200,8.5979013671875,-0.000948820321355015,-0.0015709628351032734,-0.000043440551962703466
1782952664064828200,8.607828125,-0.0010215137153863907,0.0007602963596582413,0.0008722447091713548
1782952664074756600,8.617756591796875,0.002802785485982895,-0.0007196222431957722,0.0003430746728554368
1782952664084683800,8.627683837890626,0.0009539336897432804,-0.00004617217928171158,0.0019386222120374441
1782952664094611700,8.63761181640625,-0.0027308159042149782,0.002181828022003174,0.0028113401494920254
1782952664104538600,8.64753857421875,-0.0026391553692519665,0.0009860824793577194,-0.0015064571052789688
1782952664114466600,8.657466552734375,-0.00004150788299739361,0.001885165460407734,-0.00002627214416861534
1782952664124394800,8.667394775390624,0.0003360304399393499,-0.0005758409388363361,-0.0006069529335945845
1782952664134321700,8.67732177734375,-0.0010085995309054852,0.0013323142193257809,0.002023451030254364
1782952664144249600,8.68724951171875,-0.0019788281060755253,-0.0018604057841002941,-0.0009183319634757936
1782952664154176800,8.6971767578125,-0.0007401917828246951,-0.001913669053465128,0.0018729271832853556
1782952664164104700,8.707104736328125,-0.0005324131925590336,-0.0006735627539455891,0.00022722542053088546
1782952664174031600,8.717031494140626,0.0010002360213547945,0.0007280586287379265,-0.0018167507369071245
1782952664183959800,8.726959716796875,-0.00021612562704831362,-0.0006986143998801708,-0.00007453863508999348
1782952664193886700,8.73688671875,0.00010851369006559253,0.0005128574557602406,0.0009228152339346707
1782952664203814700,8.746814697265625,0.0013513148296624422,-0.0009011975489556789,-0.0006778877577744424
1782952664213742800,8.756742919921875,-0.0008766857208684087,-0.0007430058903992176,0.0005753957666456699
1782952664223669800,8.766669677734376,0.003034316236153245,0.0003090254031121731,0.0007431705016642809
1782952664233597700,8.77659765625,0.001434821868315339,-0.000677409116178751,-0.0004637740785256028
1782952664243524900,8.78652490234375,-0.002028058748692274,0.00023596640676259995,0.0005971984937787056
1782952664253452800,8.796452880859375,0.0010556152556091547,0.0022692899219691753,0.00026776554295793176
1782952664263379700,8.806379638671874,-0.0004377358127385378,0.0015089530497789383,0.0000685828854329884
1782952664273308000,8.816307861328125,-0.0011850189184769988,0.001522002276033163,0.00056739296996966
1782952664283234600,8.826234619140624,0.0009451295481994748,-0.000002073124051094055,0.0019042156636714935
1782952664293162800,8.836162841796876,0.0021848310716450214,-0.0006497539579868317,-0.0004915640456601977
1782952664303090700,8.846090576171875,0.00016684149159118533,-0.001001457218080759,-0.00045935664093121886
1782952664313017600,8.856017578125,-0.0005194551195017993,0.0004965709522366524,0.001956130377948284
1782952664322945500,8.865945556640625,-0.000642724335193634,-0.0029087744187563658,-0.004403699189424515
1782952664332872700,8.875872802734374,0.00031734525691717863,0.0016652047634124756,0.0012499252334237099
1782952664342800600,8.885800537109375,0.001454728189855814,0.0000217570923268795,0.0017896622885018587
1782952664352727600,8.8957275390625,0.00334104523062706,-0.0008317860774695873,0.0007904443773441017
1782952664362655700,8.90565576171875,0.0023302468471229076,0.0007779672741889954,-0.00041387538658455014
1782952664372582700,8.915582763671875,0.0003272834583185613,0.00010791607201099396,0.0025001554749906063
1782952664382510600,8.925510498046876,0.001203809748403728,0.0006294962950050831,-0.0005587898194789886
1782952664392438500,8.9354384765625,0.0007622576085850596,-0.001884261379018426,-0.0003001969016622752
1782952664402365700,8.94536572265625,-0.0005038544186390936,-0.00022351602092385292,-0.0007539896760135889
1782952664412293600,8.955293701171875,0.0005523553118109703,-0.0008882409892976284,0.00029609474586322904
1782952664422220800,8.965220703125,-0.00015460734721273184,0.00023799529299139977,-0.0008380619692616165
1782952664432148700,8.975148681640626,0.0008363548549823463,0.0008159009739756584,-0.000025531509891152382
1782952664442075600,8.98507568359375,0.0012855256209149957,-0.0004915972240269184,0.000777220178861171
1782952664452003800,8.99500390625,0.00025727914180606604,-0.0010023913346230984,0.0012499312870204449
1782952664461930800,9.0049306640625,-0.0002850592718459666,0.0017317836172878742,-0.0001166300498880446
1782952664471858700,9.014858642578124,0.0005240090540610254,0.00008488493040204048,-0.0004396714793983847
1782952664481785900,9.024785888671875,-0.0009098688024096191,0.0005773929879069328,0.0026570179034024477
1782952664491713800,9.0347138671875,-0.0015325157437473536,-0.0006380737759172916,0.003770219162106514
1782952664501641700,9.044641845703126,0.0010592994512990117,0.0005689742974936962,-0.0003867613268084824
1782952664511569000,9.05456884765625,-0.0021889579948037863,-0.0002600676380097866,0.0012518817093223333
1782952664521496800,9.064496826171874,0.0005576993571594357,-0.0031284682918339968,0.0022385939955711365
1782952664531423700,9.074423828125,-0.002552872756496072,0.0005568140186369419,-0.0019476287998259068
1782952664541351700,9.0843515625,-0.0002237078733742237,0.00000270036980509758,0.0006583049544133246
1782952664551278600,9.094278564453125,-0.0037286942824721336,-0.0024335593916475773,0.001016500173136592
1782952664561206800,9.104206787109375,0.0025798387359827757,-0.001976858591660857,0.0008088875911198556
1782952664571133700,9.1141337890625,0.0008256144355982542,-0.002247435739263892,-0.0021855707745999098
1782952664581061600,9.1240615234375,-0.00014021300012245774,0.0013569146394729614,0.00037281011464074254
1782952664590989800,9.13398974609375,-0.0003000026918016374,0.0005031051114201546,0.0014282208867371082
1782952664600916700,9.143916748046875,0.002063659019768238,0.000021982938051223755,-0.0022269960027188063
1782952664610844700,9.1538447265625,0.0006276825442910194,-0.0005154432728886604,-0.0004352212999947369
1782952664620771600,9.163771484375,0.0016909562982618809,-0.0007656780071556568,0.0009859490673989058
1782952664630699500,9.173699462890625,0.00303824944421649,0.0008617797866463661,-0.0001581448595970869
1782952664640626700,9.183626708984375,0.0009341466939076781,-0.002134279115125537,0.0008419123478233814
1782952664650554600,9.1935546875,0.0007807486108504236,0.0002726856619119644,0.0007287279004231095
1782952664660481800,9.203481689453126,0.0034123952500522137,0.000052164774388074875,0.0007385082426480949
1782952664670409700,9.21340966796875,0.0002815829939208925,0.0009834724478423595,0.0002476877416484058
1782952664680337700,9.223337646484374,-0.0010942083317786455,0.0014648106880486012,0.00043651950545609
1782952664690264600,9.2332646484375,-0.0007522585219703615,-0.0011911597102880478,-0.0012343478156253695
1782952664700192800,9.24319287109375,0.0014107259921729565,0.00046370550990104675,0.000572945864405483
1782952664710119700,9.25311962890625,0.00014172971714287996,0.00225787702947855,0.00047707214253023267
1782952664720047600,9.263047607421875,0.0012064567999914289,0.0019658515229821205,0.001401789952069521
1782952664729974800,9.272974853515626,-0.0011776050087064505,0.0006103022024035454,0.0014513246715068817
1782952664739902700,9.28290283203125,-0.0012636268511414528,0.00107522401958704,0.000756489229388535
1782952664749830000,9.292829833984374,-0.0026077241636812687,0.0008997214026749134,-0.0004200953699182719
1782952664759757800,9.3027578125,0.0007226273883134127,-0.0026998217217624187,-0.0004772456013597548
1782952664769684700,9.312684814453124,-0.00040522130439057946,-0.0002760789357125759,-0.00012783886631950736
1782952664779610600,9.322610595703125,0.0016357314307242632,0.0019207065925002098,0.0024867812171578407
1782952664789538600,9.33253857421875,-0.0006391407223418355,-0.002141945529729128,0.002631124574691057
1782952664799465700,9.3424658203125,0.0009505528723821044,-0.0008449610322713852,0.0013121514348313212
1782952664809393700,9.3523935546875,-0.00028515385929495096,0.00014626746997237206,0.001534791779704392
1782952664819320600,9.362320556640626,0.0011451677419245243,-0.00080473767593503,0.001883121905848384
1782952664829248800,9.372248779296875,0.0004540774680208415,0.001367602963000536,-0.0008314379956573248
1782952664839175700,9.38217578125,0.0013666722225025296,-0.0013627589214593172,0.0007517566555179656
1782952664849103600,9.392103515625,-0.002156423404812813,-0.0017182908486574888,-0.001987837255001068
1782952664859031600,9.402031494140624,-0.0012933231191709638,0.0008848286233842373,-0.0006872749654576182
1782952664868958700,9.411958740234375,0.0019125902326777577,-0.0006595384329557419,0.0013220799155533314
1782952664878886700,9.42188671875,0.0007848474779166281,-0.00025594979524612427,-0.0008384413085877895
1782952664888813800,9.431813720703126,0.0008471654728055,-0.002632022136822343,-0.00021792476763948798
1782952664898741800,9.44174169921875,-0.0021365489810705185,-0.0031855949200689793,-0.001294405898079276
1782952664908668700,9.451668701171876,0.00038146981387399137,0.000173183623701334,-0.0012355500366538763
1782952664918596900,9.461596923828125,0.0023761861957609653,0.0011371052823960781,-0.0004059694183524698
1782952664928523800,9.471523681640624,0.0005463281995616853,-0.0006077978760004044,0.00006887217750772834
1782952664938451700,9.48145166015625,0.0010463671060279012,0.0023656669072806835,0.0013290885835886002
1782952664948379000,9.49137890625,0.0011662093456834555,-0.0005329176783561707,-0.0008152888040058315
1782952664958306800,9.501306884765626,0.0009150305413641036,-0.0018633378203958273,-0.002073286334052682
1782952664968234800,9.51123486328125,-0.0005065648583695292,-0.0001818179152905941,-0.0001984208938665688
1782952664978162000,9.521161865234374,0.0022665970027446747,0.0003545153886079788,-0.0009576482698321342
1782952664988089900,9.53108984375,0.0003837421827483922,-0.003100136760622263,-0.0018420841079205275
1782952664998016500,9.5410166015625,0.0014667839277535677,0.0005639889277517796,0.0006590834236703813
1782952665007944700,9.55094482421875,0.001780504360795021,0.00035120220854878426,-0.00035185247543267906
1782952665017871600,9.56087158203125,-0.0005625589401461184,-0.0016907171811908484,0.00021098449360579252
1782952665027799600,9.570799560546876,-0.00020835857139900327,0.0022686044685542583,-0.00037224777042865753
1782952665037726700,9.580726806640625,-0.00017194851534441113,-0.0015353916678577662,-0.0001560528762638569
1782952665047654700,9.590654541015626,-0.0021701182704418898,0.0016351016238331795,-0.0003741657710634172
1782952665057581600,9.60058154296875,0.0001331254024989903,-0.0006473525427281857,-0.0026583182625472546
1782952665067509800,9.610509765625,0.001958722248673439,-0.0006513469852507114,0.0013952793087810278
1782952665077437700,9.620437744140625,-0.0004285491304472089,-0.0014056568033993244,-0.0016670820768922567
1782952665087364600,9.630364501953125,0.0016377975698560476,0.0033827065490186214,-0.0009991612751036882
1782952665097292500,9.64029248046875,-0.0019919259939342737,-0.0009669363498687744,-0.0004879687912762165
1782952665107219700,9.6502197265625,-0.0009700710070319474,0.00001470465213060379,-0.00341984280385077
1782952665117147600,9.660147705078124,-0.000297471706289798,0.0022080489434301853,0.0018383123679086566
1782952665127074600,9.670074462890625,0.0012543522752821445,-0.002029306720942259,0.0004992750473320484
1782952665137002500,9.68000244140625,-0.0014592752559110522,-0.0008993525989353657,0.0028595207259058952
1782952665146931700,9.689931640625,-0.0006251732120290399,-0.0021947140339761972,0.0028840219601988792
1782952665156859600,9.699859619140625,-0.00017024815315380692,-0.0007198150269687176,0.0001651578932069242
1782952665166786600,9.70978662109375,-0.0012642745859920979,0.0004059034399688244,-0.0006926463101990521
1782952665176714800,9.71971484375,0.0012881059665232897,0.0010127783752977848,-0.0008370584109798074
1782952665186642700,9.729642578125,0.00015839299885556102,0.00027694692835211754,-0.0043556266464293
1782952665196569600,9.739569580078125,0.0004789252707269043,-0.0005747112445533276,0.000757509667892009
1782952665206497800,9.749497802734375,-0.00003107008524239063,-0.0003592614084482193,-0.002033483237028122
1782952665216424700,9.7594248046875,-0.0010593009646981955,0.0006177141331136227,0.0032934588380157948
1782952665226352600,9.7693525390625,0.0010999900987371802,0.00020545721054077148,-0.0011934349313378334
1782952665236279600,9.779279541015624,0.0013302433071658015,-0.001961570931598544,0.0006275603082031012
1782952665246207500,9.78920751953125,-0.00044262304436415434,-0.0011245394125580788,0.0017908290028572083
1782952665256134400,9.799134521484374,-0.00247605936601758,0.0007856832817196846,0.0005216441350057721
1782952665266062600,9.8090625,-0.0022361082956194878,0.0016408246010541916,-0.0021585612557828426
1782952665275989500,9.818989501953125,0.002578393090516329,-0.0009872703813016415,-0.0023278440348803997
1782952665285917400,9.82891748046875,0.001576511887833476,0.0006164852529764175,-0.001754731871187687
1782952665295845600,9.838845703125,-0.0004810200189240277,-0.0011065253056585789,-0.0006685284897685051
1782952665305772500,9.8487724609375,-0.00033427978632971644,-0.002935584168881178,-0.0017915836069732904
1782952665315700500,9.858700439453125,-0.00031496776500716805,-0.000521625392138958,-0.00018923403695225716
1782952665325627600,9.868627685546874,0.0012826626189053059,-0.0011815568432211876,0.00025471491971984506
1782952665335555600,9.8785556640625,0.0008873747428879142,0.000867821741849184,-0.0005774511955678463
1782952665345482500,9.888482421875,-0.0016370357479900122,-0.0003929189406335354,0.00021936662960797548
1782952665355410700,9.89841064453125,-0.001385539653711021,0.002158723771572113,-0.00032164467847906053
1782952665365337600,9.908337646484375,-0.0015096428105607629,0.0006772074848413467,0.00010206428123638034
1782952665375265500,9.918265625,-0.000952360569499433,0.0019400273449718952,0.000558194937184453
1782952665385192700,9.928192626953125,-0.0025148370768874884,0.000905921682715416,-0.0012900388101115823
1782952665395120600,9.93812060546875,-0.0003471952513791621,-0.0010682945139706135,-0.0006957244477234781
1782952665405048600,9.948048583984376,-0.0004499933565966785,0.001226817723363638,0.0027392206247895956
1782952665414975700,9.957975830078125,0.0021664006635546684,0.001520758494734764,-0.0013043440412729979
1782952665424903700,9.967903564453126,0.0009064592886716127,0.0005199424922466278,0.0017609545029699802
1782952665434830600,9.97783056640625,-0.0026619245763868093,0.0018040924333035946,0.003611600724980235
1782952665444758500,9.987758544921874,-0.0011324712540954351,0.00001684483140707016,0.0005439054220914841
1782952665454685700,9.997685791015625,0.0009062212193384767,-0.002632809802889824,0.0008883762639015913
1782952665464613600,10.007613525390624,0.0015102261677384377,-0.0010343804024159908,0.001771480543538928
1782952665474540500,10.01754052734375,-0.0011570292990654707,-0.00007715774700045586,-0.002036584774032235
1782952665484468700,10.02746875,-0.00009416165994480252,0.002506640739738941,0.0001754367840476334
1782952665494396700,10.037396728515626,0.00043604703387245536,-0.00020694686099886894,0.0018379453103989363
1782952665504323600,10.047323486328125,-0.004042590968310833,0.00030517904087901115,-0.0008526461897417903
1782952665514251500,10.05725146484375,-0.0016988484421744943,-0.0021060581784695387,0.0016453275457024574
1782952665524178400,10.067178466796875,-0.002109773922711611,0.00009291386231780052,-0.002118251519277692
1782952665534106400,10.0771064453125,0.000867649563588202,-0.0008454984053969383,-0.00013651937479153275
1782952665544033500,10.087033447265625,0.0016663316637277603,0.000024023931473493576,0.0010435273870825768
1782952665553961500,10.09696142578125,0.000264802947640419,0.0020206416957080364,-0.0012334907660260797
1782952665563888600,10.106888671875,-0.00006809219485148787,-0.00036768103018403053,-0.0011743686627596617
1782952665573816600,10.116816650390625,0.0003418939304538071,0.0012400769628584385,-0.0008961998391896486
1782952665583744500,10.12674462890625,0.0008830482256598771,0.000036061741411685944,-0.0021425592713057995
1782952665593671700,10.136671630859375,-0.0015555417630821466,-0.00027175014838576317,0.001134165097028017
1782952665603599600,10.146599609375,-0.0005539269768632948,-0.0009937332943081856,-0.0017772025894373655
1782952665613526500,10.156526611328125,-0.000571009295526892,0.0006027775816619396,0.0005235347198322415
1782952665623454500,10.166454345703125,-0.0003704733098857105,-0.0009021749719977379,-0.0023859688080847263
1782952665633381600,10.176381591796876,-0.0015302799874916673,0.00303914537653327,0.00039958697743713856
1782952665643309600,10.1863095703125,-0.0018224286613985896,-0.000983559526503086,0.0006262219976633787
1782952665653236700,10.19623681640625,-0.0008061111439019442,0.0020060394890606403,-0.000402482517529279
1782952665663164700,10.20616455078125,0.002767318394035101,-0.00013993540778756142,0.00044200586853548884
1782952665673091600,10.216091552734374,-0.0001991656026802957,0.0007418980821967125,-0.0001646932796575129
1782952665683019500,10.22601953125,-0.0006284672417677939,-0.000009646173566579819,0.0006512993131764233
1782952665692947700,10.23594775390625,-0.0008571235812269151,0.0005609318614006042,-0.000497847911901772
1782952665702874600,10.24587451171875,0.0009783270070329309,-0.00010858708992600441,-0.00024298339849337935
1782952665712802600,10.255802490234375,0.00051919836550951,-0.001561078941449523,-0.0005831990856677294
1782952665722729700,10.265729736328124,-0.0006009272183291614,-0.0007842350751161575,-0.0006748118903487921
1782952665732657700,10.27565771484375,0.0031973756849765778,0.0008951849304139614,-0.0018420922569930553
1782952665742584600,10.28558447265625,0.0005933368229307234,-0.00009178230538964272,-0.0005177021957933903
1782952665752512800,10.2955126953125,-0.0017223561881110072,0.0000206860713660717,-0.0007810387178324163
1782952665762439400,10.305439453125,-0.00228401692584157,0.0017565349116921425,-0.0009008809574879706
1782952665772367400,10.315367431640626,0.00010735256364569068,-0.0014578495174646378,0.001874016597867012
1782952665782294500,10.32529443359375,-0.0009147686650976539,0.0006010401993989944,-0.000006175017915666103
1782952665792222500,10.335222412109376,-0.00010183901758864522,0.0004440988413989544,-0.0029034162871539593
1782952665802150400,10.345150390625,0.0019293539226055145,-0.0013186472933739424,-0.002224576659500599
1782952665812077600,10.35507763671875,-0.0004529228899627924,0.0004913536831736565,0.0016904622316360474
1782952665822005500,10.365005615234375,-0.00005051924381405115,-0.0008684559725224972,-0.0020427568815648556
1782952665831932700,10.3749326171875,-0.00231652962975204,0.00013676844537258148,0.0002440774696879089
1782952665841860600,10.384860595703126,-0.000023814267478883266,0.00015354622155427933,0.0006211810396052897
1782952665851787500,10.39478759765625,-0.0034853178076446056,0.0010569714941084385,-0.0008918707026168704
1782952665861715500,10.404715576171874,0.0009096968569792807,-0.0005142935551702976,-0.001488418783992529
1782952665871642600,10.414642578125,0.0009852803777903318,0.0006704502739012241,-0.0005083914729766548
1782952665881570600,10.424570556640624,0.0008172348607331514,0.0009396960958838463,-0.00005378987407311797
1782952665891497700,10.434497802734375,0.0008964473963715136,0.0005132677033543587,-0.0028667068108916283
1782952665901425700,10.44442578125,0.003292226931080222,-0.0009056646376848221,0.0013014067662879825
1782952665911353600,10.454353515625,-0.0020621102303266525,0.0010643573477864265,-0.002287688199430704
1782952665921280500,10.464280517578125,0.0020996113307774067,0.0008896538056433201,-0.001350255450233817
1782952665931208700,10.474208740234374,0.0013275210512802005,-0.0008675893768668175,0.0009104220662266016
1782952665941135600,10.484135498046875,0.0020977072417736053,0.00008236011490225792,-0.001530631328932941
1782952665951063600,10.4940634765625,0.0023250142112374306,0.0016128793358802795,0.0015407198807224631
1782952665960990700,10.50399072265625,-0.0017413663445040584,-0.0019890458788722754,0.002336472272872925
1782952665970918700,10.513918701171875,-0.0006580720655620098,0.000612279400229454,0.0030369909945875406
1782952665980845600,10.523845458984376,-0.0006804425502195954,-0.001229296438395977,-0.0008339136838912964
1782952665990773800,10.533773681640625,0.0021918173879384995,0.00022255443036556244,0.00018832372734323144
1782952666000700400,10.543700439453126,-0.00009983265772461891,-0.0004080822691321373,-0.0028370271902531385
1782952666010628600,10.553628662109375,-0.000754945445805788,0.0025753057561814785,-0.0033838357776403427
1782952666020556800,10.563556884765624,0.000622707768343389,0.00009563658386468887,0.001789088360965252
1782952666030483500,10.5734833984375,-0.0014971017371863127,0.0011645257472991943,0.001431864220649004
1782952666040411400,10.583411376953125,-0.0008227892685681581,0.002262813039124012,0.0013333272654563189
1782952666050338600,10.593338623046876,0.0005693347193300724,-0.00229514273814857,-0.0010906507959589362
1782952666060266500,10.6032666015625,0.002010637428611517,0.0015595164149999619,0.00021802651463076472
1782952666070193400,10.613193359375,-0.0022304661106318235,0.0006360015831887722,-0.000897409743629396
1782952666080121300,10.623121337890625,0.00035679491702467203,-0.0016194293275475502,0.0013633477501571178
1782952666090048300,10.63304833984375,0.00035221449797973037,-0.0020272214896976948,0.0007714763632975519
1782952666099976200,10.64297607421875,-0.0037133670412003994,0.0010577845387160778,-0.0005228199879638851
1782952666109903400,10.6529033203125,0.0010733319213613868,-0.00042170239612460136,-0.0013565649278461933
1782952666119831300,10.662831298828126,-0.00013387901708483696,-0.0010584639385342598,0.0008655767305754125
1782952666129759200,10.67275927734375,0.0003944761410821229,0.0005410467274487019,-0.00020487775327637792
1782952666139686400,10.682686279296876,0.00038595404475927353,-0.001457655569538474,-0.00041659906855784357
1782952666149614300,10.6926142578125,-0.0011135598178952932,-0.0007143113762140274,0.0006076625431887805
1782952666159541200,10.702541259765624,-0.001451781252399087,0.0017073010094463825,0.001385838259011507
1782952666169469400,10.712469482421875,0.0018342550611123443,0.0018241549842059612,0.0015670906286686659
1782952666179396000,10.72239599609375,0.0007322390447370708,0.0003849826753139496,-0.0015911522787064314
1782952666189324000,10.732323974609375,-0.000697536685038358,-0.0018676631152629852,-0.0021439804695546627
1782952666199251200,10.742251220703125,-0.0005081858835183084,0.0002109343186020851,0.0011226530186831951
1782952666209179100,10.75217919921875,0.002483957214280963,-0.0017924194689840078,-0.00031960796331986785
1782952666219106300,10.762106201171875,0.0015145664801821113,-0.0021596692968159914,-0.00018884678138419986
1782952666229034200,10.7720341796875,-0.001032947446219623,0.00011788122355937958,-0.0010349472286179662
1782952666238962200,10.781962158203125,0.0019010570831596851,0.00011654989793896675,0.001735006575472653
1782952666248889000,10.79188916015625,0.0013951289001852274,-0.0038301574531942606,0.000056188320741057396
1782952666258817300,10.8018173828125,0.0008081681444309652,0.00034061912447214127,-0.0002253078273497522
1782952666268744200,10.811744140625,0.0013041895581409335,-0.0035567113664001226,-0.0011574395466595888
1782952666278672100,10.821672119140626,0.0009718270157463849,-0.0009502756875008345,-0.0026773056015372276
1782952666288599300,10.831599365234375,-0.0009156232117675245,0.0008000447414815426,0.0021278690546751022
1782952666298527200,10.84152734375,-0.0023670459631830454,0.001010434702038765,0.0009646001853980124
1782952666308454400,10.851454345703125,0.0006445288308896124,-0.0002333647571504116,-0.0008684165659360588
1782952666318382300,10.86138232421875,-0.0007893171277828515,0.0004603886045515537,-0.0000905072083696723
1782952666328309200,10.871309326171875,0.0011367816478013992,-0.0006754114292562008,-0.0007776030106469989
1782952666338237200,10.8812373046875,-0.0003948022495023906,-0.0038877162151038647,-0.00005029374733567238
1782952666348165400,10.891165283203126,0.0020471024326980114,0.001367457676678896,-0.0029065213166177273
1782952666358092300,10.90109228515625,0.0015802504494786263,-0.00006692111492156982,-0.0029406100511550903
1782952666368020200,10.911020263671874,5.711335688829422e-7,0.0010993140749633312,0.00015333032933995128
1782952666377947400,10.920947509765625,-0.0007613591733388603,-0.0008242870680987835,0.0016518909251317382
1782952666387875300,10.930875244140625,0.0012749480083584785,-0.000135054811835289,0.000873115670401603
1782952666397802200,10.94080224609375,-0.0008638366707600653,-0.0020836899057030678,0.0010257146786898375
1782952666407730400,10.95073046875,0.0007289560744538903,0.0008338363841176033,0.0025670898612588644
1782952666417657000,10.960656982421876,0.0010418775491416454,-0.0006546047516167164,-0.000653470866382122
1782952666427585300,10.970585205078125,-0.0007542864768765867,0.0009792130440473557,-0.001499722246080637
1782952666437512200,10.98051220703125,0.00027262838557362556,-0.0007569016888737679,0.000395116803701967
1782952666447440100,10.990440185546875,-0.00207668193615973,0.0031132702715694904,0.0007849562680348754
1782952666457368000,11.0003681640625,-0.001785332104191184,-0.0006258082576096058,0.00018627761164680123
1782952666467295200,11.010295166015625,0.001113833743147552,0.0019235378131270409,-0.0018650523852556944
1782952666477223200,11.02022314453125,-0.0009655624744482338,0.0012630741111934185,0.0015943937469273806
1782952666487150000,11.030150146484376,0.0008796871406957507,-0.001918293535709381,-0.0001933860476128757
1782952666497078300,11.040078369140625,-0.001791197108104825,0.003650642465800047,-0.000025606888812035322
1782952666507005200,11.050005126953126,0.0017088062595576048,0.004016956314444542,0.0008416500058956444
1782952666516933000,11.05993310546875,-0.0010390433017164469,0.0025873715057969093,0.0014533780049532652
1782952666526860300,11.0698603515625,-0.0004406869993545115,-0.0008710059337317944,0.0004956426564604044
1782952666536788200,11.079788330078125,0.00046558669419027865,-0.006002118345350027,-0.0007272809161804616
1782952666546715100,11.089715087890625,0.0013141364324837923,-0.006878348998725414,-0.004115545190870762
1782952666556643300,11.099643310546876,0.0005266396910883486,-0.0038308934308588505,-0.004325136076658964
1782952666566571300,11.1095712890625,-0.0009321958059445024,-0.0017370192799717188,-0.00013878068421036005
1782952666576498200,11.119498291015624,0.0015224397648125887,0.0018968642689287663,-0.0013539810897782445
1782952666586426400,11.12942626953125,0.0022323601879179478,-0.002663151826709509,0.0018976712599396706
