time,seconds_elapsed,z,y,x
1782952655520912400,0.063912353515625,0.0006215817993506789,0.002560629276558757,0.0005448827287182212
1782952655530839600,0.073839599609375,-0.000046339002437889576,0.005014998838305473,0.0011640676530078053
1782952655540767500,0.083767578125,-0.0007808388327248394,0.004246943164616823,-0.0007880293414928019
1782952655550695400,0.0936953125,-0.001996838254854083,0.004481301177293062,0.00032410668791271746
1782952655560622300,0.103622314453125,-0.0020117517560720444,0.006000900641083717,0.0021555626299232244
1782952655570550500,0.113550537109375,0.001312139444053173,0.00683100800961256,0.001332645770162344
1782952655580477400,0.1234775390625,-0.0021430456545203924,0.005664543714374304,0.00006657902849838138
1782952655590405400,0.1334052734375,-0.0028810077346861362,0.003492203075438738,0.00019041601626668125
1782952655600333600,0.14333349609375,-0.0037092508282512426,0.0016114787431433797,0.0018935075495392084
1782952655610260500,0.153260498046875,-0.0013350426452234387,0.006118612363934517,-0.00031425300403498113
1782952655620188400,0.1631884765625,-0.0010900318156927824,0.005310875829309225,0.0024794030468910933
1782952655630115600,0.173115478515625,-0.0006072007236070931,0.0056890444830060005,0.0008439557277597487
1782952655640043500,0.18304345703125,-0.001107076066546142,0.0049377670511603355,0.0015646071406081319
1782952655649971500,0.192971435546875,0.0004269047058187425,0.003043726785108447,0.002101234160363674
1782952655659898600,0.202898681640625,-0.00009507485083304346,0.0034493261482566595,0.0036615801509469748
1782952655669826600,0.21282666015625,0.0005499427788890898,0.00293373828753829,0.0016413062112405896
1782952655679753500,0.22275341796875,-0.0004652542411349714,0.006390254944562912,0.0005424859118647873
1782952655689681400,0.232681396484375,0.00035420042695477605,0.004768656101077795,-0.0014543522847816348
1782952655699609600,0.242609619140625,-0.0030535804107785225,0.0059811933897435665,-0.00009906959166983142
1782952655709536500,0.25253662109375,0.00031318774563260376,0.0022248048335313797,-0.002603239845484495
1782952655719464400,0.26246435546875,0.00170761882327497,0.004348942078649998,0.0007933556917123497
1782952655729391600,0.2723916015625,-0.0022066952660679817,0.006295446306467056,0.0015981629258021712
1782952655739319600,0.282319580078125,0.0003376888344064355,0.0024881914723664522,0.0013880395563319325
1782952655749246700,0.292246826171875,0.0005259743193164468,0.003510579001158476,0.0023545008152723312
1782952655759174700,0.302174560546875,-0.0013547500129789114,0.005848567932844162,-0.001731853699311614
1782952655769102600,0.3121025390625,-0.0016285229939967394,0.003981425892561674,0.001776062068529427
1782952655779029500,0.322029541015625,-0.0012572783743962646,0.0063005066476762295,0.0006804376607760787
1782952655788957700,0.331957763671875,-0.0007858988246880472,0.005167331546545029,0.0001478054327890277
1782952655798884400,0.34188427734375,-0.0013318468118086457,0.004890096373856068,0.0006865629111416638
1782952655808812500,0.3518125,-0.004662395920604467,0.005921272095292807,0.00023462448734790087
1782952655818740500,0.361740478515625,0.0011976235546171665,0.0038802255876362324,0.002418682910501957
1782952655828667400,0.37166748046875,-0.0033744913525879383,0.007382016163319349,0.00024154871061909944
1782952655838595300,0.38159521484375,-0.000824248360004276,0.00532658863812685,-0.0015704660909250379
1782952655848522500,0.3915224609375,0.002153431996703148,0.00506985979154706,-0.0002002697146963328
1782952655858450400,0.401450439453125,-0.0003656520275399089,0.005398227367550135,-0.002281263703480363
1782952655868378400,0.41137841796875,0.0009808422764763236,0.004177967086434364,0.00267754215747118
1782952655878305500,0.421305419921875,0.0003009371866937727,0.006777212489396334,0.0011414308100938797
1782952655888233500,0.4312333984375,-0.0035401401109993458,0.0036887445021420717,-0.0021022993605583906
1782952655898160400,0.441160400390625,-0.002261023735627532,0.006185458041727543,-0.0004548678989522159
1782952655908088300,0.45108837890625,-0.00046339002437889576,0.002653839997947216,0.0008711199625395238
1782952655918016500,0.4610166015625,-0.0012277172645553946,0.0035084483679383993,-0.0011270497925579548
1782952655927943400,0.470943359375,-0.0007965514669194818,0.00660570478066802,0.00034221619716845453
1782952655937871400,0.480871337890625,-0.0019038938917219639,0.004748682491481304,0.002031991956755519
1782952655947798500,0.490798583984375,0.0010570086305961013,0.004472246393561363,0.002807770622894168
1782952655957726500,0.5007265625,0.001535046030767262,0.00660410663112998,-0.0007531419396400452
1782952655967653600,0.510653564453125,-0.002528138691559434,0.004761998075991869,-0.0016000272007659078
1782952655977581600,0.52058154296875,-0.0005946838646195829,0.0038061898667365313,0.002359827049076557
1782952655987509500,0.530509521484375,-0.003085272153839469,0.00544323492795229,0.0003075950953643769
1782952655997436400,0.5404365234375,0.0005110605852678418,0.0032738239970058203,0.0003075950953643769
1782952656007364600,0.550364501953125,0.0017936390358954668,0.005655222572386265,0.0021339908707886934
1782952656017291500,0.56029150390625,-0.0011030812747776508,0.007889081723988056,-0.0003677825443446636
1782952656027219500,0.570219482421875,0.0002913498319685459,0.002846919232979417,0.001109739183448255
1782952656037147600,0.580147705078125,-0.0014612764352932572,0.006827545817941427,-0.0015717976493760943
1782952656047074600,0.590074462890625,-0.002094842493534088,0.005029113497585058,0.0005427522119134665
1782952656057002500,0.60000244140625,0.0003022687742486596,0.0036916739773005247,0.0003480751474853605
1782952656066929700,0.6099296875,0.000431432097684592,0.005805691238492727,0.000996821210719645
1782952656076857600,0.619857666015625,-0.00023036343918647617,0.003135872073471546,0.0022477079182863235
1782952656086785500,0.62978564453125,-0.00256462418474257,0.005559614859521389,-0.00017789915727917105
1782952656096712400,0.63971240234375,-0.0008564725867472589,0.002942793071269989,-0.00027057717670686543
1782952656106640600,0.649640625,-0.0026501116808503866,0.005780390929430723,0.0014682007022202015
1782952656116567300,0.6595673828125,-0.001261273049749434,0.0034346787724643946,0.003751062322407961
1782952656126495500,0.66949560546875,-0.0025363946333527565,0.0046173888258636,0.004009921569377184
1782952656136422400,0.67942236328125,-0.00119575927965343,0.004924184642732143,-0.0011137339752167463
1782952656146350300,0.689350341796875,-0.0010695254895836115,0.006670419592410326,0.00025779398856684566
1782952656156278300,0.6992783203125,0.0001459412305848673,0.003943875432014465,-0.0005320995696820319
1782952656166205400,0.709205322265625,-0.000368847802747041,0.007390005514025688,-0.0015952334506437182
1782952656176133400,0.71913330078125,0.0015310513554140925,0.003459446132183075,0.0011124024167656898
1782952656186060500,0.729060546875,-0.0023582291323691607,0.007396130822598934,0.0010993528412654996
1782952656195988500,0.738988525390625,-0.002123604528605938,0.004598480183631182,0.00039308256236836314
1782952656205916400,0.74891650390625,0.002002697205170989,0.005420331843197346,-0.001487375469878316
1782952656215843300,0.75884326171875,-0.0023971113841980696,0.006129798013716936,0.0006956176948733628
1782952656225771500,0.768771484375,-0.0005518069956451654,0.0037151097785681486,-0.0013920343481004238
1782952656235698400,0.778698486328125,-0.0011014834744855762,0.004793157335370779,0.0016740630380809307
1782952656245626400,0.78862646484375,-0.002138518262654543,0.00592686515301466,0.0007669904152862728
1782952656255554600,0.798554443359375,0.002347842790186405,0.0011520835105329752,-0.0015643407823517919
1782952656265481500,0.8084814453125,0.00017736652807798237,0.003352120751515031,0.0011867046123370528
1782952656275409400,0.818409423828125,-0.0013928331900388002,0.008742092177271843,0.001889246515929699
1782952656285336600,0.828336669921875,0.0007294398383237422,0.0030690268613398075,0.00376064982265234
1782952656295264500,0.838264404296875,0.001243696198798716,0.006028597708791494,0.0015169365797191858
1782952656305192400,0.8481923828125,0.0015038870042189956,0.005598230753093958,-0.0035864789970219135
1782952656315119600,0.85811962890625,-0.0022511701099574566,0.006473079323768616,0.0003608583356253803
1782952656325047600,0.868047607421875,0.0002556634717620909,0.004860801622271538,0.0015446334145963192
1782952656334974500,0.877974365234375,-0.00037523938226513565,0.0025355955585837364,-0.0002311623829882592
1782952656344902400,0.88790234375,-0.0014085458824411035,0.005396629683673382,-0.00003914846820407547
1782952656354829600,0.89782958984375,-0.0002463423879817128,0.004363855812698603,0.0004346278728917241
1782952656364757500,0.907757568359375,-0.0014181332662701607,0.004535097163170576,0.0008886968716979027
1782952656374685400,0.917685546875,-0.001241033081896603,0.0034325483720749617,0.0008902947301976383
1782952656384612600,0.927612548828125,-0.00012223910016473383,0.004293282050639391,0.0016447682864964008
1782952656394540500,0.93754052734375,0.0011459582019597292,0.00433163158595562,0.0021784657146781683
1782952656404467500,0.947467529296875,-0.0026764769572764635,0.004699147772043943,0.00010945591930067167
1782952656414395600,0.957395751953125,-0.001127316034398973,0.004181961994618177,0.0023731428664177656
1782952656424323600,0.967323486328125,-0.003465837799012661,0.006197974551469088,0.0035774242132902145
1782952656434250200,0.977250244140625,0.00026312030968256295,0.006476807873696089,0.001228516222909093
1782952656444178400,0.987178466796875,-0.0028706213925033808,0.005062935408204794,0.00020985709852539003
1782952656454105300,0.997105224609375,-0.002669286448508501,0.002834934974089265,-0.0026434536557644606
1782952656464033300,1.007033203125,0.00018748654110822827,0.004817924462258816,0.0001512675517005846
1782952656473960400,1.01696044921875,-0.002469282830134034,0.005859220866113901,0.0008466189028695226
1782952656483888400,1.026888427734375,-0.00018349179299548268,0.006864830385893583,-0.0004974784678779542
1782952656493816300,1.03681640625,-0.000648479734081775,0.005208876915276051,0.0025939189363271
1782952656503743500,1.046743408203125,0.001701759872958064,0.003913515247404575,0.0008807073463685811
1782952656513671400,1.05667138671875,0.00035499935620464385,0.004473844077438116,-0.0018290589796379209
1782952656523598300,1.066598388671875,-0.003980626817792654,0.0049196574836969376,0.0007965514669194818
1782952656533526500,1.076526611328125,0.0005755090969614685,0.0016367788193747401,0.001449292292818427
1782952656543454500,1.086454345703125,-0.0008372978190891445,0.00430020596832037,0.00008229167724493891
1782952656553381400,1.09638134765625,0.00006338323146337643,0.006873352453112602,0.0009933591354638338
1782952656563309300,1.106309326171875,0.0015273229219019413,0.008280566893517971,0.0000018642127770363004
1782952656573236500,1.116236572265625,-0.0037201696541160345,0.004192880820482969,0.000931041082367301
1782952656583164400,1.126164306640625,-0.002645584288984537,0.006573746912181377,-0.00014940333494450897
1782952656593092400,1.13609228515625,-0.0012522183824330568,0.00598492193967104,0.0011736550368368626
1782952656603019500,1.14601953125,0.0000018642127770363004,0.005030711181461811,0.003448260948061943
1782952656612947500,1.155947509765625,-0.001041562296450138,0.003930825740098953,0.0013054815353825688
1782952656622874600,1.16587451171875,-0.0017845842521637678,0.005052282940596342,0.0009518137667328119
1782952656632802600,1.175802490234375,0.0002545981842558831,0.004007791168987751,0.0005099953268654644
1782952656642729500,1.1857294921875,0.000022903184799361043,0.004791026934981346,0.002644785214215517
1782952656652657400,1.195657470703125,-0.0036874127108603716,0.004970257636159658,-0.0002468750171829015
1782952656662585600,1.205585693359375,0.00010839065362233669,0.005397428758442402,-0.0004069310089107603
1782952656672512500,1.215512451171875,-0.0015670040156692266,0.007470699492841959,-0.0014982944121584296
1782952656682440400,1.2254404296875,0.00019228023302275687,0.006618754006922245,0.0010165285784751177
1782952656692367600,1.23536767578125,-0.0024564997293055058,0.008474444970488548,-0.0004932174342684448
1782952656702295600,1.245295654296875,-0.001213868847116828,0.005518868565559387,0.0000673779723001644
1782952656712222500,1.255222412109375,-0.0026908579748123884,0.005742574110627174,-0.0024551681708544493
1782952656722150700,1.265150634765625,-0.0009763148264028132,0.006314621306955814,0.0011733887949958444
1782952656732078600,1.27507861328125,-0.0003534014686010778,0.0056802560575306416,-0.001621066126972437
1782952656742005200,1.285005126953125,-0.0014436995843425393,0.006789462640881538,-0.0010178601369261742
1782952656751933700,1.29493359375,0.0010034791193902493,0.0037404096219688654,0.0027955202385783195
1782952656761860400,1.3048603515625,-0.00101146858651191,0.004250671248883009,-0.0007819040911272168
1782952656771788300,1.314788330078125,-0.0015712650492787361,0.002642654813826084,-0.0018964370246976614
1782952656781716200,1.32471630859375,-0.00018109494703821838,0.003632019041106105,-0.00024501082953065634
1782952656791643400,1.334643310546875,-0.0017086841398850083,0.006728742737323046,0.0009763148264028132
1782952656801571300,1.3445712890625,-0.0005129248020239174,0.0032842103391885757,0.0008045409340411425
1782952656811498500,1.35449853515625,0.0011709919199347496,0.0059937103651463985,0.0021995047573000193
1782952656821426400,1.364426513671875,-0.0013811152894049883,0.0029385320376604795,0.00042796999332495034
1782952656831353300,1.374353271484375,-0.0022748722694814205,0.0046392264775931835,0.0005864280392415822
1782952656841281500,1.384281494140625,-0.001535312389023602,0.004845088813453913,0.0031366711482405663
1782952656851209500,1.39420947265625,-0.0031883365008980036,0.003355582943186164,-0.00043116576853208244
1782952656861136400,1.404136474609375,-0.000984836951829493,0.005464540328830481,-0.0007637945818714797
1782952656871064300,1.414064208984375,-0.0014271880500018597,0.0012990899849683046,-0.001062334980815649
1782952656880991500,1.423991455078125,-0.002540389308705926,0.003970240708440542,0.0000601874417043291
1782952656890919400,1.43391943359375,0.0002162486780434847,0.0060387179255485535,0.0002695118892006576
1782952656900847400,1.443847412109375,-0.0004996090428903699,0.0006197175825946033,0.0007313040550798178
1782952656910774500,1.4537744140625,0.00002450108149787411,0.0037441381718963385,0.0009358347742818296
1782952656920702500,1.463702392578125,0.0008354336023330688,0.004723649006336927,0.0008663262706249952
1782952656930629400,1.47362939453125,-0.0014511564513668418,0.005835785064846277,0.0008141283178701997
1782952656940557600,1.4835576171875,0.0010487528052181005,0.005860552191734314,0.0012658004416152835
1782952656950484500,1.493484375,-0.00018748654110822827,0.004160656593739986,-0.0007582019316032529
1782952656960412400,1.503412353515625,-0.0013885721564292908,0.004388622939586639,-0.0003174488083459437
1782952656970340600,1.513340576171875,0.00020959076937288046,0.003909253980964422,-0.0015667376574128866
1782952656980267500,1.523267578125,-0.0020839234348386526,0.004818190820515156,0.0012199940392747521
1782952656990195500,1.533195556640625,0.0024535702541470528,0.0027142937760800123,-0.00038242992013692856
1782952657000122600,1.54312255859375,0.0003296993381809443,0.0057039582170546055,0.0032692966051399708
1782952657010050600,1.553050537109375,-0.0015257250051945448,0.0034791536163538694,-0.0005755090969614685
1782952657019978500,1.562978515625,-0.0005009406013414264,0.002545981900766492,0.003745469730347395
1782952657029905700,1.57290576171875,-0.0007542071980424225,0.00299286050722003,-0.00008894957863958552
1782952657039833600,1.58283349609375,-0.0001978728687390685,0.0031313446816056967,0.0023843280505388975
1782952657049760300,1.59276025390625,-0.002441585995256901,0.005845638457685709,0.0022836606949567795
1782952657059688400,1.6026884765625,-0.0005688511882908642,0.004334294702857733,0.0012013519881293178
1782952657069615400,1.612615478515625,0.001457814360037446,0.006742591038346291,0.0010109359864145517
1782952657079543300,1.622543212890625,0.00042104575550183654,0.003168895374983549,-0.0002287655370309949
1782952657089471500,1.632471435546875,-0.0020996362436562777,0.005043228156864643,0.003257312346249819
1782952657099398400,1.6423984375,-0.0021635519806295633,0.003745469730347395,0.0005669869715347886
1782952657109326300,1.652326416015625,-0.0011299792677164078,0.004834169987589121,0.002089249901473522
1782952657119253500,1.66225341796875,0.0006684534018859267,0.0021912488155066967,0.0014170679496601224
1782952657129181400,1.672181396484375,-0.002055161399766803,0.002698581200093031,-0.0004924184759147465
1782952657139108400,1.6821083984375,-0.0010061422362923622,0.006168147549033165,0.001469532260671258
1782952657149036300,1.692036376953125,0.0024546354543417692,0.004803011193871498,-0.000287088769255206
1782952657158964500,1.701964599609375,0.00034940673504024744,0.004992628004401922,0.0003246393462177366
1782952657168891400,1.711891357421875,-0.000752875639591366,0.00501153664663434,-0.00021065604232717305
1782952657178819300,1.7218193359375,0.0009704558760859072,0.00558278476819396,0.001975000137463212
1782952657188746500,1.73174658203125,-0.0007984156836755574,0.004147606901824474,0.0007550061563961208
1782952657198674400,1.74167431640625,-0.0037702370900660753,0.004837632179260254,0.000711064029019326
1782952657208602400,1.751602294921875,-0.0010538127971813083,0.004087153356522322,0.0008372978190891445
1782952657218529500,1.761529541015625,-0.0019491675775498152,0.00512738386169076,0.0007800398743711412
1782952657228457500,1.77145751953125,0.00017310546536464244,0.006718622520565987,-0.00039521310827694833
1782952657238384400,1.78138427734375,-0.0000013315805063029984,0.005565740168094635,-0.0006564692012034357
1782952657248312600,1.7913125,0.00004474110755836591,0.0054877097718417645,0.0019949739798903465
1782952657258239500,1.801239501953125,-0.0008034756756387651,0.003793406533077359,0.002472212305292487
1782952657268167400,1.81116748046875,-0.0014423680258914828,0.004384628497064114,-0.002172074280679226
1782952657278095400,1.821095458984375,-0.000016245283404714428,0.003662112867459655,-0.000010652644050423987
1782952657288022500,1.8310224609375,-0.0015909724170342088,0.00535428524017334,0.001110005541704595
1782952657297950500,1.840950439453125,-0.0014322480419650674,0.0058080879971385,-0.0016330503858625889
1782952657307877600,1.850877685546875,0.00027084347675554454,0.0051865060813724995,-0.0009771138429641724
1782952657317805600,1.8608056640625,-0.0017536915838718414,0.003865312086418271,-0.0020756677258759737
1782952657327733500,1.8707333984375,-0.0018993664998561144,0.005108209326863289,-0.003478354774415493
1782952657337660700,1.88066064453125,0.0033686324022710323,0.004655472002923489,0.0035004590172320604
1782952657347588600,1.890588623046875,0.0012170645641162992,0.006835269276052713,-0.0006434197421185672
1782952657357515500,1.900515625,-0.004065581597387791,0.005662679206579924,0.0022088258992880583
1782952657367443500,1.910443359375,-0.0017251957906410098,0.0044139232486486435,-0.0003736414946615696
1782952657377370400,1.920370361328125,-0.0012564794160425663,0.006176136899739504,0.0010865697404369712
1782952657387298300,1.93029833984375,-0.0002463423879817128,0.0038458709605038166,0.0021078919526189566
1782952657397226500,1.9402265625,0.0009020126308314502,0.002800047630444169,0.00043516053119674325
1782952657407153400,1.9501533203125,0.00012144014181103557,0.005816077347844839,0.0015182681381702423
1782952657417081300,1.960081298828125,-0.004008057527244091,0.003841609926894307,-0.00008894957863958552
1782952657427008500,1.970008544921875,0.001383512164466083,0.006661364808678627,0.0019499665359035134
1782952657436936400,1.9799365234375,0.0012929646763950586,0.004774515051394701,0.0008285093936137855
1782952657446863400,1.98986328125,0.0005320995696820319,0.00245090713724494,0.002511094557121396
1782952657456791300,1.999791259765625,-0.001589108258485794,0.0043595945462584496,0.0015792545164003968
1782952657466719500,2.009719482421875,-0.0009049421059899032,0.0067636300809681416,-0.001540638622827828
1782952657476646400,2.019646484375,0.00045806370326317847,0.0027049726340919733,-0.001418665866367519
1782952657486574300,2.02957421875,-0.0026735474821180105,0.006807305850088596,-0.0001531317684566602
1782952657496501500,2.03950146484375,-0.0013552826130762696,0.0043707797303795815,-0.0021845910232514143
1782952657506429400,2.049429443359375,-0.0010580739472061396,0.002663161139935255,0.0015869776252657175
1782952657516357400,2.059357421875,-0.0009017463307827711,0.004781972151249647,0.002636529505252838
1782952657526284500,2.069284423828125,-0.0015883093001320958,0.006188387516885996,0.0025960493367165327
1782952657536212500,2.07921240234375,0.0018160095205530524,0.003349457634612918,0.0006940197781659663
1782952657546139400,2.089139404296875,-0.0015712650492787361,0.006248041987419128,0.001303084660321474
1782952657556067600,2.099067626953125,-0.0037140443455427885,0.0049068741500377655,-0.00010120012302650139
1782952657565994500,2.108994384765625,0.001133707701228559,0.0018679412314668298,0.0023643544409424067
1782952657575922400,2.11892236328125,-0.003038134193047881,0.0068214209750294685,0.003638144349679351
1782952657585850400,2.128850341796875,-0.000355532014509663,0.0034738273825496435,0.002329200739040971
1782952657595777500,2.138777587890625,-0.000964064325671643,0.003549993736669421,0.004334028344601393
1782952657605705500,2.14870556640625,-0.002793389605358243,0.0068057081662118435,0.0010546117555350065
1782952657615632600,2.158632568359375,0.001350755337625742,0.0051899682730436325,-0.0002492718631401658
1782952657625560600,2.168560546875,-0.0012476909905672073,0.0026996464002877474,0.0018002968281507492
1782952657635487500,2.178487548828125,0.00007456851017195731,0.006556968670338392,-0.0003211772127542645
1782952657645415400,2.18841552734375,0.0012934972764924169,0.003763579297810793,0.003227218519896269
1782952657655343600,2.198343505859375,-0.0013749900972470641,0.005548163317143917,0.0007073355955071747
1782952657665270500,2.2082705078125,-0.0014689996605738997,0.00373028963804245,0.000898550555575639
1782952657675198500,2.218198486328125,-0.0013848437229171395,0.006577474996447563,-0.00011638013529591262
1782952657685125400,2.22812548828125,-0.002567020943388343,0.0054331147111952305,0.0015211976133286953
1782952657695053600,2.238053466796875,0.0003075950953643769,0.0018354506464675069,-0.000371777277905494
1782952657704980500,2.24798046875,0.00011824435205198824,0.0067599015310406685,-0.0012221246724948287
1782952657714908400,2.257908447265625,-0.002570749493315816,0.007408647798001766,-0.00036964676110073924
1782952657724836400,2.26783642578125,-0.0022690133191645145,0.004041346721351147,-0.003162237349897623
1782952657734763300,2.27776318359375,-0.0023782027419656515,0.002517486223950982,-0.0004410194815136492
1782952657744691500,2.28769140625,-0.0020932445768266916,0.004606203176081181,0.001799764228053391
1782952657754618400,2.297618408203125,-0.0005153216770850122,0.006798251066356897,0.0008311725687235594
1782952657764546300,2.30754638671875,-0.0023931164760142565,0.004318848252296448,-0.0006314354832284153
1782952657774474500,2.317474609375,-0.000147272803587839,0.003990214318037033,0.002004561247304082
1782952657784401400,2.3274013671875,-0.0008799084462225437,0.005679191090166569,0.001793905277736485
1782952657794329300,2.337329345703125,-0.000952080066781491,0.00236249016597867,0.0014330470003187656
1782952657804256500,2.347256591796875,-0.0036602485924959183,0.0025486452504992485,-0.004520183429121971
1782952657814184400,2.357184326171875,-0.0006444850005209446,0.005288505461066961,0.0019739349372684956
1782952657824111400,2.367111328125,0.0008460862445645034,0.002630137838423252,0.0007989483419805765
1782952657834039600,2.37703955078125,0.002365952357649803,0.0024173513520509005,0.002671150490641594
1782952657843967500,2.386967529296875,0.0020221380982548,0.0015952334506437182,-0.0006178533658385277
1782952657853894400,2.396894287109375,-0.002439189236611128,0.005601959303021431,-0.0005432848702184856
1782952657863822300,2.406822265625,-0.0008652610122226179,0.0023875238839536905,-0.00040480049210600555
1782952657873749500,2.41674951171875,-0.0009022789890877903,0.0028722193092107773,0.0024351945612579584
1782952657883677400,2.426677490234375,-0.0022085595410317183,0.0055817193351686,0.0035340148024260998
1782952657893604600,2.4366044921875,-0.002526008291170001,0.0037148434203118086,0.0014016216155141592
1782952657903532500,2.446532470703125,-0.0020242687314748764,0.003888747887685895,-0.00012783173588104546
1782952657913460500,2.45646044921875,0.0005962817813269794,0.004367318004369736,-0.0008673915872350335
1782952657923387600,2.4663876953125,0.0014253237750381231,0.004821653012186289,0.0008809737046249211
1782952657933315600,2.476315673828125,-0.0007592672482132912,0.003254116512835026,-0.0005691175465472043
1782952657943242500,2.486242431640625,-0.0005733785801567137,0.002694852650165558,0.0001304948964389041
1782952657953170400,2.49617041015625,-0.0034876756835728884,0.007607585750520229,0.0014077469240874052
1782952657963097600,2.50609765625,-0.001440237509086728,0.008189752697944641,0.000702009245287627
1782952657973025500,2.516025634765625,-0.001564873498864472,0.00552233075723052,-0.0005318332696333528
1782952657982953500,2.525953369140625,-0.0016357135027647018,0.006870156619697809,0.0017291904659941792
1782952657992880400,2.53588037109375,-0.0036213663406670094,0.008564193733036518,0.002956907730549574
1782952658002808600,2.54580859375,-0.001583249308168888,0.0049074068665504456,-0.002109489869326353
1782952658012735500,2.555735595703125,0.000731836655177176,0.002728408435359597,0.0005094627267681062
1782952658022663400,2.565663330078125,-0.003754258155822754,0.0060179452411830425,-0.001386707997880876
1782952658032591400,2.57559130859375,-0.0012394351651892066,0.008433965034782887,-0.00016218650853261352
1782952658042518300,2.585518310546875,-0.001032241270877421,0.0041468082927167416,0.0020008329302072525
1782952658052446500,2.595446533203125,-0.0009230516152456403,0.003403519745916128,0.0010580739472061396
1782952658062373400,2.605373291015625,0.0013374395202845335,0.0021992383990436792,0.0016450346447527409
1782952658072301800,2.6153017578125,-0.0003073287953156978,0.003694869577884674,-0.0011411645682528615
1782952658082229000,2.62522900390625,0.0014530207263305783,0.006711698602885008,0.0008431567694060504
1782952658092157000,2.635156982421875,0.0006183860241435468,0.003394198836758733,0.0007360977469943464
1782952658102084900,2.6450849609375,-0.0005640574963763356,0.0013424995122477412,0.003373426152393222
1782952658112012000,2.655011962890625,0.0011347729014232755,0.0024349282030016184,-0.0005201153689995408
1782952658121940000,2.66493994140625,-0.0015877765836194158,0.006368150934576988,0.0009435579413548112
1782952658131867000,2.674866943359375,-0.0005515406373888254,0.004510063212364912,0.0013257216196507215
1782952658141794800,2.684794921875,-0.0021222729701548815,0.0037502634804695845,0.0014823154779151082
1782952658151722000,2.694721923828125,-0.001079645473510027,0.0036884781438857317,0.0009209210984408855
1782952658161650000,2.70464990234375,-0.0026900589000433683,0.004237355664372444,-0.0006559365428984165
1782952658171577900,2.714577880859375,0.00003861583536490798,0.0027417242527008057,-0.0012708604335784912
1782952658181504800,2.7245048828125,-0.0002511360798962414,0.004711132030934095,0.000648479734081775
1782952658191433000,2.734432861328125,0.0012399677652865648,0.005268265027552843,0.0010554107138887048
1782952658201360000,2.74435986328125,-0.0008298410102725029,0.007358846720308065,-0.0026378610637038946
1782952658211287800,2.754287841796875,-0.004010454285889864,0.003946272190660238,-0.00036485306918621063
1782952658221214700,2.764214599609375,0.0013371731620281935,0.002728142309933901,-0.00014407701382879168
1782952658231142700,2.774142578125,-0.0011550129856914282,0.003863980295136571,0.0005137237603776157
1782952658241070800,2.78407080078125,0.0010346380295231938,0.0038834214210510254,0.0014745922526344657
1782952658250997800,2.793997802734375,-0.0004442152567207813,0.0036016590893268585,-0.00033902039285749197
1782952658260925700,2.80392578125,-0.0006945523782633245,0.006685599684715271,-0.0007909588166512549
1782952658270852900,2.813852783203125,-0.0025899240281432867,0.00478463526815176,0.00126713200006634
1782952658280780800,2.82378076171875,0.0004982774262316525,0.0038983351550996304,0.0022977753542363644
1782952658290707700,2.833707763671875,-0.00101146858651191,0.00387303507886827,0.0007179882377386093
1782952658300636000,2.843635986328125,-0.0026546388398855925,0.006615292280912399,0.00037630466977134347
1782952658310563800,2.853563720703125,-0.0005424859118647873,0.002171807922422886,0.0018442390719428658
1782952658320490800,2.86349072265625,-0.002656236756592989,0.007766310125589371,-0.0013741911388933659
1782952658330419000,2.8734189453125,-0.0005054679932072759,0.006128466222435236,0.0006468818173743784
1782952658340345900,2.883345947265625,-0.0014892396284267306,0.007281348574906588,0.0009981527691707015
1782952658350273800,2.893273681640625,-0.0022450448013842106,0.0035065840929746628,-0.0010165285784751177
1782952658360201700,2.90320166015625,0.000070307454734575,0.005194761790335178,0.0004892227007076144
1782952658370129000,2.91312890625,-0.000835966260638088,0.004072772338986397,0.003034672001376748
1782952658380056800,2.923056884765625,-0.00027324032271280885,0.004975583869963884,0.0005853627808392048
1782952658389984000,2.93298388671875,-0.0015624766238033772,0.003233876544982195,0.0020991035271435976
1782952658399912000,2.942911865234375,-0.0012202603975310922,0.0015523566398769617,0.0010104032699018717
1782952658409838800,2.9528388671875,-0.005458681378513575,0.005515939090400934,-0.001062068622559309
1782952658419766800,2.962766845703125,-0.0009267800487577915,0.004235491156578064,-0.0015765913994982839
1782952658429695000,2.972695068359375,-0.0036448021419346333,0.007614243775606155,-0.0033787523861974478
1782952658439622000,2.982621826171875,-0.002365952357649803,0.006628075148910284,-0.000362988852430135
1782952658449549800,2.9925498046875,-0.001597363967448473,0.004418450407683849,0.0015712650492787361
1782952658459477000,3.00247705078125,-0.0024895230308175087,0.0062789348885416985,0.001463673310354352
1782952658469405000,3.012405029296875,-0.0007986819837242365,0.0020868529099971056,0.00001864212754298933
1782952658479331800,3.022331787109375,-0.0005573995877057314,0.006685866042971611,0.0008945558220148087
1782952658489259800,3.032259765625,0.0026575683150440454,0.004251203965395689,0.002204830991104245
1782952658499188000,3.04218798828125,-0.001936384360305965,0.004988633096218109,0.0020447750575840473
1782952658509114600,3.052114501953125,0.00010173275222769007,0.004490089602768421,0.00033156355493701994
1782952658519042800,3.062042724609375,-0.0024921861477196217,0.004544417839497328,0.0029888655990362167
1782952658528969700,3.0719697265625,-0.0009054747642949224,0.004313788376748562,0.00253426400013268
1782952658538897700,3.081897705078125,0.0004189152386970818,0.006686664652079344,0.001181378262117505
1782952658548824800,3.091824951171875,-0.0012500877492129803,0.00458569684997201,-0.0010921623324975371
1782952658558752800,3.101752685546875,-0.0006282397080212831,0.004116448108106852,-0.0003936151915695518
1782952658568680700,3.1116806640625,-0.0023782027419656515,0.004941761493682861,0.0009068063227459788
1782952658578607900,3.12160791015625,-0.0006205165409483016,0.00566986994817853,-0.0007574030314572155
1782952658588535800,3.131535888671875,0.00005379585491027683,0.004138552118092775,0.0004370247188489884
1782952658598462700,3.141462646484375,0.0011467571603134274,0.0038040592335164547,0.0008165251929312944
1782952658608391000,3.151390869140625,-0.0001531317684566602,0.005338572897017002,0.00126713200006634
1782952658618317800,3.16131787109375,-0.0011326423846185207,0.0027539748698472977,0.0002873550693038851
1782952658628245800,3.171245849609375,-0.0010247844038531184,0.005691441707313061,0.0017813884187489748
1782952658638173700,3.181173583984375,0.000978711643256247,0.0031374699901789427,-0.0016671388875693083
1782952658648100900,3.191100830078125,-0.0010458233300596476,0.0030802120454609394,-0.00031558459158986807
1782952658658028800,3.20102880859375,-0.0003110571997240186,0.005545233841985464,-0.00014807176194153726
1782952658667956000,3.2109560546875,-0.0013006879016757011,0.004880508873611689,0.00024288028362207115
1782952658677884000,3.2208837890625,-0.0014559502014890313,0.006369482260197401,0.0010721886064857244
1782952658687810800,3.230810791015625,-0.0015845808666199446,0.006156429648399353,-0.0008064051507972181
1782952658697739000,3.240739013671875,-0.00046365635353140533,0.005462143570184708,0.0009760485263541341
1782952658707667000,3.2506669921875,-0.0019465044606477022,0.006249640136957169,0.0015925703337416053
1782952658717593900,3.26059375,0.0007163903210312128,0.004310326185077429,-0.00015899071877356619
1782952658727521800,3.270521728515625,-0.002499110298231244,0.004990763962268829,0.0026024410035461187
1782952658737449000,3.280448974609375,-0.000999750685878098,0.002998719457536936,0.0028280108235776424
1782952658747377000,3.290376953125,-0.00009853696246864274,0.005431250669062138,0.0036392095498740673
1782952658757304000,3.300303955078125,-0.0022237394005060196,0.008843292482197285,0.0015443670563399792
1782952658767232000,3.31023193359375,-0.0012178635224699974,0.004349208436906338,0.00020373181905597448
1782952658777160000,3.320159912109375,-0.0014298511669039726,0.0059742690064013,-0.0006114617572166026
1782952658787086800,3.3300869140625,-0.000297475082334131,0.0029923277907073498,0.0005760417552664876
1782952658797015000,3.34001513671875,-0.0019805929623544216,0.005343899130821228,0.000013315805517777335
1782952658806941700,3.349941650390625,-0.0021020330023020506,0.004545749630779028,0.0020865867845714092
1782952658816869600,3.35986962890625,-0.0035545211285352707,0.004508731886744499,0.002438922878354788
1782952658826796800,3.369796875,-0.004224039614200592,0.004116714466363192,0.0026024410035461187
1782952658836724700,3.379724853515625,-0.0003126551164314151,0.003858654061332345,0.0023039006628096104
1782952658846652700,3.389652587890625,-0.00013156015484128147,0.006420881487429142,0.0012266519479453564
1782952658856579800,3.399579833984375,-0.000830107310321182,0.005504221189767122,0.0025473134592175484
1782952658866507800,3.4095078125,-0.0006591323763132095,0.006670685950666666,0.0015334481140598655
1782952658876434700,3.4194345703125,0.0002335592289455235,0.0039084553718566895,0.0018751317402347922
1782952658886363000,3.42936279296875,0.000499875342939049,0.005297826137393713,0.0007576693315058947
1782952658896289800,3.439289794921875,-0.0009446232579648495,0.006262423470616341,0.0008751147543080151
1782952658906217700,3.4492177734375,-0.004297010600566864,0.006312224548310041,-0.0024402544368058443
1782952658916146000,3.45914599609375,0.0015422365395352244,0.002879942301660776,-0.0014056164072826505
1782952658926072800,3.46907275390625,-0.00015180018090177327,0.00526720006018877,-0.0007760451408103108
1782952658936000800,3.479000732421875,-0.0020394488237798214,0.007749532349407673,0.0023036343045532703
1782952658945928000,3.488927978515625,-0.00239231763407588,0.005591306835412979,0.0003150519623886794
1782952658955856000,3.49885595703125,-0.0009046758059412241,0.005823800805956125,-0.00020985709852539003
1782952658965782800,3.50878271484375,-0.00021917815320193768,0.003626160090789199,0.0032980586402118206
1782952658975711000,3.5187109375,-0.0004189152386970818,0.0031033814884722233,-0.00013662016135640442
1782952658985639000,3.528638916015625,-0.004281564150005579,0.005309011787176132,-0.00021305288828443736
1782952658995565800,3.53856591796875,-0.0030509172938764095,0.003067428944632411,-0.0004420847399160266
1782952659005493800,3.54849365234375,0.0015992282424122095,0.005304750520735979,0.00042637207661755383
1782952659015421000,3.5584208984375,-0.0031249532476067543,0.006881341803818941,0.0003510046226438135
1782952659025348900,3.568348876953125,-0.0017294568242505193,0.005460012704133987,0.0029912625905126333
1782952659035276000,3.578276123046875,0.0017813884187489748,0.005723133217543364,0.0019867182709276676
1782952659045204000,3.588203857421875,-0.001982190879061818,0.00430047232657671,0.0016389093361794949
1782952659055132000,3.5981318359375,0.00041811628034338355,0.00501073757186532,-0.0005456816870719194
1782952659065059000,3.60805908203125,0.0005339637864381075,0.0041582598350942135,0.001160339335910976
1782952659074986800,3.61798681640625,-0.0015715312911197543,0.0026612968649715185,-0.0015877765836194158
1782952659084913700,3.62791357421875,-0.002532133599743247,0.004600344225764275,-0.0002079928817693144
1782952659094841600,3.637841552734375,-0.0024290692526847124,0.004449343308806419,-0.001597630325704813
1782952659104769800,3.647769775390625,-0.0006945523782633245,0.004387824330478907,0.00247567449696362
1782952659114696700,3.65769677734375,-0.002397377509623766,0.005850432440638542,0.0002713761059567332
1782952659124624600,3.667624755859375,-0.0008285093936137855,0.002627741079777479,0.0018935075495392084
1782952659134551800,3.6775517578125,-0.00041252365917898715,0.005660282447934151,0.0010301107540726662
1782952659144479700,3.687479736328125,-0.0016173376934602857,0.004157194402068853,-0.0010527475969865918
1782952659154407000,3.697406982421875,0.0004223773430567235,0.0044133905321359634,-0.00028043086058460176
1782952659164334800,3.7073349609375,-0.0009957558941096067,0.0056863813661038876,0.00024820660473778844
1782952659174261800,3.71726171875,-0.00006205165118444711,0.005215534474700689,0.00014141385327093303
1782952659184189700,3.727189697265625,-0.000609863898716867,0.004629373084753752,0.000556600687559694
1782952659194118000,3.737117919921875,-0.0006237123161554337,0.004954544827342033,0.0016442356863990426
1782952659204044800,3.747044921875,-0.0013872405979782343,0.0028690234757959843,-0.003628823207691312
1782952659213972700,3.75697265625,-0.0017771273851394653,0.005782521795481443,0.0003384877636563033
1782952659223899600,3.766899658203125,-0.0006620618514716625,0.002912965603172779,-0.0003376888344064355
1782952659233827800,3.776827880859375,0.0003438140847720206,0.0057068876922130585,0.002122006844729185
1782952659243754800,3.786754638671875,-0.0023608922492712736,0.0037055222783237696,0.0027449200861155987
1782952659253682700,3.7966826171875,-0.000520647969096899,0.0047177900560200214,0.002228799508884549
1782952659263610600,3.806610595703125,0.001121723442338407,0.006628874223679304,0.0009952232940122485
1782952659273537500,3.81653759765625,0.0011938951211050153,0.002834934974089265,-0.0003414172388147563
1782952659283465700,3.8264658203125,-0.0017635452095419168,0.006434463430196047,-0.00007483482477255166
1782952659293392600,3.836392578125,-0.0015981629258021712,0.005619536153972149,0.00015632755821570754
1782952659303320600,3.846320556640625,-0.0025901903863996267,0.0064805359579622746,0.0008961536805145442
1782952659313248500,3.85624853515625,-0.0016764599131420255,0.00603472301736474,-0.0013193299528211355
1782952659323175700,3.86617578125,-0.0008109325426630676,0.004025368019938469,0.001252484624274075
1782952659333103600,3.876103515625,-0.00042876892257481813,0.004984372295439243,0.002079928759485483
1782952659343030800,3.88603076171875,-0.0008881642133928835,0.0031822111923247576,0.0002359560749027878
1782952659352958700,3.895958740234375,0.0004972121678292751,0.005780657287687063,-0.0014301175251603127
1782952659362885600,3.9058857421875,0.00010359696898376569,0.004565723240375519,0.0015651397407054901
1782952659372813800,3.915813720703125,-0.0010229201288893819,0.0051803807727992535,0.0015843145083636045
1782952659382741800,3.92574169921875,-0.004207528196275234,0.006696252152323723,0.0018160095205530524
1782952659392668700,3.935668701171875,-0.00030786142451688647,0.0031643679831176996,0.0011672634864225984
1782952659402596600,3.9455966796875,-0.0012112056137993932,0.004362790379673243,-0.00046924897469580173
1782952659412523800,3.955523681640625,-0.0012029499048367143,0.004886900540441275,0.0025100293569266796
1782952659422451700,3.96545166015625,0.00007829693640815094,0.0037830201908946037,-0.0009376989910379052
1782952659432379000,3.97537890625,0.0008325041271746159,0.004119910299777985,-0.0018429075134918094
1782952659442306800,3.985306884765625,-0.0003664509567897767,0.004026167094707489,-0.0008543420699425042
1782952659452233700,3.995233642578125,0.0013840447645634413,0.00592633243650198,0.0009195895399898291
1782952659462161700,4.00516162109375,0.0019409117521718144,0.0038434739690274,0.000794420950114727
1782952659472089900,4.01508984375,-0.002329467097297311,0.004208060912787914,-0.0016287893522530794
1782952659482016800,4.025016845703125,0.001324123702943325,0.006555370986461639,0.000749679864384234
1782952659491944700,4.03494482421875,0.00007829693640815094,0.00626002624630928,0.00018322547839488834
1782952659501871900,4.044871826171875,-0.0012130698887631297,0.003198190126568079,0.0010567422723397613
1782952659511799800,4.0547998046875,-0.0027028422337025404,0.005645635072141886,-0.0018455706303939223
1782952659521726700,4.064726806640625,-0.0009177253232337534,0.005707953125238419,0.002570483135059476
1782952659531654700,4.074654541015625,-0.0010404969798400998,0.006611563730984926,-0.0024288028944283724
1782952659541582800,4.084582763671875,-0.0010540791554376483,0.006102633662521839,0.0026501116808503866
1782952659551509500,4.094509521484375,0.0008594020619057119,0.002886600326746702,0.002682868391275406
1782952659561437700,4.104437744140625,-0.0021438447292894125,0.005257878918200731,0.0003486077766865492
1782952659571364600,4.114364501953125,-0.0021201425697654486,0.005100752227008343,-0.00034727618913166225
1782952659581292500,4.12429248046875,-0.0015166702214628458,0.005649097263813019,-0.001586178783327341
1782952659591219700,4.1342197265625,-0.0003408846096135676,0.0027856663800776005,-0.0003427488263696432
1782952659601147600,4.144147705078125,-0.0007504787645302713,0.006252569612115622,0.0009177253232337534
1782952659611075600,4.15407568359375,0.0005286374944262207,0.005024852231144905,0.0002311623829882592
1782952659621002800,4.164002685546875,0.000434361572843045,0.0023963123094290495,0.004473578184843063
1782952659630930700,4.1739306640625,0.001201884588226676,0.005918076727539301,0.0018916432745754719
1782952659640857600,4.183857666015625,-0.001199221471324563,0.0057593523524701595,0.0008146609761752188
1782952659650785800,4.193785888671875,-0.0017275925492867827,0.005133775528520346,-0.002472478663548827
1782952659660712700,4.203712646484375,-0.0030426615849137306,0.006351106334477663,-0.0018610169645398855
1782952659670640600,4.213640625,0.0002426139690214768,0.002900448627769947,0.0013230583863332868
1782952659680568600,4.223568603515625,-0.0015313175972551107,0.004263454582542181,0.0026264095213264227
1782952659690495700,4.233495849609375,-0.0008490157779306173,0.004737497307360172,0.0011203918838873506
1782952659700423700,4.243423583984375,-0.0007874967413954437,0.004217648413032293,0.0012191950809210539
1782952659710350800,4.253350830078125,-0.0023342606145888567,0.004040548112243414,0.00029348034877330065
1782952659720278800,4.26327880859375,-0.0011206581257283688,0.0065742796286940575,-0.0006703176186420023
1782952659730205700,4.273205810546875,-0.001407480682246387,0.006223008502274752,-0.0014407701091840863
1782952659740134000,4.2831337890625,0.0017148094484582543,0.0029675604309886694,0.0006929545197635889
1782952659750061800,4.293061767578125,0.00014407701382879168,0.0046815709210932255,0.0026402578223496675
1782952659759988700,4.30298876953125,-0.0019923108629882336,0.004514590837061405,-0.000022903184799361043
1782952659769916700,4.312916748046875,-0.0004247741890139878,0.0035507925786077976,-0.001976065570488572
1782952659779843800,4.32284375,-0.0010868359822779894,0.0034043188206851482,0.0012178635224699974
1782952659789771800,4.332771728515625,-0.0006777744856663048,0.0043651871383190155,0.0016524913953617215
1782952659799698700,4.34269873046875,-0.0005432848702184856,0.004347610287368298,0.0006804376607760787
1782952659809627000,4.352626953125,-0.0021827267482876778,0.004786765668541193,0.0017803232185542583
1782952659819554800,4.362554931640625,-0.002508964156731963,0.005002748221158981,-0.001537975505925715
1782952659829481700,4.372481689453125,0.0014966964954510331,0.004227768164128065,-0.0001597896625753492
1782952659839410000,4.382409912109375,0.0005182511522434652,0.004033623728901148,-0.0027270768769085407
1782952659849336600,4.392336669921875,-0.0016679377295076847,0.006243514828383923,0.0024554345291107893
1782952659859264500,4.402264404296875,-0.0011049455497413874,0.004122839774936438,0.002156627830117941
1782952659869191700,4.412191650390625,0.0005278385360725224,0.004068777430802584,-0.002424808219075203
1782952659879119600,4.42211962890625,-0.0008444883860647678,0.0030921963043510914,0.0017419736832380295
1782952659889046800,4.432046875,-0.000770452490542084,0.006353503558784723,0.0006897587445564568
1782952659898974700,4.441974609375,-0.002216548891738057,0.004490622319281101,0.0008681904873810709
1782952659908902700,4.451902587890625,-0.0010961571242660284,0.003231213428080082,0.0015864450251683593
1782952659918829600,4.46182958984375,-0.00024820660473778844,0.004874649923294783,0.003145193215459585
1782952659928757800,4.4717578125,-0.001532116555608809,0.002653573639690876,-0.0005158542771823704
1782952659938684700,4.4816845703125,-0.0037385455798357725,0.0068211546167731285,-0.0035960664972662926
1782952659948612600,4.491612548828125,-0.0008040083339437842,0.0030535804107785225,0.001817873795516789
1782952659958539800,4.501539794921875,-0.0009379653492942452,0.004250937607139349,0.003689809702336788
1782952659968467700,4.5114677734375,-0.00021172130072955042,0.006126602180302143,0.0008514125947840512
1782952659978395600,4.521395751953125,-0.0015819176333025098,0.00498144282028079,-0.001416269107721746
1782952659988322800,4.53132275390625,-0.0012895026011392474,0.0038187066093087196,0.0026290726382285357
1782952659998250800,4.541250732421875,-0.004625644534826279,0.004867991898208857,0.001270594191737473
1782952660008177700,4.551177734375,-0.0021462414879351854,0.005209409166127443,0.00010173275222769007
1782952660018105900,4.56110595703125,-0.0006929545197635889,0.005074653308838606,-0.0009363674325868487
1782952660028032800,4.57103271484375,0.001166198286227882,0.005417668726295233,-0.0015459649730473757
1782952660037960700,4.580960693359375,0.00040559942135587335,0.00424374733120203,0.0026794064324349165
1782952660047888600,4.590888671875,0.00040000680019147694,0.005526059307157993,0.0017036241479218006
1782952660057815800,4.60081591796875,-0.0017201356822624803,0.005760417319834232,0.0019917781464755535
1782952660067743700,4.61074365234375,-0.0008671252289786935,0.005366003140807152,-0.002543318783864379
1782952660077670700,4.620670654296875,-0.0005968143814243376,0.0037409423384815454,0.0007193197961896658
1782952660087598600,4.6305986328125,0.00010492854926269501,0.004714061506092548,0.0024258734192699194
1782952660097525200,4.640525146484375,-0.0003094593121204525,0.0043745082803070545,0.0006679208017885685
1782952660107453400,4.650453369140625,-0.000054861116950633004,0.006579605862498283,-0.002034655073657632
1782952660117381600,4.660381591796875,-0.0008306399104185402,0.005254150368273258,0.0017576862592250109
1782952660127308300,4.670308349609375,-0.00390339526347816,0.004711132030934095,-0.00072597770486027
1782952660137236500,4.680236572265625,-0.002204830991104245,0.006415022537112236,0.0013046825770288706
1782952660147163400,4.690163330078125,0.0004010720585938543,0.002011485630646348,0.001916410750709474
1782952660157091300,4.70009130859375,0.0014455638593062758,0.0027393274940550327,0.0020178770646452904
1782952660167018500,4.7100185546875,-0.0009867012267932296,0.004787564743310213,0.0034551850985735655
1782952660176946400,4.719946533203125,-0.0012383698485791683,0.004069842863827944,-0.0005044027348048985
1782952660186874400,4.729874267578125,-0.00040613205055706203,0.005571865476667881,-0.00126766471657902
1782952660196801500,4.739801513671875,0.00011851066665258259,0.004849616438150406,-0.0018066884949803352
1782952660206729500,4.7497294921875,-0.0012460930738598108,0.004692756105214357,-0.002669020090252161
1782952660216656400,4.759656494140625,-0.0012322446564212441,0.005577458068728447,0.0015480954898521304
1782952660226584300,4.769584228515625,-0.002418416552245617,0.003718305379152298,0.00006498113361885771
1782952660236511500,4.779511474609375,-0.0011225224006921053,0.006656304933130741,0.0013992248568683863
1782952660246439400,4.789439453125,0.0016706009628251195,0.004180896561592817,0.0013877731980755925
1782952660256367400,4.799367431640625,-0.0030919299460947514,0.006503439508378506,-0.0008141283178701997
1782952660266294500,4.80929443359375,-0.003575826296582818,0.004793157335370779,-0.0008306399104185402
1782952660276222500,4.819222412109375,-0.002296976512297988,0.006136455573141575,-0.0006620618514716625
1782952660286149400,4.8291494140625,-0.001291100517846644,0.005043494515120983,-0.00020772656716872007
1782952660296077600,4.83907763671875,-0.0026549051981419325,0.0030184267088770866,0.0006892260862514377
1782952660306004500,4.84900439453125,0.0006644586683250964,0.006106894463300705,0.0015129417879506946
1782952660315932400,4.858932373046875,0.0006527407676912844,0.004859469830989838,0.0021430456545203924
1782952660325859600,4.868859619140625,0.0006793724023737013,0.004268248099833727,0.0008860336965881288
1782952660335787500,4.87878759765625,0.0005102616851218045,0.006763896439224482,0.0008862999966368079
1782952660345715500,4.888715576171875,-0.001207743538543582,0.005293565336614847,0.0024410535115748644
1782952660355642600,4.898642578125,0.00001864212754298933,0.0035960664972662926,0.0008639294537715614
1782952660365570600,4.908570556640625,-0.002823749789968133,0.0054855793714523315,0.0032051142770797014
1782952660375497200,4.918497314453125,-0.0026589001063257456,0.006232596002519131,0.003061037277802825
1782952660385425700,4.92842578125,-0.0007006776868365705,0.005817941855639219,0.001014398061670363
1782952660395352300,4.938352294921875,-0.0003406183095648885,0.005622465629130602,0.0016583503456786275
1782952660405280300,4.9482802734375,-0.00267754215747118,0.005021656397730112,-0.0006767092272639275
1782952660415208700,4.958208740234375,-0.0014455638593062758,0.00315930787473917,-0.000013582121027866378
1782952660425135400,4.96813525390625,-0.0002735066518653184,0.0032447953708469868,-0.00022929816623218358
1782952660435063300,4.978063232421875,-0.0006205165409483016,0.005256281234323978,0.0019150790758430958
1782952660444990500,4.987990478515625,0.0020754013676196337,0.0056980992667376995,-0.001588575541973114
1782952660454918400,4.99791845703125,0.0004058657505083829,0.004413124173879623,0.0022205437999218702
1782952660464845300,5.00784521484375,-0.0021885856986045837,0.006337258033454418,-0.001535312389023602
1782952660474773500,5.0177734375,0.00036938043194822967,0.004180363845080137,0.0027742148377001286
1782952660484701400,5.027701416015625,-0.0005765743553638458,0.006708769127726555,-0.0014106763992458582
1782952660494628400,5.03762841796875,-0.0016026903176680207,0.0033135050907731056,-0.00012117382721044123
1782952660504556500,5.047556640625,0.00009693906031316146,0.003808053908869624,0.0008189220097847283
1782952660514483500,5.0574833984375,-0.00101120222825557,0.00657641002908349,-0.0021084246691316366
1782952660524411400,5.067411376953125,-0.0012652678415179253,0.004874383565038443,0.0010487528052181005
1782952660534338600,5.077338623046875,-0.0015038870042189956,0.003418433479964733,0.003317233407869935
1782952660544266500,5.0872666015625,-0.0024021712597459555,0.0033430662006139755,0.001639441936276853
1782952660554193400,5.097193359375,-0.0011118697002530098,0.005095692351460457,0.003282079705968499
1782952660564121600,5.10712158203125,-0.0015608787070959806,0.005646434146910906,0.0020383833907544613
1782952660574049500,5.117049560546875,-0.0010703244479373097,0.004009388852864504,-0.0013257216196507215
1782952660583976400,5.1269765625,0.0006301039247773588,0.005652026738971472,0.0003483414766378701
1782952660593904400,5.136904296875,-0.0005696501466445625,0.005471730604767799,-0.000663393409922719
1782952660603831600,5.14683154296875,0.0010463559301570058,0.0035454663448035717,-0.000520647969096899
1782952660613759500,5.156759521484375,-0.000007989483492565341,0.003552124137058854,-0.0005004079430364072
1782952660623686700,5.166686767578125,-0.0020514330826699734,0.003923369105905294,-0.0011757856700569391
1782952660633614600,5.176614501953125,-0.0013467605458572507,0.007412642706185579,0.00015899071877356619
1782952660643542500,5.18654248046875,-0.0018905780743807554,0.003932423423975706,0.001050084363669157
1782952660653469400,5.196469482421875,-0.0035976641811430454,0.00487172044813633,-0.0004420847399160266
1782952660663397600,5.206397705078125,-0.0007219829712994397,0.0051865060813724995,0.002811499172821641
1782952660673324300,5.21632421875,-0.0008056062506511807,0.003944940399378538,-0.0010338390711694956
1782952660683252500,5.22625244140625,-0.000892425247002393,0.006175071466714144,0.0012937636347487569
1782952660693179400,5.236179443359375,0.00020905814017169178,0.005125519819557667,-0.0009022789890877903
1782952660703107300,5.246107421875,-0.0008506136364303529,0.0049249837175011635,-0.001627457677386701
1782952660713034500,5.256034423828125,-0.0008815063047222793,0.005985986907035112,0.0004743089957628399
1782952660722962400,5.26596240234375,-0.0029172266367822886,0.003050118451938033,0.0014684670604765415
1782952660732890400,5.275890380859375,-0.00019281286222394556,0.004688494838774204,-0.0001395496365148574
1782952660742817300,5.2858173828125,-0.003605920122936368,0.006972421891987324,0.0009158611064776778
1782952660752745500,5.295745361328125,0.00042344260145910084,0.0049678608775138855,-0.0015864450251683593
1782952660762672400,5.30567236328125,-0.0007624630234204233,0.004620318301022053,0.0011448930017650127
1782952660772600300,5.315600341796875,-0.0014141384745016694,0.004206729121506214,0.00039787625428289175
1782952660782527500,5.325527587890625,-0.0016852483386173844,0.004569451790302992,-0.00042876892257481813
1782952660792455400,5.335455322265625,-0.0004929511342197657,0.006810768041759729,-0.00028762139845639467
1782952660802383400,5.34538330078125,-0.001213336130604148,0.0037766287568956614,0.000264718197286129
1782952660812310500,5.355310546875,-0.0004617921367753297,0.003591272747144103,-0.0014452975010499358
1782952660822238500,5.365238525390625,-0.002375007141381502,0.004123372491449118,0.0014972290955483913
1782952660832165400,5.375165283203125,-0.0003406183095648885,0.003412840887904167,0.0006282397080212831
1782952660842093600,5.385093505859375,-0.0008918926469050348,0.003826429834589362,0.00224877311848104
1782952660852020500,5.3950205078125,-0.0031590417493134737,0.004604871850460768,-0.0014125406742095947
1782952660861948400,5.404948486328125,0.0002836266648955643,0.005775597412139177,0.0029017801862210035
1782952660871876400,5.41487646484375,-0.002097771968692541,0.0038165762089192867,0.00002450108149787411
1782952660881803500,5.424803466796875,-0.0018141453620046377,0.0041044638492167,-0.0003294330381322652
1782952660891731500,5.4347314453125,-0.00006817692337790504,0.005882923025637865,-0.0008548747282475233
1782952660901658600,5.44465869140625,-0.0015100123127922416,0.0033601103350520134,0.003722300287336111
1782952660911586600,5.454586669921875,-0.0029324067290872335,0.0065319351851940155,0.0010996191995218396
1782952660921513500,5.464513427734375,0.000021305288100847974,0.003999002743512392,0.0015712650492787361
1782952660931441700,5.474441650390625,-0.0026008430868387222,0.006147907115519047,0.0025278725661337376
1782952660941368300,5.484368408203125,-0.0003384877636563033,0.005939381662756205,0.00024580975878052413
1782952660951296500,5.494296630859375,-0.0027358653023838997,0.004471180960536003,0.0010634001810103655
1782952660961224400,5.504224365234375,0.0002711098059080541,0.0041406829841434956,0.0010524812387302518
1782952660971151400,5.5141513671875,0.00035446672700345516,0.005515406373888254,0.000636761833447963
1782952660981079600,5.52407958984375,-0.0008263788768090308,0.0038783615455031395,0.0004207794554531574
1782952660991006500,5.53400634765625,0.0009861685102805495,0.0037915424909442663,-0.00010146643762709573
1782952661000934400,5.543934326171875,-0.0014263890916481614,0.005330316722393036,0.00145222176797688
1782952661010861300,5.553861328125,-0.0019827233627438545,0.006596117280423641,0.001395230065099895
1782952661020789500,5.56378955078125,0.0005155879771336913,0.004977714270353317,0.0003866909828502685
1782952661030717400,5.573717529296875,-0.0009970874525606632,0.00538357999175787,0.0011379687348380685
1782952661040644400,5.583644287109375,-0.0013675332302227616,0.004514324478805065,0.0009922938188537955
1782952661050572300,5.593572265625,-0.0005811017472296953,0.005100485868752003,0.0005416869535110891
1782952661060499500,5.60349951171875,-0.000862864195369184,0.004120176658034325,0.00016298545233439654
1782952661070427400,5.613427490234375,-0.0012596751330420375,0.0046213832683861256,0.0011446266435086727
1782952661080354600,5.6233544921875,0.0013973605819046497,0.0037292244378477335,0.0011108045000582933
1782952661090282500,5.633282470703125,0.0009488842915743589,0.003634948516264558,0.0024554345291107893
1782952661100209400,5.64320947265625,-0.00230842805467546,0.003993143793195486,0.0016700683627277613
1782952661110137300,5.653137451171875,-0.003996339626610279,0.0060384515672922134,-0.0001781654718797654
1782952661120065500,5.6630654296875,0.002531334524974227,0.0028764803428202868,0.0009166600648313761
1782952661129992400,5.672992431640625,-0.0034322820138186216,0.0062914518639445305,0.0001358212175546214
1782952661139923500,5.68292333984375,0.0003640541108325124,0.004317516926676035,0.0008514125947840512
1782952661149850400,5.692850341796875,-0.0015909724170342088,0.004188087303191423,0.001281779375858605
1782952661159778300,5.7027783203125,-0.0010431602131575346,0.0054613444954156876,-0.0016069513512775302
1782952661169705500,5.71270556640625,0.0011398328933864832,0.005658684764057398,-0.0010490191634744406
1782952661179633400,5.72263330078125,-0.0012692625168710947,0.005185441114008427,0.0009648632840253413
1782952661189560300,5.732560302734375,-0.0030543794855475426,0.00740119069814682,-0.00015952334797475487
1782952661199488500,5.742488525390625,-0.00022690132027491927,0.0041191112250089645,0.00013688647595699877
1782952661209416400,5.75241650390625,-0.0004647216119337827,0.004984372295439243,0.001910019083879888
1782952661219343400,5.76234326171875,-0.0024833977222442627,0.003979827743023634,-0.0008383630774915218
1782952661229271300,5.772271240234375,-0.0001661812566453591,0.005253617651760578,0.0018439727136865258
1782952661239198500,5.782198486328125,-0.0011443602852523327,0.007029147353023291,0.0002596582053229213
1782952661249126400,5.79212646484375,0.0006117281154729426,0.004261324182152748,0.001332912128418684
1782952661259053600,5.802053466796875,-0.001041295938193798,0.006865363102406263,0.0011464908020570874
1782952661268981500,5.8119814453125,-0.0008695221040397882,0.0062608253210783005,-0.0016229304019361734
1782952661278908400,5.821908447265625,-0.001797101111151278,0.004381432663649321,-0.0014436995843425393
1782952661288836400,5.83183642578125,0.0005363606614992023,0.0033220271579921246,-0.00022317290131468326
1782952661298764500,5.8417646484375,-0.0006969492533244193,0.00595642626285553,-0.0014165353495627642
1782952661308691200,5.851691162109375,0.0006617955514229834,0.0038930089212954044,-0.0010876349406316876
1782952661318619400,5.861619384765625,-0.001888980157673359,0.00452843913808465,-0.00023222764139063656
1782952661328546300,5.87154638671875,0.0011579424608498812,0.004830175079405308,0.0007590008899569511
1782952661338474200,5.88147412109375,-0.000437291048001498,0.0054608117789030075,0.0012442287988960743
1782952661348401400,5.8914013671875,-0.0017454357584938407,0.003936951048672199,0.0005776396137662232
1782952661358329300,5.901329345703125,0.0004727110790554434,0.003471164032816887,0.00036485306918621063
1782952661368257300,5.91125732421875,-0.00016698020044714212,0.004820321686565876,0.0008609999786131084
1782952661378184200,5.92118408203125,-0.0010703244479373097,0.005504221189767122,-0.0009989517275243998
1782952661388112400,5.9311123046875,-0.00040613205055706203,0.002909769769757986,0.0009504822082817554
1782952661398039300,5.941039306640625,-0.0026258768048137426,0.004345479886978865,0.002121207769960165
1782952661407967200,5.95096728515625,-0.0005672533297911286,0.0017454357584938407,0.002965962514281273
1782952661417894400,5.960894287109375,-0.0012191950809210539,0.004237622022628784,0.0014120079576969147
1782952661427822300,5.970822265625,-0.0013930995482951403,0.003597398055717349,0.0010000169277191162
1782952661437749500,5.98074951171875,-0.0014474280178546906,0.0029345371294766665,0.0010940266074612737
1782952661447677400,5.990677490234375,-0.001184041379019618,0.005514607764780521,0.0014751249691471457
1782952661457605400,6.00060546875,-0.002966495230793953,0.004010454285889864,0.0030605047941207886
1782952661467532300,6.0105322265625,0.0014772554859519005,0.005621133837848902,0.002098304685205221
1782952661477460500,6.02046044921875,-0.0006263754912652075,0.005416869651526213,-0.000036485307646216825
1782952661487387400,6.030387451171875,-0.003338538808748126,0.00609437795355916,0.0019382486352697015
1782952661497315300,6.0403154296875,-0.001330249011516571,0.0064744106493890285,-0.001535312389023602
1782952661507242500,6.050242431640625,-0.0002735066518653184,0.005624862387776375,0.00007723167072981596
1782952661517170400,6.06017041015625,-0.00010173275222769007,0.0049646650440990925,-0.0006402239087037742
1782952661527098400,6.070098388671875,0.0005036037764512002,0.00603392394259572,0.001910019083879888
1782952661537025500,6.080025634765625,-0.0017044231062754989,0.0058094197884202,-0.0012503541074693203
1782952661546953500,6.089953369140625,0.0005403553950600326,0.005287173669785261,0.0008631304954178631
1782952661556880400,6.09988037109375,-0.0004524710529949516,0.003299922915175557,0.0019888486713171005
1782952661566808600,6.10980859375,0.0006684534018859267,0.0041278996504843235,0.0025129588320851326
1782952661576735200,6.1197353515625,-0.0013989584986120462,0.0036796897184103727,0.0008383630774915218
1782952661586663400,6.129663330078125,-0.00020879182557109743,0.002038117265328765,-0.0006940197781659663
1782952661596590300,6.13959033203125,0.00013875069271307439,0.007708253338932991,-0.0026929883752018213
1782952661606518300,6.149518310546875,0.00020879182557109743,0.00774793466553092,0.002523611532524228
1782952661616446500,6.159446533203125,-0.00002609897819638718,0.0027595674619078636,0.00012170646368758753
1782952661626373400,6.169373291015625,0.0002993392990902066,0.006192914675921202,0.0014674017438665032
1782952661636301300,6.17930126953125,-0.001558748190291226,0.004516188520938158,-0.0014889733865857124
1782952661646228200,6.189228271484375,-0.000806138850748539,0.003139334265142679,-0.0014056164072826505
1782952661656156400,6.199156494140625,-0.0030682277865707874,0.005357214715331793,-0.0010988202411681414
1782952661666083300,6.209083251953125,-0.0026812704745680094,0.0046173888258636,-0.0011954930378124118
1782952661676011300,6.21901123046875,0.0003462109307292849,0.005348692648112774,0.0021997711155563593
1782952661685939200,6.228939208984375,0.00012623383372556418,0.005781722720712423,0.00017204020696226507
1782952661695866400,6.238866455078125,-0.001630120910704136,0.00404507527127862,-0.002513491315767169
1782952661705794300,6.248794189453125,-0.004078364931046963,0.006584133021533489,0.0006340986583381891
1782952661715721500,6.258721435546875,-0.0012639362830668688,0.003085005795583129,-0.0024405207950621843
1782952661725649400,6.2686494140625,0.00011877698125317693,0.005662412848323584,0.0007605988066643476
1782952661735576300,6.278576416015625,0.0010016148444265127,0.005913282744586468,-0.002138518262654543
1782952661745504300,6.288504150390625,-0.001547030289657414,0.004148405976593494,0.000005060006060375599
1782952661755431400,6.298431396484375,0.001662877737544477,0.0033816818613559008,-0.0012420982820913196
1782952661765359400,6.308359375,0.0007683219737373292,0.005313538946211338,0.0036613137926906347
1782952661775287300,6.318287353515625,0.001419198582880199,0.0046091326512396336,0.0012040151050314307
1782952661785214500,6.32821435546875,0.00032197617110796273,0.004546282347291708,-0.0008234494016505778
1782952661795142400,6.338142333984375,0.0005376922199502587,0.0034349451307207346,0.0010165285784751177
1782952661805069600,6.348069580078125,0.0002687129599507898,0.0054509579204022884,0.0006404902087524533
1782952661814997500,6.35799755859375,-0.0007494135061278939,0.004830175079405308,-0.00027057717670686543
1782952661824924400,6.36792431640625,-0.001362473238259554,0.001600826159119606,-0.0005803027888759971
1782952661834852400,6.377852294921875,-0.002484995638951659,0.0046267095021903515,0.002388589084148407
1782952661844780500,6.387780517578125,0.0004468784318305552,0.004385161213576794,-0.00016937704640440643
1782952661854707500,6.39770751953125,-0.001811482128687203,0.003893807763233781,-0.0005275722360238433
1782952661864635400,6.407635498046875,0.00042583944741636515,0.005588111001998186,-0.00006444849714171141
1782952661874562300,6.417562255859375,0.0004340952436905354,0.003686880227178335,-0.0011057445080950856
1782952661884490500,6.427490478515625,-0.0008080030675046146,0.005122057627886534,-0.0008314388687722385
1782952661894417400,6.43741748046875,-0.0007022755453363061,0.006563893053680658,-0.0010436928132548928
1782952661904345300,6.447345458984375,-0.0017547567840665579,0.004275438841432333,0.0013371731620281935
1782952661914272300,6.457272216796875,-0.0009384979493916035,0.007361243478953838,0.00018961707246489823
1782952661924200200,6.4672001953125,-0.0005803027888759971,0.0051771849393844604,0.0019236012594774365
1782952661934128400,6.47712841796875,0.0015390408225357533,0.0032021848019212484,0.0023529028985649347
1782952661944055300,6.48705517578125,0.001264735241420567,0.0036993969697505236,0.0029020465444773436
1782952661953983200,6.496983154296875,0.0011443602852523327,0.0038037928752601147,0.0030868700705468655
1782952661963910400,6.506910400390625,-0.003722300287336111,0.004010987002402544,0.0016506272368133068
1782952661973838300,6.51683837890625,-0.0009142631897702813,0.005629390012472868,-0.0011696603614836931
1782952661983765200,6.52676513671875,-0.0023299995809793472,0.004816593136638403,0.002374474424868822
1782952661993693400,6.536693359375,0.000004261057711119065,0.006397712044417858,0.0010631339391693473
1782952662003620400,6.546620361328125,-0.005389705300331116,0.0038429414853453636,0.002043177140876651
1782952662013548300,6.55654833984375,0.0014093448407948017,0.003306314582005143,0.00044661210267804563
1782952662023476500,6.5664765625,-0.0004543352697510272,0.0010511496802791953,-0.0010516822803765535
1782952662033403400,6.5764033203125,-0.0022040321491658688,0.004941495135426521,0.00199364242143929
1782952662043331300,6.586331298828125,-0.001592037733644247,0.006421147845685482,0.0009054747642949224
1782952662053258500,6.596258544921875,-0.0008106662426143885,0.00660677021369338,-0.001005609636195004
1782952662063186400,6.6061865234375,-0.002222674200311303,0.005804359447211027,-0.0009576727170497179
1782952662073113300,6.61611328125,-0.0010455570882186294,0.006373210810124874,0.0008476841612718999
1782952662083041500,6.62604150390625,0.0001270327775273472,0.0026905916165560484,0.0034613104071468115
1782952662092969500,6.635969482421875,0.0004697816038969904,0.0062493737787008286,0.00007590009045088664
1782952662102896400,6.645896484375,-0.0005270395777188241,0.0038751657120883465,0.0016487629618495703
1782952662112824300,6.65582421875,-0.0012191950809210539,0.004223241005092859,0.00015419702685903758
1782952662122751500,6.66575146484375,-0.0007882956997491419,0.003762513864785433,-0.0014045510906726122
1782952662132679400,6.675679443359375,-0.0016695356462150812,0.005501558072865009,0.0005398227367550135
1782952662142606300,6.6856064453125,-0.0016892430139705539,0.004828311037272215,0.003221359569579363
1782952662152534500,6.695534423828125,-0.0015150723047554493,0.0038195056840777397,0.0010950918076559901
1782952662162461200,6.705461181640625,0.0007677893154323101,0.0049470881931483746,0.0017238641157746315
1782952662172389400,6.715389404296875,-0.0017856494523584843,0.006875482853502035,0.00038722361205145717
1782952662182317600,6.725317626953125,-0.00046072687837295234,0.004455202259123325,0.00020959076937288046
1782952662192244200,6.735244140625,-0.0016072177095338702,0.003887682454660535,0.0036189695820212364
1782952662202172200,6.745172119140625,-0.0046725161373615265,0.005540706682950258,-0.00088976213010028
1782952662212099300,6.755099365234375,-0.001931058126501739,0.0032376048620790243,-0.0003563309437595308
1782952662222027300,6.76502734375,0.0002996056282427162,0.006777478381991386,0.000027963191314483993
1782952662231954400,6.774954345703125,0.0006404902087524533,0.003026149934157729,-0.0023987090680748224
1782952662241882400,6.78488232421875,-0.0015997608425095677,0.004795021377503872,0.0018607506062835455
1782952662251809300,6.794809326171875,0.0013675332302227616,0.0028533106669783592,0.0012535499408841133
1782952662261737500,6.804737548828125,-0.0016040218761190772,0.004028830211609602,0.001487109111621976
1782952662271665400,6.81466552734375,-0.0015070828376337886,0.003183542750775814,0.001139300293289125
1782952662281592300,6.82459228515625,0.0026261431630700827,0.005097024142742157,0.002041046740487218
1782952662291520300,6.834520263671875,-0.0026666230987757444,0.004689027555286884,0.0010253170039504766
1782952662301447400,6.844447509765625,0.00047351003740914166,0.004451207350939512,0.003126284806057811
1782952662311375400,6.854375244140625,-0.0020008329302072525,0.004385161213576794,0.00034647725988179445
1782952662321302500,6.864302490234375,-0.0014554174849763513,0.004205397795885801,0.001044225413352251
1782952662331230500,6.87423046875,-0.0012301141396164894,0.005619269795715809,0.0010410296963527799
1782952662341157400,6.884157470703125,-0.0010974886827170849,0.0060919807292521,0.00239205127581954
1782952662351085300,6.894085205078125,0.0003456783015280962,0.0073322150856256485,-0.0013467605458572507
1782952662361013500,6.904013427734375,-0.0000756337758502923,0.0043806335888803005,0.0002868224401026964
1782952662370940400,6.9139404296875,-0.0013403689954429865,0.003751062322407961,0.0010490191634744406
1782952662380868400,6.923868408203125,-0.0015158712631091475,0.0044077979400753975,0.0013249226612970233
1782952662390795500,6.93379541015625,-0.0018373148050159216,0.003519367426633835,0.0034903388004750013
1782952662400723500,6.943723388671875,0.0012985573848709464,0.0026991136837750673,0.0014570154016837478
1782952662410650400,6.953650390625,0.0005512743373401463,0.0038040592335164547,0.00041998049709945917
1782952662420578600,6.96357861328125,0.0002894856152124703,0.0024831313639879227,-0.0009624664089642465
1782952662430505200,6.973505126953125,-0.0012578109744936228,0.006621683482080698,0.000675111310556531
1782952662440433200,6.98343310546875,-0.0023193468805402517,0.002802977105602622,0.002225870033726096
1782952662450361600,6.993361572265625,0.0018660769565030932,0.002460494404658675,0.0015970977256074548
1782952662460288300,7.003288330078125,0.0006412891671061516,0.004790227860212326,0.0007462177309207618
1782952662470216200,7.01321630859375,-0.00015659387281630188,0.004000334069132805,0.0019864519126713276
1782952662480143400,7.023143310546875,-0.0014743260107934475,0.004222708288580179,0.002531600883230567
1782952662490071300,7.0330712890625,-0.002350505907088518,0.00805925764143467,-0.0012953615514561534
1782952662499998200,7.042998291015625,-0.0016085492679849267,0.0064925202168524265,0.0018668759148567915
1782952662509926400,7.052926513671875,0,0.004963599611073732,0.0020751350093632936
1782952662519854300,7.062854248046875,-0.002127865795046091,0.006608634255826473,0.0004945489927195013
1782952662529781200,7.07278125,-0.0005518069956451654,0.00487172044813633,0.003326288191601634
1782952662539709400,7.08270947265625,-0.0025686188600957394,0.007258179131895304,-0.0007912251749075949
1782952662549636400,7.09263623046875,0.0012620720081031322,0.0038093857001513243,0.0013249226612970233
1782952662559564300,7.102564208984375,-0.000844754686113447,0.005992112215608358,-0.0006591323763132095
1782952662569491500,7.112491455078125,-0.0009001484140753746,0.006645651999861002,-0.00044341632747091353
1782952662579419400,7.12241943359375,0.0005291700945235789,0.004453870467841625,0.0014682007022202015
1782952662589346300,7.13234619140625,-0.0012447615154087543,0.005888515617698431,0.0029017801862210035
1782952662599274500,7.1422744140625,-0.00045060686534270644,0.0049556102603673935,0.00010839065362233669
1782952662609202400,7.152202392578125,0.00008335694292327389,0.003049852093681693,0.002225070958957076
1782952662619129300,7.16212939453125,-0.001237571006640792,0.00571860559284687,-0.0014921691035851836
1782952662629057300,7.172057373046875,0.0004396878939587623,0.005001150071620941,0.0022061625495553017
1782952662638984400,7.181984375,-0.0002466087171342224,0.0028250813484191895,0.0022482406347990036
1782952662648912400,7.191912353515625,-0.0020791299175471067,0.006869357544928789,0.00003408846168895252
1782952662658839600,7.201839599609375,-0.002930542454123497,0.00640836451202631,0.0029228192288428545
1782952662668767500,7.211767578125,0.0005302353529259562,0.004574778024107218,-0.000538491178303957
1782952662678694400,7.2216943359375,-0.002700711600482464,0.007674431428313255,-0.0001270327775273472
1782952662688622600,7.23162255859375,-0.00008202536264434457,0.00544350128620863,-0.0009076052810996771
1782952662698550500,7.241550537109375,-0.0010333064710721374,0.005117530468851328,0.0010942928493022919
1782952662708477200,7.251477294921875,-0.002900448627769947,0.0036045885644853115,0.0010583401890471578
1782952662718405400,7.2614052734375,-0.0013222594279795885,0.004327903036028147,0.0009321063989773393
1782952662728332300,7.271332275390625,-0.0006841660942882299,0.004796619527041912,0.0019028285751119256
1782952662738260200,7.28126025390625,0.0025619608350098133,0.005453887395560741,-0.001957689644768834
1782952662748187400,7.2911875,-0.0028756812680512667,0.006841660942882299,0.0008410262526012957
1782952662758115300,7.301115234375,-0.001535046030767262,0.003775563556700945,0.002403236459940672
1782952662768042200,7.311042236328125,-0.00042637207661755383,0.006488259416073561,0.00009161273919744417
1782952662777970400,7.320970458984375,-0.0014333132421597838,0.0047055394388735294,0.0004673847579397261
1782952662787898400,7.3308984375,-0.002642388455569744,0.0036099147982895374,0.00024447820032946765
1782952662797825300,7.3408251953125,-0.0004524710529949516,0.006158293690532446,0.0008641957538202405
1782952662807753200,7.350753173828125,-0.0022021678742021322,0.006085589528083801,0.0015747271245345473
1782952662817680400,7.360680419921875,-0.00041199102997779846,0.0035830168053507805,0.0007992146420292556
1782952662827608300,7.3706083984375,0.0006868292111903429,0.005393167492002249,0.000055660068028373644
1782952662837535500,7.380535400390625,0.0009507485083304346,0.00321816373616457,0.0007478156476281583
1782952662847463400,7.39046337890625,0.0013875069562345743,0.006880809087306261,0.0011938951211050153
1782952662857390300,7.400390380859375,-0.00023089606838766485,0.005084773525595665,-0.002526008291170001
1782952662867318300,7.410318359375,0.0012655340833589435,0.004574245307594538,0.0010285128373652697
1782952662877246500,7.42024658203125,0.0013528858544304967,0.0028216191567480564,0.002570483135059476
1782952662887173400,7.43017333984375,-0.0006761765689589083,0.004027498420327902,0.0015278555219992995
1782952662897101300,7.440101318359375,-0.002020007697865367,0.004257595632225275,-0.0026051041204482317
1782952662907028500,7.450028564453125,-0.0028839372098445892,0.005037901923060417,-0.000853809411637485
1782952662916956400,7.459956298828125,0.00040506679215468466,0.004551608581095934,-0.0011342403013259172
1782952662926883600,7.469883544921875,-0.0024780714884400368,0.006226204335689545,-0.0008772452711127698
1782952662936811500,7.4798115234375,0.0015704660909250379,0.005505819339305162,-0.00023808660625945777
1782952662946738400,7.489738525390625,0.00042637207661755383,0.0076097166165709496,-0.00016698020044714212
1782952662956666400,7.499666259765625,0.00018801917030941695,0.004240285139530897,-0.0008309062686748803
1782952662966594600,7.509594482421875,-0.001130778226070106,0.006037918850779533,0.001258876291103661
1782952662976521500,7.519521484375,-0.0015691345324739814,0.005682653281837702,-0.00007936220208648592
1782952662986449400,7.529449462890625,-0.001657018787227571,0.00538437906652689,0.000037017940485384315
1782952662996376300,7.539376220703125,-0.0029883331153541803,0.007713313214480877,0.001978728687390685
1782952663006304300,7.54930419921875,-0.0019478360190987587,0.0054610781371593475,0.0022186795249581337
1782952663016231400,7.5592314453125,-0.000028495824153651483,0.00646588858217001,-0.00005326322207110934
1782952663026159400,7.569159423828125,-0.000278300343779847,0.0046360306441783905,-0.001811748486943543
1782952663036086300,7.579086181640625,-0.0001901497016660869,0.0034903388004750013,0.0032650355715304613
1782952663046014200,7.58901416015625,-0.0019177423091605306,0.006750847212970257,0.0035119105596095324
1782952663055942400,7.5989423828125,-0.0004599279200192541,0.00436092633754015,0.002397377509623766
1782952663065869300,7.608869384765625,0.0014892396284267306,0.005535114090889692,0.002335326047614217
1782952663075797200,7.61879736328125,-0.0003813646617345512,0.004342816770076752,0.00003062635369133204
1782952663085724200,7.62872412109375,-0.0015582155901938677,0.004294879734516144,0.0037587855476886034
1782952663095652000,7.638652099609375,-0.0023824640084058046,0.004588626325130463,0.001528920722194016
1782952663105579300,7.648579345703125,-0.00016165387933142483,0.0035148400347679853,0.002034921431913972
1782952663115507200,7.658507080078125,0.00020772656716872007,0.006024869158864021,0.0006578007596544921
1782952663125434000,7.66843408203125,-0.002916427794843912,0.0044983453117311,-0.0002961435238830745
1782952663135362000,7.678362060546875,-0.0017201356822624803,0.00686136819422245,-0.0012391688069328666
1782952663145290200,7.688290283203125,-0.0022855247370898724,0.0037526602391153574,0.0024434502702206373
1782952663155217200,7.698217041015625,0.0019028285751119256,0.005294098053127527,-0.000483363721286878
1782952663165145000,7.70814501953125,-0.0012487561907619238,0.003969974350184202,0.0030716899782419205
1782952663175072300,7.718072265625,-0.0007065366371534765,0.004933505784720182,0.0019523634109646082
1782952663185000200,7.728000244140625,-0.0008530105114914477,0.0054602790623903275,-0.0001776328426785767
1782952663194927000,7.737927001953125,-0.0013424995122477412,0.006440056022256613,0.0015941682504490018
1782952663204855300,7.747855224609375,-0.0013949638232588768,0.0015877765836194158,-0.001514273346401751
1782952663214782200,7.7577822265625,0.0005648564547300339,0.002871153876185417,0.0032887374982237816
1782952663224710100,7.767710205078125,-0.001987250754609704,0.0041617220267653465,0.004473311826586723
1782952663234638300,7.777638427734375,-0.0024586303625255823,0.0043563987128436565,0.0046237800270318985
1782952663244565200,7.787565185546875,-0.0007784419576637447,0.002972087822854519,0.0016860472969710827
1782952663254493200,7.7974931640625,-0.0008197209681384265,0.0051990230567753315,0.001303351018577814
1782952663264420400,7.80742041015625,0.0004362257895991206,0.0051569449715316296,-0.0010793792316690087
1782952663274348300,7.817348388671875,-0.0007741809240542352,0.005519134923815727,0.001281779375858605
1782952663284275200,7.827275146484375,0.00129695946816355,0.0033015208318829536,0.0022889869287610054
1782952663294203400,7.837203369140625,0.0000774979853304103,0.004495149478316307,0.0013725932221859694
1782952663304130300,7.84713037109375,0.0006050702068023384,0.0029316076543182135,-0.0018168084789067507
1782952663314058200,7.857058349609375,0.000028762138754245825,0.0030517163686454296,0.0014860439114272594
1782952663323986200,7.866986083984375,-0.0010508833220228553,0.005785983521491289,-0.00025300029665231705
1782952663333913300,7.876913330078125,0.0008777778712101281,0.0028767467010766268,0.003306048223748803
1782952663343841300,7.88684130859375,-0.0021262678783386946,0.00475587323307991,-0.0012096078135073185
1782952663353768200,7.896768310546875,-0.0026402578223496675,0.004231230355799198,0.001568069215863943
1782952663363696000,7.906696044921875,0.0003126551164314151,0.005840312223881483,0.0006490123341791332
1782952663373623000,7.916623046875,-0.003058640519157052,0.0041374871507287025,0.0006900250446051359
1782952663383551200,7.92655126953125,0.0007936219917610288,0.001933721243403852,0.0012005530297756195
1782952663393478100,7.93647802734375,0.0014990933705121279,0.005843241699039936,0.0029643645975738764
1782952663403406000,7.946406005859375,-0.002008289797231555,0.00421391986310482,0.0023646207991987467
1782952663413334000,7.956333984375,-0.00031638352083973587,0.005315136630088091,0.004577973857522011
1782952663423261200,7.96626123046875,-0.0023166837636381388,0.004805407952517271,0.0014354437589645386
1782952663433189000,7.976189208984375,-0.0011182613670825958,0.004612861201167107,0.0018168084789067507
1782952663443116300,7.9861162109375,-0.0003336940717417747,0.005816343706101179,0.0006862966110929847
1782952663453044200,7.996044189453125,-0.0024711471050977707,0.004601942375302315,-0.0012711267918348312
1782952663462971100,8.00597119140625,-0.0014887070283293724,0.004156661685556173,0.0014631407102569938
1782952663472899000,8.015899169921875,-0.0002849582233466208,0.005649629980325699,0.0007432882557623088
1782952663482826200,8.025826171875,-0.0012295814231038094,0.003799265483394265,0.00046818371629342437
1782952663492754200,8.035754150390625,0.0007326356135308743,0.0067718857899308205,-0.0001459412305848673
1782952663502682000,8.04568212890625,-0.0021401161793619394,0.008711732923984528,0.0008753810543566942
1782952663512609300,8.055609375,-0.0013440974289551377,0.0037238982040435076,0.001597630325704813
1782952663522537200,8.065537109375,-0.0014516890514642,0.004682902246713638,0.0011504855938255787
1782952663532464400,8.07546435546875,0.00024394555657636374,0.00637800432741642,-0.0006404902087524533
1782952663542392300,8.085392333984375,-0.0010130665032193065,0.004172374494373798,0.000461259507574141
1782952663552319200,8.0953193359375,-0.00008362325752386823,0.004505536053329706,0.0006090649403631687
1782952663562247200,8.1052470703125,-0.002159557305276394,0.006656038574874401,0.001407480682246387
1782952663572174300,8.11517431640625,-0.002659166231751442,0.0038751657120883465,0.0007784419576637447
1782952663582102300,8.125102294921875,0.00018988338706549257,0.0033926009200513363,0.00014088122406974435
1782952663592030200,8.1350302734375,-0.002415220718830824,0.005563609767705202,0.0012418320402503014
1782952663601957400,8.144957275390626,0.001261805766262114,0.004917527083307505,0.0006767092272639275
1782952663611885300,8.15488525390625,0.0000958738019107841,0.003936951048672199,-0.00016245282313320786
1782952663621812200,8.164812255859376,-0.0009297095239162445,0.0036658411845564842,0.0004897553008049726
1782952663631740200,8.174740234375,-0.001957956003025174,0.0043308325111866,-0.0004990763845853508
1782952663641667000,8.1846669921875,-0.002554770326241851,0.0030368026345968246,-0.0028607675340026617
1782952663651595000,8.194594970703125,-0.0009840379934757948,0.008328503929078579,0.002394980750977993
1782952663661522200,8.204522216796875,-0.0029531794134527445,0.0065622953698039055,0.000999750685878098
1782952663671450000,8.2144501953125,0.0014349111588671803,0.006828344892710447,0.003715642262250185
1782952663681377300,8.224377197265625,-0.0036519928835332394,0.006566822528839111,-0.0011206581257283688
1782952663691305200,8.23430517578125,-0.00014940333494450897,0.005458947736769915,-0.001282045734114945
1782952663701233200,8.244233154296875,0.0003171824791934341,0.00458596320822835,-0.0009177253232337534
1782952663711160000,8.25416015625,0.0010700580896809697,0.0067758806981146336,0.0012295814231038094
1782952663721088300,8.264088134765625,-0.0023134879302233458,0.004421912599354982,-0.0022117553744465113
1782952663731015200,8.27401513671875,-0.002549710450693965,0.004456533584743738,0.00010412959818495438
1782952663740943000,8.283943115234376,-0.0027449200861155987,0.004441353492438793,0.0008125304593704641
1782952663750870300,8.293870361328125,0.0004889564006589353,0.00697961263358593,0.0006415555253624916
1782952663760798200,8.303798095703126,0.00017257283616345376,0.005052016582340002,0.0017305220244452357
1782952663770725400,8.313725341796875,-0.00032144354190677404,0.0038360171020030975,0.001327053178101778
1782952663780653300,8.3236533203125,-0.002406165935099125,0.003824033075943589,0.0010727213229984045
1782952663790581200,8.333581298828125,-0.0035571842454373837,0.006130330264568329,-0.0003347593592479825
1782952663800508200,8.343508056640625,-0.00046312372433021665,0.004846154246479273,0.0023398532066494226
1782952663810436400,8.353436279296876,-0.0033691651187837124,0.005892510060220957,-0.002916427794843912
1782952663820363300,8.36336328125,0.00022370553051587194,0.00418489146977663,0.0024892566725611687
1782952663830291200,8.373291259765624,-0.00025033715064637363,-0.00267674308270216,-0.002432797569781542
1782952663840218400,8.38321826171875,-0.000017843178284238093,0.0018101505702361465,-0.0010106696281582117
1782952663850146300,8.393146240234374,-0.000824248360004276,0.009710151702165604,0.003881557146087289
1782952663860074200,8.40307421875,0.0023337281309068203,0.001832787413150072,0.002567287301644683
1782952663870001400,8.41300146484375,-0.0030450583435595036,0.002948385663330555,-0.003427488263696432
1782952663879929300,8.422929443359376,0.0004516721237450838,0.005002481862902641,-0.0009046758059412241
1782952663889856000,8.43285595703125,-0.0008074704091995955,0.003403786104172468,0.0016764599131420255
1782952663899784400,8.442784423828124,-0.0024256070610135794,0.0054453653283417225,0.0013440974289551377
1782952663909711000,8.452711181640625,-0.0011416971683502197,0.005369998048990965,-0.0013110742438584566
1782952663919639000,8.46263916015625,-0.0004308994684834033,0.005382515024393797,0.0034815503749996424
1782952663929566200,8.472566162109375,-0.002552906284108758,0.0032410670537501574,0.0012865731259807944
1782952663939494100,8.482494140625,0.0007283745799213648,0.004267449490725994,-0.00007376955909421667
1782952663949421000,8.492421142578126,-0.000850879936479032,0.005034972447901964,0.00336197461001575
1782952663959349200,8.502349365234375,0.0008793757879175246,0.005561479367315769,-0.00034674355993047357
1782952663969277200,8.512277099609374,-0.0007315703551284969,0.006032059900462627,0.001520398654974997
1782952663979204000,8.5222041015625,-0.0019419770687818527,0.00415453128516674,0.004010987002402544
1782952663989132300,8.53213232421875,-0.001574194524437189,0.0052442969754338264,0.00005885586142539978
1782952663999059200,8.54205908203125,-0.002516687149181962,0.005772135220468044,-0.0025537051260471344
1782952664008987100,8.551987060546875,-0.0005632585380226374,0.006640858482569456,-0.0012860405258834362
1782952664018914300,8.561914306640626,-0.0015358449891209602,0.004168113227933645,0.0030623688362538815
1782952664028842200,8.57184228515625,0.0013938985066488385,0.005757754202932119,0.00022290658671408892
1782952664038769200,8.58176904296875,-0.0003384877636563033,0.004941229242831469,0.001799764228053391
1782952664048697300,8.591697265625,-0.0012237224727869034,0.004517520312219858,0.0007800398743711412
1782952664058625300,8.601625244140624,-0.002257561543956399,0.008702144958078861,0.0024642229545861483
1782952664068552200,8.61155224609375,-0.0008093346259556711,0.0043838294222950935,0.000624777574557811
1782952664078480600,8.621480712890625,-0.0004215783847030252,0.005495699122548103,-0.0001675128296483308
1782952664088407800,8.63140771484375,-0.0011387676931917667,0.005632585845887661,0.002682602033019066
1782952664098335700,8.641335693359375,-0.0009036105475388467,0.003817907767370343,-0.0009675264009274542
1782952664108262700,8.6512626953125,-0.0008841694798320532,0.004040281753987074,0.0008604673203080893
1782952664118190800,8.66119091796875,0.0009747169679030776,0.004290352575480938,-0.0007339671719819307
1782952664128117800,8.67111767578125,-0.0020777983590960503,0.007656321860849857,-0.00024580975878052413
1782952664138045700,8.681045654296875,-0.0025619608350098133,0.004455468617379665,0.002478870330378413
1782952664147974000,8.690973876953125,-0.0033683660440146923,0.0039087217301130295,0.0005930859479121864
1782952664157900800,8.70090087890625,0.00020825919636990875,0.005555886775255203,-0.00004846953015658073
1782952664167828700,8.710828857421875,0.00041305628838017583,0.005846437532454729,0.00219524372369051
1782952664177755600,8.720755615234374,-0.0014471617760136724,0.006174272391945124,-0.0005030711181461811
1782952664187683800,8.730683837890625,0.0013339773286134005,0.004421646241098642,0.0010641991393640637
1782952664197610500,8.740610595703124,-0.0011281149927526712,0.004941229242831469,0.0010524812387302518
1782952664207538700,8.75053857421875,0.0003123887872789055,0.004094077739864588,0.0019592875614762306
1782952664217465600,8.760465576171875,-0.0012737899087369442,0.0029579729307442904,-0.00043036683928221464
1782952664227393500,8.7703935546875,-0.0007507451227866113,0.004128698725253344,0.0013315805699676275
1782952664237320700,8.78032080078125,0.001032241270877421,0.005565740168094635,0.0011579424608498812
1782952664247248600,8.79024853515625,-0.002526008291170001,0.004547081422060728,0.0015789881581440568
1782952664257176600,8.800176513671875,0.0013800500892102718,0.007707187905907631,0.0030948594212532043
1782952664267103700,8.810103759765624,0.00011877698125317693,0.005089833401143551,0.0026791400741785765
1782952664277031700,8.82003173828125,0.001204547705128789,0.00506959343329072,0.0015824503498151898
1782952664286958600,8.82995849609375,-0.0021872541401535273,0.004595017991960049,0.0022514364682137966
1782952664296886800,8.83988671875,-0.0016535567119717598,0.004548146389424801,0.0013707289472222328
1782952664306813700,8.849813720703125,-0.0017092167399823666,0.004151335451751947,-0.00036485306918621063
1782952664316741600,8.85974169921875,0.0016554208705201745,0.0037470676470547915,0.0026016421616077423
1782952664326668800,8.869668701171875,-0.002171008847653866,0.005297826137393713,-0.0006679208017885685
1782952664336596700,8.8795966796875,0.0011432950850576162,0.004758003633469343,0.000008255799002654385
1782952664346524700,8.889524658203126,-0.00036751621519215405,0.003965979442000389,0.0035960664972662926
1782952664356451800,8.899451904296875,0.0001531317684566602,0.0032796829473227262,0.002139583695679903
1782952664366379800,8.9093798828125,-0.0014418354257941246,0.0054941014386713505,0.0033390712924301624
1782952664376306700,8.919306640625,0.0006641923682764173,0.00515721132978797,-0.0007720504072494805
1782952664386235000,8.92923486328125,0.0015731292078271508,0.0054967645555734634,0.0017944378778338432
1782952664396161800,8.939161865234375,0.000018375811123405583,0.005347627215087414,-0.0014301175251603127
1782952664406089700,8.94908984375,-0.00141041015740484,0.0030543794855475426,0.001924666459672153
1782952664416017000,8.959016845703125,-0.0008298410102725029,0.005514075048267841,0.003114566905423999
1782952664425944800,8.96894482421875,-0.0017718010349199176,0.005005144979804754,0.0018101505702361465
1782952664435871500,8.97887158203125,0.001204814063385129,0.0046365633606910706,0.0012412993237376213
1782952664445800000,8.988800048828125,-0.001281779375858605,0.003099120454862714,0.0026546388398855925
1782952664455727900,8.998727783203124,0.0024053670931607485,0.002692189533263445,0.00256462418474257
1782952664465654500,9.008654541015625,0.00021198761533014476,0.005151885095983744,-0.003306314582005143
1782952664475582700,9.018582763671875,-0.0014919028617441654,0.0057218014262616634,0.0014892396284267306
1782952664485509600,9.028509521484375,-0.0003981425834354013,0.005573729984462261,0.0009720537927933037
1782952664495437600,9.0384375,-0.0009392969077453017,0.005299957003444433,0.0016706009628251195
1782952664505364700,9.04836474609375,-0.0026517093647271395,0.004472779110074043,0.0017845842521637678
1782952664515292700,9.058292724609375,0.0006149238906800747,0.002662894781678915,0.00023861923546064645
1782952664525219600,9.068219482421876,-0.003382214577868581,0.00708800321444869,-0.0025094966404139996
1782952664535147800,9.078147705078125,0.0001328917423961684,0.0035428032279014587,0.004135889001190662
1782952664545075700,9.08807568359375,0.00023462448734790087,0.0029971215408295393,-0.00005406216951087117
1782952664555002600,9.098002685546875,0.0006167881074361503,0.004453604109585285,0.0007446198142133653
1782952664564930600,9.1079306640625,-0.002323075430467725,0.0054152715019881725,0.0022242721170186996
1782952664574857700,9.117857666015626,-0.000666322885081172,0.00603472301736474,0.0005834985640831292
1782952664584785700,9.12778564453125,-0.003457315731793642,0.008557802066206932,0.00041784998029470444
1782952664594712800,9.137712890625,-0.0007747135823592544,0.004790760576725006,0.0024887239560484886
1782952664604640800,9.147640869140625,-0.0006780407857149839,0.005819273181259632,0.0013542174128815532
1782952664614567700,9.157567626953124,-0.0038655782118439674,0.00504109775647521,0.0009454221581108868
1782952664624495900,9.167495849609375,0.0003784351865760982,0.006552175153046846,0.00210602767765522
1782952664634423800,9.177423828125,-0.0024442493449896574,0.006747917737811804,0.001231711939908564
1782952664644350700,9.187350830078126,-0.002606435678899288,0.005653358530253172,0.0011616708943620324
1782952664654278700,9.197278564453125,-0.0006713828770443797,0.004878644831478596,-0.00033635724685154855
1782952664664205800,9.207205810546874,-0.0007597998483106494,0.0018239989876747131,0.0005824333056807518
1782952664674133800,9.2171337890625,-0.001204814063385129,0.005233377683907747,0.00017017599020618945
1782952664684061000,9.22706103515625,0.0014335796004161239,0.007013434544205666,0.0016162724932655692
1782952664693988900,9.23698876953125,-0.001139300293289125,0.004014449194073677,-0.0006732470938004553
1782952664703915500,9.24691552734375,-0.0026378610637038946,0.005399559158831835,-0.000036485307646216825
1782952664713843700,9.25684375,0.00022770027862861753,0.006373210810124874,0.001068193931132555
1782952664723770600,9.2667705078125,-0.0015640745405107737,0.00433189794421196,0.0019406455103307962
1782952664733698600,9.276698486328126,-0.002183792181313038,0.005336442030966282,0.0010452907299622893
1782952664743626500,9.28662646484375,0.0004985437262803316,0.004219246096909046,0.001222657272592187
1782952664753553700,9.2965537109375,-0.0004916195175610483,0.005348959006369114,0.0005619269795715809
1782952664763481600,9.306481689453125,-0.0017361147329211235,0.0030921963043510914,0.001558748190291226
1782952664773405700,9.31640576171875,-0.0015970977256074548,0.006195577792823315,-0.0013411679537966847
1782952664783334000,9.326333984375,0.0015150723047554493,0.006529804784804583,-0.00039468047907575965
1782952664793261800,9.33626171875,-0.002130528911948204,0.004833370912820101,0.0034432008396834135
1782952664803188700,9.346188720703125,-0.00199364242143929,0.003198190126568079,-0.0016045545926317573
1782952664813116700,9.35611669921875,-0.001975266495719552,0.006515423767268658,0.0009363674325868487
1782952664823043800,9.3660439453125,-0.0012990899849683046,0.004716724622994661,-0.00046818371629342437
1782952664832971800,9.3759716796875,-0.001032507512718439,0.006429403554648161,-0.0005118595436215401
1782952664842898700,9.385898681640626,0.0003073287953156978,0.004256530199199915,0.0009872338268905878
1782952664852826600,9.39582666015625,0.0011587414192035794,0.002757969545200467,0.004061054438352585
1782952664862753500,9.40575341796875,-0.003689010627567768,0.00609224708750844,-0.0007584682898595929
1782952664872681700,9.415681640625,0.0009118663729168475,0.004430701024830341,0.0008567389450035989
1782952664882608600,9.425608642578124,-0.0010351707460358739,0.003876230912283063,0.0021193434949964285
1782952664892536600,9.43553662109375,-0.000811997801065445,0.005570267792791128,0.0028357338160276413
1782952664902464500,9.445464599609375,-0.00031878036679700017,0.0028881982434540987,-0.0002591255761217326
1782952664912391700,9.4553916015625,-0.0004165183927398175,0.0051843756809830666,-0.0012692625168710947
1782952664922319600,9.465319580078125,0.0010122675448656082,0.005531918257474899,-0.00011851066665258259
1782952664932246800,9.475246826171874,-0.0003270361921750009,0.00618226220831275,0.0024610271211713552
1782952664942174700,9.4851748046875,-0.0013683321885764599,0.005086637567728758,0.0025720810517668724
1782952664952101600,9.4951015625,-0.0023041670210659504,0.00475400872528553,0.0004471447318792343
1782952664962029600,9.505029541015626,0.0003249056462664157,0.0027627632953226566,0.0015686018159613013
1782952664971956700,9.514956787109375,-0.0010391654213890433,0.006024602800607681,0.001130778226070106
1782952664981884700,9.524884765625,-0.004142280668020248,0.0056925066746771336,-0.0008178567513823509
1782952664991811800,9.534811767578125,-0.002569684060290456,0.005261074751615524,0.00115394766908139
1782952665001739800,9.54473974609375,-0.0024346618447452784,0.006127933505922556,0.0029324067290872335
1782952665011667700,9.554667724609375,-0.002067944500595331,0.004913798533380032,-0.0002884203568100929
1782952665021595000,9.564594970703125,-0.002368615474551916,0.0056829191744327545,0.001686579897068441
1782952665031522800,9.574522705078126,-0.0009270463488064706,0.004634432960301638,-0.0017901768442243338
1782952665041449700,9.58444970703125,-0.002038117265328765,0.0027534421533346176,0.0002593918761704117
1782952665051377700,9.594377685546876,0.0011701929615810513,0.004688761197030544,0.0017129451734945178
1782952665061304800,9.604304931640625,-0.0013456953456625342,0.0027768779546022415,-0.0012580773327499628
1782952665071232800,9.614232666015624,-0.00025726135936565697,0.004474110435694456,0.0009398295660503209
1782952665081159700,9.62415966796875,-0.0005193164106458426,0.006073871627449989,0.001047154888510704
1782952665091087600,9.634087646484375,-0.002510561840608716,0.0031886028591543436,-0.0011078750248998404
1782952665101015600,9.644015625,0.00039547940832562745,0.0029923277907073498,0.0016980315558612347
1782952665110942700,9.653942626953125,-0.001583249308168888,0.002205097349360585,0.0017022925894707441
1782952665120870700,9.66387060546875,-0.0015214639715850353,0.0062464443035423756,0.000672448193654418
1782952665130797600,9.673797607421875,0.0015821839915588498,0.004808071069419384,0.0011922972043976188
1782952665140728600,9.683728515625,-0.0018695390317589045,0.005569468718022108,0.002302835462614894
1782952665150655500,9.693655517578126,-0.00020266656065359712,0.005073321983218193,0.0016341155860573053
1782952665160583400,9.70358349609375,-0.003689010627567768,0.005772135220468044,0.0002743055811151862
1782952665170510600,9.713510498046874,0.0012540825409814715,0.0044136568903923035,0.001791242160834372
1782952665180438500,9.7234384765625,-0.0001954760227818042,0.0046996804885566235,-0.0014415690675377846
1782952665190365400,9.733365478515625,-0.0021108214277774096,0.004000334069132805,-0.0023409186396747828
1782952665200293600,9.743293701171876,0.0010341054294258356,0.003634682158008218,0.0016373114194720984
1782952665210220500,9.753220458984375,-0.0029031119775027037,0.006657103542238474,-0.0014178669080138206
1782952665220148500,9.7631484375,-0.000215716048842296,0.005535380449146032,0.0032442628871649504
1782952665230075600,9.77307568359375,-0.00446984963491559,0.004680771846324205,-0.0010508833220228553
1782952665240003600,9.783003662109374,-0.0010812433902174234,0.004850681405514479,-0.00039734362508170307
1782952665249931500,9.792931640625,-0.000026365294615970924,0.005811283830553293,0.0011701929615810513
1782952665259858700,9.802858642578125,-0.0035265579354017973,0.006360960192978382,0.0031909996178001165
1782952665269786600,9.81278662109375,0.00031425300403498113,0.004491953644901514,-0.0010695254895836115
1782952665279713500,9.822713623046875,-0.003584881080314517,0.005771336145699024,-0.0005446164286695421
1782952665289641700,9.832641845703124,-0.0008396946941502392,0.0070704263634979725,0.00239258399233222
1782952665299568600,9.842568603515625,-0.00023808660625945777,0.006845921743661165,0.0025129588320851326
1782952665309496600,9.85249658203125,-0.0001310275256400928,0.006715427152812481,0.0010229201288893819
1782952665319423700,9.862423828125,-0.0007171892793849111,0.006611297372728586,-0.00047883635852485895
1782952665329351700,9.8723515625,-0.001511876587755978,0.00535481795668602,0.00003888214996550232
1782952665339279600,9.882279541015626,0.0009890979854390025,0.004309527110308409,0.0012514194240793586
1782952665349206800,9.892206787109375,-0.0030059099663048983,0.007622499484568834,0.0024943165481090546
1782952665359134700,9.902134765625,-0.0021430456545203924,0.005650429055094719,0.00044900894863530993
1782952665369061400,9.912061279296875,0.0005739112384617329,0.004619519226253033,-0.0011030812747776508
1782952665378989800,9.92198974609375,0.0013097425689920783,0.0020330571569502354,0.0008572715451009572
1782952665388916500,9.93191650390625,-0.0005395564367063344,0.0054757255129516125,0.00043835630640387535
1782952665398844400,9.941844482421875,0.0012237224727869034,0.0026317357551306486,0.0015747271245345473
1782952665408771600,9.951771484375,-0.0005078648100607097,0.004475442226976156,-0.0016285229939967394
1782952665418699500,9.961699462890625,-0.0010370349045842886,0.004483165219426155,0.000862864195369184
1782952665428626400,9.97162646484375,-0.0003326288133393973,0.003930825740098953,0.00036964676110073924
1782952665438554600,9.9815546875,0.0002657834847923368,0.004387824330478907,0.00040772996726445854
1782952665448482600,9.991482666015624,0.00027270769351162016,0.004924451000988483,0.0009704558760859072
1782952665458409500,10.001409423828125,-0.002883138135075569,0.005281314719468355,-0.00017603494052309543
1782952665468337400,10.01133740234375,-0.0016724651213735342,0.0051806471310555935,0.00048389637959189713
1782952665478264600,10.0212646484375,0.0012474246323108673,0.0062248725444078445,0.001377919572405517
1782952665488192500,10.031192626953125,-0.0013938985066488385,0.0065596322529017925,0.0006964165950194001
1782952665498119700,10.04111962890625,-0.00247540813870728,0.006642988882958889,0.0005608617211692035
1782952665508047600,10.051047607421875,-0.001588841900229454,0.003973968792706728,-0.0010514160385355353
1782952665517974500,10.060974609375,0.0008503473363816738,0.0029726203065365553,-0.00009880327706923708
1782952665527902700,10.07090283203125,-0.0010575412306934595,0.005251753609627485,-0.0013619405217468739
1782952665537830700,10.08083056640625,0.0004540689697023481,0.006091448478400707,-0.0009941579774022102
1782952665547757600,10.090757568359376,0.001070857048034668,0.005245628301054239,0.0010657970560714602
1782952665557685500,10.100685546875,0.00020000340009573847,0.0035947347059845924,0.0013243899447843432
1782952665567612700,10.11061279296875,0.00005246427463134751,0.005628058221191168,-0.0007552724564447999
1782952665577540600,10.12054052734375,0.0001459412305848673,0.003984355367720127,-0.0013467605458572507
1782952665587467800,10.1304677734375,0.0009912285022437572,0.007152185309678316,-0.002416286151856184
1782952665597395700,10.140395751953125,-0.0015251922886818647,0.0037910097744315863,0.001535046030767262
1782952665607322600,10.150322509765624,0.0015595471486449242,0.0031755531672388315,0.0005707154050469398
1782952665617250600,10.16025048828125,-0.0021763353142887354,0.004897287115454674,-0.0004777711001224816
1782952665627177500,10.170177490234375,0.0008314388687722385,0.003838414093479514,0.0014540859265252948
1782952665637105700,10.180105712890626,0.0035177695099264383,0.005063201766461134,-0.0014708638191223145
1782952665647033600,10.19003369140625,0.00011478224041638896,0.00544323492795229,0.0009086705395020545
1782952665656960500,10.19996044921875,-0.0009624664089642465,0.005379585549235344,-0.000025566347176209092
1782952665666888400,10.209888427734375,0.0007243797881528735,0.0032487902790308,0.0003278351214248687
1782952665676815600,10.219815673828125,0.000313986703986302,0.006727145053446293,0.0023086944129318
1782952665686743600,10.22974365234375,-0.00033209618413820863,0.00515774404630065,0.0015808524331077933
1782952665696670500,10.23967041015625,0.000755805114749819,0.0037374801468104124,0.0010972223244607449
1782952665706598400,10.249598388671876,-0.0003981425834354013,0.004035754129290581,-0.0001294296234846115
1782952665716525600,10.259525634765625,-0.0005512743373401463,0.006125270389020443,-0.0015638081822544336
1782952665726453500,10.26945361328125,-0.0019060244085267186,0.003484213724732399,0.00013262542779557407
1782952665736380700,10.279380615234375,-0.0011574097443372011,0.003972104750573635,-0.000185888638952747
1782952665746308600,10.28930859375,0.001540904981084168,0.002516953507438302,0.0007773766992613673
1782952665756236500,10.299236572265626,-0.0006905576447024941,0.006673881784081459,0.002460228279232979
1782952665766163700,10.309163818359375,-0.0012610068079084158,0.005677859298884869,0.0006410228670574725
1782952665776091600,10.319091552734376,0.0005451490869745612,0.004667988512665033,0.0002692455891519785
1782952665786018600,10.3290185546875,-0.002261556452140212,0.006445648614317179,-0.0005512743373401463
1782952665795946500,10.338946533203124,-0.0016743293963372707,0.0052229915745556355,-0.001386441639624536
1782952665805873700,10.348873779296875,0.00022690132027491927,0.0047090016305446625,0.0012146678054705262
1782952665815801600,10.358801513671875,-0.000003462109361862531,0.00430100504308939,0.001116130850277841
1782952665825728800,10.368728759765625,-0.0016961672808974981,0.0037324202712625265,0.0015060176374390721
1782952665835656700,10.37865673828125,0.0003808320325333625,0.0029228192288428545,-0.0005382248782552779
1782952665845583600,10.38858349609375,0.003640807466581464,0.0030953921377658844,-0.0003022687742486596
1782952665855511600,10.398511474609375,-0.00037497308221645653,0.006354302167892456,0.0035177695099264383
1782952665865439700,10.408439697265624,-0.003117762738838792,0.004737230949103832,-0.00033156355493701994
1782952665875366700,10.41836669921875,-0.0009305084822699428,0.004025101661682129,0.0015006912872195244
1782952665885294600,10.428294677734375,-0.00033955302205868065,0.00401657959446311,-0.0005262406193651259
1782952665895221500,10.438221435546875,-0.002516687149181962,0.002941993996500969,0.002752110594883561
1782952665905149700,10.448149658203125,0.0012365056900307536,0.0041822283528745174,0.0023220102302730083
1782952665915076600,10.45807666015625,-0.0009286442655138671,0.00737242866307497,0.000050600061513250694
1782952665925004500,10.468004638671875,-0.00481366366147995,0.005539907608181238,-0.0013257216196507215
1782952665934931500,10.477931396484376,-0.004102599807083607,0.003824033075943589,0.0021558289881795645
1782952665944859400,10.487859375,-0.0007997472421266139,0.005254416726529598,0.0016378440195694566
1782952665954787600,10.49778759765625,-0.001377919572405517,0.005681321490556002,0.0014807175612077117
1782952665964714500,10.507714599609375,-0.0019627497531473637,0.005856291390955448,0.000015712650565546937
1782952665974642400,10.517642333984375,-0.0024855281226336956,0.0033846113365143538,-0.0007060039788484573
1782952665984569600,10.527569580078126,-0.0015779229579493403,0.005037102848291397,-0.00020532972121145576
1782952665994497500,10.53749755859375,0.0007403587806038558,0.00410419749096036,0.001955292886123061
1782952666004424400,10.547424560546874,-0.000261788722127676,0.0046669235453009605,0.002900448627769947
1782952666014352600,10.5573525390625,-0.00035420042695477605,0.003329217666760087,0.002079928759485483
1782952666024279600,10.567279541015624,-0.0011622034944593906,0.005530320107936859,0.0022626216523349285
1782952666034207500,10.57720751953125,-0.0015763250412419438,0.006907707080245018,-0.0015033544041216373
1782952666044134700,10.587134765625,0.001329716295003891,0.0028868666850030422,0.001163268811069429
1782952666054062600,10.5970625,-0.0025539714843034744,0.005791043862700462,-0.0010048106778413057
1782952666063990500,10.606990478515625,0.002529470482841134,0.0062704128213226795,-0.000005326322025211994
1782952666073917200,10.616917236328124,-0.0026493126060813665,0.004546015989035368,0.0007355650886893272
1782952666083845000,10.62684521484375,-0.0018423747969791293,0.003628556849434972,0.000050333743274677545
1782952666093772300,10.636772216796874,-0.0011677960865199566,0.0041065942496061325,0.0013004215434193611
1782952666103700200,10.6467001953125,-0.0025784724857658148,0.004859469830989838,-0.00007723167072981596
1782952666113627100,10.656627197265625,-0.0019068233668804169,0.004442951641976833,-0.00013422331539914012
1782952666123555000,10.66655517578125,-0.0002812298189383,0.004757470916956663,0.0036770266015082598
1782952666133482200,10.676482177734375,-0.0004218447138555348,0.00577719509601593,-0.0021824603900313377
1782952666143410200,10.68641015625,-0.0016684704460203648,0.0050701261498034,-0.00096113485051319
1782952666153337300,10.69633740234375,0.00014620754518546164,0.0033870083279907703,0.0012431635987013578
1782952666163265300,10.706265380859374,0.0009861685102805495,0.005726329050958157,0.0023576964158564806
1782952666173192200,10.716192138671875,-0.001583249308168888,0.005691441707313061,0.001800030586309731
1782952666183120100,10.7261201171875,0.0015425028977915645,0.006081860978156328,0.0007153250626288354
1782952666193048300,10.73604833984375,-0.0004034689045511186,0.005489573813974857,-0.0004767058417201042
1782952666202975200,10.745975341796875,-0.0024232103023678064,0.006172941066324711,-0.000550475378986448
1782952666212903200,10.755903076171874,-0.00008362325752386823,0.0041524008847773075,-0.0007563377148471773
1782952666222830300,10.765830322265625,-0.0011624698527157307,0.0038511971943080425,0.0006559365428984165
1782952666232758300,10.77575830078125,-0.001145425601862371,0.003808053908869624,0.0009512811084277928
1782952666242685400,10.785685546875,0.002255697501823306,0.005833121482282877,0.002122006844729185
1782952666252613400,10.79561328125,-0.0015257250051945448,0.004027498420327902,-0.00016698020044714212
1782952666262540300,10.805540283203126,0.0014394385507330298,0.0034013893455266953,0.0011257182341068983
1782952666272468200,10.81546826171875,0.0020240023732185364,0.0034961977507919073,0.004168113227933645
1782952666282396400,10.825396484375,-0.0024953819811344147,0.006317550782114267,-0.0013379721203818917
1782952666292323300,10.8353232421875,-0.0007105313707143068,0.0034463966730982065,0.0008048072922974825
1782952666302251300,10.845251220703124,0.0012450277572497725,0.004780906718224287,0.0012442287988960743
1782952666312178200,10.85517822265625,-0.001038632821291685,0.0073077138513326645,0.0003787015157286078
1782952666322106400,10.8651064453125,-0.000011717908819264267,0.005067729391157627,0.0007006776868365705
1782952666332033300,10.875033203125,-0.0028972530271857977,0.006049104034900665,0.001746234716847539
1782952666341961200,10.884961181640625,-0.0006056028068996966,0.0034554514568299055,0.0015483618481084704
1782952666351888100,10.89488818359375,-0.000770452490542084,0.0031617048662155867,0.0019236012594774365
1782952666361816000,10.904816162109375,-0.0008460862445645034,0.003352653468027711,0.00009693906031316146
1782952666371743200,10.9147431640625,-0.003629888640716672,0.006079464219510555,0.0023869911674410105
1782952666381671200,10.924671142578125,-0.001597630325704813,0.0038890140131115913,0.0017544905422255397
1782952666391598300,10.934598388671875,0.0012093414552509785,0.005527124274522066,0.0013968279818072915
1782952666401526300,10.9445263671875,-0.0001102548703784123,0.006896255537867546,0.0014974954538047314
1782952666411454200,10.9544541015625,0.0006106628570705652,0.005252819042652845,-0.0007584682898595929
1782952666421381000,10.964381103515626,-0.000313986703986302,0.0036607813090085983,-0.00012357067316770554
1782952666431309300,10.974309326171875,-0.0016245282022282481,0.001880191732198,0.0015837819082662463
1782952666441236200,10.984236328125,-0.0013102752855047584,0.005106877535581589,-0.000294545607175678
1782952666451164200,10.9941640625,-0.0021912488155066967,0.006852579768747091,-0.0009233179152943194
1782952666461091300,11.00409130859375,-0.0016378440195694566,0.005172924138605595,0.001511343871243298
1782952666471019300,11.014019287109376,0.0008580705034546554,0.003495132550597191,0.00236328924074769
1782952666480946200,11.0239462890625,-0.0019286612514406443,0.00555215822532773,0.0006106628570705652
1782952666490874400,11.033874267578126,0.0025214808993041515,0.002266349969431758,0.0013459615875035524
1782952666500801300,11.04380126953125,-0.001960619119927287,0.02371278591454029,0.008112520910799503
1782952666510729200,11.053729248046874,-0.00202293717302382,0.01158448401838541,0.0023315974976867437
1782952666520657400,11.063657470703125,0.0011206581257283688,0.004887965973466635,-0.0012825783342123032
1782952666530584300,11.073584228515625,-0.003722566645592451,0.002154231071472168,-0.000636495475191623
1782952666540512300,11.08351220703125,0.0002388855500612408,-0.0011211908422410488,0.0015307849971577525
1782952666550439400,11.093439453125,0.0009036105475388467,-0.0019283948931843042,0.0007411577389575541
1782952666560367400,11.103367431640624,-0.0003217098710592836,0.0041731735691428185,-0.0013547500129789114
1782952666570294000,11.1132939453125,0.0005760417552664876,0.002523611532524228,-0.0009100021561607718
1782952666580222500,11.123222412109374,0.0007773766992613673,0.006521548610180616,-0.0022564963437616825
1782952666590149000,11.133149169921875,-0.0023731428664177656,0.006859504152089357,0.0012013519881293178
