time,seconds_elapsed,z,y,x
1782969670491572200,0.073572265625,-0.009388504549860954,0.005139508284628391,0.003517666831612587
1782969670501499100,0.0834990234375,-0.01958788000047207,-0.003961046226322651,-0.03740952908992767
1782969670511425000,0.093425048828125,-0.022217344492673874,-0.020626451820135117,-0.06252870708703995
1782969670521351200,0.10335107421875,-0.021146753802895546,-0.027794349938631058,-0.0756319910287857
1782969670531278000,0.113278076171875,-0.014023245312273502,-0.02511589229106903,-0.08610440045595169
1782969670541204000,0.123203857421875,-0.007589314598590136,-0.025331340730190277,-0.08580639958381653
1782969670551130000,0.133130126953125,-0.010931161232292652,-0.02295086160302162,-0.06849236786365509
1782969670561057000,0.14305712890625,-0.009512761607766151,-0.018275681883096695,-0.03281879052519798
1782969670570983200,0.152983154296875,-0.018683623522520065,-0.010584207251667976,-0.009253542870283127
1782969670580909000,0.162908935546875,-0.028001490980386734,0.002860761247575283,0.010535875335335732
1782969670590836000,0.1728359375,-0.02899562194943428,0.005753491073846817,0.014253690838813782
1782969670600762000,0.18276220703125,-0.02916686236858368,0.001526521984487772,0.00973004475235939
1782969670610688000,0.19268798828125,-0.021168339997529984,-0.010888953693211079,0.00970702338963747
1782969670620615000,0.202614990234375,-0.015419639647006989,-0.01628345251083374,0.01557423360645771
1782969670630541000,0.212541015625,-0.011688368394970894,-0.0015172392595559359,0.02872677892446518
1782969670640467200,0.22246728515625,-0.006180684547871351,0.002924913540482521,0.03987264260649681
1782969670650393000,0.23239306640625,-0.0008259652531705797,0.0013055098243057728,0.04666231572628021
1782969670660320000,0.242320068359375,-0.000678159820381552,0.0032549439929425716,0.0683489665389061
1782969670670246100,0.25224609375,-0.00022685161093249917,0.023050718009471893,0.08245853334665298
1782969670680172000,0.262172119140625,-0.0017115639057010412,0.023888548836112022,0.08506603538990021
1782969670690099000,0.272098876953125,0.003518856130540371,0.014364180155098438,0.07509451359510422
1782969670700025000,0.282025146484375,0.014836225658655167,-0.009348073974251747,0.05073244497179985
1782969670709951200,0.291951171875,0.026496540755033493,-0.0258468184620142,0.038339950144290924
1782969670719878100,0.301878173828125,0.03460906073451042,-0.029548613354563713,0.0395844429731369
1782969670729804000,0.311803955078125,0.03708278760313988,-0.01309252344071865,0.05479808151721954
1782969670739730200,0.321730224609375,0.029295438900589943,0.004020683001726866,0.08226725459098816
1782969670749657000,0.331656982421875,0.012728026136755943,0.026851018890738487,0.11689125746488571
1782969670759583000,0.3415830078125,0.013781305402517319,0.033510252833366394,0.157936692237854
1782969670769509000,0.351509033203125,0.007977394387125969,0.03102966770529747,0.1874227374792099
1782969670779436000,0.36143603515625,-0.00152609555516392,0.037314195185899734,0.20103123784065247
1782969670789362200,0.371362060546875,-0.0005143465823493898,0.0362967886030674,0.20653164386749268
1782969670799288000,0.3812880859375,-0.00027998839505016804,0.0357697494328022,0.20036403834819794
1782969670809214200,0.391214111328125,-0.0006967872614040971,0.028549201786518097,0.1744145303964615
1782969670819141000,0.40114111328125,-0.008006898686289787,0.024935025721788406,0.12534099817276
1782969670829067000,0.41106689453125,-0.007896853610873222,0.004654631018638611,0.07138897478580475
1782969670838993200,0.4209931640625,0.0006835852982476354,-0.011465748772025108,0.011962668970227242
1782969670848920000,0.430920166015625,-0.0013719552662223577,-0.031136510893702507,-0.037362515926361084
1782969670858846200,0.44084619140625,-0.005326482933014631,-0.039058614522218704,-0.07278388738632202
1782969670868772000,0.450772216796875,-0.0174097903072834,-0.03625768795609474,-0.0931926891207695
1782969670878699000,0.460698974609375,-0.03167475014925003,-0.03469547629356384,-0.10195501893758774
1782969670888625200,0.470625244140625,-0.044990889728069305,-0.02182258665561676,-0.08819428086280823
1782969670898551000,0.480551025390625,-0.05502035468816757,0.002399129793047905,-0.054959896951913834
1782969670908478000,0.49047802734375,-0.05430026724934578,0.017467724159359932,-0.023591166362166405
1782969670918404000,0.500404052734375,-0.050606727600097656,0.020865384489297867,-0.006081414874643087
1782969670928330200,0.510330322265625,-0.04590080678462982,0.009415077045559883,0.012038517743349075
1782969670938256100,0.520256103515625,-0.03541380912065506,0.004359598271548748,0.028883542865514755
1782969670948183000,0.53018310546875,-0.02363693341612816,0.0022849501110613346,0.04469877853989601
1782969670958109200,0.540109130859375,-0.007414288353174925,-0.005464582238346338,0.05677781254053116
1782969670968035000,0.55003515625,0.005647983867675066,-0.006042222026735544,0.06236991658806801
1782969670977962000,0.5599619140625,0.01896512135863304,0.0017461925745010376,0.06712472438812256
1782969670987888000,0.56988818359375,0.0203232504427433,0.008800256997346878,0.061968106776475906
1782969670997814300,0.579814208984375,0.020746426656842232,0.022425256669521332,0.05127844586968422
1782969671007741000,0.589740966796875,0.02255440317094326,0.025476515293121338,0.039368823170661926
1782969671017667000,0.5996669921875,0.02003665082156658,0.01869237795472145,0.01616336777806282
1782969671027593200,0.60959326171875,0.017250996083021164,0.008507737889885902,-0.0067016142420470715
1782969671037520100,0.61952001953125,0.01205836609005928,0.002201638650149107,-0.017761455848813057
1782969671047446000,0.629446044921875,0.006780429743230343,0.011494091711938381,-0.022785712033510208
1782969671057372200,0.6393720703125,0.01265642885118723,0.009666896425187588,-0.03292543441057205
1782969671067299000,0.649299072265625,0.018503090366721153,0.003977394662797451,-0.04191037267446518
1782969671077224700,0.659224609375,0.02017049491405487,-0.010699286125600338,-0.04702044278383255
1782969671087150800,0.66915087890625,0.023083966225385666,-0.017450938001275063,-0.042232125997543335
1782969671097077000,0.679076904296875,0.015001803636550903,-0.019873082637786865,-0.03367192670702934
1782969671107004000,0.68900390625,0.010917257517576218,-0.016492309048771858,-0.017191646620631218
1782969671116929800,0.6989296875,0.009893538430333138,-0.01692826859652996,-0.007359256502240896
1782969671126856000,0.70885595703125,0.010366881266236305,-0.002045957837253809,0.014471067115664482
1782969671136782800,0.718782958984375,0.001948096207343042,0.002154912333935499,0.027489930391311646
1782969671146708700,0.728708740234375,-0.004954508971422911,0.007565048523247242,0.02767685241997242
1782969671156635000,0.738634765625,-0.01221588347107172,0.006380208767950535,0.018336348235607147
1782969671166561800,0.748561767578125,-0.01934267021715641,0.0019543361850082874,-0.0021352434996515512
1782969671176488000,0.758488037109375,-0.021733656525611877,0.00016575679183006287,-0.025271723046898842
1782969671186413800,0.768413818359375,-0.01972302794456482,-0.005160142667591572,-0.050832897424697876
1782969671196340700,0.7783408203125,-0.015355442650616169,-0.007721038535237312,-0.0698539987206459
1782969671206267000,0.788266845703125,-0.010462095960974693,-0.005776120349764824,-0.08954399079084396
1782969671216192800,0.79819287109375,-0.0009575403528288007,-0.021078910678625107,-0.11567413061857224
1782969671226119700,0.80811962890625,0.0032538441009819508,-0.0424778014421463,-0.12306442856788635
1782969671236045800,0.8180458984375,-0.001675400766544044,-0.03252610191702843,-0.10211093723773956
1782969671245972000,0.827971923828125,-0.007722319103777409,-0.006376778706908226,-0.06661757081747055
1782969671255897900,0.83789794921875,-0.014945611357688904,0.014686428010463715,-0.03960885852575302
1782969671265824800,0.84782470703125,-0.011719484813511372,0.02444717288017273,-0.027139980345964432
1782969671275751000,0.8577509765625,-0.0013411464169621468,0.019413799047470093,-0.031192246824502945
1782969671285676800,0.8676767578125,0.004675284959375858,0.010777284391224384,-0.03829576075077057
1782969671295603700,0.877603759765625,0.006407404784113169,0.003241070546209812,-0.056563183665275574
1782969671305529900,0.88752978515625,0.015041163191199303,-0.007516924291849136,-0.07983718812465668
1782969671315456000,0.8974560546875,0.029322631657123566,-0.05563119053840637,-0.08908634632825851
1782969671325382700,0.907382568359375,0.03222877159714699,-0.048642486333847046,-0.07043237239122391
1782969671335308800,0.917308837890625,0.02687341906130314,-0.026603233069181442,-0.035577718168497086
1782969671345235000,0.92723486328125,0.014626985415816307,-0.009147955104708672,-0.0018450738862156868
1782969671355161900,0.937161865234375,0.011451431550085545,0.01128514762967825,0.017205316573381424
1782969671365087700,0.947087646484375,0.005123999901115894,0.0012932289391756058,0.023788340389728546
1782969671375014000,0.957013916015625,0.007363718468695879,-0.006041116546839476,0.03207476809620857
1782969671384940000,0.96693994140625,0.006758115254342556,-0.002573414472863078,0.041527923196554184
1782969671394867000,0.976866943359375,0.010105708613991737,0.01888340711593628,0.07879619300365448
1782969671404792800,0.986792724609375,0.014524033293128014,0.06337626278400421,0.12467430531978607
1782969671414719000,0.996718994140625,0.01571553200483322,0.1129763126373291,0.1536651998758316
1782969671424646000,1.00664599609375,0.014897702261805534,0.1233554482460022,0.1425311118364334
1782969671434571800,1.01657177734375,0.017487360164523125,0.09708470106124878,0.10164226591587067
1782969671444498000,1.026497802734375,0.013437772169709206,0.03274025395512581,0.05170872062444687
1782969671454424800,1.0364248046875,0.004781167022883892,-0.03313090652227402,0.02764705754816532
1782969671464351000,1.04635107421875,0.001972064608708024,-0.009686300531029701,0.04949083924293518
1782969671474276900,1.05627685546875,-0.007993483915925026,0.01430025789886713,0.09248224645853043
1782969671484203800,1.066203857421875,-0.01094827614724636,0.03359254449605942,0.14265628159046173
1782969671494130000,1.0761298828125,-0.0036440235562622547,0.08039600402116776,0.18107210099697113
1782969671504055800,1.086055908203125,-0.0006075592245906591,0.11148252338171005,0.19023169577121735
1782969671513981700,1.095981689453125,0.010440031997859478,0.08893460035324097,0.1663583219051361
1782969671523908900,1.105908935546875,0.023311274126172066,0.04516926035284996,0.12270871549844742
1782969671533835000,1.1158349609375,0.035331983119249344,-0.002403319114819169,0.07154406607151031
1782969671543761000,1.125760986328125,0.038011543452739716,-0.010981048457324505,0.0409349761903286
1782969671553687800,1.135687744140625,0.03080849163234234,-0.012281470000743866,0.010987196117639542
1782969671563614000,1.145614013671875,0.018916020169854164,-0.015487157739698887,-0.015963098034262657
1782969671573539800,1.155539794921875,0.008264973759651184,-0.01102449931204319,-0.041215457022190094
1782969671583466800,1.165466796875,0.001847344683483243,-0.00638436246663332,-0.06244095787405968
1782969671593393000,1.175392822265625,-0.00672457180917263,-0.015361346304416656,-0.07486540824174881
1782969671603319000,1.185319091796875,-0.006569057237356901,-0.008510016836225986,-0.06117002293467522
1782969671613245700,1.19524560546875,-0.007137908600270748,0.012337207794189453,-0.03670382872223854
1782969671623171800,1.205171875,0.0012990129180252552,0.026871947571635246,-0.019905896857380867
1782969671633098000,1.215097900390625,0.008155587129294872,0.02273446135222912,-0.017244067043066025
1782969671643025000,1.22502490234375,0.007317798677831888,0.020116232335567474,-0.009818939492106438
1782969671652950800,1.23495068359375,0.0034724606666713953,0.025068912655115128,-0.0016134742181748152
1782969671662877000,1.244876953125,-0.0011361527722328901,0.031391169875860214,-0.0037324046716094017
1782969671672802800,1.254802734375,-0.015261826105415821,0.030713927000761032,-0.007631272543221712
1782969671682729700,1.264729736328125,-0.01494702696800232,0.032273828983306885,-0.010068211704492569
1782969671692655900,1.27465576171875,-0.017578229308128357,0.024448927491903305,-0.00845300406217575
1782969671702581800,1.284581787109375,-0.012686646543443203,0.043765511363744736,0.0045158108696341515
1782969671712509000,1.294509033203125,-0.006170956417918205,0.041780658066272736,0.024255426600575447
1782969671722434800,1.304434814453125,-0.008337060920894146,0.02448461577296257,0.030259771272540092
1782969671732361000,1.31436083984375,-0.004368152003735304,0.05288536101579666,0.03577437624335289
1782969671742288000,1.324287841796875,-0.016785182058811188,0.03231554850935936,0.02501717396080494
1782969671752213800,1.3342138671875,-0.02763516642153263,0.046545617282390594,0.02778819389641285
1782969671762140000,1.344139892578125,-0.03141182288527489,0.07890265434980392,0.04084555804729462
1782969671772066800,1.35406689453125,-0.04033580794930458,0.0817256048321724,0.05146970599889755
1782969671781993000,1.363992919921875,-0.04041542485356331,0.07649800926446915,0.046125732362270355
1782969671791918800,1.3739189453125,-0.04322612285614014,0.0512927807867527,0.017168380320072174
1782969671801844700,1.3838447265625,-0.04223685711622238,-0.011576496995985508,-0.016278119757771492
1782969671811772000,1.39377197265625,-0.03825303539633751,-0.05627179890871048,-0.03640761971473694
1782969671821697800,1.40369775390625,-0.04918352887034416,-0.0437457337975502,-0.023854749277234077
1782969671831623700,1.413623779296875,-0.07254504412412643,-0.01629200577735901,-0.0002420980017632246
1782969671841550800,1.42355078125,-0.07878822088241577,0.012216100469231606,0.027825040742754936
1782969671851477000,1.43347705078125,-0.08307245373725891,0.05133393779397011,0.04480082914233208
1782969671861402600,1.443402587890625,-0.09474323689937592,0.07610435038805008,0.05500640347599983
1782969671871329800,1.453329833984375,-0.10310157388448715,0.08265732228755951,0.04586270824074745
1782969671881256000,1.463255859375,-0.09862859547138214,0.04541511833667755,0.006695512682199478
1782969671891181800,1.473181884765625,-0.09147907048463821,-0.00860524270683527,-0.042595069855451584
1782969671901108700,1.483108642578125,-0.08866024017333984,-0.019193746149539948,-0.07790903002023697
1782969671911035000,1.493034912109375,-0.07576973736286163,-0.05128989741206169,-0.10465142130851746
1782969671920961000,1.5029609375,-0.06720325350761414,-0.07487914711236954,-0.11704963445663452
1782969671930886700,1.51288671875,-0.05960392206907272,-0.08166833966970444,-0.11481737345457077
1782969671940813800,1.522813720703125,-0.052385393530130386,-0.07620742917060852,-0.09216760098934174
1782969671950740000,1.532739990234375,-0.05545894801616669,-0.024729853495955467,-0.05742533132433891
1782969671960665900,1.542665771484375,-0.05340610072016716,0.014191197231411934,-0.01893320307135582
1782969671970592800,1.5525927734375,-0.04972055181860924,0.026175154373049736,0.014799194410443306
1782969671980519000,1.562518798828125,-0.040261659771203995,0.037024032324552536,0.030386505648493767
1782969671990444800,1.57244482421875,-0.03399231284856796,0.03385753557085991,0.025093471631407738
1782969672000372000,1.5823720703125,-0.02651153691112995,0.031555674970149994,0.011301331222057343
1782969672010297900,1.5922978515625,-0.022630512714385986,0.030650733038783073,-0.003941271919757128
1782969672020223700,1.6022236328125,-0.010860742069780827,0.020734688267111778,-0.009573408402502537
1782969672030151000,1.61215087890625,0.0012979204766452312,0.010322793386876583,-0.016818271949887276
1782969672040076800,1.622076904296875,0.004499839153140783,0.006886250339448452,-0.023691358044743538
1782969672050002700,1.632002685546875,0.005597594194114208,-0.0035890277940779924,-0.036898769438266754
1782969672059929900,1.641929931640625,-0.0038409570697695017,-0.007525105029344559,-0.04319152235984802
1782969672069856000,1.65185595703125,0.0005173059180378914,-0.0004818434827029705,-0.03764735534787178
1782969672079782700,1.66178271484375,0.004912895150482655,0.0024494235403835773,-0.02225378341972828
1782969672089708500,1.67170849609375,0.008094573393464088,0.013980643823742867,-0.010353182442486286
1782969672099635700,1.6816357421875,0.013451842591166496,0.018813494592905045,-0.004683756735175848
1782969672109561600,1.6915615234375,0.013285128399729729,0.02354539930820465,-0.008218836970627308
1782969672119487500,1.701487548828125,0.011602755635976791,0.01575510948896408,-0.016191896051168442
1782969672129414700,1.71141455078125,0.006401868537068367,0.005957072600722313,-0.029680274426937103
1782969672139340500,1.721340576171875,0.003934758249670267,0.004971893969923258,-0.04092710465192795
1782969672149266700,1.7312666015625,0.0007144638220779598,0.018110333010554314,-0.05129292607307434
1782969672159193600,1.741193603515625,0.001125333015806973,0.020118778571486473,-0.047562792897224426
1782969672169119500,1.751119384765625,-0.000582285865675658,0.02377529814839363,-0.03508482128381729
1782969672179045600,1.761045654296875,-0.004159402102231979,0.04472577944397926,-0.02425031177699566
1782969672188972800,1.770972900390625,0.0029869244899600744,0.0638028010725975,-0.027167804539203644
1782969672198898400,1.7808984375,0.029289398342370987,0.012935196980834007,-0.046389587223529816
1782969672208824600,1.790824462890625,0.017731545493006706,-0.013976044952869415,-0.06355898827314377
1782969672218750700,1.800750732421875,0.008443630300462246,-0.011697137728333473,-0.06943535059690475
1782969672228677600,1.810677734375,0.003546076826751232,-0.004586764145642519,-0.06139819324016571
1782969672238603500,1.820603515625,-0.0005428711301647127,0.006095638033002615,-0.04432492330670357
1782969672248529700,1.83052978515625,-0.005744557362049818,0.004591218661516905,-0.03789978101849556
1782969672258456800,1.840456787109375,-0.010037068277597427,-0.002294923411682248,-0.039598919451236725
1782969672268382500,1.850382568359375,-0.012449892237782478,-0.0024411308113485575,-0.03564625605940819
1782969672278308600,1.86030859375,0.0006225280230864882,0.0007883240468800068,-0.02279825322329998
1782969672288235800,1.87023583984375,0.021159496158361435,-0.01989644765853882,-0.0226760134100914
1782969672298161400,1.880161376953125,0.0072203692980110645,-0.019603027030825615,-0.00846981443464756
1782969672308087600,1.890087646484375,0.0009291835594922304,-0.005363637115806341,-0.006220508366823196
1782969672318014700,1.9000146484375,-0.0014287920203059912,-0.013146279379725456,-0.0022354740649461746
1782969672327940600,1.909940673828125,-0.005138841923326254,-0.02021484076976776,-0.001722016604617238
1782969672337866500,1.919866455078125,0.003820957150310278,0.019209569320082664,-0.016374824568629265
1782969672347792600,1.929792724609375,0.016692813485860825,-0.025779742747545242,-0.04824993014335632
1782969672357719600,1.939719482421875,0.02838955633342266,-0.05019591003656387,-0.08224828541278839
1782969672367645400,1.9496455078125,0.043578632175922394,-0.03638235852122307,-0.10264863073825836
1782969672377571600,1.959571533203125,0.04069121554493904,-0.030515335500240326,-0.1047239601612091
1782969672387498500,1.96949853515625,0.03106096014380455,-0.017812589183449745,-0.10416469722986221
1782969672397424600,1.979424560546875,0.01941061206161976,0.006311539560556412,-0.09653041511774063
1782969672407350500,1.9893505859375,0.005671630147844553,0.020184477791190147,-0.08569134771823883
1782969672417277700,1.999277587890625,-0.00619892030954361,0.034800779074430466,-0.07174194604158401
1782969672427203600,2.00920361328125,-0.011610196903347969,0.034258294850587845,-0.05492168292403221
1782969672437129700,2.019129638671875,-0.009124178439378738,0.03192410618066788,-0.031138291582465172
1782969672447056600,2.029056640625,-0.011310633271932602,0.03195526823401451,-0.016405418515205383
1782969672456982500,2.038982421875,0.0010888202814385295,0.0320686437189579,0.005223412532359362
1782969672466908700,2.04890869140625,0.01721292920410633,0.02201467752456665,0.014678966253995895
1782969672476834600,2.05883447265625,0.031285155564546585,0.010999958962202072,0.021262235939502716
1782969672486761500,2.068761474609375,0.03004758432507515,0.005869112443178892,0.02188994362950325
1782969672496687600,2.0786875,0.028973110020160675,0.004045501817017794,0.017910629510879517
1782969672506613800,2.08861376953125,0.023089921101927757,-0.0043695541098713875,0.009933662600815296
1782969672516540400,2.09854052734375,0.011826264671981335,-0.004369570408016443,0.003053254447877407
1782969672526466600,2.108466552734375,0.002516120206564665,-0.012750271707773209,-0.006200165022164583
1782969672536392700,2.118392822265625,-0.001457526464946568,-0.004592200741171837,-0.0012053193058818579
1782969672546319600,2.128319580078125,-0.004569696728140116,0.0010081608779728413,0.0016344093019142747
1782969672556245500,2.13824560546875,-0.0016880860785022378,-0.004366068635135889,-0.0003740632673725486
1782969672566171600,2.148171630859375,0.006354393903166056,-0.007950151339173317,0.00537570146843791
1782969672576098600,2.1580986328125,0.004211068153381348,-0.0008660620078444481,0.013842764310538769
1782969672586024400,2.1680244140625,0.004484574776142836,0.0024181483313441277,0.014131983742117882
1782969672595950600,2.17795068359375,-0.005135856103152037,0.0022418424487113953,0.011377699673175812
1782969672605876700,2.187876708984375,-0.005129731260240078,-0.0031454660929739475,0.01131192035973072
1782969672615803600,2.1978037109375,-0.002494897460564971,-0.009164245799183846,0.012962419539690018
1782969672625729500,2.2077294921875,0.002326755551621318,-0.009911528788506985,0.021323945373296738
1782969672635655700,2.21765576171875,0.013659543357789516,-0.010872402228415012,0.0282696932554245
1782969672645582600,2.22758251953125,0.021450620144605637,-0.006950098555535078,0.032998934388160706
1782969672655508500,2.237508544921875,0.021877162158489227,-0.005324274301528931,0.032314375042915344
1782969672665434600,2.2474345703125,0.021753856912255287,-0.004678723867982626,0.024806655943393707
1782969672675361500,2.257361572265625,0.027804093435406685,-0.008954931050539017,0.024089019745588303
1782969672685287700,2.26728759765625,0.02939373441040516,-0.017143085598945618,0.020855942741036415
1782969672695213600,2.277213623046875,0.026227490976452827,-0.023416981101036072,0.02077152393758297
1782969672705140500,2.287140380859375,0.020009275525808334,-0.017537519335746765,0.0186159610748291
1782969672715066600,2.297066650390625,0.006050611846148968,-0.0029121332336217165,0.017604073509573936
1782969672724992500,2.306992431640625,-0.0032299719750881195,0.014142218045890331,0.016809653490781784
1782969672734918700,2.316918701171875,-0.007353639230132103,0.012838494032621384,0.018980281427502632
1782969672744845600,2.326845458984375,-0.0016584692057222128,0.0034828106872737408,0.018750982359051704
1782969672754771700,2.336771728515625,0.004924023989588022,-0.002829338889569044,0.02445470727980137
1782969672764697600,2.346697509765625,0.008723289705812931,0.004198476672172546,0.04502815753221512
1782969672774624500,2.35662451171875,0.01619919016957283,0.00845763087272644,0.06725099682807922
1782969672784550700,2.366550537109375,0.02432768978178501,0.009031008929014206,0.08588247746229172
1782969672794476500,2.3764765625,0.03739471361041069,-0.0016548498533666134,0.09801506996154785
1782969672804403500,2.386403564453125,0.03960274159908295,-0.007509276736527681,0.10501385480165482
1782969672814329600,2.39632958984375,0.03819366171956062,-0.009453650563955307,0.10773933678865433
1782969672824255700,2.406255859375,0.02661317214369774,0.008016951382160187,0.11869451403617859
1782969672834182700,2.4161826171875,0.016523785889148712,0.023128526285290718,0.12039308249950409
1782969672844108500,2.426108642578125,0.015394605696201324,0.019974811002612114,0.10087024420499802
1782969672854034700,2.43603466796875,0.015524078160524368,0.01110001839697361,0.06824994832277298
1782969672863960600,2.445960693359375,0.017748882994055748,0.0015682992525398731,0.03699829429388046
1782969672873887500,2.455887451171875,0.01613483764231205,-0.008623584173619747,0.007068215869367123
1782969672883813600,2.465813720703125,0.014471428468823433,-0.022183068096637726,-0.013215750455856323
1782969672893739800,2.47573974609375,0.006980138830840588,-0.013457070104777813,-0.02399802766740322
1782969672903666700,2.485666748046875,-0.006338595878332853,-0.004052117001265287,-0.016619740054011345
1782969672913592600,2.495592529296875,-0.015328980050981045,-0.01258563157171011,-0.01510520651936531
1782969672923518700,2.505518798828125,-0.017769236117601395,-0.009583184495568275,-0.008063809014856815
1782969672933445600,2.515445556640625,-0.014744947664439678,-0.007774266414344311,-0.0008838557987473905
1782969672943371500,2.52537158203125,-0.013569428585469723,-0.005808853544294834,0.005644084885716438
1782969672953297700,2.535297607421875,-0.009484545327723026,-0.0015171293634921312,0.01028507947921753
1782969672963224600,2.545224609375,-0.009368165396153927,0.0006839730776846409,0.006572899874299765
1782969672973150700,2.555150634765625,-0.007220929954200983,-0.0002569505013525486,-0.0005495414370670915
1782969672983076600,2.56507666015625,-0.008400710299611092,-0.002066568471491337,-0.010021606460213661
1782969672993002800,2.575002685546875,-0.00009747780859470367,-0.008866047486662865,-0.02771873027086258
1782969673002929700,2.5849296875,0.005759878549724817,-0.017692826688289642,-0.0403655469417572
1782969673012855600,2.59485546875,0.010529698804020882,-0.025913173332810402,-0.04709549620747566
1782969673022781700,2.60478173828125,0.013782217167317867,-0.01458035595715046,-0.03926180675625801
1782969673032708600,2.61470849609375,0.017956160008907318,-0.013538531959056854,-0.03570945933461189
1782969673042634800,2.624634765625,0.024795157834887505,-0.01783793978393078,-0.032783444970846176
1782969673052560600,2.634560546875,0.028833365067839622,-0.017833668738603592,-0.025702545419335365
1782969673062487600,2.644487548828125,0.026134518906474113,-0.008209271356463432,-0.010309474542737007
1782969673072413700,2.65441357421875,0.022837160155177116,0.010208050720393658,0.004935131408274174
1782969673082339000,2.664339111328125,0.018814722076058388,0.015211331658065319,0.015091627836227417
1782969673092266000,2.674265869140625,0.013854149729013443,0.012907465919852257,0.026091676205396652
1782969673102192000,2.684192138671875,0.0071669528260827065,0.014027589932084084,0.025743333622813225
1782969673112118000,2.694117919921875,0.0012934349942952394,0.007198296952992678,0.018245141953229904
1782969673122044200,2.704044189453125,-0.0001369487727060914,0.0024099331349134445,0.010865255258977413
1782969673131971000,2.71397119140625,0.0024923901073634624,-0.005715637933462858,0.002687486819922924
1782969673141897200,2.723897216796875,0.003552860813215375,-0.012014812789857388,-0.0007091090083122253
1782969673151823000,2.733822998046875,0.011192936450242996,-0.006727106403559446,0.003546622581779957
1782969673161750000,2.74375,0.012044882401823997,-0.0026990752667188644,0.006820180453360081
1782969673171676200,2.75367626953125,0.00925359409302473,0.000566922128200531,0.012861180119216442
1782969673181602000,2.76360205078125,0.005615982227027416,0.005589910317212343,0.02875998616218567
1782969673191529000,2.773529052734375,0.0016108979471027851,0.0053276121616363525,0.040563423186540604
1782969673201455000,2.783455078125,0.0004990281886421144,0.000830864068120718,0.04494938254356384
1782969673211381200,2.79338134765625,-0.0032150582410395145,0.007123189978301525,0.044307857751846313
1782969673221307100,2.80330712890625,-0.0012826684396713972,0.008412692695856094,0.04103270173072815
1782969673231234000,2.813234130859375,-0.0008311510318890214,0.008635187521576881,0.04002813622355461
1782969673241160200,2.82316015625,0.001237592427060008,0.011325246654450893,0.03278912976384163
1782969673251086300,2.83308642578125,-0.0018006673781201243,-0.0004968312568962574,0.017494427040219307
1782969673261013000,2.843012939453125,0.002179959323257208,-0.0004813852719962597,0.0019540837965905666
1782969673270939100,2.852939208984375,-0.00014838622882962227,-0.00019471906125545502,-0.002189635531976819
1782969673280865300,2.862865234375,-0.005329299718141556,0.006989690475165844,0.003230696078389883
1782969673290792200,2.872792236328125,-0.008276985026896,0.00826024916023016,0.005859641823917627
1782969673300718000,2.882718017578125,-0.011424042284488678,0.004813852719962597,0.010426962748169899
1782969673310644200,2.892644287109375,-0.01076381653547287,0.0018734624609351158,0.008094077929854393
1782969673320571100,2.902571044921875,-0.01470476295799017,0.0056351772509515285,0.006693254690617323
1782969673330497000,2.9124970703125,-0.013171201571822166,-0.0014416866470128298,-0.0033699804916977882
1782969673340423200,2.922423095703125,-0.014051375910639763,-0.008349127136170864,-0.018005115911364555
1782969673350349300,2.932349365234375,-0.008243078365921974,-0.014679305255413055,-0.028635548427700996
1782969673360276200,2.942276123046875,-0.004754870198667049,-0.021608585491776466,-0.03473951667547226
1782969673370202000,2.9522021484375,-0.0019587900023907423,-0.018263116478919983,-0.0329359769821167
1782969673380128300,2.962128173828125,-0.000384595594368875,-0.013001508079469204,-0.02572253905236721
1782969673390055200,2.97205517578125,0.001636141911149025,-0.005940598901361227,-0.014370827004313469
1782969673399981000,2.98198095703125,0.0005572953377850354,-0.007620520889759064,-0.009266612119972706
1782969673409907200,2.9919072265625,-0.0011016442440450191,-0.00628106202930212,-0.007879264652729034
1782969673419834000,3.001834228515625,0.0011963974684476852,-0.011568501591682434,-0.02025444060564041
1782969673429760300,3.01176025390625,0.003773118369281292,-0.011584259569644928,-0.03587222844362259
1782969673439686100,3.02168603515625,0.0014758757315576077,-0.013857534155249596,-0.041930124163627625
1782969673449613000,3.031613037109375,0.00006224139360710979,-0.018436579033732414,-0.049926575273275375
1782969673459539200,3.041539306640625,-0.00004268717020750046,-0.026023657992482185,-0.048232804983854294
1782969673469465000,3.051465087890625,-0.0022708140313625336,-0.023057835176587105,-0.03708931803703308
1782969673479391000,3.061390869140625,-0.0009315103525295854,-0.01418471522629261,-0.019700471311807632
1782969673489318100,3.071318115234375,-0.002447661478072405,-0.006694660987704992,-0.009957948699593544
1782969673499244300,3.081244384765625,-0.00271903770044446,0.0007131877355277538,-0.0007082577794790268
1782969673509170200,3.091170166015625,-0.0013386090286076069,0.004102448001503944,0.009543294087052345
1782969673519097000,3.10109716796875,-0.0024645933881402016,0.006444431841373444,0.019991673529148102
1782969673529023200,3.111023193359375,-0.005726811941713095,0.007437936030328274,0.025406699627637863
1782969673538949000,3.12094921875,-0.007857607677578926,0.007853655144572258,0.029407300055027008
1782969673548876000,3.1308759765625,-0.008057989180088043,0.0063346331007778645,0.026498276740312576
1782969673558802200,3.14080224609375,-0.005962347146123648,-0.003614936489611864,0.016872014850378036
1782969673568728300,3.150728271484375,-0.0056797717697918415,-0.00288637587800622,0.01060392428189516
1782969673578655000,3.160655029296875,-0.0067780595272779465,-0.004211032297462225,0.006600127089768648
1782969673588581000,3.1705810546875,-0.007029686123132706,0.0018156259320676327,0.0032719431910663843
1782969673598507300,3.18050732421875,-0.010044650174677372,0.004819671623408794,-0.0003134707221761346
1782969673608433000,3.190432861328125,-0.014084399677813053,0.004563475027680397,-0.004478388465940952
1782969673618360000,3.200360107421875,-0.010460902005434036,0.00328968558460474,-0.009379137307405472
1782969673628286200,3.2102861328125,-0.00414483854547143,-0.001277680741623044,-0.009665374644100666
1782969673638212000,3.220212158203125,0.011206154711544514,-0.007296957541257143,-0.014072639867663383
1782969673648139300,3.23013916015625,0.018008848652243614,-0.015967626124620438,-0.0038005695678293705
1782969673658065200,3.240065185546875,0.011462267488241196,-0.01670931652188301,0.018382763490080833
1782969673667991000,3.249990966796875,0.0075481911189854145,-0.011828280985355377,0.042652640491724014
1782969673677918200,3.259918212890625,-0.0005829720757901669,-0.003909105435013771,0.05428479611873627
1782969673687844000,3.269843994140625,-0.003912932705134153,0.005035231821238995,0.06265153735876083
1782969673697770200,3.279770263671875,-0.006139335222542286,0.006500503048300743,0.06192423030734062
1782969673707696000,3.289696044921875,-0.008464625105261803,0.011351069435477257,0.05661874637007713
1782969673717623300,3.299623291015625,-0.007633186876773834,0.008699626661837101,0.03775610774755478
1782969673727549200,3.309549072265625,-0.005837193224579096,0.003925086464732885,0.012857375666499138
1782969673737475000,3.31947509765625,0.0001645063457544893,-0.0028497292660176754,-0.013965449295938015
1782969673747402200,3.32940234375,0.002932371571660042,-0.006122829392552376,-0.03220254182815552
1782969673757328100,3.339328125,0.0014340770430862904,-0.009443791583180428,-0.048025183379650116
1782969673767254000,3.34925390625,0.006327102892100811,-0.013071549125015736,-0.054817840456962585
1782969673777181200,3.35918115234375,0.007024851161986589,-0.014234817586839199,-0.04815887287259102
1782969673787107300,3.369107421875,0.008026971481740475,-0.014503803104162216,-0.032951466739177704
1782969673797033000,3.379032958984375,0.004299877677112818,-0.014217779040336609,-0.01364727783948183
1782969673806960000,3.388960205078125,0.006950913462787867,-0.011978019960224628,0.008491484448313713
1782969673816886300,3.39888623046875,0.010740592144429684,-0.008955598808825016,0.0270603746175766
1782969673826812000,3.40881201171875,0.006400116253644228,-0.009000883437693119,0.040475960820913315
1782969673836738000,3.418738037109375,-0.0025310604833066463,-0.0011685267090797424,0.04864893853664398
1782969673846665200,3.428665283203125,-0.015258083119988441,0.003462785854935646,0.042540211230516434
1782969673856591000,3.438591064453125,-0.025554928928613663,0.0036907531321048737,0.028763677924871445
1782969673866517000,3.44851708984375,-0.03466852009296417,-0.0004937867633998394,0.012498008087277412
1782969673876444200,3.458444091796875,-0.0344296358525753,-0.00433140154927969,-0.008104206062853336
1782969673886370300,3.468370361328125,-0.03386591002345085,-0.010639294981956482,-0.02569839172065258
1782969673896296000,3.4782958984375,-0.031907957047224045,-0.008203301578760147,-0.03455686196684837
1782969673906223000,3.48822314453125,-0.022531988099217415,-0.008116558194160461,-0.03999560326337814
1782969673916149200,3.498149169921875,-0.01942514441907406,-0.008725356310606003,-0.04418555274605751
1782969673926075100,3.5080751953125,-0.013884536921977997,-0.0027979945298284292,-0.045440029352903366
1782969673936001000,3.5180009765625,-0.0028798223938792944,0.003968298435211182,-0.0421462319791317
1782969673945928200,3.52792822265625,0.007743485271930695,0.009416136890649796,-0.03324804827570915
1782969673955854000,3.53785400390625,0.020549027249217033,0.007062967866659164,-0.029550248757004738
1782969673965780000,3.547780029296875,0.023535316810011864,0.007117944769561291,-0.018424957990646362
1782969673975707100,3.55770703125,0.01954590156674385,0.008517702110111713,-0.010942540131509304
1782969673985633000,3.567633056640625,0.014532554894685745,0.009962843731045723,-0.010588712990283966
1782969673995559200,3.57755908203125,0.012412412092089653,0.004277260974049568,-0.012415374629199505
1782969674005486000,3.587486083984375,0.005101334769278765,0.0028453143313527107,-0.010933198034763336
1782969674015412000,3.597411865234375,0.005949818063527346,0.0058890413492918015,-0.0120456013828516
1782969674025338000,3.607338134765625,0.012584985233843327,0.0023656440898776054,-0.011985007673501968
1782969674035265300,3.617265380859375,0.018687887117266655,0.007481842301785946,-0.0065303221344947815
1782969674045191200,3.627191162109375,0.017628898844122887,0.010647322051227093,-0.006745822727680206
1782969674055117000,3.637116943359375,0.017399068921804428,0.007703463546931744,-0.004678410943597555
1782969674065043200,3.647043212890625,0.011809627525508404,0.0014663399197161198,-0.010949889197945595
1782969674074970000,3.65697021484375,0.0007995865307748318,-0.002843986265361309,-0.018043484538793564
1782969674084896300,3.666896240234375,-0.0034208784345537424,-0.0034685428254306316,-0.022180387750267982
1782969674094822400,3.676822509765625,-0.0040611024014651775,-0.0015883513260632753,-0.02704118937253952
1782969674104749600,3.68674951171875,-0.0008054862264543772,-0.00461506936699152,-0.028304720297455788
1782969674114675200,3.69667529296875,0.006505423225462437,-0.0052315909415483475,-0.03055748902261257
1782969674124601300,3.706601318359375,0.008389202877879143,-0.003722336608916521,-0.03427935019135475
1782969674134528500,3.716528564453125,0.01047445833683014,-0.0003369264304637909,-0.040792111307382584
1782969674144454100,3.7264541015625,0.008156429044902325,-0.003915234934538603,-0.03854265809059143
1782969674154380300,3.73638037109375,0.0029398291371762753,-0.0008712420240044594,-0.039947740733623505
1782969674164307500,3.746307373046875,0.0003500299353618175,0.0012600268237292767,-0.03385672718286514
1782969674174233300,3.7562333984375,-0.0011093823704868555,0.003577243536710739,-0.028867561370134354
1782969674184159200,3.7661591796875,0.0010625950526446104,0.003107791766524315,-0.02837599813938141
1782969674194085400,3.77608544921875,0.00961640290915966,-0.006897438317537308,-0.026236681267619133
1782969674204012300,3.78601220703125,0.013199572451412678,-0.0021894562523812056,-0.02676590159535408
1782969674213938200,3.795938232421875,0.01726941578090191,-0.008042817935347557,-0.032639238983392715
1782969674223864300,3.8058642578125,0.015115409158170223,-0.012253999710083008,-0.035997986793518066
1782969674233791200,3.815791259765625,0.013870647177100182,-0.01912815123796463,-0.041265182197093964
1782969674243717400,3.82571728515625,0.006630535237491131,-0.02314082533121109,-0.0391119159758091
1782969674253643300,3.835643310546875,0.0023899837397038937,-0.015513267368078232,-0.030252642929553986
1782969674263570400,3.8455703125,0.003800352569669485,-0.0028915058355778456,-0.009831564500927925
1782969674273496300,3.855496337890625,-0.0017121246783062816,0.006806661374866962,0.0014173617819324136
1782969674283422200,3.865422119140625,-0.0028608578722923994,0.005351655185222626,0.007334659807384014
1782969674293348400,3.875348388671875,-0.003460335312411189,0.001908720936626196,-0.0021344763226807117
1782969674303275300,3.885275146484375,0.004757660441100597,-0.007477404549717903,-0.015851162374019623
1782969674313201400,3.895201416015625,0.006872476544231176,-0.014163270592689514,-0.031262341886758804
1782969674323127300,3.905127197265625,0.015484888106584549,-0.019207743927836418,-0.03965650871396065
1782969674333054200,3.91505419921875,0.012937307357788086,-0.024955378845334053,-0.03524258732795715
1782969674342980400,3.92498046875,0.01820520870387554,-0.015523994341492653,-0.021423762664198875
1782969674352906200,3.93490625,0.016957517713308334,-0.005559245124459267,-0.006942292675375938
1782969674362833200,3.944833251953125,0.019149452447891235,-0.00027895020321011543,0.003022937336936593
1782969674372759300,3.95475927734375,0.015501189976930618,-0.0002581779845058918,0.014959758147597313
1782969674382685400,3.964685546875,0.014752617105841637,0.0012799887917935848,0.0182828176766634
1782969674392612000,3.974612060546875,0.006927184294909239,0.002575882710516453,0.01685136929154396
1782969674402538200,3.984538330078125,0.005379929672926664,0.0020807255059480667,0.014712020754814148
1782969674412464400,3.99446435546875,0.006993805058300495,-0.00454974640160799,0.006863684393465519
1782969674422390300,4.004390380859375,0.011579418554902077,-0.007064684759825468,0.008125820197165012
1782969674432317200,4.014317138671875,0.009096819907426834,-0.004331482574343681,0.007981210947036743
1782969674442243300,4.024243408203125,0.004605102818459272,0.0020038066431879997,0.008155533112585545
1782969674452169500,4.03416943359375,0.0029347683303058147,0.006887511350214481,0.014680011197924614
1782969674462096100,4.04409619140625,0.0002306512906216085,0.004564013332128525,0.010653204284608364
1782969674472022300,4.054022216796875,-0.004186734091490507,0.005510766990482807,0.0034189936704933643
1782969674481948400,4.063948486328125,-0.006169541273266077,0.0002735452726483345,-0.004293457604944706
1782969674491875300,4.073875244140625,-0.0052728550508618355,-0.0029970828909426928,-0.010158803313970566
1782969674501801200,4.08380126953125,-0.010367820039391518,-0.005678914487361908,-0.012160783633589745
1782969674511727400,4.093727294921875,-0.02182074449956417,-0.0005725696682929993,-0.012020168825984001
1782969674521654300,4.103654296875,-0.024929197505116463,0.0028732074424624443,-0.00843327771872282
1782969674531580200,4.113580078125,-0.023600546643137932,0.0009306971915066242,-0.009437555447220802
1782969674541506300,4.12350634765625,-0.019263898953795433,-0.002171809785068035,-0.005167944356799126
1782969674551432400,4.133432373046875,-0.009473584592342377,-0.0047561414539813995,-0.0024347419384866953
1782969674561359400,4.143359375,-0.0032515577040612698,-0.00472380081191659,0.006650036200881004
1782969674571285200,4.15328515625,0.00449611060321331,-0.0047949072904884815,0.025022918358445168
1782969674581211400,4.16321142578125,0.0034362284932285547,0.0012820037081837654,0.04506469517946243
1782969674591138300,4.17313818359375,-0.0011201738379895687,0.005405642092227936,0.05177692696452141
1782969674601064400,4.183064453125,-0.009965134784579277,0.009786246344447136,0.050589606165885925
1782969674610990300,4.192990234375,-0.01551995612680912,0.010107157751917839,0.04536980763077736
1782969674620917200,4.202917236328125,-0.018374375998973846,0.007415043190121651,0.0317499041557312
1782969674630843400,4.212843505859375,-0.014375371858477592,0.0029768850654363632,0.020957976579666138
1782969674640769300,4.222769287109375,-0.014874167740345001,0.007041586562991142,0.008846908807754517
1782969674650696200,4.2326962890625,-0.01444779522716999,0.008267173543572426,-0.002814273815602064
1782969674660622300,4.242622314453125,-0.012631197459995747,0.00973788183182478,-0.013703247532248497
1782969674670548500,4.252548583984375,-0.004325596150010824,0.005368433892726898,-0.01823328621685505
1782969674680474400,4.262474365234375,0.00001182348933070898,0.002474080305546522,-0.008119747042655945
1782969674690401300,4.2724013671875,0.000773487554397434,-0.0011930926702916622,0.003522261045873165
1782969674700327400,4.282327392578125,-0.009468973614275455,0.00467635877430439,0.017948230728507042
1782969674710253300,4.29225341796875,-0.014477048069238663,0.005660130642354488,0.02334246225655079
1782969674720180200,4.30218017578125,-0.013754462823271751,0.0016264370642602444,0.034361835569143295
1782969674730106400,4.3121064453125,-0.012617027387022972,0.0047524552792310715,0.04761505499482155
1782969674740032500,4.322032470703125,-0.012534216046333313,0.008760692551732063,0.05520761385560036
1782969674749959200,4.331959228515625,-0.009780507534742355,0.014432959258556366,0.057111505419015884
1782969674759885300,4.34188525390625,-0.008479819633066654,0.00323596503585577,0.05119263008236885
1782969674769811500,4.3518115234375,-0.0007971323211677372,0.006497272290289402,0.042615119367837906
1782969674779737300,4.3617373046875,0.0010515500325709581,0.006576251704245806,0.030495135113596916
1782969674789664300,4.371664306640625,0.002929078647866845,0.0026563452556729317,0.018117830157279968
1782969674799590400,4.38159033203125,0.002570630516856909,0.0002268296666443348,0.007558515761047602
1782969674809518300,4.391518310546875,0.0009205358801409602,0.0006982092745602131,-0.003907457925379276
1782969674819444500,4.401444580078125,0.0032693599350750446,0.00358149828389287,-0.011651866137981415
1782969674829371100,4.41137109375,0.006578071042895317,0.00421399949118495,-0.01030191034078598
1782969674839297300,4.42129736328125,0.010799096897244453,0.003093491308391094,-0.00809648260474205
1782969674849223400,4.431223388671875,0.013463323935866356,0.005928159691393375,-0.01164194941520691
1782969674859150300,4.441150390625,0.012548106722533703,0.0010658823885023594,-0.006701538804918528
1782969674869076200,4.451076171875,0.008817284367978573,0.01023008581250906,0.0068382383324205875
1782969674879002400,4.46100244140625,0.007033093832433224,0.012824410572648048,0.012048955075442791
1782969674888928500,4.470928466796875,0.004547832068055868,0.006370238959789276,0.010462510399520397
1782969674898855200,4.480855224609375,0.0007968812133185565,0.008854290470480919,0.0076067824847996235
1782969674908781300,4.49078125,0.0025276695378124714,0.0034565958194434643,0.0030511789955198765
1782969674918707500,4.50070751953125,0.002489795908331871,-0.0007574334740638733,-0.003934717271476984
1782969674928634400,4.51063427734375,0.004647222813218832,-0.004367081914097071,-0.009601924568414688
1782969674938560300,4.520560302734375,0.005706376861780882,-0.0005090418271720409,-0.004002970177680254
1782969674948486400,4.530486328125,-0.0005339422496035695,0.004385581240057945,0.0009403895819559693
1782969674958413300,4.540413330078125,-0.0047347284853458405,0.004984376020729542,0.0026194495148956776
1782969674968339500,4.55033935546875,-0.004408224951475859,0.0000037318095564842224,0.004130526911467314
1782969674978265300,4.560265380859375,-0.003847741521894932,0.005941394716501236,0.0029193407390266657
1782969674988192300,4.570192138671875,-0.003768645692616701,0.00497013982385397,0.0014362260699272156
1782969674998118400,4.580118408203125,-0.0015486625488847494,0.0012670098803937435,-0.00625609140843153
1782969675008044300,4.590044189453125,0.006387024652212858,0.00112532963976264,-0.009481179527938366
1782969675017970400,4.599970458984375,0.014578277245163918,-0.0031727817840874195,-0.011580676771700382
1782969675027897300,4.6098974609375,0.018397517502307892,-0.0014041764661669731,-0.006633056327700615
1782969675037823500,4.619823486328125,0.021912075579166412,0.0022726641036570072,0.0015189553378149867
1782969675047749400,4.629749267578125,0.023605315014719963,0.0033853333443403244,0.005690530873835087
1782969675057676300,4.63967626953125,0.02123899757862091,0.0018345396965742111,0.005087996833026409
1782969675067602400,4.6496025390625,0.017911110073328018,0.0023149740882217884,0.0014101712731644511
1782969675077528300,4.6595283203125,0.015497432090342045,0.003094371408224106,-0.0030790118034929037
1782969675087455000,4.669455078125,0.014982642605900764,0.004892803728580475,-0.00019134627655148506
1782969675097380900,4.679380859375,0.010644424706697464,-0.0021333848126232624,-0.004254714120179415
1782969675107307000,4.68930712890625,0.007814017124474049,0.01119387149810791,0.0019688266329467297
1782969675117233200,4.699233154296875,0.00030488375341519713,0.007892768830060959,0.011554406024515629
1782969675127160000,4.70916015625,-0.0023971593473106623,0.0047792671248316765,0.006968975532799959
1782969675137086000,4.7190859375,-0.0036680339835584164,-0.001216759905219078,0.004701635334640741
1782969675147012000,4.72901220703125,0.0010441631311550736,-0.0024876203387975693,0.0017386024119332433
1782969675156939000,4.73893896484375,0.002608826383948326,-0.005283296573907137,0.0014293019194155931
1782969675166865000,4.748864990234375,0.004211250692605972,-0.0022379716392606497,-0.000656485790386796
1782969675176791000,4.758791015625,0.008370082825422287,0.0013699056580662727,-0.003014550544321537
1782969675186718000,4.768718017578125,0.012281467206776142,0.004451182670891285,0.00033597240690141916
1782969675196644000,4.77864404296875,0.013714727014303207,0.0030045416206121445,-0.004250878468155861
1782969675206570000,4.788570068359375,0.014197025448083878,-0.003348162630572915,-0.009668546728789806
1782969675216497000,4.798496826171875,0.010524945333600044,-0.00458142627030611,-0.019796865060925484
1782969675226423000,4.808423095703125,0.007144328206777573,-0.0024421087000519037,-0.024613991379737854
1782969675236349000,4.818348876953125,0.008173921145498753,-0.0019529673736542463,-0.02838563546538353
1782969675246275800,4.82827587890625,0.007357662543654442,-0.0008003511466085911,-0.018558837473392487
1782969675256202000,4.838201904296875,0.004766799509525299,0.0017249980010092258,-0.0099166389554739
1782969675266128100,4.848128173828125,-0.0007275680545717478,0.0038539287634193897,-0.004609224386513233
1782969675276054000,4.858053955078125,0.009288202039897442,0.0023993561044335365,0.0025900467298924923
1782969675285981000,4.86798095703125,0.01864681765437126,-0.00016846368089318275,0.006148829124867916
1782969675295907000,4.877906982421875,0.027980482205748558,-0.0044326018542051315,0.007477150298655033
1782969675305833000,4.8878330078125,0.03525277227163315,-0.0014386761467903852,0.00989556685090065
1782969675315759900,4.897759765625,0.03641500696539879,-0.006054361816495657,0.013562588021159172
1782969675325686000,4.90768603515625,0.03165727108716965,-0.005448759067803621,0.015395109541714191
1782969675335612200,4.917612060546875,0.02119208499789238,-0.00948275439441204,0.019563905894756317
1782969675345538800,4.927538818359375,0.015675878152251244,0.002316913567483425,0.028345413506031036
1782969675355465000,4.93746484375,0.01490748580545187,0.010632970370352268,0.029259931296110153
1782969675365391000,4.94739111328125,0.01584918051958084,-0.004074070602655411,0.023140253499150276
1782969675375316700,4.957316650390625,0.013781404122710228,0.0006950828246772289,0.02038162387907505
1782969675385244000,4.967243896484375,0.00556315528228879,0.0062333932146430016,0.016240142285823822
1782969675395170000,4.977170166015625,-0.0035319882445037365,0.0033146850764751434,0.008852203376591206
1782969675405096000,4.987095947265625,-0.005545071791857481,-0.003829777706414461,0.0035871341824531555
1782969675415022800,4.99702294921875,-0.0027571492828428745,-0.008335007354617119,0.008635593578219414
1782969675424949000,5.006948974609375,0.0006849865894764662,-0.00744098424911499,0.017610445618629456
1782969675434875100,5.016875244140625,0.0042345039546489716,0.0009592687711119652,0.020064441487193108
1782969675444802000,5.026802001953125,0.002229942474514246,0.0021587563678622246,0.018831664696335793
1782969675454728000,5.03672802734375,0.0016641051042824984,0.004373025149106979,0.007573087699711323
1782969675464654000,5.046654052734375,-0.003403091337531805,0.002774595282971859,-0.006165361497551203
1782969675474581000,5.0565810546875,-0.011111737228929996,0.0007649334147572517,-0.023126140236854553
1782969675484507000,5.0665068359375,-0.01116260327398777,-0.006299367640167475,-0.0339907705783844
1782969675494433000,5.07643310546875,-0.005291973706334829,-0.017239823937416077,-0.03491645306348801
1782969675504359000,5.08635888671875,-0.0011795201571658254,-0.02008407935500145,-0.027701418846845627
1782969675514286000,5.0962861328125,-0.003765353001654148,-0.009833104908466339,-0.014197537675499916
1782969675524212000,5.1062119140625,-0.005818117409944534,-0.008710581809282303,0.00813067052513361
1782969675534137900,5.116137939453125,-0.00499742804095149,-0.004870240110903978,0.02271381765604019
1782969675544065000,5.12606494140625,-0.008157001808285713,0.003566388040781021,0.037065859884023666
1782969675553991000,5.135990966796875,-0.007017169147729874,0.0030089886859059334,0.03310361132025719
1782969675563916800,5.145916748046875,-0.005159614607691765,0.000007605645805597305,0.017193883657455444
1782969675573844000,5.155843994140625,-0.0023526607546955347,-0.0018494327086955309,0.0037214907351881266
1782969675583770000,5.16577001953125,-0.003950291313230991,0.0011034803465008736,-0.01236693188548088
1782969675593696000,5.175696044921875,-0.002409634180366993,-0.0022347758058458567,-0.026713918894529343
1782969675603623000,5.185622802734375,-0.004592893645167351,-0.006295031402260065,-0.041274748742580414
1782969675613549000,5.195549072265625,-0.003762689884752035,-0.00625594612210989,-0.04839545860886574
1782969675623475000,5.205474853515625,-0.005847944878041744,-0.00805677566677332,-0.05134064704179764
1782969675633400800,5.21540087890625,-0.009067552164196968,-0.006659537088125944,-0.04859623685479164
1782969675643328000,5.225327880859375,-0.008277125656604767,-0.007471534889191389,-0.03584315627813339
1782969675653254100,5.235254150390625,-0.008802665397524834,0.003357109148055315,-0.014020012691617012
1782969675663179800,5.2451796875,-0.0051064640283584595,0.006826143246144056,0.003183208405971527
1782969675673107000,5.25510693359375,0.0024726262781769037,0.011047786101698875,0.014582071453332901
1782969675683033000,5.265033203125,0.006270294077694416,-0.004126905929297209,0.02631116472184658
1782969675692959000,5.274958984375,0.0066307177767157555,0.001012497115880251,0.035984694957733154
1782969675702886000,5.284885986328125,0.0056120590306818485,0.004500972107052803,0.0335090197622776
1782969675712812000,5.29481201171875,-0.0008772797300480306,0.011098334565758705,0.03034958988428116
1782969675722738000,5.304738037109375,-0.002922054845839739,0.004901159554719925,0.012204675003886223
1782969675732665000,5.3146650390625,-0.0003495562123134732,-0.0016390832606703043,-0.012311442755162716
1782969675742591000,5.324591064453125,0.001192147727124393,-0.012793201021850109,-0.03294854238629341
1782969675752516900,5.334516845703125,0.004106349777430296,-0.012242130935192108,-0.04465958848595619
1782969675762443000,5.344443115234375,0.0016354687977582216,-0.016184408217668533,-0.049615997821092606
1782969675772370000,5.354369873046875,-0.00373279070481658,-0.010885557159781456,-0.03278019279241562
1782969675782296000,5.364296142578125,-0.002413194626569748,0.0036997776478528976,-0.008332641795277596
1782969675792222000,5.374221923828125,-0.0036864939611405134,0.011022213846445084,0.009142519906163216
1782969675802149000,5.384149169921875,0.0008544621523469687,0.004477228969335556,0.014935428276658058
1782969675812075000,5.394074951171875,0.003272486384958029,0.0013149515725672245,0.022866416722536087
1782969675822001000,5.4040009765625,0.007167092990130186,0.0071976082399487495,0.02739245817065239
1782969675831928000,5.413927978515625,0.004843778908252716,-0.0006786854937672615,0.0239556934684515
1782969675841854000,5.42385400390625,0.004002752713859081,-0.009597877971827984,0.012939528562128544
1782969675851779800,5.43377978515625,0.002622633008286357,-0.009664121083915234,0.01294271182268858
1782969675861707000,5.44370703125,0.003729176241904497,-0.010110733099281788,0.020756691694259644
1782969675871633200,5.453633056640625,0.0007676430977880955,-0.0025844089686870575,0.0302352886646986
1782969675881558800,5.463558837890625,0.004380753729492426,0.00182365532964468,0.03769640251994133
1782969675891485000,5.47348486328125,0.007483209948986769,-0.00229203375056386,0.038808900862932205
1782969675901412000,5.483412109375,0.005964675452560186,0.00016180286183953285,0.045189302414655685
1782969675911337700,5.493337646484375,0.0033757309429347515,0.003187206108123064,0.041719723492860794
1782969675921263900,5.503263916015625,0.006216790992766619,0.0025451178662478924,0.031370412558317184
1782969675931191000,5.51319091796875,0.005513632670044899,-0.005426904186606407,0.01912180334329605
1782969675941117000,5.523116943359375,0.0022952028084546328,-0.009176635183393955,0.01249639131128788
1782969675951042800,5.533042724609375,0.0010955622419714928,-0.006270640529692173,0.001023010932840407
1782969675960970000,5.542969970703125,-0.0012272469466552138,-0.005946267396211624,-0.008670629002153873
1782969675970896100,5.552896240234375,-0.006263200659304857,-0.007295309100300074,-0.011012942530214787
1782969675980821800,5.56282177734375,-0.009746881201863289,-0.0030281259678304195,-0.012606311589479446
1782969675990749000,5.5727490234375,-0.013122746720910072,-0.000839731190353632,-0.011635824106633663
1782969676000675000,5.582675048828125,-0.013759508728981018,-0.0023633255623281,-0.009526333771646023
1782969676010601000,5.59260107421875,-0.01089408714324236,-0.0037787556648254395,-0.0077580902725458145
1782969676020526800,5.60252685546875,-0.0052433921955525875,-0.0016199974343180656,0.000599974300712347
1782969676030454000,5.6124541015625,-0.0016080935019999743,0.0037277457304298878,0.005927830934524536
1782969676040380000,5.6223798828125,-0.00545769277960062,0.00470352778211236,0.00820589903742075
1782969676050305800,5.632305908203125,-0.0038176896050572395,-0.002441361779347062,0.0020538452081382275
1782969676060233000,5.64223291015625,-0.0018951534293591976,-0.0035726726055145264,0.0035915542393922806
1782969676070158800,5.652158935546875,-0.00023331335978582501,-0.007275792770087719,0.0033306083641946316
1782969676080084700,5.662084716796875,-0.0024096486158668995,0.001280943863093853,0.005399884656071663
1782969676090011600,5.67201171875,-0.0063834767788648605,0.003633272834122181,0.009008030407130718
1782969676099937800,5.681937744140625,-0.0064386045560240746,-0.003267509862780571,0.005394920241087675
1782969676109863700,5.69186376953125,-0.00845719687640667,-0.0048240115866065025,-0.0010902073699980974
1782969676119790800,5.701790771484375,-0.009207675233483315,-0.005790206138044596,0.003171915654093027
1782969676129716700,5.711716796875,-0.015245551243424416,0.0007357951253652573,0.007955987006425858
1782969676139642600,5.721642578125,-0.017903121188282967,0.0033779172226786613,0.015004308894276619
1782969676149568800,5.73156884765625,-0.018996797502040863,0.004256609361618757,0.011467301286756992
1782969676159495700,5.74149560546875,-0.014160762540996075,0.004786578472703695,0.011952262371778488
1782969676169421600,5.751421630859375,-0.0035407347604632378,-2.277083694934845e-7,0.005640932358801365
1782969676179347700,5.76134765625,-0.001521526137366891,-0.0023789633996784687,-0.00001721968874335289
1782969676189275000,5.77127490234375,-0.0004600180545821786,-0.001043126918375492,-0.0027137137949466705
1782969676199200500,5.781200439453125,-0.004098961129784584,0.00004077982157468796,-0.012827600352466106
1782969676209126700,5.791126708984375,-0.010260773822665215,-0.0028925365768373013,-0.020330151543021202
1782969676219053800,5.8010537109375,-0.01727021299302578,0.0014369641430675983,-0.02133815735578537
1782969676228979700,5.810979736328125,-0.02107037603855133,0.006702798418700695,-0.01672276109457016
1782969676238905600,5.820905517578125,-0.01631050929427147,0.005683872848749161,-0.013028422370553017
1782969676248832800,5.830832763671875,-0.01027208473533392,-0.000003313180059194565,-0.01021670177578926
1782969676258758700,5.840758544921875,-0.0036136494018137455,0.0012022997252643108,-0.006113036535680294
1782969676268684500,5.8506845703125,-0.006069181952625513,-0.00010108575224876404,-0.0009290541638620198
1782969676278610700,5.860610595703125,-0.006837237626314163,-0.004685983993113041,-0.00405480619519949
1782969676288537900,5.870537841796875,-0.006905935239046812,-0.0006285710260272026,0.002041023224592209
1782969676298463700,5.880463623046875,-0.006126693915575743,0.004325707908719778,0.018246358260512352
1782969676308389600,5.8903896484375,-0.007998053915798664,0.004855966195464134,0.025984743610024452
1782969676318316800,5.90031689453125,-0.004440869204699993,0.004332655109465122,0.02752538211643696
1782969676328242700,5.91024267578125,-0.0021434039808809757,0.0006633284501731396,0.022896770387887955
1782969676338168600,5.92016845703125,-0.004740784876048565,0.006616025697439909,0.018882054835557938
1782969676348095700,5.930095703125,-0.014447781257331371,0.004212962929159403,0.013083124533295631
1782969676358021600,5.940021728515625,-0.019028950482606888,0.0019777719862759113,-0.00021723494865000248
1782969676367947800,5.94994775390625,-0.022329671308398247,0.0032305228523910046,-0.011130335740745068
1782969676377874700,5.959874755859375,-0.01867075450718403,0.00034472160041332245,-0.017597557976841927
1782969676387800600,5.969800537109375,-0.015549277886748314,-0.010332610458135605,-0.02501225471496582
1782969676397726700,5.979726806640625,-0.00758669339120388,-0.017235256731510162,-0.025233829393982887
1782969676407652600,5.989652587890625,-0.00953272171318531,-0.02400379069149494,-0.012124577537178993
1782969676417579800,5.999579833984375,-0.01383319403976202,-0.02134915255010128,0.012468383647501469
1782969676427505700,6.009505615234375,-0.014110289514064789,-0.008546311408281326,0.03648779168725014
1782969676437431800,6.019431884765625,-0.016486361622810364,-0.0011357995681464672,0.055194102227687836
1782969676447358700,6.029358642578125,-0.01760980859398842,0.0032615717500448227,0.06300605088472366
1782969676457284600,6.03928466796875,-0.019265230745077133,0.006900248117744923,0.06095169112086296
1782969676467210800,6.049210693359375,-0.020421165972948074,0.010961262509226799,0.042920585721731186
1782969676477138000,6.059137939453125,-0.020143132656812668,0.007282105274498463,0.024787653237581253
1782969676487063600,6.0690634765625,-0.02283494360744953,-0.006750501226633787,0.001788308029063046
1782969676496989700,6.07898974609375,-0.027490682899951935,-0.006857294123619795,-0.015415978617966175
1782969676506915800,6.088915771484375,-0.03019854426383972,-0.008673645555973053,-0.029414383694529533
1782969676516842500,6.098842529296875,-0.03300205245614052,-0.006152431480586529,-0.03752504289150238
1782969676526768600,6.1087685546875,-0.03229547664523125,-0.01143328845500946,-0.040276918560266495
1782969676536694800,6.11869482421875,-0.022031651809811592,-0.011302260681986809,-0.04055282101035118
1782969676546621700,6.12862158203125,-0.0216215793043375,-0.010475359857082367,-0.027568131685256958
1782969676556547600,6.138547607421875,-0.017690487205982208,-0.010397063568234444,-0.011917535215616226
1782969676566473700,6.1484736328125,-0.02075403369963169,-0.010878782719373703,0.005313598085194826
1782969676576400600,6.158400634765625,-0.02688037045300007,-0.0060579292476177216,0.02390805445611477
1782969676586326500,6.168326416015625,-0.0315542034804821,0.006719570606946945,0.03993568196892738
1782969676596252700,6.178252685546875,-0.0398896299302578,-0.006749100051820278,0.042404431849718094
1782969676606179800,6.188179931640625,-0.04592783376574516,0.006160121411085129,0.05290242284536362
1782969676616105700,6.198105712890625,-0.04261672496795654,0.025825701653957367,0.05930785834789276
1782969676626031600,6.208031494140625,-0.04083288460969925,0.020421724766492844,0.06591185182332993
1782969676635957800,6.217957763671875,-0.032562702894210815,0.010095317848026752,0.0532650388777256
1782969676645884700,6.227884765625,-0.022226553410291672,0.009067749604582787,0.037090081721544266
1782969676655810600,6.237810546875,-0.015809666365385056,-0.0005997908301651478,0.017333421856164932
1782969676665736700,6.24773681640625,-0.00804370641708374,-0.005481314845383167,0.004119608085602522
1782969676675663600,6.25766357421875,-0.002437219489365816,-0.00883769616484642,-0.011117401532828808
1782969676685589800,6.26758984375,-0.0047367331571877,-0.008925806730985641,-0.025026654824614525
1782969676695515600,6.277515625,-0.008134926669299603,-0.011466994881629944,-0.034364230930805206
1782969676705442600,6.287442626953125,-0.009803579188883305,-0.004075708333402872,-0.03383558243513107
1782969676715368700,6.29736865234375,-0.016591710969805717,-0.002487132791429758,-0.028013648465275764
1782969676725294600,6.307294677734375,-0.02395595796406269,0.004418050870299339,-0.029916631057858467
1782969676735221500,6.317221435546875,-0.02195592224597931,0.00412137433886528,-0.027392486110329628
1782969676745147600,6.327147705078125,-0.0197212602943182,0.0075913043692708015,-0.023102596402168274
1782969676755073800,6.33707373046875,-0.015250079333782196,0.004698578268289566,-0.02435188554227352
1782969676764999700,6.346999755859375,-0.005184199195355177,-0.009312242269515991,-0.020790452137589455
1782969676774926600,6.356926513671875,-0.002841416746377945,-0.01285531185567379,-0.009861371479928493
1782969676784852700,6.366852783203125,-0.0027061987202614546,-0.008420378901064396,0.004517750348895788
1782969676794778600,6.376778564453125,-0.005389865953475237,-0.006677073892205954,0.011844639666378498
1782969676804705500,6.38670556640625,-0.014255544170737267,-0.005392016842961311,0.019682664424180984
1782969676814631700,6.396631591796875,-0.0186777226626873,-0.005638092756271362,0.018471991643309593
1782969676824557800,6.406557861328125,-0.02328789234161377,-0.0049695358611643314,0.01542837917804718
1782969676834484700,6.416484619140625,-0.02455315925180912,-0.0067842137068510056,0.006213842425495386
1782969676844410600,6.42641064453125,-0.02520770952105522,-0.008780142292380333,-0.008255219087004662
1782969676854336800,6.436336669921875,-0.020839858800172806,-0.010854478925466537,-0.015328042209148407
1782969676864263700,6.446263671875,-0.0202883742749691,-0.01692366600036621,-0.02260608784854412
1782969676874189600,6.456189453125,-0.01757940649986267,-0.014179546386003494,-0.020720571279525757
1782969676884115700,6.46611572265625,-0.01769978180527687,-0.009904107078909874,-0.01442033052444458
1782969676894041900,6.476041748046875,-0.022545669227838516,-0.005424936302006245,-0.006364267319440842
1782969676903968800,6.48596875,-0.025596264749765396,0.000041845254600048065,0.0004924657987430692
1782969676913894700,6.495894775390625,-0.025544598698616028,-0.0057148439809679985,-0.0014002426760271192
1782969676923820800,6.50582080078125,-0.028454691171646118,-0.008060401305556297,-0.007283058017492294
1782969676933747700,6.515747802734375,-0.028918879106640816,-0.011147802695631981,-0.008082538843154907
1782969676943673600,6.525673583984375,-0.033546082675457,-0.01530064269900322,-0.007669584825634956
1782969676953599700,6.535599853515625,-0.039960574358701706,-0.010595636442303658,0.005044346209615469
1782969676963526700,6.545526611328125,-0.03908778354525566,-0.000689714215695858,0.016507739201188087
1782969676973452800,6.555452880859375,-0.039234522730112076,0.004669630900025368,0.030447522178292274
1782969676983378700,6.565378662109375,-0.030060982331633568,0.006654137745499611,0.03898181393742561
1782969676993305600,6.5753056640625,-0.030481230467557907,0.012465421110391617,0.04358216002583504
1782969677003231700,6.585231689453125,-0.03124850243330002,0.004922897554934025,0.04365307092666626
1782969677013157600,6.59515771484375,-0.026121916249394417,0.0023039449006319046,0.03895951807498932
1782969677023083800,6.605083740234375,-0.023540599271655083,0.0023871860466897488,0.03480105474591255
1782969677033010700,6.6150107421875,-0.011268219910562038,-0.002079467521980405,0.030488332733511925
1782969677042936800,6.624936767578125,-0.006570613477379084,-0.003389899153262377,0.023543765768408775
1782969677052862700,6.63486279296875,-0.001881851814687252,0.000959309283643961,0.014695946127176285
1782969677062789600,6.64478955078125,-0.005707272794097662,0.0038782902993261814,0.005027713719755411
1782969677072715800,6.6547158203125,-0.007720356807112694,0.004608262795954943,-0.009276922792196274
1782969677082642400,6.664642333984375,-0.010371869429945946,0.0032783495262265205,-0.02137567661702633
1782969677092569300,6.6745693359375,-0.01265686098486185,-0.00269858306273818,-0.024340040981769562
1782969677102495500,6.68449560546875,-0.008935206569731236,-0.004388312343508005,-0.026411497965455055
1782969677112421400,6.69442138671875,-0.00479585537686944,-0.003314792178571224,-0.018114686012268066
1782969677122348300,6.704348388671875,0.0015506686177104712,-0.0024655209854245186,-0.007066383957862854
1782969677132274400,6.7142744140625,0.0032763967756181955,0.0024552014656364918,0.0002514497609809041
1782969677142200300,6.724200439453125,-0.0003415779792703688,0.0034727659076452255,0.007898100651800632
1782969677152127200,6.734127197265625,-0.008140911348164082,0.0050003547221422195,0.009536477737128735
1782969677162053400,6.744053466796875,-0.016081590205430984,-0.0027383272536098957,0.006742301397025585
1782969677171979500,6.7539794921875,-0.016092777252197266,-0.0015713300090283155,0.008188930340111256
1782969677181905200,6.7639052734375,-0.01667223684489727,0.0026092245243489742,0.016431381925940514
1782969677191832300,6.773832275390625,-0.009647084400057793,0.005490232724696398,0.022268764674663544
1782969677201758500,6.783758544921875,-0.0060515073128044605,0.01165121141821146,0.025870196521282196
1782969677211684400,6.793684326171875,-0.0027819443494081497,0.005749647505581379,0.021696755662560463
1782969677221611300,6.803611328125,-0.010087934322655201,0.005462598986923695,0.012257886119186878
1782969677231537400,6.813537353515625,-0.02040129154920578,0.005481773056089878,0.0015724849654361606
1782969677241463300,6.82346337890625,-0.033547330647706985,0.00433106254786253,-0.010270421393215656
1782969677251390200,6.83339013671875,-0.038539692759513855,0.0011166268959641457,-0.023879706859588623
1782969677261316400,6.84331640625,-0.03722192719578743,-0.0025309999473392963,-0.02711772918701172
1782969677271242500,6.853242431640625,-0.03602989763021469,-0.0078605180606246,-0.0313526876270771
1782969677281169400,6.86316943359375,-0.029812496155500412,-0.01184852048754692,-0.023739701136946678
1782969677291095300,6.87309521484375,-0.02084137313067913,-0.012542007490992546,-0.0025832829996943474
1782969677301021400,6.883021484375,-0.01163553912192583,-0.006108760833740234,0.019683875143527985
1782969677310947300,6.892947265625,-0.008907929062843323,-0.002909239148721099,0.04073989391326904
1782969677320874200,6.902874267578125,-0.01370553020387888,0.001256593968719244,0.05605247616767883
1782969677330800400,6.91280029296875,-0.021534956991672516,0.0068753305822610855,0.0645892322063446
1782969677340726300,6.922726318359375,-0.02424454316496849,0.013353087939321995,0.06113118305802345
1782969677350653400,6.9326533203125,-0.027363371104002,0.016435697674751282,0.04772350192070007
1782969677360579300,6.942579345703125,-0.023308804258704185,0.006906072609126568,0.02679865062236786
1782969677370505200,6.952505126953125,-0.01515207439661026,0.0030274447053670883,0.0025841244496405125
1782969677380432400,6.962432373046875,-0.013260502368211746,-0.00004257727414369583,-0.015418057329952717
1782969677390358300,6.972358154296875,-0.00792512483894825,-0.0020322247873991728,-0.024702636525034904
1782969677400284400,6.982284423828125,-0.006899022962898016,-0.0032140547409653664,-0.024330250918865204
1782969677410211300,6.99221142578125,-0.009868714027106762,0.00039372965693473816,-0.02377364970743656
1782969677420137500,7.002137451171875,-0.012996498495340347,-0.001911734463647008,-0.01640162616968155
1782969677430063400,7.0120634765625,-0.015699608251452446,0.0019146953709423542,-0.007668589241802692
1782969677439989200,7.0219892578125,-0.018070857971906662,-0.0033298623748123646,0.005116492509841919
1782969677449916400,7.03191650390625,-0.01788496971130371,-0.0015095917042344809,0.015613608062267303
1782969677459842600,7.041842529296875,-0.018954943865537643,0.00014621112495660782,0.022983310744166374
1782969677469768200,7.051768310546875,-0.019068129360675812,0.005223261192440987,0.03156028687953949
1782969677479695400,7.0616953125,-0.02284279465675354,0.008990071713924408,0.031173458322882652
1782969677489621500,7.07162158203125,-0.01977935992181301,0.010154938325285912,0.025839410722255707
1782969677499547100,7.081547119140625,-0.019118601456284523,0.007490717805922031,0.017446769401431084
1782969677509474300,7.091474365234375,-0.01245750393718481,-0.0016220870893448591,0.0102980462834239
1782969677519400400,7.101400390625,-0.006613490171730518,-0.0029821693897247314,0.0009391213534399867
1782969677529326300,7.111326416015625,-0.00626195315271616,-0.0034167971462011337,-0.004347519483417273
1782969677539253200,7.121253173828125,-0.0040139369666576385,-0.002216585446149111,0.00005119200795888901
1782969677549179400,7.131179443359375,-0.0028171122539788485,0.000021002255380153656,0.008110982365906239
1782969677559105300,7.141105224609375,-0.0034516449086368084,0.0046498775482177734,0.012226758524775505
1782969677569031200,7.15103125,-0.001943230745382607,0.007048320025205612,0.011877884157001972
1782969677578958300,7.160958251953125,0.005308976396918297,0.004057370126247406,0.010932677425444126
1782969677588884500,7.170884521484375,0.006515388377010822,0.006520528346300125,0.01074252836406231
1782969677598810400,7.180810302734375,0.00564930122345686,0.005370835307985544,0.010728368535637856
1782969677608737300,7.1907373046875,0.0022993111051619053,0.009154655039310455,0.006589017808437347
1782969677618663400,7.200663330078125,-0.002931165276095271,0.0065370285883545876,0.0018823695136234164
1782969677628589300,7.21058935546875,-0.002946345368400216,0.007274990901350975,-0.004599231760948896
1782969677638516500,7.2205166015625,-0.0008411870221607387,0.003866114653646946,-0.013261246494948864
1782969677648442400,7.2304423828125,-0.005470826290547848,-0.0030839371029287577,-0.016706842929124832
1782969677658368300,7.2403681640625,-0.0018732735188677907,-0.0008177077397704124,-0.018001120537519455
1782969677668295400,7.25029541015625,0.00257313996553421,0.0009346520528197289,-0.013195980340242386
1782969677678221300,7.26022119140625,0.0036037834361195564,0.0073821647092700005,-0.013695589266717434
1782969677688147200,7.270147216796875,0.0022080205380916595,0.00010001752525568008,-0.012576262466609478
1782969677698073300,7.2800732421875,0.0019215485081076622,0.0014024185948073864,-0.0032728388905525208
1782969677708000500,7.29000048828125,0.001555363880470395,0.003443465568125248,0.0046724360436201096
1782969677717926100,7.299926025390625,0.00017786401440389454,0.0024149990640580654,0.013581990264356136
1782969677727852300,7.309852294921875,0.0021070579532533884,0.002756149508059025,0.01693837158381939
1782969677737779500,7.319779541015625,0.0000424766622018069,0.0021909927017986774,0.01603863015770912
1782969677747705300,7.329705322265625,0.007808254100382328,-0.0004974687471985817,0.02046933025121689
1782969677757631200,7.33963134765625,0.010232727974653244,0.0045905704610049725,0.025492040440440178
1782969677767558400,7.349558349609375,0.010080127976834774,0.00982634536921978,0.0206269770860672
1782969677777484500,7.359484619140625,0.011897610500454903,0.0076651484705507755,0.008479862473905087
1782969677787410200,7.36941015625,0.012985510751605034,0.0036150128580629826,-0.004354976583272219
1782969677797337300,7.37933740234375,0.012306503020226955,0.004447019658982754,-0.013392819091677666
1782969677807263500,7.389263427734375,0.011264142580330372,0.005825738422572613,-0.014705224893987179
1782969677817189000,7.399189208984375,0.006392350886017084,0.0019961833022534847,-0.02019507624208927
1782969677827115300,7.409115234375,0.004807503893971443,-0.00015192199498414993,-0.02716004103422165
1782969677837042400,7.41904248046875,0.002223213668912649,-0.0016892736312001944,-0.029321033507585526
1782969677846968300,7.42896826171875,0.004400614183396101,0.003659419249743223,-0.018905144184827805
1782969677856894200,7.438894287109375,0.002338402671739459,0.004052293952554464,-0.01484818384051323
1782969677866821400,7.4488212890625,0.006810116581618786,0.0005931141786277294,-0.002674342365935445
1782969677876747300,7.458747314453125,0.01427906472235918,0.0024305498227477074,0.00985714141279459
1782969677886673200,7.468673095703125,0.020715657621622086,0.006983223371207714,0.02510933019220829
1782969677896600300,7.478600341796875,0.019757047295570374,0.008022429421544075,0.03432217612862587
1782969677906526200,7.488526123046875,0.023004505783319473,0.006882595829665661,0.02583654597401619
1782969677916452400,7.498452392578125,0.025152483955025673,0.0039288438856601715,0.025615863502025604
1782969677926379500,7.508379638671875,0.017390701919794083,0.006791209802031517,0.024373766034841537
1782969677936305400,7.518305419921875,0.010682942345738411,0.008267555385828018,0.012969153001904488
1782969677946231300,7.528231201171875,0.008742563426494598,0.009128822013735771,0.0013156923232600093
1782969677956157400,7.538157470703125,0.007615288719534874,0.007408078759908676,-0.008530045859515667
1782969677966084400,7.54808447265625,0.013647347688674927,0.006205128505825996,-0.013391912914812565
1782969677976010200,7.55801025390625,0.017583275213837624,0.00696911383420229,-0.008633142337203026
1782969677985936400,7.567936279296875,0.013578414916992188,0.009181136265397072,-0.0021813679486513138
1782969677995863600,7.577863525390625,0.012683115899562836,0.008456067182123661,-0.004795900546014309
1782969678005789200,7.5877890625,0.015682101249694824,0.001804023515433073,-0.004011333454400301
1782969678015715300,7.59771533203125,0.010993284173309803,0.0006728689186275005,-0.00177070836070925
1782969678025642500,7.607642578125,0.004744442645460367,0.0025578541681170464,0.0016346756601706147
1782969678035568000,7.617568115234375,0.0033071073703467846,0.003545614890754223,0.0023582123685628176
1782969678045494300,7.627494384765625,-0.007182551547884941,0.0035496102645993233,-0.0075540728867053986
1782969678055421400,7.63742138671875,-0.010454792529344559,0.006929242052137852,-0.020522525534033775
1782969678065347300,7.647347412109375,-0.011220451444387436,0.0049430569633841515,-0.0304113756865263
1782969678075273200,7.657273193359375,-0.008661601692438126,0.003304529469460249,-0.04314481467008591
1782969678085199600,7.66719970703125,0.007435609120875597,0.001947915181517601,-0.046258848160505295
1782969678095125800,7.677125732421875,0.01992488093674183,-0.0024359601084142923,-0.03851725161075592
1782969678105051600,7.6870517578125,0.0216175876557827,-0.0006841327995061874,-0.020853569731116295
1782969678114977500,7.6969775390625,0.015547331422567368,0.004198120441287756,-0.0002476064255461097
1782969678124904700,7.70690478515625,0.006671281531453133,0.0083843432366848,0.007504322566092014
1782969678134830600,7.71683056640625,-0.0022565587423741817,0.007793512661010027,0.011716402135789394
1782969678144756700,7.7267568359375,-0.008233491331338882,0.003027786035090685,0.0016203579725697637
1782969678154683600,7.73668359375,-0.005293262656778097,-0.004043670371174812,-0.008093927055597305
1782969678164609800,7.74660986328125,-0.002153396140784025,-0.010929007083177567,-0.022793244570493698
1782969678174535700,7.75653564453125,0.00005855507333762944,-0.020327232778072357,-0.02717042714357376
1782969678184462800,7.766462890625,-0.0007896617171354592,-0.01992402970790863,-0.02018522284924984
1782969678194388700,7.776388671875,-0.0011820010840892792,-0.014607405290007591,-0.005578742362558842
1782969678204314600,7.786314697265625,-0.010490015149116516,-0.0033875075168907642,0.00667685829102993
1782969678214241800,7.79624169921875,-0.019363878294825554,0.006493363529443741,0.012352142482995987
1782969678224167700,7.806167724609375,-0.02385716512799263,0.003788391128182411,0.0014318504836410284
1782969678234093600,7.816093505859375,-0.027951929718255997,0.0011084056459367275,-0.02457066997885704
1782969678244019700,7.826019775390625,-0.02694845013320446,-0.00591674679890275,-0.046919915825128555
1782969678253947000,7.83594677734375,-0.02844155952334404,-0.003894200548529625,-0.0650470107793808
1782969678263872500,7.84587255859375,-0.02584364451467991,-0.008573907427489758,-0.0898871123790741
1782969678273798700,7.855798583984375,-0.010334276594221592,-0.016125518828630447,-0.0914221704006195
1782969678283725800,7.865725830078125,-0.0033717080950737,-0.015678372234106064,-0.0833546593785286
1782969678293651700,7.875651611328125,0.0016123831737786531,0.0005355649627745152,-0.07098472863435745
1782969678303577600,7.88557763671875,0.009869247674942017,-0.007115163840353489,-0.05401879549026489
1782969678313504800,7.8955048828125,0.013184603303670883,-0.0034861601889133453,-0.0345674529671669
1782969678323430700,7.9054306640625,0.003331173676997423,-0.0029780291952192783,-0.017130406573414803
1782969678333356500,7.9153564453125,0.00552210072055459,-0.0031544407829642296,0.002976300660520792
1782969678343283700,7.92528369140625,0.003151088021695614,-0.003337666392326355,0.021194186061620712
1782969678353209900,7.9352099609375,-0.0062238844111561775,0.0007300917059183121,0.036668963730335236
1782969678363135700,7.9451357421875,-0.010679619386792183,0.005406869109719992,0.03825114667415619
1782969678373061600,7.9550615234375,-0.020468879491090775,0.00781960692256689,0.03532927855849266
1782969678382988800,7.96498876953125,-0.0210459865629673,0.0031148670241236687,0.023498447611927986
1782969678392914700,7.974914794921875,-0.022113466635346413,-0.000921269878745079,0.012213101610541344
1782969678402840600,7.984840576171875,-0.01902046985924244,-0.0017612308729439974,0.0015508695505559444
1782969678412767700,7.994767822265625,-0.017733953893184662,-0.0025882527697831392,-0.0038834698498249054
1782969678422691800,8.00469189453125,-0.01369180716574192,0.0021905233152210712,-0.0040520476177334785
1782969678432618500,8.014618408203125,-0.011830804869532585,0.0014545065350830555,-0.0026860367506742477
1782969678442544600,8.024544677734376,-0.002620262559503317,0.002432153094559908,0.005752721801400185
1782969678452470800,8.034470703125,0.0031022813636809587,0.0031212689355015755,0.011023491621017456
1782969678462397700,8.044397705078126,0.00519579229876399,0.00624648854136467,0.018170883879065514
1782969678472323600,8.054323486328125,0.009464588016271591,0.010832637548446655,0.020107723772525787
1782969678482249700,8.064249755859375,0.009790824726223946,0.0075726620852947235,0.021842241287231445
1782969678492177000,8.074177001953124,0.01163760107010603,0.005826120264828205,0.016256622970104218
1782969678502102500,8.0841025390625,0.0066622840240597725,0.011777753010392189,0.014604663476347923
1782969678512028700,8.094028564453126,0.0075438739731907845,0.009491810575127602,0.009564833715558052
1782969678521954800,8.103954833984375,0.003398930188268423,0.006659272592514753,-0.0017868902068585157
1782969678531881700,8.1138818359375,0.005979266948997974,-0.0013922620564699173,-0.006046350114047527
1782969678541807600,8.1238076171875,-0.0001822225167416036,0.003547102678567171,-0.005256189964711666
1782969678551733800,8.133733642578125,-0.002613856690004468,0.000940435566008091,0.0028644478879868984
1782969678561660700,8.14366064453125,-0.004548110533505678,0.004369521513581276,0.015387428924441338
1782969678571586600,8.153586669921875,-0.0010793724795803428,0.0022503407672047615,0.021702203899621964
1782969678581512700,8.1635126953125,-0.0001954693580046296,0.005583819467574358,0.03455967828631401
1782969678591439600,8.173439697265625,-0.0020557562820613384,0.007432921323925257,0.03998265787959099
1782969678601365800,8.18336572265625,-0.00010605610441416502,0.00549493869766593,0.041652459651231766
1782969678611291600,8.193291748046875,0.0011590293142944574,0.007619191892445087,0.042102739214897156
1782969678621218600,8.203218505859375,0.004635253455489874,0.004560018889605999,0.03617853671312332
1782969678631144700,8.213144775390624,0.005486316047608852,0.000030132010579109192,0.025719035416841507
1782969678641070600,8.223070556640625,0.010657908394932747,-0.0018561847973614931,0.016444046050310135
1782969678650997800,8.232997802734374,0.011275159195065498,-0.0020598466508090496,0.004179111681878567
1782969678660923600,8.242923583984375,0.011130815371870995,-0.001948526594787836,-0.006458086892962456
1782969678670849800,8.252849853515626,0.0066837421618402,-0.0012964573688805103,-0.0167144276201725
1782969678680775700,8.262775634765624,0.004765467252582312,0.0002638888545334339,-0.022267118096351624
1782969678690702600,8.27270263671875,0.002377313794568181,-0.0006146240048110485,-0.028271539136767387
1782969678700628700,8.282628662109374,-0.00011354085290804505,-0.0026974824722856283,-0.022485820576548576
1782969678710554600,8.2925546875,-0.0015692388406023383,-0.003518986515700817,-0.012010200880467892
1782969678720481500,8.3024814453125,-0.0005356660112738609,-0.0005828514695167542,0.001423049601726234
1782969678730407700,8.31240771484375,-0.0024918983690440655,0.007210396230220795,0.013287869282066822
1782969678740333800,8.322333740234376,-0.0023632673546671867,0.00492647010833025,0.01345591526478529
1782969678750260500,8.332260498046875,0.0002060804981738329,0.0034002820029854774,0.011059058830142021
1782969678760186600,8.3421865234375,0.006722835823893547,0.002975773997604847,0.008359678089618683
1782969678770112800,8.35211279296875,0.00693723326548934,0.0006021852605044842,0.010099641047418118
1782969678780039700,8.362039794921875,0.007680787704885006,-0.0003813202492892742,0.007446600124239922
1782969678789965600,8.371965576171876,0.002270420780405402,-0.00569507060572505,-0.001143834786489606
1782969678799891700,8.3818916015625,0.0011138098780065775,-0.00748844351619482,-0.0037792990915477276
1782969678809817900,8.39181787109375,-0.000785989046562463,-0.0011192932724952698,0.00125705951359123
1782969678819744500,8.40174462890625,-0.0018445956520736217,0.0017563882283866405,0.0031878515146672726
1782969678829670700,8.411670654296875,-0.0020985491573810577,-0.002027576556429267,0.0017763559008017182
1782969678839596800,8.4215966796875,-0.005181158427149057,-0.0027615437284111977,-0.0037686116993427277
1782969678849523700,8.431523681640625,-0.005140076857060194,-0.005933171138167381,-0.005670895334333181
1782969678859449600,8.44144970703125,-0.003980003762990236,-0.005298273637890816,-0.0033054756931960583
1782969678869375700,8.451375732421875,-0.001892001717351377,-0.0005582636222243309,0.00550952460616827
1782969678879302700,8.461302734375,-0.00044750323286280036,0.0008390969596803188,0.008021418005228043
1782969678889228800,8.471228759765625,0.002274010796099901,0.0032110116444528103,0.010321704670786858
1782969678899154700,8.48115478515625,0.006599517073482275,0.0002469136379659176,0.004874474834650755
1782969678909081600,8.49108154296875,0.00907747633755207,-0.002672830829396844,0.006989310495555401
1782969678919007700,8.5010078125,0.014760928228497505,0.004423161502927542,0.011228530667722225
1782969678928933600,8.51093359375,0.01495672669261694,0.005170988384634256,0.010211823508143425
1782969678938859800,8.52085986328125,0.013765494339168072,0.003857517149299383,0.005934520158916712
1782969678948786700,8.53078662109375,0.01323042344301939,-0.000679634977132082,-0.0051473937928676605
1782969678958712800,8.540712890625,0.016597723588347435,-0.005566535983234644,-0.0017140463460236788
1782969678968638700,8.550638671875,0.013425998389720917,0.0001595616340637207,0.0074268486350774765
1782969678978565600,8.560565673828124,0.00652654655277729,0.0029255212284624577,0.012648241594433784
1782969678988491800,8.57049169921875,-0.0022315550595521927,0.0009751846082508564,0.009565252810716629
1782969678998417700,8.580417724609376,-0.008411419577896595,0.005203485023230314,0.00611033383756876
1782969679008344600,8.590344482421875,-0.020927464589476585,0.010957162827253342,0.0007993815233930945
1782969679018270700,8.600270751953126,-0.02395494468510151,0.008794942870736122,-0.011343567632138729
1782969679028196900,8.61019677734375,-0.019713763147592545,0.004518207162618637,-0.01829429157078266
1782969679038123500,8.62012353515625,-0.010301884263753891,-0.00305449147708714,-0.022536439821124077
1782969679048049700,8.630049560546874,-0.0038116909563541412,-0.010881759226322174,-0.022185884416103363
1782969679057975800,8.639975830078125,-0.00270621245726943,-0.01236460730433464,-0.011914871633052826
1782969679067902700,8.64990283203125,-0.001384205650538206,-0.009839843958616257,0.00698117446154356
1782969679077828600,8.65982861328125,-0.0009652902954258025,0.0039010019972920418,0.02620147354900837
1782969679087755300,8.66975537109375,-0.00013308023335412145,0.007627025246620178,0.040570784360170364
1782969679097681400,8.679681396484375,0.004743700381368399,0.006545781157910824,0.036429569125175476
1782969679107608300,8.6896083984375,0.008624458685517311,0.010288587771356106,0.02664138376712799
1782969679117534200,8.6995341796875,0.005215346347540617,0.0043547991663217545,0.012749803252518177
1782969679127460400,8.70946044921875,0.0028192438185214996,-0.012473825365304947,-0.00042980676516890526
1782969679137387300,8.71938720703125,-0.0036035017110407352,0.008551032282412052,0.000153691740706563
1782969679147313200,8.729313232421875,-0.009401049464941025,0.009783155284821987,0.0026030209846794605
1782969679157239300,8.7392392578125,-0.005003903526812792,0.008493387140333652,0.0021124668419361115
1782969679167166200,8.749166259765625,-0.003673683386296034,0.01119186170399189,-0.0019002333283424377
1782969679177092400,8.75909228515625,0.006846069358289242,0.0029451181180775166,-0.011170962825417519
1782969679187018200,8.769018310546874,0.005503458436578512,-0.0010478803887963295,-0.013706007041037083
1782969679196945200,8.778945068359375,0.005170563235878944,-0.01107228547334671,-0.013729975558817387
1782969679206871300,8.788871337890624,0.003109065815806389,-0.0112167838960886,-0.003558138618245721
1782969679216797200,8.798797119140625,0.0024126493372023106,-0.0061836764216423035,0.017273373901844025
1782969679226723000,8.80872314453125,0.00012569507816806436,0.000023584812879562378,0.03769303485751152
1782969679236650200,8.818650146484375,-0.005275461822748184,0.00756033044308424,0.050294846296310425
1782969679246576400,8.828576416015625,-0.011182675138115883,0.014949426054954529,0.045558251440525055
1782969679256502300,8.838502197265624,-0.009012466296553612,0.012049511075019836,0.031144162639975548
1782969679266429200,8.84842919921875,-0.007692168466746807,0.003035740926861763,0.013238804414868355
1782969679276355300,8.858355224609374,-0.0044854567386209965,-0.0021291938610374928,-0.010586101561784744
1782969679286281200,8.86828125,-0.0035534342750906944,-0.00786176323890686,-0.023193441331386566
1782969679296208100,8.8782080078125,-0.0038184188306331635,-0.005233223550021648,-0.02635141834616661
1782969679306134300,8.88813427734375,-0.002244421513751149,0.00037745526060462,-0.022674646228551865
1782969679316060400,8.898060302734375,0.003250478534027934,0.002810519188642502,-0.009152712300419807
1782969679325987000,8.907987060546875,0.009427177719771862,0.004510784521698952,-0.006099549122154713
1782969679335913200,8.917913330078125,0.01525284256786108,0.004937157034873962,0.003472384065389633
1782969679345839400,8.92783935546875,0.011102922260761261,0.0009635700844228268,0.005213228520005941
1782969679355766300,8.937766357421875,0.00923018716275692,0.001471168827265501,0.002164175733923912
1782969679365692200,8.947692138671876,0.004928257316350937,0.0021467721089720726,0.0004452004795894027
1782969679375618300,8.957618408203125,0.002352447947487235,0.003310573287308216,-0.0016373915132135153
1782969679385544200,8.967544189453125,-0.0007319131982512772,0.0009648161940276623,-0.002026693895459175
1782969679395471000,8.97747119140625,-0.003227827837690711,0.004302822519093752,-0.0023273646365851164
1782969679405397200,8.987397216796875,-0.001625768025405705,0.00029259873554110527,-0.002555724699050188
1782969679415323100,8.9973232421875,-0.0006553122075274587,0.005588560830801725,-0.0014230823144316673
1782969679425250300,9.007250244140625,-0.004896409809589386,0.0015957639552652836,-0.006829490419477224
1782969679435176200,9.01717626953125,-0.00859367661178112,0.0014407681301236153,-0.014408314600586891
1782969679445102300,9.027102294921875,-0.008551739156246185,0.00028845900669693947,-0.01735759526491165
1782969679455029200,9.037029296875,-0.008190613240003586,0.004128470551222563,-0.020797332748770714
1782969679464955100,9.046955078125,-0.010701386258006096,0.0034561334177851677,-0.021607041358947754
1782969679474881300,9.05688134765625,-0.010988474823534489,0.001699511893093586,-0.027193553745746613
1782969679484808200,9.06680810546875,-0.007866466417908669,0.0036548860371112823,-0.03448787331581116
1782969679494734300,9.076734375,-0.002283414825797081,0.0024905516766011715,-0.0405162051320076
1782969679504660200,9.08666015625,0.0009725382551550865,0.0011973152868449688,-0.04557812213897705
1782969679514586000,9.096586181640625,0.010329553857445717,-0.0015049942303448915,-0.04101799055933952
1782969679524513300,9.10651318359375,0.011303192004561424,0.00170605955645442,-0.03559572249650955
1782969679534439200,9.116439208984374,0.011621439829468727,-0.0019376776181161404,-0.027428338304162025
1782969679544365000,9.126364990234375,0.012058141641318798,-0.0017838566564023495,-0.016403542831540108
1782969679554292200,9.136292236328124,0.006951264105737209,-0.002654710318893194,-0.00044082116801291704
1782969679564218400,9.14621826171875,0.0005512682255357504,0.001411624252796173,0.01205025427043438
1782969679574144000,9.15614404296875,-0.007262712810188532,0.00494297593832016,0.026042502373456955
1782969679584071200,9.1660712890625,-0.009678283706307411,0.0049109021201729774,0.029589897021651268
1782969679593997300,9.175997314453125,-0.009240194223821163,-0.0002471078187227249,0.030360350385308266
1782969679603923200,9.185923095703124,-0.006474277004599571,0.004058765713125467,0.02510409988462925
1782969679613850000,9.19585009765625,-0.0031024485360831022,0.0008930661715567112,0.02040575072169304
1782969679623776300,9.2057763671875,0.00029067089781165123,0.0016758497804403305,0.007822923362255096
1782969679633702400,9.215702392578125,0.0004885437665507197,-0.0034715079236775637,-0.004754120483994484
1782969679643628000,9.2256279296875,-0.001634710468351841,-0.0022716380190104246,-0.015618816018104553
1782969679653555200,9.23555517578125,-0.0044273012317717075,-0.00416088430210948,-0.01578579656779766
1782969679663481300,9.2454814453125,-0.00890154018998146,-0.004743988160043955,-0.014913053251802921
1782969679673407200,9.2554072265625,-0.00844960194081068,0.0018116487190127373,-0.0037184557877480984
1782969679683334100,9.265334228515625,-0.008955460041761398,0.006449335254728794,0.009720553644001484
1782969679693260300,9.27526025390625,-0.0035566999576985836,0.0037259869277477264,0.021832875907421112
1782969679703186200,9.285186279296875,0.002778231166303158,0.00760294683277607,0.03585150092840195
1782969679713113300,9.29511328125,0.011379443109035492,0.012516745366156101,0.04908767715096474
1782969679723039200,9.305039306640625,0.01751532405614853,0.008836065419018269,0.05136018618941307
1782969679732965000,9.314965087890625,0.014487575739622116,0.0075968969613313675,0.051381759345531464
1782969679742892300,9.324892333984375,0.00801343098282814,0.005635744892060757,0.04629698395729065
1782969679752818200,9.334818115234375,-0.0031484095379710197,0.009260307066142559,0.03162083774805069
1782969679762744000,9.344744140625,-0.005816672462970018,0.004963637795299292,0.018372707068920135
1782969679772670200,9.354670166015625,-0.006915226113051176,0.007366608362644911,0.014532428234815598
1782969679782597400,9.364597412109376,-0.008647430688142776,-0.00003097020089626312,0.007368854712694883
1782969679792523300,9.374523193359375,-0.000385239371098578,0.0059241242706775665,0.004745641723275185
1782969679802449200,9.38444921875,0.0010911605786532164,-0.0001354753039777279,0.005230443552136421
1782969679812376300,9.394376220703125,0.003159903921186924,0.004937846679240465,0.002841321751475334
1782969679822302200,9.40430224609375,0.003061703871935606,0.004956517834216356,0.003868053900077939
1782969679832228000,9.41422802734375,-0.0010957566555589437,0.007986662909388542,0.003140744986012578
1782969679842155300,9.4241552734375,-0.006584125570952892,0.006516291294246912,-0.004414547234773636
1782969679852081400,9.434081298828126,-0.010748243890702724,0.003090933430939913,-0.011549688875675201
1782969679862007000,9.444007080078125,-0.015027033165097237,-0.0046997577883303165,-0.015229664742946625
1782969679871934200,9.453934326171876,-0.01119793951511383,-0.010024482384324074,-0.018546631559729576
1782969679881860400,9.4638603515625,-0.008890044875442982,-0.011370177380740643,-0.017289619892835617
1782969679891786000,9.473785888671875,-0.0067390091717243195,-0.013553436845541,-0.008321424946188927
1782969679901713200,9.483713134765624,-0.007788967806845903,-0.011466009542346,0.0017007539281621575
1782969679911639300,9.493639404296875,-0.0058568441309034824,-0.009533087722957134,0.02024487778544426
1782969679921565200,9.503565185546876,-0.00406871410086751,-0.00048434967175126076,0.030837269499897957
1782969679931491000,9.513490966796875,-0.004043414257466793,0.0029705693013966084,0.03916257619857788
1782969679941418200,9.523418212890626,-0.007075408473610878,0.00715644471347332,0.034022338688373566
1782969679951344000,9.53334423828125,-0.008834159933030605,0.004481032490730286,0.01900317147374153
1782969679961270000,9.54327001953125,-0.009658141992986202,-0.0029771497938781977,0.000861985026858747
1782969679971197200,9.553197265625,-0.011027272790670395,-0.0053156716749072075,-0.017874151468276978
1782969679981123300,9.563123291015625,-0.009504870511591434,-0.007205756846815348,-0.027793532237410545
1782969679991049200,9.57304931640625,-0.0005763562512584031,-0.006752486806362867,-0.026061680167913437
1782969680000976100,9.58297607421875,0.008736325427889824,-0.004963682033121586,-0.01359106507152319
1782969680010902300,9.59290234375,0.015792902559041977,-0.0028240985702723265,0.0006429979111999273
1782969680020828200,9.602828125,0.016118859872221947,0.000693218782544136,0.01803910732269287
1782969680030755300,9.61275537109375,0.019720252603292465,-0.0022466445807367563,0.033709414303302765
1782969680040681200,9.62268115234375,0.02191007323563099,-0.0015702361706644297,0.05074739456176758
1782969680050607000,9.632607177734375,0.02172897756099701,-0.00004025036469101906,0.06015048176050186
1782969680060533200,9.642533203125,0.016942057758569717,0.0015023746527731419,0.06948723644018173
1782969680070460400,9.65246044921875,0.010029022581875324,0.0041732583194971085,0.06779426336288452
1782969680080386000,9.662385986328125,0.003319007344543934,0.0044248756021261215,0.04904189333319664
1782969680090312000,9.67231201171875,-0.0009718776564113796,0.003968675620853901,0.029150208458304405
1782969680100239000,9.682239013671875,-0.0006531816907227039,0.004181612748652697,0.01546535361558199
1782969680110165000,9.6921650390625,0.0014991851057857275,0.008068496361374855,0.0014933452475816011
1782969680120091100,9.702091064453125,0.004955870099365711,-0.00042355991899967194,-0.005689860321581364
1782969680130018300,9.712018310546876,0.007616900838911533,-0.0048228357918560505,-0.00825475063174963
1782969680139944200,9.721944091796875,0.00845442246645689,-0.0032658763229846954,-0.0013763061724603176
1782969680149870000,9.7318701171875,0.001262556528672576,0.002490812446922064,0.009375941008329391
1782969680159797200,9.74179736328125,-0.0004187679151073098,0.008232658728957176,0.020799292251467705
1782969680169723100,9.75172314453125,-0.002102951053529978,0.012787729501724243,0.020579848438501358
1782969680179649000,9.76164892578125,0.0049056485295295715,0.012158398516476154,0.01584950089454651
1782969680189576200,9.771576171875,0.005105651915073395,0.0117719741538167,0.0020599192939698696
1782969680199502300,9.78150244140625,0.007073475979268551,0.0015323054976761341,-0.005211385432630777
1782969680209428000,9.791427978515625,0.00992705300450325,0.0017187269404530525,-0.009929441846907139
1782969680219354000,9.80135400390625,0.010321760550141335,-0.00017610657960176468,-0.0006504119373857975
1782969680229281300,9.81128125,0.00924557726830244,0.002305160742253065,0.005020522978156805
1782969680239207000,9.82120703125,0.006722261197865009,0.002461593132466078,0.013254067860543728
1782969680249133000,9.831133056640626,0.002097415504977107,0.005103982053697109,0.021038219332695007
1782969680259060200,9.841060302734375,0.0025109483394771814,0.00663625355809927,0.02416194975376129
1782969680268986000,9.850986083984376,-0.0006845786701887846,0.0037523163482546806,0.018282221630215645
1782969680278912000,9.860912109375,0.002489768899977207,0.00007479824125766754,0.0033377991057932377
1782969680288839200,9.870839111328126,0.004906321410089731,-0.005141002591699362,-0.004931049887090921
1782969680298765000,9.88076513671875,0.004842306952923536,-0.001518339617177844,-0.004289887845516205
1782969680308691000,9.89069091796875,0.007142745424062014,-0.0007585398852825165,0.004506266675889492
1782969680318617000,9.9006171875,0.006761058699339628,0.002269463613629341,0.012154512107372284
1782969680328544300,9.910544189453125,0.009333672933280468,0.001422578003257513,0.01032598502933979
1782969680338470100,9.92047021484375,0.009834249503910542,-0.006008208729326725,0.007125803269445896
1782969680348396000,9.93039599609375,0.005912211257964373,-0.011812834069132805,0.01250432338565588
1782969680358323200,9.9403232421875,-0.00011683494085446,-0.0014447669964283705,0.024127626791596413
1782969680368249000,9.9502490234375,-0.009069050662219524,0.005997703410685062,0.029080040752887726
1782969680378175000,9.960175048828125,-0.006416724529117346,-0.000027049798518419266,0.03659355640411377
1782969680388102100,9.97010205078125,-0.0049139028415083885,0.005171973258256912,0.03275460749864578
1782969680398028000,9.980028076171875,0.00006103611667640507,0.0011845673434436321,0.03400977700948715
1782969680407954200,9.9899541015625,0.0004562492249533534,-0.001951304730027914,0.03375038504600525
1782969680417881000,9.999881103515625,0.006126566790044308,0.001184884924441576,0.031160717830061913
1782969680427807000,10.009806884765625,0.006136687006801367,0.0018727793358266354,0.026468228548765182
1782969680437733000,10.019733154296874,0.0013081361539661884,-0.00036320416256785393,0.02781902812421322
1782969680447660300,10.029660400390625,0.00028708012541756034,0.0002674320712685585,0.023835470899939537
1782969680457586200,10.039586181640624,-0.00043229333823546767,-0.008399304933845997,0.024670284241437912
1782969680467512000,10.049511962890625,0.003880429780110717,-0.006823246367275715,0.02194640226662159
1782969680477438200,10.059438232421876,0.003795824944972992,-0.005379164591431618,0.017774762585759163
1782969680487365000,10.069365234375,0.008138108998537064,-0.0038198838010430336,0.01944589614868164
1782969680497291000,10.079291015625,0.010496310889720917,-0.0001492546871304512,0.022481324151158333
1782969680507217200,10.089217041015624,0.01058126613497734,-0.0026377122849226,0.021470122039318085
1782969680517144300,10.099144287109375,0.008960199542343616,-0.005144013091921806,0.015982944518327713
1782969680527070000,10.109070068359374,0.012012980878353119,-0.005450809374451637,0.01070376019924879
1782969680536996000,10.11899609375,0.01224988978356123,-0.00314872688613832,0.00942938681691885
1782969680546923300,10.12892333984375,0.015108526684343815,-0.007603396661579609,0.012419850565493107
1782969680556849000,10.138848876953125,0.016945770010352135,-0.0013749920763075352,0.014891251921653748
1782969680566775000,10.148775146484375,0.014444797299802303,0.0038021933287382126,0.017761074006557465
1782969680576702200,10.1587021484375,0.014390888623893261,0.0061005474999547005,0.011551063507795334
1782969680586628000,10.168628173828125,0.01426172535866499,0.0020546731539070606,0.005733122117817402
1782969680596554000,10.178553955078126,0.01576676219701767,-0.0007928297854959965,0.004954687785357237
1782969680606480100,10.188480224609375,0.017557738348841667,-0.00008070049807429314,0.0032534608617424965
1782969680616407000,10.198406982421876,0.016868049278855324,-0.007247337605804205,0.004403691738843918
1782969680626333200,10.208333251953125,0.014846177771687508,-0.005120270885527134,0.006974441464990377
1782969680636259000,10.218259033203125,0.012173429131507874,-0.004476052243262529,0.010289010591804981
1782969680646186200,10.228186279296875,0.0015255786711350083,-0.0007122065871953964,0.008879133500158787
1782969680656112000,10.238112060546875,-0.008592050522565842,-0.002194973872974515,0.0009315379429608583
1782969680666038000,10.2480380859375,-0.017507249489426613,-0.0011440906673669815,-0.008946659043431282
1782969680675965200,10.257965087890625,-0.026951352134346962,0.002927882596850395,-0.01608392968773842
1782969680685891000,10.26789111328125,-0.03559810295701027,0.003849070519208908,-0.028209835290908813
1782969680695817200,10.277817138671875,-0.032964784651994705,0.0029708417132496834,-0.04363532364368439
1782969680705744100,10.287744140625,-0.02871198020875454,-0.006358744576573372,-0.05550023913383484
1782969680715670000,10.297669921875,-0.01650012657046318,-0.017091481015086174,-0.07146324217319489
1782969680725596200,10.30759619140625,-0.00462349271401763,-0.006067325361073017,-0.06385751813650131
1782969680735523300,10.3175234375,-0.0059756631962955,0.002580375410616398,-0.04598790779709816
1782969680745449000,10.327448974609375,-0.008444946259260178,0.013792017474770546,-0.010339365340769291
1782969680755375000,10.337375,-0.005399887915700674,0.01236828975379467,0.015297021716833115
1782969680765301200,10.34730126953125,-0.008743220940232277,0.004601981025189161,0.03511573374271393
1782969680775228000,10.357227783203125,-0.006377716548740864,0.008319603279232979,0.059123001992702484
1782969680785154000,10.367154052734374,0.005933277774602175,0.002693142741918564,0.07342977076768875
1782969680795080200,10.377080078125,0.01887488178908825,-0.003991397097706795,0.08310259133577347
1782969680805007000,10.387007080078124,0.027735751122236252,0.004572796635329723,0.08508425205945969
1782969680814933000,10.39693310546875,0.029652805998921394,0.012199778109788895,0.0791475921869278
1782969680824859100,10.406859130859376,0.028516968712210655,0.01674179919064045,0.0681825578212738
1782969680834786300,10.416786376953125,0.02085421234369278,0.011408261954784393,0.05467548966407776
1782969680844712000,10.4267119140625,0.01370016299188137,0.01542271114885807,0.04173732176423073
1782969680854638000,10.43663818359375,0.004684928804636002,0.012297526001930237,0.017332773655653
1782969680864565200,10.446565185546875,0.005296656861901283,0.007488656789064407,-0.0088066840544343
1782969680874491100,10.4564912109375,0.0037189582362771034,0.004493474029004574,-0.03902260959148407
1782969680884417000,10.4664169921875,0.01338836271315813,-0.004256874322891235,-0.05785808339715004
1782969680894343200,10.47634326171875,0.019257310777902603,-0.00488169165328145,-0.06654629111289978
1782969680904270000,10.48627001953125,0.01622583530843258,-0.007014084607362747,-0.062106527388095856
1782969680914196000,10.496196044921875,0.01864105463027954,-0.006991980597376823,-0.04709029570221901
1782969680924122000,10.5061220703125,0.013824462890625,-0.004405784886330366,-0.023731445893645287
1782969680934049000,10.516049072265625,0.004694919567555189,0.010508808307349682,0.0062324777245521545
1782969680943975200,10.52597509765625,0.0032339096069335938,0.008161499164998531,0.02467966079711914
1782969680953901000,10.535901123046875,0.005672608036547899,0.006765394937247038,0.03549658879637718
1782969680963828000,10.545827880859376,0.004407872911542654,0.0073174680583179,0.02929675206542015
1782969680973754000,10.555754150390625,0.009684438817203045,0.00834919884800911,0.01909848116338253
1782969680983680000,10.565679931640625,0.015333003364503384,0.005283900536596775,0.011498352512717247
1782969680993607200,10.575607177734375,0.016684740781784058,0.002257102634757757,0.0013424513163045049
1782969681003533000,10.585532958984375,0.009619107469916344,0.002511167898774147,-0.006442767567932606
1782969681013459200,10.595459228515624,0.005199969280511141,0.005268726032227278,-0.01742859184741974
1782969681023385000,10.605385009765625,0.0009144106297753751,0.006287651602178812,-0.029128391295671463
1782969681033312000,10.61531201171875,0.0036476547829806805,0.0047077895142138,-0.038074251264333725
1782969681043238100,10.625238037109375,0.014933066442608833,0.010715881362557411,-0.0381578728556633
1782969681053164000,10.6351640625,0.02989078126847744,0.0060228873044252396,-0.0341542549431324
1782969681063091000,10.645091064453124,0.042146649211645126,0.0026462655514478683,-0.0372464545071125
1782969681073017000,10.65501708984375,0.04482012614607811,0.0072477455250918865,-0.03046259470283985
1782969681082943200,10.664943115234376,0.04234445095062256,-0.008224154822528362,-0.011767472140491009
1782969681092870000,10.674869873046875,0.03280709311366081,0.0005378872156143188,0.022851185873150826
1782969681102796000,10.684796142578126,0.016394034028053284,0.01245260238647461,0.04647901654243469
1782969681112722200,10.69472216796875,0.015104897320270538,0.010715192183852196,0.05928495526313782
1782969681122649000,10.704649169921876,0.01943786069750786,0.01537039689719677,0.06022318825125694
1782969681132575000,10.714574951171874,0.020497923716902733,0.007395601831376553,0.05167407542467117
1782969681142501000,10.724501220703125,0.020215362310409546,0.0007270462810993195,0.040441930294036865
1782969681152427300,10.73442724609375,0.01865392178297043,-0.0029731551185250282,0.015175143256783485
1782969681162354000,10.74435400390625,0.01739957369863987,-0.006974021904170513,-0.005891525186598301
1782969681172280000,10.754280029296876,0.021089158952236176,-0.014831754378974438,-0.02644610032439232
1782969681182206200,10.764206298828125,0.015088525600731373,-0.011757400818169117,-0.03217668831348419
1782969681192133000,10.774133056640625,0.011445503681898117,-0.006071401294320822,-0.01942647621035576
1782969681202059000,10.78405908203125,0.003278919728472829,-0.001135498285293579,-0.005811065435409546
1782969681211985200,10.793985107421875,-0.0011541780550032854,0.003848341293632984,0.005148108582943678
1782969681221912000,10.803912109375,0.0014842154923826456,0.01396089605987072,0.007431769277900457
1782969681231838000,10.813837890625,0.00232571829110384,0.013901131227612495,0.008748277090489864
1782969681241764000,10.82376416015625,0.012694735080003738,0.007450955919921398,0.0015124684432521462
1782969681251691000,10.83369091796875,0.014346443116664886,0.0020862030796706676,-0.010132545605301857
1782969681261617200,10.8436171875,0.014618085697293282,0.0013604913838207722,-0.02537861093878746
1782969681271543000,10.85354296875,0.013857190497219563,0.0004221554845571518,-0.022544855251908302
1782969681281469200,10.86346923828125,0.020519088953733444,-0.001210894901305437,-0.010287655517458916
1782969681291396000,10.87339599609375,0.019791819155216217,0.0038516991771757603,0.001613712403923273
1782969681301322000,10.883322021484375,0.02209332399070263,0.00698064686730504,0.006271048914641142
1782969681311248100,10.893248046875,0.020574888214468956,0.010503777302801609,0.014967994764447212
1782969681321175000,10.903175048828125,0.01609332114458084,0.005913286469876766,0.005468498915433884
1782969681331101200,10.91310107421875,0.008910425938665867,-0.0009415391832590103,-0.0072333840653300285
1782969681341027000,10.923027099609374,0.0021617093589156866,-0.007801842410117388,-0.015779735520482063
1782969681350954000,10.9329541015625,-0.0011454736813902855,-0.013109718449413776,-0.02360491268336773
1782969681360880000,10.942880126953124,-0.00506804371252656,-0.010948030278086662,-0.031528882682323456
1782969681370806000,10.952805908203125,-0.01936323381960392,-0.019299929961562157,-0.03258918225765228
1782969681380733000,10.96273291015625,-0.01415435690432787,-0.01120072416961193,-0.02401833049952984
1782969681390659000,10.9726591796875,-0.01600465178489685,-0.005983928218483925,-0.016452278941869736
1782969681400585200,10.982585205078125,-0.023897727951407433,0.012801744043827057,-0.003460313193500042
1782969681410512000,10.992511962890624,-0.020614316686987877,0.0048287720419466496,0.006140915211290121
1782969681420438000,11.00243798828125,-0.024271368980407715,-0.00016891583800315857,0.011368167586624622
1782969681430364200,11.0123642578125,-0.025760427117347717,-0.0027259322814643383,0.01676858961582184
1782969681440290000,11.0222900390625,-0.01778239570558071,-0.011942334473133087,0.022093312814831734
1782969681450217000,11.032217041015626,-0.009427063167095184,-0.013076771050691605,0.02704278565943241
1782969681460143000,11.04214306640625,-0.0004540751106105745,-0.01536602433770895,0.02835359424352646
1782969681470069200,11.0520693359375,-0.001971741206943989,-0.02959589660167694,0.022093048319220543
1782969681479996000,11.061995849609374,0.0011353690642863512,-0.02025938592851162,0.011732818558812141
1782969681489922000,11.071922119140625,0.002485648263245821,-0.010592267848551273,0.0007730041397735476
1782969681499848200,11.08184814453125,0.0050366902723908424,-0.014630152843892574,0.002252390142530203
1782969681509775000,11.091775146484375,0.0030450522899627686,-0.013000604696571827,-0.0013840614119544625
1782969681519701000,11.101700927734376,0.00862038042396307,-0.017283767461776733,-0.007582035847008228
1782969681529627100,11.111627197265625,0.02198263444006443,-0.021811284124851227,-0.014105734415352345
1782969681539554000,11.121553955078125,0.042664479464292526,-0.03494120389223099,-0.02362760156393051
1782969681549480000,11.13147998046875,0.06458891183137894,-0.047129884362220764,-0.03900839015841484
1782969681559406000,11.141406005859375,0.05357860401272774,-0.06880907714366913,-0.07801038771867752
1782969681569332200,11.151332275390626,0.0346284881234169,-0.05827018991112709,-0.11249583214521408
1782969681579259100,11.161259033203125,0.03623783960938454,-0.05417371541261673,-0.1344756931066513
1782969681589185000,11.17118505859375,0.0401616096496582,-0.06107081472873688,-0.1536809802055359
1782969681599111200,11.181111083984375,0.04687464237213135,-0.074463851749897,-0.16557839512825012
1782969681609038000,11.1910380859375,0.048670005053281784,-0.07091115415096283,-0.16897375881671906
1782969681618964200,11.200964111328124,0.04884018376469612,-0.06021110340952873,-0.1684480458498001
1782969681628890000,11.21089013671875,0.05406775698065758,-0.05523248016834259,-0.17110945284366608
1782969681638817000,11.220817138671874,0.05713172256946564,-0.06343794614076614,-0.17385010421276093
1782969681648743200,11.2307431640625,0.047499097883701324,-0.06676795333623886,-0.180262953042984
1782969681658669000,11.2406689453125,0.028597043827176094,-0.05979393795132637,-0.18625400960445404
1782969681668596000,11.250595947265625,0.00800374522805214,-0.04778223857283592,-0.17704515159130096
1782969681678522000,11.260522216796875,-0.006005280651152134,-0.03496258333325386,-0.13657468557357788
1782969681688448300,11.2704482421875,-0.0192693080753088,0.01805877685546875,-0.0735464096069336
1782969681698374100,11.2803740234375,-0.0373029001057148,0.02346739172935486,-0.040868353098630905
1782969681708301000,11.290301025390624,-0.0397699736058712,0.02893178164958954,-0.009614091366529465
1782969681718227200,11.300227294921875,-0.04609125107526779,0.024259265512228012,0.010352159850299358
1782969681728153000,11.310153076171876,-0.03713886812329292,0.018952881917357445,0.02421937882900238
1782969681738080000,11.320080078125,-0.02755361795425415,0.009378018788993359,0.027263371273875237
1782969681748006100,11.330006103515625,-0.02039128541946411,-0.006509328726679087,0.02414245717227459
1782969681757932300,11.339932373046874,-0.006294374354183674,-0.03713248670101166,0.028927359730005264
1782969681767859000,11.34985888671875,0.007811829913407564,-0.031288184225559235,0.03612024709582329
1782969681777785000,11.35978515625,0.019348111003637314,-0.03360433503985405,0.04222847521305084
1782969681787711200,11.369711181640625,0.015522340312600136,-0.02309519425034523,0.05209219455718994
1782969681797638100,11.37963818359375,0.010166989639401436,-0.010806838050484657,0.05586030334234238
1782969681807564000,11.38956396484375,0.009047312662005424,-0.0010406090877950191,0.05544357746839523
1782969681817490200,11.399490234375,0.01226973719894886,-0.013131626881659031,0.0404832698404789
1782969681827416000,11.409416015625,0.02119554579257965,-0.03395507484674454,0.03218036890029907
1782969681837343000,11.419343017578125,0.02070339396595955,-0.026576785370707512,0.03395776078104973
1782969681847269000,11.42926904296875,0.01470564678311348,-0.02211272157728672,0.0434759259223938
1782969681857195300,11.4391953125,0.011605460196733475,-0.023697568103671074,0.051511216908693314
1782969681867122200,11.4491220703125,0.012883189134299755,-0.0124567411839962,0.05577557906508446
1782969681877048000,11.459048095703125,0.004869471304118633,-0.006326144561171532,0.056111667305231094
1782969681886974200,11.46897412109375,-0.010918714106082916,0.00204527098685503,0.0411248616874218
1782969681896901000,11.478901123046874,-0.02735760807991028,-0.01552440132945776,0.02108936570584774
1782969681906827000,11.488826904296875,-0.02634923905134201,-0.04209126532077789,0.013090687803924084
1782969681916753200,11.498753173828124,-0.017545627430081367,-0.036672528833150864,0.005580573808401823
1782969681926680000,11.50868017578125,-0.014784321188926697,-0.021629437804222107,-0.001948619494214654
1782969681936606200,11.518606201171876,-0.013953148387372494,-0.02104167826473713,-0.01776832900941372
1782969681946532000,11.528531982421875,-0.015030383132398129,-0.030066512525081635,-0.0286666639149189
1782969681956458000,11.5384580078125,-0.017392074689269066,-0.04033726081252098,-0.028475182130932808
1782969681966385200,11.54838525390625,-0.015009805560112,-0.052746497094631195,-0.027348848059773445
1782969681976311000,11.55831103515625,-0.0001991685712710023,-0.07854853570461273,-0.031433869153261185
1782969681986237000,11.56823681640625,0.0014744733925908804,-0.08849558234214783,-0.03839033469557762
1782969681996164000,11.5781640625,-0.008847139775753021,-0.08177722990512848,-0.04613560810685158
1782969682006090200,11.58809033203125,-0.02059333398938179,-0.08873457461595535,-0.03620617091655731
1782969682016016100,11.59801611328125,-0.030492303892970085,-0.08091872930526733,-0.026209991425275803
1782969682025943000,11.607943115234375,-0.0184331052005291,-0.0745098739862442,-0.030691199004650116
1782969682035869200,11.617869140625,-0.004518620669841766,-0.07246110588312149,-0.05017062649130821
1782969682045795000,11.627795166015625,0.0004016113525722176,-0.07086248695850372,-0.06404625624418259
1782969682055722000,11.637721923828124,-0.011357043869793415,-0.056853726506233215,-0.06460925191640854
1782969682065648000,11.647648193359375,-0.03462429717183113,-0.050749413669109344,-0.05660184845328331
1782969682075574300,11.65757421875,-0.059077709913253784,-0.02448957972228527,-0.01994423381984234
1782969682085500000,11.6675,-0.07350943237543106,0.007930666208267212,0.019266730174422264
1782969682095427600,11.677427490234376,-0.09189856052398682,0.021465647965669632,0.04416248947381973
1782969682105353500,11.687353515625,-0.09109913557767868,0.030133327469229698,0.05386129766702652
1782969682115279600,11.697279541015625,-0.0813698098063469,0.026522615924477577,0.05565227195620537
1782969682125206500,11.70720654296875,-0.059954870492219925,0.00971387792378664,0.05576438456773758
1782969682135132700,11.717132568359375,-0.035820502787828445,-0.002911635907366872,0.056884244084358215
1782969682145058600,11.72705859375,-0.0024284308310598135,-0.012190083041787148,0.06310009956359863
1782969682154985700,11.73698583984375,0.021960264071822166,-0.012173306196928024,0.06668764352798462
1782969682164911600,11.74691162109375,0.04639259725809097,-0.026295173913240433,0.06010407581925392
1782969682174837500,11.75683740234375,0.07456137984991074,-0.02285809814929962,0.029804231598973274
1782969682184764700,11.7667646484375,0.16632387042045593,0.020854691043496132,-0.01705833710730076
1782969682194690600,11.776690673828124,0.18735936284065247,-0.09555979818105698,-0.10616052150726318
1782969682204616400,11.786616455078125,0.17907613515853882,-0.13528510928153992,-0.17739741504192352
1782969682214542600,11.79654248046875,0.16959315538406372,-0.12012506276369095,-0.2341320663690567
1782969682224469800,11.8064697265625,0.14037257432937622,-0.11571045964956284,-0.2695579528808594
