time,seconds_elapsed,z,y,x
1782969670482889200,0.06488916015625,-0.0034194989129900932,0.008432633243501186,0.0416603609919548
1782969670492816000,0.07481591796875,-0.011889150366187096,0.010993529111146927,-0.0011640676530078053
1782969670502742000,0.084741943359375,-0.02329493686556816,-0.0006823018775321543,-0.04090748727321625
1782969670512668200,0.094668212890625,-0.023803599178791046,-0.014580540359020233,-0.06450948119163513
1782969670522595000,0.104594970703125,-0.021397167816758156,-0.02359640598297119,-0.07545693963766098
1782969670532521000,0.11452099609375,-0.01582343690097332,-0.017769409343600273,-0.08491009473800659
1782969670542447000,0.124447021484375,-0.009724265895783901,-0.019413378089666367,-0.0818951353430748
1782969670552374000,0.1343740234375,-0.008108260110020638,-0.01600959338247776,-0.06088944897055626
1782969670562300000,0.1442998046875,-0.010638263076543808,-0.012495817616581917,-0.03134114295244217
1782969670572226000,0.15422607421875,-0.01913614384829998,-0.005838980432599783,-0.0038250982761383057
1782969670582152200,0.164152099609375,-0.025588450953364372,0.005407015793025494,0.012508600950241089
1782969670592079000,0.1740791015625,-0.030641531571745872,0.01170246209949255,0.015304653905332088
1782969670602005000,0.1840048828125,-0.02617567777633667,0.005363872740417719,0.014683605171740055
1782969670611931100,0.19393115234375,-0.020360132679343224,-0.0070981234312057495,0.012379171326756477
1782969670621858000,0.203858154296875,-0.01477868016809225,-0.009062470868229866,0.017711618915200233
1782969670631784000,0.213783935546875,-0.012200740166008472,0.0031129689887166023,0.032829586416482925
1782969670641710000,0.2237099609375,-0.005849633365869522,0.009306948632001877,0.040832385420799255
1782969670651637000,0.233636962890625,-0.0014178669080138206,0.0067875985987484455,0.05229942500591278
1782969670661563100,0.243563232421875,0.0019646140281111,0.008946357294917107,0.07308565825223923
1782969670671489000,0.253489013671875,0.00004900216299574822,0.025959961116313934,0.08833465725183487
1782969670681416000,0.263416015625,-0.0007281082216650248,0.03068414330482483,0.08914852142333984
1782969670691342000,0.273342041015625,0.0046852994710206985,0.017591509968042374,0.07247526198625565
1782969670701268200,0.283268310546875,0.014276674017310143,-0.007050985470414162,0.05120885744690895
1782969670711195000,0.29319482421875,0.029863622039556503,-0.02251329831779003,0.03778572753071785
1782969670721121000,0.30312109375,0.03611752390861511,-0.02244964800775051,0.04218313843011856
1782969670731047200,0.313047119140625,0.0357782356441021,-0.0046693203039467335,0.06053098663687706
1782969670740973000,0.32297314453125,0.026982614770531654,0.01019537914544344,0.08752239495515823
1782969670750900000,0.33289990234375,0.00836711935698986,0.036021117120981216,0.12305322289466858
1782969670760826000,0.342826171875,0.01546284556388855,0.034762509167194366,0.1650206446647644
1782969670770752300,0.352752197265625,0.005470931995660067,0.037212617695331573,0.1908879280090332
1782969670780679000,0.362678955078125,-0.0017859158106148243,0.039805468171834946,0.2058120220899582
1782969670790605000,0.37260498046875,-0.00037630466977134347,0.04179831221699715,0.20957240462303162
1782969670800531200,0.38253125,-0.0010580739472061396,0.04146888107061386,0.19806541502475739
1782969670810458000,0.3924580078125,-0.0016980315558612347,0.03433613479137421,0.16955174505710602
1782969670820384000,0.402384033203125,-0.009280051104724407,0.02907399646937847,0.12079592794179916
1782969670830310100,0.41231005859375,-0.0030208237003535032,0.00962706096470356,0.06478618830442429
1782969670840237000,0.422237060546875,-0.0008892294717952609,-0.009881393052637577,0.008665393106639385
1782969670850163000,0.432162841796875,-0.0012743226252496243,-0.025970080867409706,-0.04261590167880058
1782969670860089000,0.442089111328125,-0.005647499579936266,-0.03471164032816887,-0.07488729059696198
1782969670870015200,0.45201513671875,-0.01973908394575119,-0.029510222375392914,-0.09591614454984665
1782969670879942100,0.461942138671875,-0.03473347797989845,-0.028506476432085037,-0.10155299305915833
1782969670889868000,0.471867919921875,-0.04878325015306473,-0.012293684296309948,-0.08122667670249939
1782969670899794200,0.481794189453125,-0.05567391589283943,0.006852047052234411,-0.04545217007398605
1782969670909721000,0.49172119140625,-0.057186324149370193,0.024568991735577583,-0.019590478390455246
1782969670919647000,0.50164697265625,-0.050998467952013016,0.02275218442082405,-0.001047154888510704
1782969670929573000,0.511572998046875,-0.04283907637000084,0.01750362664461136,0.016472449526190758
1782969670939500000,0.5215,-0.03166791424155235,0.009348227642476559,0.032283369451761246
1782969670949426200,0.53142626953125,-0.0188386682420969,0.006050169467926025,0.04999525472521782
1782969670959352000,0.54135205078125,-0.0075841499492526054,0.0005193164106458426,0.05744997784495354
1782969670969279000,0.551279052734375,0.005556153133511543,0.002752110594883561,0.06488499045372009
1782969670979205000,0.561205078125,0.015445801429450512,0.006980677600950003,0.0672522708773613
1782969670989131000,0.571131103515625,0.0194914098829031,0.014763499610126019,0.06540244072675705
1782969670999058000,0.581057861328125,0.02249758504331112,0.029979471117258072,0.05252925306558609
1782969671008984000,0.590984130859375,0.02401132695376873,0.029400499537587166,0.039321839809417725
1782969671018910200,0.60091015625,0.018004033714532852,0.025854500010609627,0.015195464715361595
1782969671028836000,0.610836181640625,0.016772055998444557,0.01323777437210083,-0.005437908694148064
1782969671038763000,0.620762939453125,0.012195945717394352,0.006823018658906221,-0.021208615973591805
1782969671048689200,0.630689208984375,0.00941986683756113,0.01624554954469204,-0.021107150241732597
1782969671058615000,0.640614990234375,0.01197170838713646,0.015448198653757572,-0.029155489057302475
1782969671068542000,0.6505419921875,0.01793745532631874,0.004417917691171169,-0.042696598917245865
1782969671078467800,0.6604677734375,0.019657857716083527,-0.008401473984122276,-0.04828044772148132
1782969671088394000,0.67039404296875,0.020319918170571327,-0.011541874147951603,-0.03779451549053192
1782969671098320600,0.680320556640625,0.014305169694125652,-0.013792244717478752,-0.026937607675790787
1782969671108246800,0.690246826171875,0.00999404489994049,-0.010949586518108845,-0.012949087657034397
1782969671118173000,0.7001728515625,0.011874236166477203,-0.009074987843632698,-0.003743072971701622
1782969671128099800,0.710099853515625,0.009101885370910168,0.0010431602131575346,0.019116969779133797
1782969671138025700,0.720025634765625,0.0007539408979937434,0.0057465690188109875,0.030227411538362503
1782969671147951900,0.729951904296875,-0.006097839679569006,0.014698252081871033,0.02973073162138462
1782969671157878800,0.739878662109375,-0.012702745385468006,0.010260893031954765,0.0160660520195961
1782969671167804700,0.7498046875,-0.021106617525219917,0.0062616243958473206,-0.007877097465097904
1782969671177730800,0.759730712890625,-0.023734623566269875,0.0028628981672227383,-0.028653481975197792
1782969671187657000,0.769656982421875,-0.020593691617250443,0.0008852347382344306,-0.051005925983190536
1782969671197584000,0.779583984375,-0.01537709217518568,-0.002793655963614583,-0.06913699209690094
1782969671207509800,0.789509765625,-0.010953315533697605,-0.0006876281695440412,-0.09279278665781021
1782969671217436000,0.799435791015625,-0.0015515576815232635,-0.019521769136190414,-0.11556387692689896
1782969671227362800,0.80936279296875,0.003058107802644372,-0.04081027954816818,-0.11587147414684296
1782969671237288700,0.819288818359375,-0.0035694348625838757,-0.02515249140560627,-0.09364473074674606
1782969671247214800,0.82921484375,-0.007538610137999058,-0.00009214537567459047,-0.06275525689125061
1782969671257141800,0.839141845703125,-0.01432168111205101,0.02166854403913021,-0.035240013152360916
1782969671267068000,0.84906787109375,-0.011183146387338638,0.030890537425875664,-0.026248915120959282
1782969671276993800,0.858993896484375,-0.0035454663448035717,0.022188393399119377,-0.031023163348436356
1782969671286920700,0.868920654296875,0.003841343568637967,0.01684396155178547,-0.03981585428118706
1782969671296846800,0.878846923828125,0.005656021647155285,0.008266185410320759,-0.05714664235711098
1782969671306773000,0.88877294921875,0.013696370646357536,-0.007923436351120472,-0.08079791069030762
1782969671316699000,0.898698974609375,0.028329642489552498,-0.05543902516365051,-0.08680173754692078
1782969671326625800,0.908625732421875,0.03317233547568321,-0.0424896702170372,-0.06507141143083572
1782969671336552000,0.918552001953125,0.025672340765595436,-0.024051805958151817,-0.028149345889687538
1782969671346477800,0.928477783203125,0.011896872892975807,-0.002385659608989954,0.0025947177782654762
1782969671356404700,0.93840478515625,0.010237457230687141,0.015421566553413868,0.019243735820055008
1782969671366331000,0.948330810546875,0.0043958136811852455,0.004202734678983688,0.027049727737903595
1782969671376257000,0.958257080078125,0.006139385048300028,-0.0017496967921033502,0.03315741941332817
1782969671386183700,0.96818359375,0.008723982609808445,0.003090598387643695,0.04501035064458847
1782969671396109800,0.97810986328125,0.011001784354448318,0.028054803609848022,0.08421527594327927
1782969671406036000,0.988035888671875,0.012443619780242443,0.07488356530666351,0.1303369700908661
1782969671415963000,0.997962890625,0.015894543379545212,0.12540586292743683,0.15865276753902435
1782969671425888800,1.007888671875,0.017104418948292732,0.1265968233346939,0.14249110221862793
1782969671435815000,1.01781494140625,0.017252223566174507,0.09605196118354797,0.09503037482500076
1782969671445741000,1.027740966796875,0.014165353961288929,0.02255590818822384,0.04755633324384689
1782969671455667700,1.037667724609375,0.005658684764057398,-0.02749340981245041,0.027768248692154884
1782969671465593900,1.04759375,0.0008183894096873701,0.001374723738990724,0.055628109723329544
1782969671475520000,1.05752001953125,-0.010341321118175983,0.021410483866930008,0.10137508809566498
1782969671485447000,1.067447021484375,-0.011651596054434776,0.045161884278059006,0.14801183342933655
1782969671495372800,1.077372802734375,-0.0057226005010306835,0.09006863832473755,0.18764126300811768
1782969671505299000,1.087298828125,0.00032676986302249134,0.11722569167613983,0.19211751222610474
1782969671515225900,1.097225830078125,0.01338744442909956,0.08887874335050583,0.16193243861198425
1782969671525151700,1.10715185546875,0.024690698832273483,0.04284306988120079,0.11722782254219055
1782969671535078000,1.117077880859375,0.03568502515554428,0.0020535634830594063,0.07119934260845184
1782969671545004800,1.1270048828125,0.033309753984212875,-0.003937483765184879,0.03533588722348213
1782969671554931000,1.136930908203125,0.028907015919685364,-0.009456618689000607,0.009139436297118664
1782969671564856800,1.14685693359375,0.014636467210948467,-0.00812157616019249,-0.01924959383904934
1782969671574783700,1.15678369140625,0.007122890558093786,-0.005790777504444122,-0.04267236217856407
1782969671584710000,1.1667099609375,-0.0032376048620790243,-0.0010365023044869304,-0.06260878592729568
1782969671594635800,1.1766357421875,-0.005923669319599867,-0.008705074898898602,-0.0706440731883049
1782969671604562000,1.18656201171875,-0.00700890738517046,-0.0023486416321247816,-0.057260893285274506
1782969671614488800,1.19648876953125,-0.0060387179255485535,0.023027287796139717,-0.03296167775988579
1782969671624415000,1.2064150390625,0.0026072347536683083,0.032698825001716614,-0.02124882861971855
1782969671634340900,1.2163408203125,0.006003564223647118,0.02829049341380596,-0.014269749633967876
1782969671644267800,1.226267822265625,0.006372145377099514,0.024572987109422684,-0.00603498937562108
1782969671654194000,1.23619384765625,0.00155288923997432,0.03164740651845932,0.0010671286145225167
1782969671664119800,1.246119873046875,-0.004574245307594538,0.03651620075106621,-0.002404035534709692
1782969671674046700,1.256046630859375,-0.01378319039940834,0.03315369039773941,-0.007127684075385332
1782969671683972900,1.265972900390625,-0.014927017502486706,0.036623258143663406,-0.010839065536856651
1782969671693899000,1.27589892578125,-0.016027435660362244,0.02558099292218685,-0.006717291194945574
1782969671703825700,1.28582568359375,-0.011842012405395508,0.058157578110694885,0.010127735324203968
1782969671713751800,1.295751708984375,-0.006945790257304907,0.04198553413152695,0.024585770443081856
1782969671723678000,1.305677978515625,-0.006810235325247049,0.03297632560133934,0.03333265706896782
1782969671733603800,1.315603759765625,-0.009807889349758625,0.06073765084147453,0.03848773613572121
1782969671743530800,1.32553076171875,-0.015961123630404472,0.03428686782717705,0.027544276788830757
1782969671753457000,1.335456787109375,-0.029163744300603867,0.054967377334833145,0.03255874291062355
1782969671763382800,1.3453828125,-0.03771382197737694,0.08331885933876038,0.04664233699440956
1782969671773310000,1.35531005859375,-0.03750370070338249,0.08975305408239365,0.05523289367556572
1782969671783235800,1.36523583984375,-0.03885551914572716,0.08103866130113602,0.04507666453719139
1782969671793162000,1.375161865234375,-0.04460954666137695,0.05074413865804672,0.013844975270330906
1782969671803089000,1.3850888671875,-0.042807649821043015,-0.014245248399674892,-0.016888435930013657
1782969671813014800,1.395014892578125,-0.040165264159440994,-0.051108989864587784,-0.035110048949718475
1782969671822941000,1.40494091796875,-0.05036437138915062,-0.03549381345510483,-0.020787037909030914
1782969671832867800,1.414867919921875,-0.07143423706293106,-0.006402239203453064,0.004589958116412163
1782969671842794000,1.4247939453125,-0.07960721105337143,0.020739100873470306,0.03111211210489273
1782969671852719900,1.434719970703125,-0.08213268965482712,0.058348529040813446,0.04802611470222473
1782969671862646800,1.444646728515625,-0.09972313046455383,0.07954516261816025,0.05664357170462608
1782969671872573000,1.454572998046875,-0.10186724364757538,0.08506056666374207,0.0465129055082798
1782969671882498800,1.464498779296875,-0.09981421381235123,0.045107290148735046,0.0059508332051336765
1782969671892424700,1.4744248046875,-0.08972429484128952,-0.005947105120867491,-0.045631133019924164
1782969671902352000,1.484351806640625,-0.08797992020845413,-0.014564828015863895,-0.0811273455619812
1782969671912278000,1.494278076171875,-0.07471844553947449,-0.05071084946393967,-0.10513494163751602
1782969671922204000,1.504203857421875,-0.06726931780576706,-0.07456771284341812,-0.11259445548057556
1782969671932130800,1.514130859375,-0.057016413658857346,-0.0758015513420105,-0.11011984944343567
1782969671942057000,1.524056884765625,-0.05263125151395798,-0.06920143961906433,-0.08679614961147308
1782969671951982800,1.53398291015625,-0.055747151374816895,-0.014311561360955238,-0.05126158893108368
1782969671961909800,1.54390966796875,-0.05522676929831505,0.021882662549614906,-0.012181565165519714
1782969671971836000,1.5538359375,-0.048716407269239426,0.03500139340758324,0.016861537471413612
1782969671981762000,1.563761962890625,-0.041422806680202484,0.04150563105940819,0.033315081149339676
1782969671991687700,1.573687744140625,-0.03291107714176178,0.03725602477788925,0.028728317469358444
1782969672001614800,1.58361474609375,-0.026105104014277458,0.03921131789684296,0.008872587233781815
1782969672011541000,1.593541015625,-0.02213699370622635,0.031792815774679184,-0.005880792159587145
1782969672021466600,1.603466552734375,-0.00837031565606594,0.02761032246053219,-0.009504289366304874
1782969672031393800,1.613393798828125,0.002117745578289032,0.013860422186553478,-0.014181066304445267
1782969672041320000,1.62331982421875,0.0049066077917814255,0.012015916407108307,-0.023004651069641113
1782969672051245800,1.633245849609375,0.0023813985753804445,-0.00029348034877330065,-0.0333438403904438
1782969672061172700,1.6431728515625,-0.004759601317346096,-0.002697782125324011,-0.04194718226790428
1782969672071099000,1.653098876953125,-0.002769687445834279,0.006302903406322002,-0.03298671171069145
1782969672081025500,1.663025634765625,0.005636313930153847,0.00800040178000927,-0.018629344180226326
1782969672090952700,1.67295263671875,0.010342651978135109,0.019084211438894272,-0.00649678148329258
1782969672100878600,1.682878662109375,0.012922456488013268,0.025422535836696625,-0.002630137838423252
1782969672110804500,1.692804443359375,0.012123508378863335,0.026988741010427475,-0.00809015054255724
1782969672120731600,1.702731689453125,0.010689928196370602,0.01967383548617363,-0.016888169571757317
1782969672130657800,1.71265771484375,0.007893609814345837,0.009998039342463017,-0.03194807842373848
1782969672140583400,1.72258349609375,0.003932689782232046,0.0107695572078228,-0.038956187665462494
1782969672150509600,1.732509521484375,0.0004846953088417649,0.024478444829583168,-0.047624245285987854
1782969672160436700,1.742436767578125,0.0020820593927055597,0.026801254600286484,-0.044910214841365814
1782969672170362600,1.752362548828125,-0.0038978024385869503,0.032051943242549896,-0.03299949690699577
1782969672180288500,1.76228857421875,-0.0041342913173139095,0.05315722897648811,-0.021985460072755814
1782969672190215700,1.772215576171875,0.008891229517757893,0.07839307188987732,-0.026325879618525505
1782969672200141600,1.7821416015625,0.02509150467813015,0.007888549007475376,-0.04880136251449585
1782969672210067500,1.7920673828125,0.016234630718827248,-0.0006359628750942647,-0.0633547380566597
1782969672219994600,1.80199462890625,0.007237672805786133,-0.0051622712053358555,-0.06737131625413895
1782969672229920500,1.81192041015625,0.001823466387577355,-0.00006258428766159341,-0.05782734602689743
1782969672239846700,1.8218466796875,-0.000526773277670145,0.008889897726476192,-0.04350113868713379
1782969672249773600,1.831773681640625,-0.010326140560209751,0.008944759145379066,-0.03320961818099022
1782969672259699500,1.841699462890625,-0.009844907559454441,0.0006607302348129451,-0.03648264333605766
1782969672269625600,1.85162548828125,-0.010574347339570522,-0.0007089334540069103,-0.03380350396037102
1782969672279551500,1.861551513671875,0.003043460426852107,0.01576351746916771,-0.01830443926155567
1782969672289478700,1.871478759765625,0.018577678129076958,-0.02527765929698944,-0.017548633739352226
1782969672299404500,1.881404541015625,0.005453355144709349,-0.013217534869909286,-0.006431800313293934
1782969672309330700,1.89133056640625,0.0022413162514567375,-0.0029284118209034204,-0.0035582494456321
1782969672319257900,1.9012578125,0.00036378781078383327,-0.009615076705813408,0.0006372944335453212
1782969672329183500,1.91118359375,-0.009634518064558506,-0.01398772094398737,0.004883171990513802
1782969672339109600,1.921109619140625,0.0075878784991800785,0.017889251932501793,-0.01787540316581726
1782969672349036800,1.931036865234375,0.020540961995720863,-0.02233113907277584,-0.05312234163284302
1782969672358962400,1.94096240234375,0.029943251982331276,-0.0467483289539814,-0.08580545336008072
1782969672368888600,1.950888671875,0.04144597798585892,-0.030417559668421745,-0.1014038547873497
1782969672378815700,1.960815673828125,0.037696778774261475,-0.025493375957012177,-0.10318098217248917
1782969672388741600,1.97074169921875,0.0263045746833086,-0.009492305107414722,-0.10288830101490021
1782969672398667500,1.98066748046875,0.01701973006129265,0.013187441043555737,-0.08997543156147003
1782969672408593700,1.99059375,0.005140167195349932,0.02815200947225094,-0.0801883116364479
1782969672418520600,2.0005205078125,-0.006719155237078667,0.041499506682157516,-0.06566929072141647
1782969672428446500,2.010446533203125,-0.012192483991384506,0.03879240155220032,-0.04965623468160629
1782969672438372600,2.02037255859375,-0.010402573272585869,0.03732819855213165,-0.03033606708049774
1782969672448299500,2.030299560546875,-0.010118680074810982,0.03829279541969299,-0.009592706337571144
1782969672458225700,2.0402255859375,0.004032026045024395,0.03650874271988869,0.012181298807263374
1782969672468151600,2.050151611328125,0.019168633967638016,0.023441676050424576,0.016753679141402245
1782969672478078700,2.06007861328125,0.030980819836258888,0.015803463757038116,0.021938055753707886
1782969672488004600,2.070004638671875,0.02847318723797798,0.011277422308921814,0.02311517298221588
1782969672497930500,2.079930419921875,0.028598355129361153,0.008465123362839222,0.01804584637284279
1782969672507857700,2.089857666015625,0.022843264043331146,-0.000922252656891942,0.011300059035420418
1782969672517783600,2.099783447265625,0.011671037413179874,-0.002520149340853095,0.003192331176251173
1782969672527709700,2.109709716796875,0.0002519350382499397,-0.0062970444560050964,-0.002573412610217929
1782969672537636600,2.11963671875,-0.003093261504545808,0.004327636677771807,0.0021795309148728848
1782969672547562500,2.1295625,-0.005388373974710703,0.005901298485696316,0.00415399856865406
1782969672557488600,2.139488525390625,-0.0012743226252496243,0.0006474144756793976,0.0024311996530741453
1782969672567414500,2.14941455078125,0.004671717062592506,-0.001802960061468184,0.010819091461598873
1782969672577341400,2.159341552734375,0.004689293913543224,0.004319647327065468,0.018246116116642952
1782969672587267600,2.169267578125,0.0013406352372840047,0.009318133816123009,0.01774384267628193
1782969672597193700,2.17919384765625,-0.003091397462412715,0.005961752496659756,0.015429023653268814
1782969672607120600,2.18912060546875,-0.007317834068089724,0.0012652678415179253,0.012017514556646347
1782969672617046500,2.199046630859375,-0.0026293389964848757,-0.005213137716054916,0.0148662980645895
1782969672626972700,2.20897265625,0.0035539884120225906,-0.005388640332967043,0.023575101047754288
1782969672636899600,2.218899658203125,0.014178669080138206,-0.004328435752540827,0.03160080313682556
1782969672646825500,2.228825439453125,0.021625665947794914,-0.001990979304537177,0.03387594223022461
1782969672656751600,2.238751708984375,0.019347598776221275,0.00010812433902174234,0.03227058798074722
1782969672666677800,2.248677734375,0.020912205800414085,0.001439971150830388,0.0287576112896204
1782969672676604400,2.2586044921875,0.02756291814148426,-0.0025070998817682266,0.025173263624310493
1782969672686530600,2.268530517578125,0.02720206044614315,-0.015079350210726261,0.021797707304358482
1782969672696456700,2.278456787109375,0.026682743802666664,-0.018744125962257385,0.021873073652386665
1782969672706383600,2.288383544921875,0.018725750967860222,-0.009403621777892113,0.02105921320617199
1782969672716309500,2.2983095703125,0.004791559185832739,0.005825931206345558,0.02111620455980301
1782969672726235600,2.308235595703125,-0.005064000841230154,0.022648321464657784,0.01877741515636444
1782969672736162600,2.31816259765625,-0.009376989677548409,0.017909225076436996,0.019898872822523117
1782969672746088400,2.32808837890625,0.002283926820382476,0.006718090269714594,0.020114589482545853
1782969672756014600,2.3380146484375,0.003628556849434972,0.0036573191173374653,0.029405558481812477
1782969672765941500,2.34794140625,0.005827528890222311,0.008975652046501637,0.04812518507242203
1782969672775867600,2.35786767578125,0.01823679357767105,0.014050571247935295,0.06940330564975739
1782969672785793500,2.36779345703125,0.028439098969101906,0.014360297471284866,0.0883311927318573
1782969672795719700,2.3777197265625,0.03856523707509041,0.004449076950550079,0.09967999160289764
1782969672805646600,2.387646484375,0.04260898008942604,-0.0007299724384211004,0.10637917369604111
1782969672815572700,2.39757275390625,0.03629302605986595,-0.002121474128216505,0.11315850913524628
1782969672825498600,2.40749853515625,0.02575702778995037,0.016291089355945587,0.1228494867682457
1782969672835425500,2.417425537109375,0.014400244690477848,0.03062289021909237,0.11998153477907181
1782969672845351700,2.4273515625,0.01407826878130436,0.024284567683935165,0.1005987823009491
1782969672855277600,2.437277587890625,0.017170198261737823,0.015388543717563152,0.06636197865009308
1782969672865204500,2.44720458984375,0.015979232266545296,0.0071037160232663155,0.03394012525677681
1782969672875130600,2.457130615234375,0.01888687163591385,-0.0038978024385869503,0.004147340543568134
1782969672885056800,2.467056884765625,0.012941897846758366,-0.015306252054870129,-0.013999971561133862
1782969672894983400,2.4769833984375,0.003762513864785433,-0.006982275750488043,-0.01852468214929104
1782969672904909600,2.48690966796875,-0.008470715954899788,-0.00029055087361484766,-0.016952352598309517
1782969672914835700,2.496835693359375,-0.01866023615002632,-0.005252552684396505,-0.013801299966871738
1782969672924761600,2.50676171875,-0.015112107619643211,-0.00381471193395555,-0.008304002694785595
1782969672934688500,2.5166884765625,-0.015835154801607132,-0.0026674221735447645,0.0023470439482480288
1782969672944614700,2.52661474609375,-0.010697918012738228,0.002138518262654543,0.008915997110307217
1782969672954540800,2.536540771484375,-0.008855809457600117,0.007443002425134182,0.009474195539951324
1782969672964467500,2.546467529296875,-0.008276306092739105,0.006399842444807291,0.00606321869418025
1782969672974393600,2.5563935546875,-0.007757788058370352,0.005048288032412529,-0.0012476909905672073
1782969672984319700,2.56631982421875,-0.006599579472094774,0.004555070772767067,-0.01369503978639841
1782969672994246700,2.57624658203125,-0.0006926882197149098,-0.0023068301379680634,-0.029277993366122246
1782969673004172500,2.586172607421875,0.002587793627753854,-0.01167396642267704,-0.040413204580545425
1782969673014098700,2.5960986328125,0.009065932594239712,-0.01709882542490959,-0.04465881362557411
1782969673024025600,2.606025634765625,0.014876151457428932,-0.009277653880417347,-0.0364656001329422
1782969673033951500,2.615951416015625,0.01852361671626568,-0.007267233915627003,-0.031623706221580505
1782969673043877600,2.625877685546875,0.02599937655031681,-0.014259097166359425,-0.03003672882914543
1782969673053803800,2.6358037109375,0.029644178226590157,-0.012111790478229523,-0.02298307977616787
1782969673063730700,2.645730712890625,0.02442864328622818,0.0007526093395426869,-0.006557767745107412
1782969673073656600,2.655656494140625,0.022245118394494057,0.01683836802840233,0.009316003881394863
1782969673083582200,2.665582275390625,0.017607755959033966,0.019964920356869698,0.019063172861933708
1782969673093509000,2.675509033203125,0.015385613776743412,0.021377461031079292,0.029218338429927826
1782969673103435000,2.68543505859375,0.005680522415786982,0.016292421147227287,0.02750672586262226
1782969673113361200,2.695361083984375,0.003585680155083537,0.009033442474901676,0.02009488269686699
1782969673123288000,2.7052880859375,-0.0010988202411681414,0.007302920334041119,0.01329902745783329
1782969673133214200,2.715214111328125,0.001439971150830388,0.0008554073283448815,0.0034000577870756388
1782969673143140000,2.72514013671875,0.008465123362839222,-0.007241134997457266,0.0014626081101596355
1782969673153067000,2.73506689453125,0.010342651978135109,-0.0029792783316224813,0.0049196574836969376
1782969673162993200,2.7449931640625,0.01085797417908907,0.002942260354757309,0.008327971212565899
1782969673172919000,2.7549189453125,0.008201470598578453,0.00803315918892622,0.018206967040896416
1782969673182845200,2.76484521484375,0.00663420045748353,0.009557818993926048,0.032102011144161224
1782969673192772000,2.774772216796875,0.00210735946893692,0.00971654336899519,0.04399169236421585
1782969673202698200,2.7846982421875,-0.00045806370326317847,0.007232346571981907,0.04646257311105728
1782969673212624100,2.7946240234375,-0.002573678968474269,0.015103851445019245,0.044611942023038864
1782969673222551000,2.804551025390625,0.001832787413150072,0.01152802538126707,0.04410567507147789
1782969673232477200,2.814477294921875,-0.001561677665449679,0.015200258232653141,0.04015620797872543
1782969673242403000,2.824403076171875,-0.001725462032482028,0.013468937017023563,0.03020317666232586
1782969673252330000,2.834330078125,0.0013584784464910626,-0.00035180358099751174,0.01635580323636532
1782969673262256000,2.844256103515625,0.0020301276817917824,0.004126834217458963,0.004384628497064114
1782969673272182300,2.854182373046875,-0.004370247479528189,0.007711981888860464,-0.0024402544368058443
1782969673282108200,2.864108154296875,-0.006287456955760717,0.00962786003947258,0.003742273896932602
1782969673292035000,2.87403515625,-0.008437959477305412,0.012575979344546795,0.009663280099630356
1782969673301961200,2.883961181640625,-0.010633469559252262,0.008174573071300983,0.011012704111635685
1782969673311887000,2.89388720703125,-0.013947241008281708,0.005887716542929411,0.009425992146134377
1782969673321814000,2.90381396484375,-0.01769244484603405,0.009634251706302166,0.010786867700517178
1782969673331740200,2.913740234375,-0.015479090623557568,0.005024319514632225,-0.005525260232388973
1782969673341666300,2.923666259765625,-0.011707788333296776,-0.0032493227627128363,-0.018932677805423737
1782969673351593000,2.933593017578125,-0.008534898981451988,-0.01125398650765419,-0.03013846091926098
1782969673361519000,2.94351904296875,-0.006691458635032177,-0.014646320603787899,-0.03491590544581413
1782969673371445200,2.9534453125,-0.001186970854178071,-0.010494452901184559,-0.03248737007379532
1782969673381372200,2.9633720703125,0.0011116034584119916,-0.0065460498444736,-0.02220889925956726
1782969673391298000,2.973298095703125,0.0003097256412729621,-0.0007249124464578927,-0.009119195863604546
1782969673401224200,2.98322412109375,0.002514556748792529,-0.002838397165760398,-0.005218996666371822
1782969673411150300,2.993150390625,0.0025334651581943035,-0.002490055514499545,-0.0075729647651314735
1782969673421077000,3.003076904296875,0.00012144014181103557,-0.007029946427792311,-0.022127673029899597
1782969673431003100,3.013003173828125,0.0034176346380263567,-0.0075790900737047195,-0.03560832887887955
1782969673440929300,3.02292919921875,0.002238120650872588,-0.011317103169858456,-0.041732799261808395
1782969673450856200,3.032856201171875,-0.0015491608064621687,-0.014226606115698814,-0.04884370416402817
1782969673460782000,3.042781982421875,-0.00026764770154841244,-0.02209331840276718,-0.04561249166727066
1782969673470708200,3.052708251953125,-0.0014287859667092562,-0.018560102209448814,-0.03206978738307953
1782969673480635100,3.06263525390625,-0.0032519858796149492,-0.008496016263961792,-0.01776088774204254
1782969673490561000,3.07256103515625,-0.003768372815102339,0.002243446884676814,-0.006671750918030739
1782969673500487200,3.082487060546875,-0.0005440838285721838,0.005543902516365051,0.002811232814565301
1782969673510414000,3.0924140625,-0.0005848301807418466,0.01037594210356474,0.011876633390784264
1782969673520340200,3.10234033203125,-0.0010101370280608535,0.010157296434044838,0.020420320332050323
1782969673530266000,3.11226611328125,-0.007795604877173901,0.014385596849024296,0.026815900579094887
1782969673540192000,3.12219189453125,-0.008701878599822521,0.011569038033485413,0.027821511030197144
1782969673550119200,3.132119140625,-0.00845553632825613,0.0054674698039889336,0.023994281888008118
1782969673560045000,3.142045166015625,-0.005344431847333908,0.0013406352372840047,0.017707357183098793
1782969673569971200,3.15197119140625,-0.006125004030764103,0.002764627570286393,0.014151505194604397
1782969673579898000,3.161898193359375,-0.007072290405631065,0.0019371833186596632,0.007654191460460424
1782969673589824300,3.17182421875,-0.009520534425973892,0.007482417393475771,0.004522580187767744
1782969673599750100,3.181750244140625,-0.012292618863284588,0.011835354380309582,-0.0025619608350098133
1782969673609677000,3.191677001953125,-0.014112357050180435,0.007809453643858433,-0.004026965703815222
1782969673619603200,3.201603271484375,-0.00899482611566782,0.007290403358638287,-0.00660570478066802
1782969673629529300,3.211529296875,-0.0028876655269414186,0.003870371961966157,-0.009338374249637127
1782969673639455000,3.221455078125,0.010981012135744095,-0.00487278588116169,-0.012114985845983028
1782969673649382100,3.231382080078125,0.01715741492807865,-0.013786119408905506,-0.0004780374001711607
1782969673659308300,3.241308349609375,0.009316802956163883,-0.01016661711037159,0.022638998925685883
1782969673669234000,3.25123388671875,0.005382515024393797,-0.005300755612552166,0.04674167186021805
1782969673679161000,3.2611611328125,-0.0013315805699676275,0.005012601613998413,0.058396998792886734
1782969673689087200,3.271087158203125,-0.004338289611041546,0.009672867134213448,0.061709437519311905
1782969673699013000,3.28101318359375,-0.009564210660755634,0.014513695612549782,0.06397072970867157
1782969673708940000,3.29093994140625,-0.011566907167434692,0.0156119829043746,0.055085889995098114
1782969673718866200,3.3008662109375,-0.009219064377248287,0.014210361056029797,0.03647172451019287
1782969673728792000,3.3107919921875,-0.005780657287687063,0.008901082910597324,0.011529889889061451
1782969673738719200,3.32071923828125,-0.0014689996605738997,0.0015534218400716782,-0.014997058548033237
1782969673748645000,3.33064501953125,0.0014346449170261621,0.0011888351291418076,-0.03718731552362442
1782969673758571300,3.3405712890625,0.0018546254141256213,-0.004203266929835081,-0.0481901653110981
1782969673768497200,3.3504970703125,0.005387042183429003,-0.01085797417908907,-0.053885336965322495
1782969673778424000,3.360424072265625,0.006622748915106058,-0.010456635616719723,-0.0446590818464756
1782969673788350200,3.37035009765625,0.008317318744957447,-0.010230266489088535,-0.030534738674759865
1782969673798276000,3.380276123046875,0.0064744106493890285,-0.008836900815367699,-0.008346613496541977
1782969673808203300,3.390203369140625,0.0051710596308112144,-0.0062187472358345985,0.010390322655439377
1782969673818129200,3.400129150390625,0.006194779183715582,-0.005518868565559387,0.02901593968272209
1782969673828055000,3.410054931640625,0.006067479960620403,-0.0031515848822891712,0.043654270470142365
1782969673837982200,3.419982177734375,-0.005299424286931753,0.0043801008723676205,0.04791319742798805
1782969673847908000,3.429908203125,-0.015453524887561798,0.008672051131725311,0.04246143996715546
1782969673857834000,3.439833984375,-0.024510402232408524,0.007379885762929916,0.02845481038093567
1782969673867761200,3.44976123046875,-0.035599008202552795,0.004346811678260565,0.01071256585419178
1782969673877687300,3.459687255859375,-0.03560752794146538,0.0009403621661476791,-0.00953651312738657
1782969673887613200,3.46961328125,-0.03460991010069847,-0.005164135713130236,-0.02706757001578808
1782969673897539000,3.4795390625,-0.02869636006653309,-0.002216815249994397,-0.03285328671336174
1782969673907466200,3.48946630859375,-0.025424666702747345,-0.003454652614891529,-0.03898894414305687
1782969673917392100,3.49939208984375,-0.02046479471027851,-0.004734834190458059,-0.04189418628811836
1782969673927318000,3.509318115234375,-0.01344550121575594,0.0039087217301130295,-0.044388238340616226
1782969673937245200,3.5192451171875,-0.0010096043115481734,0.008745022118091583,-0.03915725648403168
1782969673947171300,3.52917138671875,0.009000951424241066,0.012196212075650692,-0.03455664590001106
1782969673957097000,3.539096923828125,0.019772373139858246,0.011506454087793827,-0.02497698925435543
1782969673967024000,3.549024169921875,0.021733790636062622,0.015429023653268814,-0.016529973596334457
1782969673976950300,3.5589501953125,0.019102588295936584,0.012749616988003254,-0.009386044926941395
1782969673986876000,3.5688759765625,0.014426875859498978,0.013784787617623806,-0.011441739276051521
1782969673996802000,3.578802001953125,0.00827657151967287,0.007998538203537464,-0.012014051899313927
1782969674006729200,3.588729248046875,0.0037121803034096956,0.009247028268873692,-0.011289671994745731
1782969674016655000,3.598655029296875,0.00631994754076004,0.009211341850459576,-0.010820689611136913
1782969674026581000,3.6085810546875,0.012526976875960827,0.008899752050638199,-0.011447864584624767
1782969674036508200,3.618508056640625,0.016355004161596298,0.013187174685299397,-0.0075902752578258514
1782969674046434000,3.62843408203125,0.017739050090312958,0.015972575172781944,-0.004217914305627346
1782969674056360000,3.63835986328125,0.014431403949856758,0.009247028268873692,-0.004867193289101124
1782969674066287000,3.648287109375,0.009711749851703644,0.0046663908287882805,-0.0073194317519664764
1782969674076213200,3.658213134765625,-0.0001382180635118857,0.002775280037894845,-0.017198428511619568
1782969674086139400,3.668139404296875,-0.0018463695887476206,0.003373426152393222,-0.02227121777832508
1782969674096066300,3.67806640625,-0.0029577065724879503,0.004756139125674963,-0.02304752916097641
1782969674105992200,3.6879921875,0.001988049829378724,0.0035987296141684055,-0.026443591341376305
1782969674115918300,3.69791845703125,0.005637113004922867,0.0017944378778338432,-0.028004469349980354
1782969674125844200,3.70784423828125,0.008298676460981369,0.0018439727136865258,-0.03777933493256569
1782969674135771400,3.717771484375,0.0073351445607841015,0.00427117757499218,-0.03766428679227829
1782969674145697300,3.727697265625,0.006251237820833921,0.0021169467363506556,-0.0394589938223362
1782969674155623400,3.73762353515625,0.0021979068405926228,0.0040972731076180935,-0.035283155739307404
1782969674165550300,3.74755029296875,0.00020399813365656883,0.003424558788537979,-0.03199495002627373
1782969674175476200,3.757476318359375,-0.0025180187076330185,0.009252887219190598,-0.02846413105726242
1782969674185402400,3.76740234375,0.000922519015148282,0.006876814644783735,-0.026631610468029976
1782969674195329500,3.77732958984375,0.008300540037453175,0.00024208133982028812,-0.02328881062567234
1782969674205255200,3.787255126953125,0.01480397954583168,0.000009054747351910919,-0.02375885844230652
1782969674215181300,3.797181396484375,0.015963787212967873,-0.003154514357447624,-0.030195452272892
1782969674225108500,3.8071083984375,0.015515576116740704,-0.006630738265812397,-0.034984882920980453
1782969674235034000,3.8170341796875,0.011723501607775688,-0.014639396220445633,-0.042982086539268494
1782969674244960300,3.826960205078125,0.006434197071939707,-0.014429273083806038,-0.03754737600684166
1782969674254886400,3.836886474609375,0.0006290386663749814,-0.011224957183003426,-0.023251526057720184
1782969674264813300,3.846813232421875,0.0013622068800032139,0.0038978024385869503,-0.006650445982813835
1782969674274739200,3.8567392578125,-0.00253426400013268,0.00881133507937193,0.003579288488253951
1782969674284665300,3.866665283203125,-0.0020666129421442747,0.013029782101511955,0.008539692498743534
1782969674294592300,3.87659228515625,-0.0032149681355804205,0.006856841035187244,-0.0030330740846693516
1782969674304518100,3.88651806640625,0.001770203118212521,-0.0009571401169523597,-0.020079435780644417
1782969674314444300,3.8964443359375,0.008293083868920803,-0.009371397085487843,-0.028076907619833946
1782969674324371500,3.906371337890625,0.012777314521372318,-0.01595260202884674,-0.03989388793706894
1782969674334297300,3.91629736328125,0.013647369109094143,-0.018373414874076843,-0.03248656913638115
1782969674344223200,3.92622314453125,0.016206134110689163,-0.009468070231378078,-0.01774916984140873
1782969674354149400,3.9361494140625,0.018639996647834778,-0.0035720979794859886,-0.005419799126684666
1782969674364076300,3.946076171875,0.0199835617095232,0.0019534286111593246,0.006735933478921652
1782969674374002200,3.956002197265625,0.017776334658265114,0.005074653308838606,0.019574234262108803
1782969674383928300,3.96592822265625,0.012168515473604202,0.0066062374971807,0.021914619952440262
1782969674393855200,3.975855224609375,0.006031527183949947,0.007558051031082869,0.021335914731025696
1782969674403781400,3.985781494140625,0.002929743379354477,0.006195311434566975,0.014091317541897297
1782969674413707300,3.995707275390625,0.0028610338922590017,-0.0004487426485866308,0.008769789710640907
1782969674423631400,4.00563134765625,0.008373244665563107,0.0004122573300264776,0.008958874270319939
1782969674433558300,4.015558349609375,0.0093317162245512,0.0016085492679849267,0.010612962767481804
1782969674443484400,4.025484375,0.004986236337572336,0.00765978405252099,0.011942945420742035
1782969674453410300,4.035410400390625,0.0017068199813365936,0.0123605290427804,0.016477510333061218
1782969674463336200,4.045336181640625,-0.0009414274245500565,0.013170130550861359,0.013034575618803501
1782969674473263400,4.055263427734375,-0.0052142031490802765,0.010761301033198833,0.00669438811019063
1782969674483189200,4.065189208984375,-0.006203567609190941,0.004794755019247532,-0.0024346618447452784
1782969674493115400,4.075115478515625,-0.004366252571344376,0.001891909632831812,-0.009669139049947262
1782969674503042300,4.085042236328125,-0.012149606831371784,0.0004934837343171239,-0.011578625068068504
1782969674512968200,4.09496826171875,-0.02334926463663578,0.0017678063595667481,-0.010546650737524033
1782969674522894300,4.104894287109375,-0.025248099118471146,0.008958607912063599,-0.005064533557742834
1782969674532821500,4.114821533203125,-0.02460414543747902,0.004698348697274923,-0.008822786621749401
1782969674542747100,4.1247470703125,-0.017620805650949478,0.001347559504210949,-0.00458622956648469
1782969674552673300,4.13467333984375,-0.01224654633551836,-0.00003382214708835818,0.0007115966291166842
1782969674562600400,4.144600341796875,-0.0014215953415259719,0.0004316983977332711,0.009849434718489647
1782969674572526300,4.1545263671875,0.00381391285918653,0.000597879639826715,0.03183356299996376
1782969674582452200,4.1644521484375,0.003677292726933956,0.008926383219659328,0.0466841496527195
1782969674592378400,4.17437841796875,-0.0027861990965902805,0.010477142408490181,0.056418534368276596
1782969674602305500,4.184305419921875,-0.008709868416190147,0.015249260701239109,0.05246160924434662
1782969674612231200,4.194231201171875,-0.015785621479153633,0.014938202686607838,0.043108854442834854
1782969674622157300,4.2041572265625,-0.018856246024370193,0.014279869385063648,0.02893897332251072
1782969674632084500,4.21408447265625,-0.016161926090717316,0.005736981518566608,0.021648837253451347
1782969674642010000,4.224010009765625,-0.01593822054564953,0.00866352953016758,0.012487029656767845
1782969674651936300,4.233936279296875,-0.012949087657034397,0.013261742889881134,-0.0002937466779258102
1782969674661863400,4.243863525390625,-0.015578960068523884,0.014947790652513504,-0.011893144808709621
1782969674671789300,4.253789306640625,-0.0020809939596801996,0.007292001508176327,-0.016202138736844063
1782969674681715200,4.263715087890625,0.001273523666895926,0.004967061802744865,-0.0034115093294531107
1782969674691642400,4.273642333984375,0.00004740426811622456,0.008387626148760319,0.006607302464544773
1782969674701568300,4.283568359375,-0.007919974625110626,0.01016714982688427,0.02496340684592724
1782969674711494400,4.293494384765625,-0.01350568886846304,0.010266751982271671,0.029330724850296974
1782969674721420300,4.303420166015625,-0.015004515647888184,0.006179865449666977,0.03711381182074547
1782969674731347200,4.31334716796875,-0.015914518386125565,0.009704559110105038,0.05037129297852516
1782969674741273300,4.3232734375,-0.016922524198889732,0.014901718124747276,0.05807209014892578
1782969674751199200,4.33319921875,-0.012719256803393364,0.021742846816778183,0.05863188952207565
1782969674761126400,4.34312646484375,-0.008140484802424908,0.008525843732059002,0.0491531640291214
1782969674771052300,4.35305224609375,0.0007653924985788763,0.011963718570768833,0.042940542101860046
1782969674780978400,4.362978515625,0.0003486077766865492,0.011327489279210567,0.03175659850239754
1782969674790905300,4.3729052734375,0.002413356676697731,0.006582002621144056,0.018855713307857513
1782969674800831200,4.382831298828125,0.000031691615731688216,0.007203850895166397,0.006208094768226147
1782969674810758400,4.39275830078125,0.0013347762869670987,0.006715693045407534,-0.0057066213339567184
1782969674820684500,4.4026845703125,0.0038607846945524216,0.007142864167690277,-0.008648082613945007
1782969674830611200,4.412611083984375,0.008841960690915585,0.008714129216969013,-0.010742925107479095
1782969674840537300,4.422537353515625,0.010906443931162357,0.009920541197061539,-0.008863266557455063
1782969674850463500,4.43246337890625,0.013646303676068783,0.01022813655436039,-0.010667824186384678
1782969674860390400,4.442390380859375,0.011113637126982212,0.007487477269023657,-0.0020959076937288046
1782969674870316300,4.45231640625,0.010165286250412464,0.014296913519501686,0.011230549775063992
1782969674880242400,4.462242431640625,0.007228618022054434,0.01642824150621891,0.015431154519319534
1782969674890168300,4.472168212890625,0.003739877138286829,0.012106996960937977,0.011065966449677944
1782969674900095200,4.48209521484375,-0.0010351707460358739,0.014075072482228279,0.007471764925867319
1782969674910021400,4.492021484375,0.003067961661145091,0.008356200531125069,0.0044165863655507565
1782969674919947300,4.501947265625,0.0022272015921771526,0.002603506203740835,-0.0032437301706522703
1782969674929874400,4.51187451171875,0.006312224548310041,-0.004721251782029867,-0.00418409239500761
1782969674939800300,4.52180029296875,0.005545500200241804,0.00561074772849679,-0.0036887445021420717
1782969674949726500,4.5317265625,-0.002633600030094385,0.009786318056285381,0.0021025657188147306
1782969674959653400,4.5416533203125,-0.004735899157822132,0.010684069246053696,0.0028445222415030003
1782969674969579300,4.551579345703125,-0.0057494984939694405,0.0060086240991950035,0.006107427179813385
1782969674979505400,4.56150537109375,-0.005071990191936493,0.011499263346195221,0.004269313532859087
1782969674989432300,4.571432373046875,-0.004190217703580856,0.009729593060910702,0.002225603675469756
1782969674999358500,4.5813583984375,0.000720118754543364,0.005331648513674736,-0.005286907311528921
1782969675009284400,4.591284423828125,0.0065111625008285046,0.008188420906662941,-0.008161523379385471
1782969675019210200,4.601210205078125,0.015356851741671562,0.001660214620642364,-0.007530886679887772
1782969675029137400,4.611137451171875,0.0188975241035223,0.0052107409574091434,-0.0007520766812376678
1782969675039063300,4.621063232421875,0.018696988001465797,0.007508516311645508,0.0052355085499584675
1782969675048989200,4.6309892578125,0.02190769650042057,0.007159376051276922,0.005560413934290409
1782969675058916400,4.640916259765625,0.02214471623301506,0.008066448383033276,0.003945739474147558
1782969675068842500,4.650842529296875,0.015840215608477592,0.0048829056322574615,0.00242187874391675
1782969675078768000,4.66076806640625,0.016589628532528877,0.007098389323800802,0.0011709919199347496
1782969675088695000,4.670695068359375,0.013570936396718025,0.006902647204697132,-0.0006713828770443797
1782969675098621000,4.680620849609375,0.010538128204643726,0.004567055031657219,0.000287088769255206
1782969675108547000,4.690547119140625,0.006253635045140982,0.017902567982673645,0.006877081003040075
1782969675118473000,4.700472900390625,0.0024610271211713552,0.014728612266480923,0.011452924460172653
1782969675128400000,4.71039990234375,-0.0011563445441424847,0.009780725464224815,0.01095491275191307
1782969675138326000,4.720325927734375,-0.003632285399362445,0.0007576693315058947,0.004850415047258139
1782969675148252000,4.730251953125,0.001811482128687203,0.002005626680329442,0.002397377509623766
1782969675158179000,4.740178955078125,0.0006197175825946033,-0.002615490462630987,0.00166607357095927
1782969675168105000,4.75010498046875,0.005276787560433149,0.004765726625919342,-0.00037763622822239995
1782969675178030800,4.76003076171875,0.008379902690649033,0.006189718842506409,0.001898034941405058
1782969675187958000,4.7699580078125,0.013581588864326477,0.009274991229176521,0.0007685882737860084
1782969675197884000,4.7798837890625,0.016108129173517227,0.006615558639168739,-0.00472631212323904
1782969675207810000,4.78981005859375,0.0133288549259305,0.0019323896849527955,-0.009514675475656986
1782969675217737000,4.799737060546875,0.009608152322471142,-0.000037017940485384315,-0.019106317311525345
1782969675227663000,4.8096630859375,0.009941846132278442,0.002487392397597432,-0.025006283074617386
1782969675237589000,4.819589111328125,0.007576693315058947,0.0017811221769079566,-0.023674702271819115
1782969675247516000,4.829515869140625,0.005816876422613859,0.005083974450826645,-0.01582823134958744
1782969675257442000,4.839442138671875,0.0015073491958901286,0.008561530150473118,-0.007496798411011696
1782969675267368000,4.849367919921875,-0.000577107013668865,0.0113975303247571,-0.000883636821527034
1782969675277293800,4.8592939453125,0.009673932567238808,0.006554838269948959,0.006657369900494814
1782969675287221000,4.869220947265625,0.01853506825864315,0.005858688149601221,0.0065537733025848866
1782969675297147100,4.879147216796875,0.028722723945975304,0.0015374429058283567,0.007416104432195425
1782969675307072800,4.88907275390625,0.03302426263689995,0.003893807763233781,0.009212406352162361
1782969675317000000,4.899,0.036916472017765045,-0.004483165219426155,0.013480921275913715
1782969675326926000,4.908926025390625,0.03009105660021305,0.0033401367254555225,0.01679655723273754
1782969675336851700,4.918851806640625,0.020919395610690117,-0.0006684534018859267,0.02171221934258938
1782969675346779000,4.92877880859375,0.014946192502975464,0.011744007468223572,0.031132353469729424
1782969675356705000,4.938705078125,0.011988219805061817,0.0158828254789114,0.029567480087280273
1782969675366631000,4.948630859375,0.01738165318965912,0.0017816547770053148,0.023494940251111984
1782969675376556800,4.958556884765625,0.01107289083302021,0.007418501656502485,0.020929250866174698
1782969675386484000,4.96848388671875,0.004249339923262596,0.013055347837507725,0.01853080652654171
1782969675396410000,4.97841015625,-0.005321528296917677,0.008015315979719162,0.01185000129044056
1782969675406336000,4.9883359375,-0.005410477984696627,0.0002777676854748279,0.005045624915510416
1782969675416263000,4.998262939453125,-0.0007808388327248394,-0.0019108180422335863,0.00936101097613573
1782969675426189000,5.00818896484375,-0.0029465213883668184,0.0011725898366421461,0.02075934037566185
1782969675436115000,5.018114990234375,0.0015398397808894515,0.006800381932407618,0.02027224749326706
1782969675446042000,5.0280419921875,0.003703924361616373,0.01013918686658144,0.017709754407405853
1782969675455968000,5.037968017578125,-0.0025217472575604916,0.009848635643720627,0.007459247950464487
1782969675465894000,5.047893798828125,-0.005048554390668869,0.005846171174198389,-0.006389189511537552
1782969675475821000,5.057821044921875,-0.009549562819302082,0.004203533288091421,-0.02490135468542576
1782969675485747000,5.067746826171875,-0.011551727540791035,-0.002364886924624443,-0.03489859402179718
1782969675495672800,5.0776728515625,-0.005709284916520119,-0.014110226184129715,-0.034147851169109344
1782969675505599000,5.087598876953125,0.00020346550445538014,-0.012225773185491562,-0.023676566779613495
1782969675515526100,5.097526123046875,-0.0037766287568956614,-0.0043715788051486015,-0.008343949913978577
1782969675525451800,5.10745166015625,-0.0068115671165287495,-0.0054365769028663635,0.011361311189830303
1782969675535378000,5.1173779296875,-0.0027382622938603163,-0.0012932310346513987,0.028211398050189018
1782969675545305000,5.12730517578125,-0.006756439805030823,0.013422065414488316,0.039200134575366974
1782969675555231000,5.13723095703125,-0.004905542824417353,0.007731156423687935,0.03284290060400963
1782969675565156900,5.147156982421875,-0.0038783615455031395,0.0034176346380263567,0.016416257247328758
1782969675575084000,5.157083984375,-0.0017161410069093108,0.004325506277382374,0.0017299894243478775
1782969675585010200,5.16701025390625,-0.004320978652685881,0.005107410252094269,-0.011635350994765759
1782969675594935800,5.176935791015625,-0.003022687742486596,0.002491120947524905,-0.02714000828564167
1782969675604863000,5.186863037109375,-0.0037497307639569044,-0.00045593318645842373,-0.03929254412651062
1782969675614789000,5.1967890625,-0.006044842768460512,-0.0026192190125584602,-0.04844076931476593
1782969675624714800,5.20671484375,-0.007439274340867996,-0.001925199176184833,-0.05209143087267876
1782969675634641000,5.216640869140625,-0.00811784714460373,-0.002531867241486907,-0.04736485332250595
1782969675644568000,5.226568115234375,-0.009011072106659412,-0.0020727382507175207,-0.029514748603105545
1782969675654494000,5.236493896484375,-0.008326639421284199,0.008470715954899788,-0.006087187211960554
1782969675664419800,5.246419921875,-0.002296710154041648,0.011551727540791035,0.009334912523627281
1782969675674347000,5.256346923828125,0.002975017298012972,0.01429291907697916,0.018431205302476883
1782969675684273000,5.26627294921875,0.006874683778733015,0.0021766014397144318,0.028058798983693123
1782969675694198800,5.27619873046875,0.007219030521810055,0.006855509243905544,0.03801609203219414
1782969675704126000,5.2861259765625,0.0032751555554568768,0.012105398811399937,0.035660259425640106
1782969675714051800,5.2960517578125,-0.0013608753215521574,0.015973906964063644,0.03027241863310337
1782969675723978000,5.30597802734375,-0.0034200313966721296,0.008363923989236355,0.010785535909235477
1782969675733905000,5.31590478515625,0.0006647250265814364,0.0013789847726002336,-0.013167999684810638
1782969675743831000,5.3258310546875,-0.00008974852971732616,-0.0044115264900028706,-0.0351228341460228
1782969675753757000,5.3357568359375,0.0025063008069992065,-0.00760998297482729,-0.04381752014160156
1782969675763682800,5.345682861328125,0.0003507383225951344,-0.011116833426058292,-0.046008769422769547
1782969675773610000,5.35560986328125,-0.004289287142455578,-0.0038365498185157776,-0.02725186012685299
1782969675783535900,5.365535888671875,-0.003312173532322049,0.008961803279817104,-0.001326786819845438
1782969675793462000,5.3754619140625,-0.002776345470920205,0.013519803062081337,0.012201006524264812
1782969675803389200,5.38538916015625,0.0020578245166689157,0.008525311015546322,0.01599867455661297
1782969675813314800,5.395314697265625,0.001761148450896144,0.008422513492405415,0.02731204777956009
1782969675823241000,5.405240966796875,0.003635481232777238,0.009516806341707706,0.02954564243555069
1782969675833168100,5.415168212890625,0.005403553601354361,0.0003102582704741508,0.02328321896493435
1782969675843093800,5.42509375,0.005140966270118952,-0.004246410448104143,0.015310779213905334
1782969675853020000,5.43502001953125,0.002007490722462535,-0.0046333675272762775,0.015684952959418297
1782969675862947000,5.444947021484375,0.00205276464112103,-0.0025305356830358505,0.024171115830540657
1782969675872873000,5.454873046875,0.0004215783847030252,0.0004247741890139878,0.030956584960222244
1782969675882798800,5.464798828125,0.003197923768311739,0.003549194661900401,0.040286168456077576
1782969675892725000,5.47472509765625,0.0035843485966324806,0.0017331852577626705,0.04078924283385277
1782969675902652000,5.48465185546875,0.0054943677969276905,0.007424626965075731,0.04508119076490402
1782969675912577800,5.494577880859375,0.003634682158008218,0.007935155183076859,0.044507015496492386
1782969675922504000,5.50450390625,0.0030772825703024864,0.008278968743979931,0.035231225192546844
1782969675932431000,5.51443115234375,0.00628958735615015,-0.001187237212434411,0.018755577504634857
1782969675942357000,5.52435693359375,0.0057471017353236675,-0.0014713965356349945,0.012312060222029686
1782969675952283000,5.534282958984375,0.00015206649550236762,-0.0008780442294664681,0.005686647724360228
1782969675962210000,5.5442099609375,-0.006052033510059118,-0.0005816344055347145,-0.00583738274872303
1782969675972136000,5.554135986328125,-0.0055122110061347485,-0.001437041675671935,-0.011416705325245857
1782969675982061800,5.564061767578125,-0.008550344966351986,0.005520466715097427,-0.011777563951909542
1782969675991989000,5.573989013671875,-0.01495018694549799,0.0044043357484042645,-0.011599131859838963
1782969676001915000,5.583914794921875,-0.014627145603299141,0.004236290231347084,-0.008051535114645958
1782969676011841000,5.593841064453125,-0.011634551919996738,0.0020471718162298203,-0.007574828807264566
1782969676021767000,5.603766845703125,-0.0057404437102377415,0.004311923868954182,0.0052376389503479
1782969676031693800,5.61369384765625,-0.0032352081034332514,0.009826797991991043,0.009904029779136181
1782969676041620000,5.623619873046875,-0.005191832315176725,0.010031861253082752,0.011453457176685333
1782969676051545900,5.6335458984375,-0.004283960908651352,0.002211222657933831,0.0043681166134774685
1782969676061472800,5.64347265625,-0.002317216480150819,0.002731071785092354,0.0023100259713828564
1782969676071399000,5.65339892578125,-0.004541222471743822,-0.0010705908061936498,0.004090082831680775
1782969676081324800,5.66332470703125,-0.0035803536884486675,0.0054791877046227455,0.0082089276984334
1782969676091251700,5.673251708984375,-0.003707919269800186,0.008206796832382679,0.009080047719180584
1782969676101177600,5.683177490234375,-0.00881186779588461,0.0038490667939186096,0.005354018881917
1782969676111103700,5.693103759765625,-0.010025469586253166,0.0011201255256310105,0.0020221380982548
1782969676121031000,5.703031005859375,-0.010155964642763138,0.00054142065346241,0.005351622123271227
1782969676130956500,5.71295654296875,-0.014489727094769478,0.0049215215258300304,0.01215440034866333
1782969676140882700,5.722882568359375,-0.019241871312260628,0.00917112734168768,0.015456986613571644
1782969676150808800,5.732808837890625,-0.019466109573841095,0.011624432168900967,0.014727014116942883
1782969676160735500,5.742735595703125,-0.015731824561953545,0.00962652824819088,0.011698734015226364
1782969676170661600,5.75266162109375,-0.005402222275733948,0.005856557283550501,0.005617139395326376
1782969676180587800,5.762587890625,-0.002588059986010194,0.005810484755784273,-0.00017603494052309543
1782969676190514700,5.7725146484375,-0.002359294332563877,0.004567587748169899,-0.0018634138396009803
1782969676200440600,5.782440673828125,-0.006117281038314104,0.0051718587055802345,-0.010816162452101707
1782969676210366700,5.79236669921875,-0.011700864881277084,0.0006977482116781175,-0.018374213948845863
1782969676220294000,5.8022939453125,-0.01708151586353779,0.006648048758506775,-0.018248245120048523
1782969676230219500,5.812219482421875,-0.020487964153289795,0.012894227169454098,-0.013942980207502842
1782969676240145700,5.822145751953125,-0.015966182574629784,0.01028859056532383,-0.010544519871473312
1782969676250072800,5.83207275390625,-0.008221178315579891,0.007757788058370352,-0.008323975838720798
1782969676259998700,5.841998779296875,-0.003980626817792654,0.0065348646603524685,-0.0024865935556590557
1782969676269924600,5.851924560546875,-0.006387059111148119,0.0068054418079555035,0.0007669904152862728
1782969676279850800,5.861850830078125,-0.00806351937353611,0.001541171339340508,-0.00070520507870242
1782969676289777700,5.871777587890625,-0.005203550215810537,0.0024615598376840353,0.007999337278306484
1782969676299703600,5.88170361328125,-0.008757539093494415,0.009585249237716198,0.024881381541490555
1782969676309629700,5.891629638671875,-0.00686056911945343,0.010687531903386116,0.028307005763053894
1782969676319556600,5.901556640625,-0.00407570181414485,0.008204666897654533,0.025557557120919228
1782969676329482800,5.911482666015625,-0.005540973041206598,0.006061088293790817,0.021042700856924057
1782969676339408600,5.92140869140625,-0.006847786251455545,0.011827098205685616,0.017918014898896217
1782969676349335600,5.93133544921875,-0.015284414403140545,0.006942860782146454,0.013059076853096485
1782969676359261700,5.94126171875,-0.02100248634815216,0.008888300508260727,0.0024985778145492077
1782969676369187600,5.9511875,-0.022457638755440712,0.008552475832402706,-0.00857378076761961
1782969676379114800,5.96111474609375,-0.01986531727015972,0.003510312642902136,-0.019630160182714462
1782969676389040600,5.97104052734375,-0.014395451173186302,-0.007035006303340197,-0.02249918319284916
1782969676398966800,5.980966796875,-0.008930377662181854,-0.010010556317865849,-0.021923407912254333
1782969676408892700,5.990892578125,-0.009179383516311646,-0.01967410184442997,-0.008142881095409393
1782969676418819600,6.000819580078125,-0.016333166509866714,-0.013293434865772724,0.016146479174494743
1782969676428745700,6.010745849609375,-0.0187851395457983,-0.0022176143247634172,0.04025873914361
1782969676438671600,6.020671630859375,-0.018570754677057266,0.0023299995809793472,0.057442788034677505
1782969676448598500,6.0305986328125,-0.01901603490114212,0.009021990932524204,0.06143965944647789
1782969676458524700,6.040524658203125,-0.01739070750772953,0.015236477367579937,0.06130596622824669
1782969676468450800,6.050450927734375,-0.018803514540195465,0.015785887837409973,0.04507054015994072
1782969676478377700,6.060377685546875,-0.02225363999605179,0.010014550760388374,0.022277075797319412
1782969676488303600,6.0703037109375,-0.021990519016981125,-0.00205249828286469,0.0029968551825731993
1782969676498229800,6.080229736328125,-0.02562520280480385,0.0005432848702184856,-0.016161926090717316
1782969676508156000,6.090156005859375,-0.03314037621021271,-0.0054698665626347065,-0.02786625176668167
1782969676518082600,6.10008251953125,-0.034025609493255615,-0.0038746329955756664,-0.037935130298137665
1782969676528008700,6.1100087890625,-0.03383945673704147,-0.006068811286240816,-0.04038577154278755
1782969676537934800,6.119934814453125,-0.025465145707130432,-0.005682653281837702,-0.03965127095580101
1782969676547861800,6.12986181640625,-0.022116487845778465,-0.00606401776894927,-0.02744387462735176
1782969676557787600,6.13978759765625,-0.02129170671105385,-0.00436119269579649,-0.00782703049480915
1782969676567713800,6.1497138671875,-0.02244512178003788,-0.002927080262452364,0.00878230668604374
1782969676577640700,6.159640625,-0.02640923671424389,-0.00024820660473778844,0.030785342678427696
1782969676587566600,6.169566650390625,-0.031366977840662,0.01161777414381504,0.04032718390226364
1782969676597492700,6.17949267578125,-0.04307103902101517,0.001791242160834372,0.046002380549907684
1782969676607419600,6.189419677734375,-0.04309074580669403,0.011738414876163006,0.053694386035203934
1782969676617345800,6.199345703125,-0.044607147574424744,0.030051376670598984,0.06381785869598389
1782969676627271700,6.209271728515625,-0.039328765124082565,0.022730879485607147,0.06638701260089874
1782969676637197800,6.21919775390625,-0.030713437125086784,0.014348313212394714,0.05518069863319397
1782969676647124700,6.229124755859375,-0.020267454907298088,0.01278663519769907,0.03718731552362442
1782969676657050600,6.239050537109375,-0.015382152050733566,0.0052205948159098625,0.0158881526440382
1782969676666976800,6.248976806640625,-0.006316751707345247,-0.000847950461320579,0.0033803503029048443
1782969676676903700,6.258903564453125,-0.0036128442734479904,-0.0032112395856529474,-0.01290701050311327
1782969676686829800,6.268829833984375,-0.003239202778786421,-0.005395031534135342,-0.023539680987596512
1782969676696755700,6.278755615234375,-0.007900533266365528,-0.007760717533528805,-0.032410137355327606
1782969676706682600,6.2886826171875,-0.00920202024281025,-0.0002836266648955643,-0.033482592552900314
1782969676716608800,6.29860888671875,-0.017292970791459084,0.0025662221014499664,-0.028549885377287865
1782969676726534700,6.30853466796875,-0.022303707897663116,0.009769007563591003,-0.027213245630264282
1782969676736461600,6.318461669921875,-0.022298913449048996,0.006991064175963402,-0.023968715220689774
1782969676746387700,6.3283876953125,-0.018029866740107536,0.011054248549044132,-0.01991671696305275
1782969676756313900,6.33831396484375,-0.017228255048394203,0.009347694925963879,-0.02057105489075184
1782969676766239700,6.34823974609375,-0.0035947347059845924,-0.005590774118900299,-0.019828831776976585
1782969676776166700,6.358166748046875,-0.0020474381744861603,-0.0043473439291119576,-0.00714685907587409
1782969676786092800,6.3680927734375,-0.0036701022181659937,-0.004572647623717785,0.0068174260668456554
1782969676796018700,6.378018798828125,-0.008391354233026505,-0.002426672261208296,0.015932627022266388
1782969676805945600,6.387945556640625,-0.01287691667675972,-0.00166580721270293,0.021132981404662132
1782969676815871700,6.397871826171875,-0.02040434069931507,-0.0015654060989618301,0.02123977430164814
1782969676825798000,6.4077978515625,-0.022112226113677025,0.0017161410069093108,0.016823455691337585
1782969676835724500,6.417724609375,-0.024656876921653748,-0.00063356600003317,0.004502606578171253
1782969676845650700,6.427650634765625,-0.024644359946250916,-0.0021992383990436792,-0.00708747049793601
1782969676855576800,6.437576904296875,-0.022302376106381416,-0.00646642129868269,-0.015500130131840706
1782969676865503700,6.447503662109375,-0.01901470310986042,-0.008654207922518253,-0.02147546410560608
1782969676875429600,6.4574296875,-0.017523599788546562,-0.009888317435979843,-0.0176375824958086
1782969676885355800,6.467355712890625,-0.01955985277891159,-0.005198223982006311,-0.009556487202644348
1782969676895281700,6.47728173828125,-0.022937806323170662,-0.0012005530297756195,-0.0028477180749177933
1782969676905208600,6.48720849609375,-0.026197249069809914,0.00424161646515131,0.00390286254696548
1782969676915134700,6.497134765625,-0.025853168219327927,-0.00145195540972054,0.002376871183514595
1782969676925060900,6.507060791015625,-0.028912607580423355,-0.0062243398278951645,-0.002906307578086853
1782969676934987800,6.51698779296875,-0.03345303237438202,-0.006908239796757698,-0.007829426787793636
1782969676944913700,6.52691357421875,-0.03885525465011597,-0.007041397970169783,-0.005208876915276051
1782969676954839800,6.53683984375,-0.039994820952415466,-0.0016021577175706625,0.008927715010941029
1782969676964766700,6.5467666015625,-0.03941265493631363,0.00818069837987423,0.020250409841537476
1782969676974692900,6.55669287109375,-0.036907948553562164,0.011955462396144867,0.03267592191696167
1782969676984618800,6.56661865234375,-0.03316061571240425,0.014404771849513054,0.042688872665166855
1782969676994545700,6.576545654296875,-0.03218163922429085,0.015121694654226303,0.046602122485637665
1782969677004471800,6.586471923828125,-0.032347287982702255,0.008608401753008366,0.04740426689386368
1782969677014397700,6.596397705078125,-0.02623320184648037,0.008580705150961876,0.0427144393324852
1782969677024323600,6.606323486328125,-0.02129223942756653,0.0059899818152189255,0.03614841774106026
1782969677034250800,6.616250732421875,-0.012803412973880768,0.002487658755853772,0.028014058247208595
1782969677044177000,6.626177001953125,-0.004664260428398848,0.0029467877466231585,0.026551982387900352
1782969677054102800,6.636102783203125,-0.0005656554130837321,0.007354851812124252,0.013990649953484535
1782969677064029700,6.64602978515625,-0.004351338837295771,0.007799333427101374,0.006892793346196413
1782969677073955800,6.655955810546875,-0.008676312863826752,0.006959372665733099,-0.008801747113466263
1782969677083882200,6.66588232421875,-0.012384763918817043,0.006464823614805937,-0.018367821350693703
1782969677093809400,6.675809326171875,-0.010691792704164982,0.003590740030631423,-0.02178545668721199
1782969677103735600,6.685735595703125,-0.008912534452974796,-0.00004394215648062527,-0.020267188549041748
1782969677113661200,6.6956611328125,-0.004521514754742384,-0.0002378202771069482,-0.011741611175239086
1782969677123588400,6.70558837890625,0.00008894957863958552,0.0027409254107624292,-0.0034085798542946577
1782969677133514500,6.715514404296875,0.004108725115656853,0.00884968414902687,0.0040796962566673756
1782969677143440100,6.725440185546875,0.0001560612436151132,0.009165002964437008,0.012892629019916058
1782969677153367300,6.7353671875,-0.008735966868698597,0.0075761605985462666,0.010585532523691654
1782969677163293400,6.74529345703125,-0.01510225422680378,0.0028791434597223997,0.0076280920766294
1782969677173219300,6.75521923828125,-0.017229853197932243,0.005633650813251734,0.010433466173708439
1782969677183145200,6.765145263671875,-0.015393869951367378,0.007522098254412413,0.02094043605029583
1782969677193072400,6.775072265625,-0.010699249804019928,0.010513893328607082,0.024814801290631294
1782969677202998300,6.784998291015625,-0.006597449071705341,0.017908426001667976,0.024535436183214188
1782969677212924200,6.794924072265625,-0.006570551078766584,0.013348562642931938,0.021584121510386467
1782969677222851300,6.804851318359375,-0.00965369213372469,0.010211625136435032,0.013316071592271328
1782969677232777500,6.814777587890625,-0.024876587092876434,0.008127967827022076,-0.002442118711769581
1782969677242703400,6.824703369140625,-0.03383253142237663,0.007819040678441525,-0.012152004055678844
1782969677252630300,6.83463037109375,-0.03888481482863426,0.005253884010016918,-0.02293114922940731
1782969677262556400,6.844556396484375,-0.038550589233636856,0.004914064891636372,-0.027156785130500793
1782969677272482300,6.854482421875,-0.03677878528833389,-0.001029311795718968,-0.03062555380165577
1782969677282409500,6.864409423828125,-0.029936060309410095,-0.006314887665212154,-0.017236776649951935
1782969677292335400,6.87433544921875,-0.020965470001101494,-0.004765726625919342,0.0022205437999218702
1782969677302261200,6.88426123046875,-0.010528807528316975,-0.0024437166284769773,0.02430081181228161
1782969677312187400,6.8941875,-0.009806557558476925,0.0013667342718690634,0.045277200639247894
1782969677322114300,6.9041142578125,-0.014422082342207432,0.008101335726678371,0.06066494435071945
1782969677332040200,6.914040283203125,-0.023436350747942924,0.014757640659809113,0.0687180757522583
1782969677341966300,6.92396630859375,-0.026192188262939453,0.016537431627511978,0.061583735048770905
1782969677351893500,6.9338935546875,-0.02865082025527954,0.020725518465042114,0.04457545652985573
1782969677361819400,6.9438193359375,-0.02003682404756546,0.010587663389742374,0.022587601095438004
1782969677371745300,6.953745361328125,-0.01721174456179142,0.00694871973246336,0.002406165935099125
1782969677381672400,6.96367236328125,-0.011434015817940235,0.0014391721924766898,-0.0149238221347332
1782969677391598300,6.973598388671875,-0.007129548583179712,0.002067678142338991,-0.02238386869430542
1782969677401524200,6.983524169921875,-0.007421164773404598,0.0044293696992099285,-0.025487516075372696
1782969677411451400,6.993451416015625,-0.007740743923932314,0.0051862397231161594,-0.021750835701823235
1782969677421377500,7.00337744140625,-0.01341753825545311,0.005948702804744244,-0.01338424813002348
1782969677431303200,7.01330322265625,-0.012680907733738422,0.009048089385032654,-0.005822735372930765
1782969677441229300,7.023229248046875,-0.02171994186937809,0.000592020689509809,0.007791610434651375
1782969677451156500,7.033156494140625,-0.01702266000211239,0.004727643448859453,0.017189905047416687
1782969677461082000,7.04308203125,-0.017548900097608566,0.005252819042652845,0.02474263124167919
1782969677471008300,7.05300830078125,-0.01823998987674713,0.008294414728879929,0.031027425080537796
1782969677480935400,7.062935302734375,-0.01985599659383297,0.013440174981951714,0.033725205808877945
1782969677490861300,7.072861328125,-0.02046905644237995,0.014156032353639603,0.02520602010190487
1782969677500787200,7.082787109375,-0.020959610119462013,0.010840130969882011,0.01679655723273754
1782969677510714400,7.09271435546875,-0.012429771944880486,0.003029612125828862,0.007446198258548975
1782969677520640300,7.10264013671875,-0.01085850689560175,0.0028626318089663982,-0.000841825210954994
1782969677530566100,7.112566162109375,-0.006937001831829548,0.001871403306722641,-0.002514823107048869
1782969677540493300,7.122493408203125,-0.007442203816026449,0.0034056503791362047,0.002252768026664853
1782969677550419500,7.13241943359375,-0.006128199864178896,0.00857537891715765,0.009521067142486572
1782969677560345300,7.142345458984375,-0.0032077773939818144,0.010162889026105404,0.011539210565388203
1782969677570271200,7.152271240234375,-0.001350222621113062,0.009521866217255592,0.01495444867759943
1782969677580198400,7.162198486328125,0.004640025552362204,0.011029215529561043,0.014071877114474773
1782969677590124300,7.172124267578125,0.0046416232362389565,0.011240670457482338,0.013965616934001446
1782969677600050200,7.18205029296875,0.0036224317736923695,0.012712599709630013,0.012234295718371868
1782969677609977300,7.191977294921875,0.00123783724848181,0.009030246175825596,0.010114951990544796
1782969677619903200,7.2019033203125,-0.0043840957805514336,0.01606631837785244,0.0007041397620923817
1782969677629829400,7.211829345703125,-0.006132727488875389,0.014619954861700535,-0.005991845857352018
1782969677639756500,7.221756591796875,-0.0028663603588938713,0.009753827005624771,-0.013128585182130337
1782969677649682200,7.23168212890625,-0.008704808540642262,0.002228799508884549,-0.015083345584571362
1782969677659608300,7.2416083984375,0.0023840616922825575,0.0011017497163265944,-0.01762852817773819
1782969677669535500,7.251535400390625,-0.00011265171633567661,0.010663563385605812,-0.011952799744904041
1782969677679461000,7.261461181640625,0.003052248852327466,0.00818176381289959,-0.01444338820874691
1782969677689387300,7.27138720703125,0.002600044244900346,0.005087703000754118,-0.007328486535698175
1782969677699313400,7.2813134765625,0.002079662401229143,0.00506799528375268,-0.0032029838766902685
1782969677709240300,7.291240234375,-0.0006002765148878098,0.006991863250732422,0.008681905455887318
1782969677719166200,7.301166259765625,-0.00015925703337416053,0.006922620814293623,0.015372565016150475
1782969677729092400,7.31109228515625,0.00023675501870457083,0.0068267472088336945,0.01883360929787159
1782969677739019500,7.32101953125,0.0024080302100628614,0.009437177330255508,0.020789701491594315
1782969677748945200,7.330945068359375,0.003949468024075031,0.007218231912702322,0.02510242350399494
1782969677758871300,7.340871337890625,0.00765738682821393,0.010479005984961987,0.026585271582007408
1782969677768798500,7.350798583984375,0.011442803777754307,0.013710752129554749,0.019815249368548393
1782969677778724400,7.360724365234375,0.01254215743392706,0.01056076493114233,0.009693107567727566
1782969677788650200,7.370650146484375,0.012584767304360867,0.005841377656906843,-0.001942243310622871
1782969677798577400,7.380577392578125,0.013199158944189548,0.008648082613945007,-0.012287026271224022
1782969677808503300,7.39050341796875,0.007384146563708782,0.009554356336593628,-0.015562181361019611
1782969677818429200,7.40042919921875,0.0054485611617565155,0.009671003557741642,-0.020607007667422295
1782969677828355300,7.410355224609375,0.0038189729675650597,0.0037854171823710203,-0.025239042937755585
1782969677838282200,7.4202822265625,0.003498594742268324,0.002234924817457795,-0.02480068802833557
1782969677848208400,7.43020849609375,0.002986735198646784,0.008978847414255142,-0.015903865918517113
1782969677858134300,7.44013427734375,0.003486077766865492,0.007381483446806669,-0.011129883117973804
1782969677868061200,7.450061279296875,0.007103183306753635,0.0061508365906775,-0.000978711643256247
1782969677877987300,7.4599873046875,0.01636485755443573,0.009339173324406147,0.011782623827457428
1782969677887913200,7.469913330078125,0.01882668398320675,0.013069196604192257,0.025969281792640686
1782969677897840400,7.47984033203125,0.021219002082943916,0.015265239402651787,0.034878622740507126
1782969677907766300,7.489766357421875,0.02407284639775753,0.009868077002465725,0.029270537197589874
1782969677917692400,7.4996923828125,0.02219398505985737,0.008653142489492893,0.026672890409827232
1782969677927619300,7.509619384765625,0.015514777041971684,0.012145612388849258,0.020442157983779907
1782969677937545200,7.519545166015625,0.010150105692446232,0.012267318554222584,0.014192517846822739
1782969677947471400,7.529471435546875,0.008223309181630611,0.009691509418189526,-0.00037284253630787134
1782969677957397200,7.539397216796875,0.00999351218342781,0.00996448379009962,-0.009072590619325638
1782969677967324200,7.54932421875,0.012484632432460785,0.009954895824193954,-0.010153833776712418
1782969677977250300,7.559250244140625,0.013998639769852161,0.012449212372303009,-0.00729359919205308
1782969677987176400,7.569176513671875,0.015342204831540585,0.014091583900153637,0.0003230414295103401
1782969677997103000,7.57910302734375,0.014561898075044155,0.008194014430046082,-0.00336090917699039
1782969678007029200,7.589029296875,0.014985873363912106,0.005918875336647034,-0.0038107172586023808
1782969678016955400,7.598955322265625,0.006569219287484884,0.006681604776531458,0.0005912217311561108
1782969678026882300,7.60888232421875,0.005293032620102167,0.010004697367548943,0.0038511971943080425
1782969678036808200,7.61880810546875,0.000707868195604533,0.007050452753901482,0.002841060282662511
1782969678046734300,7.628734375,-0.00868936162441969,0.011698201298713684,-0.0075814868323504925
1782969678056661200,7.6386611328125,-0.010551444254815578,0.011698467656970024,-0.01738990843296051
1782969678066587100,7.648587158203125,-0.010392719879746437,0.009394301101565361,-0.03244742006063461
1782969678076513300,7.65851318359375,-0.005862948950380087,0.0033396040089428425,-0.040469929575920105
1782969678086439700,7.668439697265625,0.009940248914062977,0.003463441040366888,-0.04282788932323456
1782969678096365600,7.678365478515625,0.020929783582687378,0.0016136092599481344,-0.03134407475590706
1782969678106291700,7.688291748046875,0.02076786197721958,0.003868241561576724,-0.013937386684119701
1782969678116217600,7.698217529296875,0.015534218400716782,0.009550894610583782,0.0036767602432519197
1782969678126144800,7.708144775390625,0.005249090492725372,0.01065131276845932,0.012300608679652214
1782969678136070700,7.718070556640625,-0.0020330571569502354,0.013575996272265911,0.011830028146505356
1782969678145996800,7.727996826171875,-0.008758338168263435,0.005528988782316446,0.005690376274287701
1782969678155923700,7.737923828125,-0.005786516238003969,0.0003832288784906268,-0.009575928561389446
1782969678165849600,7.747849609375,0.00010173275222769007,-0.008082693442702293,-0.022536201402544975
1782969678175775700,7.757775634765625,-0.0012945625931024551,-0.01549214031547308,-0.023903202265501022
1782969678185703000,7.767702880859375,-0.0008234494016505778,-0.014256966300308704,-0.017116136848926544
1782969678195628500,7.777628662109375,-0.0032415995374321938,-0.006365487817674875,-0.0017041567480191588
1782969678205554700,7.7875546875,-0.01044438499957323,0.005170793738216162,0.008743157610297203
1782969678215481900,7.79748193359375,-0.019638415426015854,0.010971425101161003,0.010074738413095474
1782969678225407500,7.807407470703125,-0.02334207482635975,0.009325590915977955,0.0026375947054475546
1782969678235333600,7.817333740234375,-0.03003006987273693,0.0037404096219688654,-0.02442305162549019
1782969678245259800,7.827259765625,-0.030294789001345634,0.00043782367720268667,-0.04918192699551582
1782969678255186700,7.837186767578125,-0.028824457898736,0.004364388529211283,-0.06556835770606995
1782969678265112600,7.847112548828125,-0.026569558307528496,-0.005811017472296953,-0.09041458368301392
1782969678275038700,7.857038818359375,-0.010174340568482876,-0.012064652517437935,-0.08966064453125
1782969678284965600,7.866965576171875,-0.003619768423959613,-0.008982043713331223,-0.08137261867523193
1782969678294891500,7.8768916015625,0.0022114890161901712,0.003656253917142749,-0.0662250891327858
1782969678304817700,7.886817626953125,0.009981527924537659,-0.0014365090755745769,-0.04941016063094139
1782969678314744800,7.896744873046875,0.012447881512343884,0.0025808694772422314,-0.029558690264821053
1782969678324670700,7.906670654296875,0.006750580854713917,0.0016130766598507762,-0.010883806273341179
1782969678334596600,7.9165966796875,0.003998736385256052,0.0021084246691316366,0.006536728702485561
1782969678344523800,7.926523681640625,0.0035265579354017973,0.0015787219163030386,0.0255769994109869
1782969678354449700,7.93644970703125,-0.006204632576555014,0.007664044853299856,0.04014874994754791
1782969678364375600,7.94637548828125,-0.00993438996374607,0.012266519479453564,0.04074982553720474
1782969678374301700,7.9563017578125,-0.02100887894630432,0.012377307750284672,0.03593669459223747
1782969678384228600,7.966228515625,-0.024341559037566185,0.007559382822364569,0.02208985574543476
1782969678394154800,7.97615478515625,-0.02081127278506756,0.00620995881035924,0.009063269942998886
1782969678404080600,7.98608056640625,-0.019151324406266212,0.004227768164128065,0.005139900837093592
1782969678414007600,7.996007568359375,-0.018972892314195633,0.003442934714257717,-0.003026682650670409
1782969678423932700,8.0059326171875,-0.014900386333465576,0.007207046262919903,-0.005041896365582943
1782969678433858600,8.015858642578126,-0.009029979817569256,0.006858971435576677,0.0009057410643436015
1782969678443785700,8.02578564453125,-0.003040530951693654,0.009501892141997814,0.0089966906234622
1782969678453712000,8.0357119140625,0.0017741979099810123,0.0083071980625391,0.014573882333934307
1782969678463637500,8.045637451171874,0.004719654098153114,0.012731773778796196,0.01822933740913868
1782969678473564700,8.055564697265625,0.008547681383788586,0.014646320603787899,0.023566845804452896
1782969678483490800,8.06549072265625,0.007534348871558905,0.013976535759866238,0.02195722982287407
1782969678493416700,8.075416748046875,0.00872131995856762,0.013539777137339115,0.02105388604104519
1782969678503343900,8.08534375,0.006614759564399719,0.01847008801996708,0.01648044027388096
1782969678513269800,8.095269775390625,0.0029435919132083654,0.014542724005877972,0.011031079106032848
1782969678523195600,8.105195556640625,0.005635781679302454,0.008962335996329784,-0.0049156625755131245
1782969678533122800,8.115122802734374,0.002712962217628956,0.004002997186034918,-0.005691441707313061
1782969678543048700,8.125048583984375,-0.0016519587952643633,0.008620386011898518,-0.0032929987646639347
1782969678552974600,8.134974609375,-0.004688494838774204,0.007877896539866924,0.005813414230942726
1782969678562901800,8.14490185546875,-0.0057127466425299644,0.006130862981081009,0.018097510561347008
1782969678572828000,8.154827880859376,-0.0022130869328975677,0.009044627659022808,0.02653227560222149
1782969678582753500,8.16475341796875,-0.0010367685463279486,0.0117914117872715,0.03387434408068657
1782969678592679700,8.1746796875,-0.004977181553840637,0.014918495900928974,0.039544478058815
1782969678602606800,8.18460693359375,-0.0010207896120846272,0.010638795793056488,0.042095787823200226
1782969678612532700,8.19453271484375,0.001186970854178071,0.012254535220563412,0.04370753467082977
1782969678622458600,8.204458740234376,0.0011001517996191978,0.009852631017565727,0.03796229511499405
1782969678632385800,8.2143857421875,0.006922088097780943,0.00498064374551177,0.028611671179533005
1782969678642312000,8.22431201171875,0.009195894934237003,0.00299286050722003,0.01708151586353779
1782969678652237600,8.234237548828125,0.012686500325798988,0.002204564632847905,0.006747651379555464
1782969678662164700,8.244164794921875,0.008687498047947884,0.005306880921125412,-0.010201238095760345
1782969678672091000,8.2540908203125,0.005111138802021742,0.005088235717266798,-0.01895105466246605
1782969678682016500,8.2640166015625,0.0036479979753494263,0.005013933405280113,-0.021274128928780556
1782969678691943700,8.273943603515624,0.004614459350705147,0.004504736978560686,-0.025523735210299492
1782969678701869800,8.283869873046875,0.0006876281695440412,0.0028943235520273447,-0.020860008895397186
1782969678711795700,8.293795654296876,-0.0010910971323028207,0.0007566040731035173,-0.010672351345419884
1782969678721721600,8.3037216796875,0.00027084347675554454,0.006168413441628218,0.004316984210163355
1782969678731648800,8.313648681640625,-0.0041761030443012714,0.012414591386914253,0.015798671171069145
1782969678741574700,8.32357470703125,-0.003195793367922306,0.01079752016812563,0.016454340890049934
1782969678751500500,8.33350048828125,-0.00004900216299574822,0.0070861391723155975,0.010953848250210285
1782969678761427700,8.343427734375,0.006322877015918493,0.008330367505550385,0.010778345167636871
1782969678771353600,8.353353515625,0.007230482529848814,0.0064893243834376335,0.012381035834550858
1782969678781279700,8.36327978515625,0.006910103838890791,0.0032746228389441967,0.00914183259010315
1782969678791206700,8.37320654296875,0.0036538569256663322,-0.0006234460161067545,0.0017664746847003698
1782969678801134600,8.383134521484376,0.0015880429418757558,-0.0009606021922081709,-0.000937166390940547
1782969678811061500,8.3930615234375,-0.0022684806026518345,0.004837898537516594,0.0043808999471366405
1782969678820987600,8.402987548828126,-0.0020333235152065754,0.00723607512190938,0.008786567486822605
1782969678830913800,8.412913818359375,-0.0033044503070414066,0.001714010490104556,0.0011795139871537685
1782969678840840700,8.4228408203125,-0.000871652620844543,0.0031758195254951715,-0.0035840822383761406
1782969678850766600,8.4327666015625,-0.002557966159656644,-0.0034557178150862455,-0.004713528789579868
1782969678860692700,8.442692626953125,-0.0030655646696686745,0.0015459649730473757,-0.0005550027708522975
1782969678870619600,8.45261962890625,-0.0025300029665231705,0.0017329188995063305,0.007254450581967831
1782969678880545500,8.462545654296875,0.0020184097811579704,0.007032875902950764,0.011655856855213642
1782969678890471700,8.4724716796875,0.001582716591656208,0.010067814029753208,0.009315471164882183
1782969678900397800,8.482397705078125,0.009007609449326992,0.0057409764267504215,0.004730306565761566
1782969678910324700,8.49232470703125,0.008798551745712757,0.001957689644768834,0.005773200653493404
1782969678920250600,8.502250732421874,0.014343785122036934,0.009778328239917755,0.012494486756622791
1782969678930176800,8.5121767578125,0.014826882630586624,0.008897887542843819,0.012592757120728493
1782969678940103700,8.522103759765624,0.01164653617888689,0.011153851635754108,0.004442685283720493
1782969678950029600,8.532029541015625,0.01200020406395197,0.0036677054595202208,-0.003320695599541068
1782969678959955700,8.541955810546876,0.016504941508173943,0.0024682176299393177,0.0018005631864070892
1782969678969882600,8.551882568359375,0.01233363151550293,0.005608084611594677,0.011226555332541466
1782969678979808800,8.561808837890625,0.004165982827544212,0.009953032247722149,0.013579724356532097
1782969678989734700,8.571734619140624,-0.002353169023990631,0.007959921844303608,0.01017007976770401
1782969678999660800,8.581660888671875,-0.010427074506878853,0.010357033461332321,0.008677643723785877
1782969679009587700,8.591587646484374,-0.017663149163126945,0.011172492988407612,0.0033688987605273724
1782969679019513600,8.601513671875,-0.02419561706483364,0.012464925646781921,-0.01131284236907959
1782969679029439700,8.611439697265626,-0.01973588764667511,0.009781524538993835,-0.017946776002645493
1782969679039366700,8.62136669921875,-0.011980229988694191,-0.0007414240390062332,-0.022128738462924957
1782969679049292800,8.631292724609375,-0.005853894166648388,-0.006106095854192972,-0.018207766115665436
1782969679059218700,8.64121875,-0.0036996633280068636,-0.010544786229729652,-0.009412409737706184
1782969679069145600,8.6511455078125,-0.0020149475894868374,-0.0029260150622576475,0.01200845930725336
1782969679079071700,8.66107177734375,-0.003064233111217618,0.009895240887999535,0.031867120414972305
1782969679088998400,8.670998291015625,0.00017976337403524667,0.012140818871557713,0.03969468176364899
1782969679098925000,8.680925048828126,0.005903429351747036,0.014406369999051094,0.03563442826271057
1782969679108851200,8.690851318359375,0.010997523553669453,0.016109460964798927,0.028006067499518394
1782969679118777300,8.70077734375,0.003979827743023634,0.010143181309103966,0.010672617703676224
1782969679128704300,8.710704345703125,0.0022272015921771526,-0.005825398489832878,0.0021973741240799427
1782969679138630100,8.720630126953125,-0.008035289123654366,0.01210033893585205,0.0028192223981022835
1782969679148556300,8.730556396484374,-0.009050752967596054,0.013944843783974648,0.005289836786687374
1782969679158482400,8.740482421875,-0.006163087207823992,0.015862053260207176,0.00401711231097579
1782969679168409000,8.7504091796875,-0.00029640982393175364,0.013636450283229351,-0.0036826191935688257
1782969679178335200,8.760335205078125,0.0015952334506437182,0.007732754573225975,-0.008162588812410831
1782969679188261400,8.770261474609375,0.004712996073067188,0.0030658310279250145,-0.013541108928620815
1782969679198188300,8.780188232421875,0.0037204360123723745,-0.006391320377588272,-0.01022467389702797
1782969679208114200,8.7901142578125,0.0030684941448271275,-0.0032775523141026497,0.0023816649336367846
1782969679218040300,8.800040283203124,0.0014658038271591067,0.0017246630741283298,0.020423250272870064
1782969679227967200,8.80996728515625,-0.0016309198690578341,0.0051686628721654415,0.04174744710326195
1782969679237893000,8.81989306640625,-0.0054642739705741405,0.015917712822556496,0.05318838730454445
1782969679247819300,8.8298193359375,-0.013154949992895126,0.020910874009132385,0.045156028121709824
1782969679257746200,8.83974609375,-0.010294183157384396,0.015798671171069145,0.033298566937446594
1782969679267672300,8.84967236328125,-0.009157013148069382,0.006617689039558172,0.010907774791121483
1782969679277598200,8.85959814453125,-0.0054365769028663635,-0.0009462211164645851,-0.010480870492756367
1782969679287524000,8.869524169921876,-0.004316185135394335,-0.0028911277186125517,-0.024100275710225105
1782969679297451300,8.879451171875,-0.004677309654653072,0.00031318774563260376,-0.02659672312438488
1782969679307377200,8.889377197265626,-0.0015515576815232635,0.00364693277515471,-0.018372615799307823
1782969679317303300,8.89930322265625,0.0028932581190019846,0.010268083773553371,-0.004543619230389595
1782969679327230200,8.909230224609376,0.010686466470360756,0.008700813166797161,0.001454618526622653
1782969679337156400,8.91915625,0.017406687140464783,0.008876049891114235,0.004465854726731777
1782969679347082200,8.929082275390625,0.012164787389338017,0.006216883193701506,0.0073652383871376514
1782969679357009200,8.939009033203124,0.009341570548713207,0.007865912280976772,0.004764928016811609
1782969679366935300,8.948935302734375,0.0054275221191346645,0.0070762853138148785,0.0016823188634589314
1782969679376861200,8.958861083984376,0.0017299894243478775,0.006602242588996887,-0.00112465291749686
1782969679386788000,8.9687880859375,-0.0003709783486556262,0.007125820033252239,0.002130795270204544
1782969679396714200,8.97871435546875,-0.002243713242933154,0.007197725586593151,0.0012679309584200382
1782969679406640400,8.988640380859374,-0.004221110139042139,0.006560697220265865,-0.001148088718764484
1782969679416567000,8.998567138671875,-0.00019121496006846428,0.009817743673920631,-0.0012716593919321895
1782969679426493200,9.0084931640625,-0.006102367304265499,0.005073055624961853,-0.00497984467074275
1782969679436419300,9.01841943359375,-0.009499762207269669,0.0060024987906217575,-0.012056662701070309
1782969679446345200,9.02834521484375,-0.010647584684193134,0.005515939090400934,-0.020056799054145813
1782969679456272100,9.038272216796875,-0.00774820102378726,0.010941863991320133,-0.019756393507122993
1782969679466198300,9.0481982421875,-0.009455553255975246,0.005917277652770281,-0.022298114374279976
1782969679476124200,9.058124267578124,-0.012017248198390007,0.007867510430514812,-0.024532241746783257
1782969679486051300,9.06805126953125,-0.008253668434917927,0.009072590619325638,-0.03262239322066307
1782969679495977200,9.077977294921874,-0.004306064918637276,0.006868824828416109,-0.03771382197737694
1782969679505903400,9.0879033203125,0.0026346652302891016,0.004773982334882021,-0.04027605056762695
1782969679515830300,9.097830322265626,0.010361027903854847,0.0018229337874799967,-0.041845716536045074
1782969679525756200,9.107756103515625,0.011154117062687874,0.0048980857245624065,-0.03420004993677139
1782969679535682300,9.117682373046875,0.013820474036037922,0.001885784324258566,-0.025318140164017677
1782969679545609200,9.127609130859375,0.010587397031486034,0.0046453517861664295,-0.012652412056922913
1782969679555535400,9.137535400390625,0.008883772417902946,0.0021576930303126574,0.004483964294195175
1782969679565461200,9.147461181640624,-0.00024154871061909944,0.009076585993170738,0.015873504802584648
1782969679575387100,9.15738720703125,-0.007197991944849491,0.009220129810273647,0.02949504181742668
1782969679585314300,9.167314208984376,-0.009974869899451733,0.011446799151599407,0.03207031637430191
1782969679595240200,9.177240234375,-0.010510964319109917,0.0080885523930192,0.03027481585741043
1782969679605166000,9.187166015625,-0.006748982705175877,0.009928264655172825,0.027520041912794113
1782969679615093200,9.19709326171875,-0.0010958907660096884,0.004973187111318111,0.020298613235354424
1782969679625019400,9.207019287109375,0.0023608922492712736,0.0032674323301762342,0.008580705150961876
1782969679634945300,9.2169453125,0.0035539884120225906,0.001110005541704595,-0.0049252500757575035
1782969679644872200,9.2268720703125,0.00035366779775358737,0.001788312685675919,-0.0146489841863513
1782969679654798300,9.23679833984375,-0.0033302828669548035,-0.0020959076937288046,-0.013803962618112564
1782969679664724200,9.24672412109375,-0.009816145524382591,-0.0034029872622340918,-0.012397813610732555
1782969679674650000,9.256650146484375,-0.011893677525222301,0.0076118470169603825,-0.0025619608350098133
1782969679684577300,9.266577392578125,-0.007861651480197906,0.012379970401525497,0.011449461802840233
1782969679694503400,9.27650341796875,-0.00418329332023859,0.007391603663563728,0.02738102339208126
1782969679704429000,9.286428955078126,0.004581702407449484,0.01374910119920969,0.04026912525296211
1782969679714356200,9.296356201171875,0.00908404216170311,0.01836515963077545,0.04842958226799965
1782969679724282400,9.306282470703126,0.016294019296765327,0.013884389773011208,0.05656580626964569
1782969679734208000,9.3162080078125,0.015457785688340664,0.012524314224720001,0.05312234163284302
1782969679744135200,9.32613525390625,0.008709868416190147,0.012709137052297592,0.04435361549258232
1782969679754061300,9.336061279296874,-0.0017728663515299559,0.012808472849428654,0.03211532533168793
1782969679763987200,9.3459873046875,-0.00660543842241168,0.012112056836485863,0.02123178541660309
1782969679773914000,9.3559140625,-0.006580937188118696,0.011681689880788326,0.010522149503231049
1782969679783840300,9.36584033203125,-0.00815246906131506,0.007297860458493233,0.008700015023350716
1782969679793766100,9.37576611328125,-0.004256263840943575,0.011686483398079872,0.008078699000179768
1782969679803693300,9.385693359375,0.0021252024453133345,0.005323126446455717,0.005846171174198389
1782969679813619200,9.395619140625,0.009031311608850956,0.006917827297002077,0.007849134504795074
1782969679823545300,9.40554541015625,0.005258677992969751,0.009208411909639835,0.006806507240980864
1782969679833471200,9.41547119140625,-0.0004237089306116104,0.011726430617272854,0.004403004422783852
1782969679843398100,9.425398193359374,-0.007441671099513769,0.010774350725114346,-0.002838130807504058
1782969679853324300,9.43532421875,-0.013448962941765785,0.006886135786771774,-0.010630273260176182
1782969679863250200,9.445250244140626,-0.013097958639264107,0.00040506679215468466,-0.015021559782326221
1782969679873177300,9.45517724609375,-0.009879262186586857,-0.002447711303830147,-0.014622085727751255
1782969679883103200,9.465103271484375,-0.011023356579244137,-0.008742358535528183,-0.01721573807299137
1782969679893029000,9.475029052734374,-0.00869309064000845,-0.009323992766439915,-0.010455836541950703
1782969679902956300,9.484956298828125,-0.0075484635308384895,-0.007278152741491795,0.006376939360052347
1782969679912882200,9.494882080078124,-0.007586546707898378,-0.0016157397767528892,0.02238946221768856
1782969679922808000,9.50480810546875,-0.003358512418344617,0.0046727824956178665,0.03491244465112686
1782969679932735200,9.5147353515625,-0.006452306639403105,0.00971387978643179,0.041493114084005356
1782969679942661400,9.524661376953125,-0.004990231245756149,0.011360245756804943,0.03694416955113411
1782969679952587000,9.5345869140625,-0.007956726476550102,0.011975436471402645,0.019159579649567604
1782969679962514200,9.54451416015625,-0.011117898859083652,0.0037180392537266016,-0.003483414649963379
1782969679972440300,9.5544404296875,-0.010777812451124191,-0.00236249016597867,-0.01956278271973133
1782969679982366200,9.5643662109375,-0.009781790897250175,-0.003906058380380273,-0.028330175206065178
1782969679992292000,9.5742919921875,-0.0009797769598662853,-0.0007637945818714797,-0.023258185014128685
1782969680002219300,9.58421923828125,0.00914369709789753,0.0033190976828336716,-0.01152669358998537
1782969680012145400,9.5941455078125,0.014478807337582111,0.0029353362042456865,0.0035744947381317616
1782969680022071000,9.604071044921875,0.018501512706279755,0.007059773895889521,0.019700733944773674
1782969680031998200,9.613998291015625,0.021287444978952408,0.0033955303952097893,0.03790104389190674
1782969680041924400,9.62392431640625,0.02075108513236046,0.00270630419254303,0.05479933321475983
1782969680051850200,9.633850341796874,0.020248014479875565,0.005271460860967636,0.06407059729099274
1782969680061777200,9.643777099609375,0.016354471445083618,0.009560215286910534,0.07121612131595612
1782969680071703300,9.653703369140626,0.005345496814697981,0.009060340002179146,0.06522268056869507
1782969680081629200,9.663629150390625,-0.0004410194815136492,0.012474512681365013,0.05151458829641342
1782969680091556000,9.67355615234375,-0.0013081447687000036,0.0057739997282624245,0.026328809559345245
1782969680101482200,9.683482177734374,0.0006199838826432824,0.01435230765491724,0.01625407114624977
1782969680111408000,9.693408203125,0.0012665993999689817,0.012915798462927341,0.003111104713752866
1782969680121334000,9.703333984375,0.005745769944041967,0.0016841830220073462,-0.00541340745985508
1782969680131261200,9.71326123046875,0.006039516534656286,-0.002371544949710369,-0.004546548705548048
1782969680141187000,9.72318701171875,0.0049164616502821445,0.0014836470363661647,0.0025888588279485703
1782969680151113000,9.733113037109375,-0.00010279801790602505,0.008080030791461468,0.011745605617761612
1782969680161040100,9.7430400390625,0.001496430253610015,0.01695821061730385,0.02190263569355011
1782969680170966300,9.75296630859375,-0.002112952060997486,0.015618907287716866,0.024219585582613945
1782969680180892200,9.76289208984375,-0.0005379585199989378,0.01660427637398243,0.018686069175601006
1782969680190819000,9.772819091796874,0.0026905916165560484,0.014448448084294796,0.003537210635840893
1782969680200745200,9.7827451171875,0.006716225761920214,0.008757539093494415,-0.004839762579649687
1782969680210671000,9.792671142578126,0.010583136230707169,0.007783088367432356,-0.007589476183056831
1782969680220598300,9.802598388671875,0.01059085875749588,0.003919374197721481,-0.0012258529895916581
1782969680230524200,9.812524169921875,0.009308813139796257,0.006367618218064308,0.0065282066352665424
1782969680240450000,9.822449951171874,0.006343649700284004,0.008796953596174717,0.01599787548184395
1782969680250376200,9.832376220703125,0.001466602785512805,0.011993013322353363,0.021280787885189056
1782969680260303000,9.84230322265625,0.00222001108340919,0.011394334957003593,0.024745825678110123
1782969680270229000,9.85222900390625,-0.002119077369570732,0.009309079498052597,0.016039686277508736
1782969680280155100,9.862155029296876,0.0019920445047318935,0.004430967383086681,0.006069077644497156
1782969680290082300,9.872082275390625,0.0034884747583419085,-0.0026051041204482317,-0.00315957423299551
1782969680300008000,9.882008056640625,0.0076422072015702724,0.0010823087068274617,-0.002270611235871911
1782969680309934000,9.89193408203125,0.00942199770361185,0.004733236040920019,0.006533266510814428
1782969680319861200,9.901861328125,0.009066998027265072,0.007957525551319122,0.01270141452550888
1782969680329787100,9.911787109375,0.009387376718223095,0.00535428524017334,0.014275874942541122
1782969680339713000,9.921713134765625,0.007369232829660177,0.0006868292111903429,0.008238488808274269
1782969680349640200,9.93164013671875,0.0054765245877206326,-0.009487511590123177,0.014427142217755318
1782969680359566300,9.94156640625,0.0009443568997085094,0.004511395003646612,0.026855848729610443
1782969680369492000,9.951491943359375,-0.009351157583296299,0.009320797398686409,0.03170786052942276
1782969680379419100,9.961419189453125,-0.0073316823691129684,0.0052118063904345036,0.038479216396808624
1782969680389345300,9.97134521484375,-0.0036165728233754635,0.011086473241448402,0.03610846772789955
1782969680399271000,9.98127099609375,-0.0023576964158564806,0.003917776048183441,0.03602937236428261
1782969680409197000,9.991197021484375,0.0007358313887380064,0.0049164616502821445,0.03605547174811363
1782969680419124200,10.001124267578126,0.004653341136872768,0.008757539093494415,0.03093634359538555
1782969680429050000,10.011050048828125,0.005359345115721226,0.0051630702801048756,0.028479577973484993
1782969680438976000,10.02097607421875,0.0023664848413318396,0.003837615018710494,0.028920864686369896
1782969680448903200,10.030903076171874,-0.0020879183430224657,0.005037635564804077,0.029760558158159256
1782969680458829000,10.0408291015625,-0.00038482676609419286,-0.0043619913049042225,0.023691214621067047
1782969680468755000,10.0507548828125,-0.0004575310740619898,0.00036991306114941835,0.022891201078891754
1782969680478682000,10.06068212890625,0.004787032026797533,-0.001793905277736485,0.02015027590095997
1782969680488608000,10.07060791015625,0.007772169075906277,0.0001174454009742476,0.021620607003569603
1782969680498534100,10.0805341796875,0.010499512776732445,0.0008532768115401268,0.025202026590704918
1782969680508461300,10.09046142578125,0.00999271310865879,0.002764361212030053,0.022643527016043663
1782969680518387200,10.10038720703125,0.008344748988747597,0.0009539442835375667,0.018872756510972977
1782969680528313000,10.11031298828125,0.008203601464629173,-0.0016700683627277613,0.015801599249243736
1782969680538239000,10.120239013671876,0.011168764904141426,0.0025044367648661137,0.010039051994681358
1782969680548166100,10.130166259765625,0.013469203375279903,0.00039734362508170307,0.011515242047607899
1782969680558092000,10.140092041015626,0.015634886920452118,0.0014144048327580094,0.018669825047254562
1782969680568018200,10.15001806640625,0.013618074357509613,0.009161540307104588,0.01690654456615448
1782969680577945300,10.1599453125,0.014213024638593197,0.010746920481324196,0.011543205007910728
1782969680587871000,10.16987109375,0.015247129835188389,0.005350290797650814,0.007643272168934345
1782969680597797000,10.179797119140625,0.014094247482717037,0.0046970173716545105,0.004494883120059967
1782969680607724300,10.189724365234374,0.016350744292140007,0.0033459956757724285,0.005094893276691437
1782969680617650000,10.19964990234375,0.016322514042258263,-0.00239205127581954,0.005403287708759308
1782969680627576000,10.209576171875,0.012346414849162102,-0.00048655952559784055,0.007271228823810816
1782969680637503200,10.219503173828125,0.008243548683822155,0.00024740767548792064,0.01299329660832882
1782969680647429000,10.22942919921875,-0.00012303804396651685,0.001047154888510704,0.010120544582605362
1782969680657355000,10.23935498046875,-0.0075934710912406445,0.0017845842521637678,-0.0014226606581360102
1782969680667281200,10.24928125,-0.02076626382768154,0.0036698358599096537,-0.009018528275191784
1782969680677208000,10.2592080078125,-0.03021276369690895,0.007953796535730362,-0.016500413417816162
1782969680687134000,10.269134033203125,-0.03141198307275772,0.00765925133600831,-0.02978079952299595
1782969680697060000,10.27906005859375,-0.033196836709976196,0.005588643718510866,-0.04296637699007988
1782969680706987300,10.2889873046875,-0.02720418944954872,-0.004228833597153425,-0.05615488067269325
1782969680716913200,10.2989130859375,-0.016890300437808037,-0.012388492934405804,-0.0689375251531601
1782969680726839000,10.308839111328124,-0.0038778288289904594,0.0037433390971273184,-0.06203807145357132
1782969680736766200,10.31876611328125,-0.002276203827932477,0.008863000199198723,-0.03940919041633606
1782969680746692000,10.328692138671874,-0.00734233483672142,0.019992349669337273,-0.005014199763536453
1782969680756618000,10.338617919921875,-0.00691995769739151,0.01353391818702221,0.019161177799105644
1782969680766545200,10.348545166015626,-0.010366886854171753,0.007543137297034264,0.041480064392089844
1782969680776471000,10.358470947265625,-0.0032674323301762342,0.01176078524440527,0.0611826628446579
1782969680786397200,10.368397216796875,0.007093329448252916,0.004591555800288916,0.07839440554380417
1782969680796323000,10.378322998046874,0.020197147503495216,0.00101120222825557,0.08488160371780396
1782969680806250000,10.38825,0.028611937537789345,0.008863799273967743,0.08759775757789612
1782969680816176000,10.398176025390624,0.027003919705748558,0.018558237701654434,0.07802875339984894
1782969680826102000,10.40810205078125,0.028495291247963905,0.020188625901937485,0.06710314005613327
1782969680836029000,10.41802880859375,0.021973742172122,0.015578693710267544,0.058463044464588165
1782969680845955000,10.427955078125,0.013280118815600872,0.018448514863848686,0.041849181056022644
1782969680855881200,10.437881103515625,0.00512951472774148,0.018740132451057434,0.01997850090265274
1782969680865808100,10.44780810546875,0.0032538501545786858,0.01480424590408802,-0.011755991727113724
1782969680875734000,10.457734130859375,0.0030740867368876934,0.005407015793025494,-0.04116687923669815
1782969680885660200,10.46766015625,0.014013553969562054,0.0009259810904040933,-0.060876134783029556
1782969680895587300,10.47758740234375,0.017768876627087593,-0.002180329989641905,-0.06815961003303528
1782969680905513000,10.487512939453126,0.01774490810930729,-0.0019478360190987587,-0.06124791130423546
1782969680915439000,10.497439208984375,0.01986371912062168,-0.0034115093294531107,-0.04517626762390137
1782969680925365200,10.507365234375,0.011937086470425129,0.006883472204208374,-0.018452510237693787
1782969680935292000,10.5172919921875,0.006389988586306572,0.01708764024078846,0.009206813760101795
1782969680945218000,10.527218017578125,-0.001532382913865149,0.009311210364103317,0.03050970658659935
1782969680955144200,10.537144287109374,0.006292783189564943,0.012920858338475227,0.03591832146048546
1782969680965071000,10.547071044921875,0.006158826407045126,0.012367187067866325,0.027830831706523895
1782969680974997000,10.5569970703125,0.010518686845898628,0.015573366545140743,0.02093723975121975
1782969680984923100,10.566923095703125,0.017360081896185875,0.01119273342192173,0.011362909339368343
1782969680994850000,10.57685009765625,0.015371499583125114,0.010076336562633514,0.0033366745337843895
1782969681004776200,10.586776123046874,0.00869095977395773,0.00706856232136488,-0.005419000051915646
1782969681014702000,10.5967021484375,0.0015326491557061672,0.01031655352562666,-0.016289757564663887
1782969681024629000,10.60662890625,0.0024117587599903345,0.01143028773367405,-0.02930888719856739
1782969681034555100,10.61655517578125,0.003968908917158842,0.012834572233259678,-0.03614788502454758
1782969681044481000,10.62648095703125,0.017112407833337784,0.015595471486449242,-0.03364957123994827
1782969681054408200,10.636408203125,0.034272752702236176,0.009543437510728836,-0.03062342293560505
1782969681064334000,10.646333984375,0.04270511865615845,0.009091232903301716,-0.03303145244717598
1782969681074260200,10.65626025390625,0.04465721547603607,0.011298727244138718,-0.02966228872537613
1782969681084186000,10.66618603515625,0.040641967207193375,-0.0016847157385200262,-0.00914715975522995
1782969681094113000,10.676113037109374,0.030541930347681046,0.008664860390126705,0.027523502707481384
1782969681104039200,10.6860390625,0.01392673421651125,0.018732141703367233,0.0512208417057991
1782969681113965000,10.695965087890626,0.017649833112955093,0.018985409289598465,0.062251921743154526
1782969681123892000,10.70589208984375,0.019157715141773224,0.019240539520978928,0.06021220609545708
1782969681133818000,10.715818115234375,0.021074125543236732,0.012710735201835632,0.05126052349805832
1782969681143744000,10.725743896484374,0.02111034467816353,0.0042719766497612,0.03747520223259926
1782969681153671000,10.7356708984375,0.018002435564994812,0.004870655480772257,0.01326680276542902
1782969681163597000,10.74559716796875,0.01780323125422001,-0.002547047333791852,-0.008376174606382847
1782969681173523200,10.755523193359375,0.0201066005975008,-0.007951932959258556,-0.028296619653701782
1782969681183449900,10.765449951171876,0.015915583819150925,-0.007382016163319349,-0.029580529779195786
1782969681193376000,10.7753759765625,0.008665393106639385,-0.0003400856803636998,-0.016828248277306557
1782969681203302100,10.78530224609375,-0.0009800433181226254,0.005037901923060417,-0.003610979998484254
1782969681213228000,10.79522802734375,-0.001424791174940765,0.0090568782761693,0.005546565633267164
1782969681223155000,10.805155029296875,-0.00021518341964110732,0.020195282995700836,0.00962945818901062
1782969681233081000,10.8150810546875,0.003852795111015439,0.01954866759479046,0.01113600842654705
1782969681243007200,10.82500732421875,0.012591958045959473,0.010130930691957474,0.0022985744290053844
1782969681252934000,10.834933837890626,0.015243135392665863,0.007801463827490807,-0.01335894875228405
1782969681262860000,10.844860107421875,0.015082013793289661,0.0054485611617565155,-0.025437450036406517
1782969681272786200,10.8547861328125,0.01185080036520958,0.006579605862498283,-0.02238999493420124
1782969681282713000,10.864713134765625,0.01818219944834709,0.004226702731102705,-0.010173275135457516
1782969681292639000,10.874638916015625,0.020139090716838837,0.007799333427101374,0.003960120491683483
1782969681302565000,10.884565185546874,0.020186761394143105,0.014304104261100292,0.014136059209704399
1782969681312492000,10.894491943359375,0.01769031397998333,0.016163524240255356,0.015917979180812836
1782969681322418000,10.90441796875,0.012685967609286308,0.010960238985717297,0.005599828902631998
1782969681332344000,10.914343994140625,0.008666724897921085,0.003418699838221073,-0.008155131712555885
1782969681342271000,10.92427099609375,0.0016106797847896814,-0.0026847326662391424,-0.011138138361275196
1782969681352197000,10.934197021484374,-0.00011398329661460593,-0.005726861767470837,-0.022911440581083298
1782969681362123000,10.944123046875,-0.007999337278306484,-0.005342833697795868,-0.025766616687178612
1782969681372049200,10.954049072265626,-0.01894226484000683,-0.013460681773722172,-0.029164543375372887
1782969681381976000,10.96397607421875,-0.012496350333094597,-0.006584932096302509,-0.020833110436797142
1782969681391902000,10.97390185546875,-0.01420237123966217,-0.0029060414526611567,-0.015682555735111237
1782969681401828000,10.983828125,-0.023996945470571518,0.018381670117378235,0.000592287047766149
1782969681411755000,10.993755126953126,-0.021529261022806168,0.008788165636360645,0.008085357025265694
1782969681421681200,11.00368115234375,-0.02484649419784546,0.006172408349812031,0.01191098801791668
1782969681431607000,11.01360693359375,-0.025347433984279633,-0.0003225088003091514,0.017234647646546364
1782969681441534000,11.023533935546874,-0.014649782329797745,-0.009307481348514557,0.0259261392056942
1782969681451460000,11.033460205078125,-0.007209443487226963,-0.007836351171135902,0.029375465586781502
1782969681461386000,11.043385986328126,-0.003984355367720127,-0.013129384256899357,0.028331773355603218
1782969681471312100,11.05331201171875,-0.005599828902631998,-0.025186579674482346,0.020861605182290077
1782969681481239000,11.063239013671875,-0.0003350256592966616,-0.00896926037967205,0.008474977687001228
1782969681491165200,11.073165283203124,0.002682602033019066,-0.006641124840825796,0.0035843485966324806
1782969681501091000,11.083091064453125,0.0006900250446051359,-0.005870938766747713,0.0036850159522145987
1782969681511018000,11.09301806640625,0.001555552356876433,-0.007281614933162928,0.002508165081962943
1782969681520944000,11.102944091796875,0.010721087455749512,-0.012240953743457794,-0.007539142854511738
1782969681530870000,11.1128701171875,0.02395300380885601,-0.01907995156943798,-0.011518970131874084
1782969681540797000,11.122796875,0.047622911632061005,-0.02943219058215618,-0.023203322663903236
1782969681550723000,11.13272314453125,0.06749781966209412,-0.04662848636507988,-0.040056340396404266
1782969681560649200,11.142649169921874,0.049015745520591736,-0.060816746205091476,-0.0809614285826683
1782969681570576100,11.152576171875,0.032285235822200775,-0.05188104137778282,-0.11593778431415558
1782969681580502000,11.162501953125,0.0329853817820549,-0.04581223055720329,-0.13810008764266968
1782969681590428200,11.17242822265625,0.04248780384659767,-0.058576226234436035,-0.1532239019870758
1782969681600355000,11.18235498046875,0.04524790495634079,-0.06949785351753235,-0.1671096235513687
1782969681610281000,11.192281005859375,0.05038061738014221,-0.0638149306178093,-0.16540519893169403
1782969681620207000,11.20220703125,0.051297809928655624,-0.053950317203998566,-0.1657322347164154
1782969681630133200,11.21213330078125,0.05360916629433632,-0.05182564631104469,-0.16964495182037354
1782969681640060200,11.22206005859375,0.05527869984507561,-0.05709897354245186,-0.17274168133735657
1782969681649986000,11.231986083984374,0.04760267212986946,-0.06024762615561485,-0.1821463704109192
1782969681659912200,11.241912109375,0.024203872308135033,-0.05326428636908531,-0.18307660520076752
1782969681669839000,11.251839111328126,0.007673365995287895,-0.04441859573125839,-0.17268575727939606
1782969681679765000,11.261764892578125,-0.007083475589752197,-0.02299399860203266,-0.12279249727725983
1782969681689691100,11.271691162109375,-0.023022761568427086,0.025011876598000526,-0.06767571717500687
1782969681699618000,11.2816181640625,-0.03734550625085831,0.0280928872525692,-0.03400297462940216
1782969681709544200,11.291544189453125,-0.0399538092315197,0.03160080313682556,-0.0017797905020415783
1782969681719470000,11.301469970703126,-0.045088913291692734,0.027899807319045067,0.016817595809698105
1782969681729397000,11.31139697265625,-0.034805119037628174,0.024087226018309593,0.025767149403691292
1782969681739323100,11.3213232421875,-0.025888055562973022,0.0120662497356534,0.028593027964234352
1782969681749249000,11.3312490234375,-0.02273806929588318,-0.005957491230219603,0.024890968576073647
1782969681759175200,11.341175048828125,-0.005135905928909779,-0.030418358743190765,0.031327564269304276
1782969681769102000,11.35110205078125,0.005880525801330805,-0.02623266912996769,0.041842520236968994
1782969681779028200,11.3610283203125,0.015792811289429665,-0.027210582047700882,0.04740559682250023
1782969681788954000,11.3709541015625,0.014341388829052448,-0.015614645555615425,0.054599329829216
1782969681798881000,11.380881103515625,0.008490956388413906,-0.004206995479762554,0.05751442536711693
1782969681808807200,11.39080712890625,0.006338057108223438,0.006601709872484207,0.05802495405077934
1782969681818733000,11.400733154296875,0.010916563682258129,-0.011897139251232147,0.044986650347709656
1782969681828660000,11.410659912109375,0.02165229804813862,-0.027952538803219795,0.03299896419048309
1782969681838586000,11.420586181640624,0.02311357483267784,-0.022170016542077065,0.033361952751874924
1782969681848512300,11.43051220703125,0.0123030049726367,-0.014789332635700703,0.047267913818359375
1782969681858439000,11.44043896484375,0.008520783856511116,-0.01672145538032055,0.05127890035510063
1782969681868365000,11.450364990234375,0.011982893571257591,-0.0075604477897286415,0.05819832533597946
1782969681878291200,11.460291259765626,0.003709783311933279,0.0030975225381553173,0.056164201349020004
1782969681888217000,11.470217041015625,-0.015123559162020683,0.008162056095898151,0.03760303556919098
1782969681898144000,11.48014404296875,-0.03014032542705536,-0.012050537392497063,0.023209981620311737
1782969681908070100,11.490070068359374,-0.025668345391750336,-0.039018239825963974,0.015489211305975914
1782969681917996300,11.499996337890625,-0.019100723788142204,-0.027269437909126282,0.009220928885042667
1782969681927923000,11.5099228515625,-0.014998656697571278,-0.015367238782346249,-0.0023254721891134977
1782969681937849000,11.51984912109375,-0.014561898075044155,-0.01872175559401512,-0.017045563086867332
1782969681947775200,11.529775146484376,-0.015026086941361427,-0.02514743059873581,-0.027272900566458702
1782969681957702100,11.5397021484375,-0.019575033336877823,-0.03560912609100342,-0.024862205609679222
1782969681967628000,11.5496279296875,-0.016822390258312225,-0.0474143885076046,-0.02532373182475567
1782969681977554200,11.55955419921875,-0.0021318604703992605,-0.07652699947357178,-0.030313430353999138
1782969681987481000,11.569481201171875,-0.0013494236627593637,-0.08376041054725647,-0.03892795741558075
1782969681997407000,11.579406982421874,-0.013589312322437763,-0.07569955289363861,-0.04387184977531433
1782969682007333000,11.5893330078125,-0.02371811307966709,-0.0859423354268074,-0.03287086263298988
1782969682017259000,11.599259033203126,-0.03307672590017319,-0.07241854071617126,-0.026667563244700432
1782969682027186200,11.609186279296875,-0.017246365547180176,-0.06862939149141312,-0.030713703483343124
1782969682037112000,11.619112060546875,-0.0020010992884635925,-0.06674627214670181,-0.052087701857089996
1782969682047038000,11.629037841796874,-0.0006404902087524533,-0.06324448436498642,-0.06258215755224228
1782969682056965000,11.638965087890625,-0.014105166308581829,-0.04947886988520622,-0.06467460095882416
1782969682066891300,11.648891357421874,-0.036375317722558975,-0.04712410271167755,-0.048171523958444595
1782969682076817200,11.658817138671875,-0.06496541947126389,-0.013106747530400753,-0.014650315046310425
1782969682086744600,11.66874462890625,-0.0760662704706192,0.014156298711895943,0.022719694301486015
1782969682096670700,11.678670654296875,-0.09140074998140335,0.027651866897940636,0.049009621143341064
1782969682106596400,11.688596435546875,-0.09179303795099258,0.037930071353912354,0.055398277938365936
1782969682116523500,11.6985234375,-0.07790332287549973,0.02719566784799099,0.05756848677992821
1782969682126449700,11.70844970703125,-0.06004868820309639,0.014829812571406364,0.0578148290514946
1782969682136375600,11.71837548828125,-0.03502509370446205,0.0011105381418019533,0.059658002108335495
1782969682146301400,11.728301513671875,-0.0010634001810103655,-0.004335892386734486,0.06800408661365509
1782969682156228600,11.738228515625,0.027453728020191193,-0.007889081723988056,0.06847067177295685
1782969682166154500,11.748154541015625,0.049851179122924805,-0.02220144309103489,0.059914734214544296
1782969682176080400,11.758080322265625,0.08177955448627472,-0.011648666113615036,0.02678474225103855
1782969682186007600,11.768007568359375,0.17038585245609283,0.01769430935382843,-0.02485874481499195
1782969682195933700,11.77793359375,0.18506519496440887,-0.10288696736097336,-0.11365945637226105
1782969682205859600,11.787859619140624,0.17673562467098236,-0.1289862096309662,-0.18431338667869568
1782969682215786800,11.797786865234375,0.1656467616558075,-0.11506427079439163,-0.23793986439704895
1782969682225712600,11.807712646484376,0.13826893270015717,-0.11066020280122757,-0.26897740364074707
1782969682235638500,11.817638427734375,0.12366388738155365,-0.07265609502792358,-0.2707686424255371
1782969682245565700,11.827565673828126,0.11033423244953156,-0.028789836913347244,-0.23715075850486755
1782969682255491600,11.83749169921875,0.07449313998222351,0.010778078809380531,-0.19988594949245453
