time,seconds_elapsed,z,y,x
1782969985189976000,0.07797607421875,0.0005311453714966774,0.0024725436232984066,0.0019911606796085835
1782969985199902000,0.08790185546875,0.0012230314314365387,-0.0018165938090533018,0.0028549274429678917
1782969985209827800,0.097827880859375,-0.00010055958409793675,-0.0005228300578892231,-0.00031636469066143036
1782969985219755000,0.107755126953125,0.00092552654678002,0.0006272760219871998,0.002081344136968255
1782969985229681000,0.117680908203125,0.00039662275230512023,-0.0023895527701824903,0.0021508526988327503
1782969985239606800,0.127606689453125,0.000539052824024111,-0.001329654362052679,-0.0013769002398476005
1782969985249534000,0.137533935546875,0.00023705036437604576,-0.000254802405834198,-0.0018805039580911398
1782969985259460000,0.147460205078125,0.00035785927320830524,0.00006260909140110016,0.00220328476279974
1782969985269387000,0.157386962890625,0.0005911521730013192,-0.00037920940667390823,0.00023227918427437544
1782969985279313000,0.16731298828125,0.0018081151647493243,-0.0005860566161572933,0.0029444359242916107
1782969985289239000,0.177239013671875,-0.0008454585913568735,-0.0024044630117714405,-0.0003738624509423971
1782969985299166000,0.187166015625,-0.0016316489782184362,-0.001076654065400362,0.0004801219329237938
1782969985309092000,0.197092041015625,0.0011255216086283326,0.00005492335185408592,-0.0008091143099591136
1782969985319018000,0.20701806640625,0.0019203124102205038,-0.001023467630147934,-0.0008522901916876435
1782969985328945000,0.21694482421875,-0.0007982424576766789,-0.0007867123931646347,-0.0001777114812284708
1782969985338871000,0.22687109375,0.000534472637809813,-0.0005381200462579727,-0.002343536354601383
1782969985348797000,0.236796875,-0.002050391398370266,0.0003353971987962723,0.0006655693287029862
1782969985358723800,0.246723876953125,-0.0011261911131441593,0.00007447786629199982,-0.0008501916890963912
1782969985368650000,0.25664990234375,-0.0022191526368260384,0.0014630500227212906,-0.0014757682802155614
1782969985378576600,0.26657666015625,0.001762852305546403,0.0006022457964718342,0.0014352229190990329
1782969985388502800,0.276502685546875,-0.001681946450844407,0.002511998638510704,0.0002605024492368102
1782969985398428700,0.2864287109375,0.0003910487866960466,0.0009284429252147675,-0.0008525628945790231
1782969985408355800,0.29635595703125,0.0014256868744269013,-0.0003181826323270798,0.00006276555359363556
1782969985418281700,0.30628173828125,-0.0015017809346318245,0.00004263874143362045,0.0011699392925947905
1782969985428207600,0.31620751953125,0.0009608441032469273,0.0012144297361373901,-0.0019712592475116253
1782969985438134800,0.326134765625,0.0011136664543300867,-0.0014723599888384342,0.00014416070189327002
1782969985448060700,0.336060791015625,-0.00006398343248292804,0.0004006410017609596,0.0005942350253462791
1782969985457986800,0.34598681640625,-0.0018038563430309296,0.003062587231397629,0.0006702975369989872
1782969985467913700,0.355913818359375,-0.00045549788046628237,-0.0010480019263923168,0.0005192963872104883
1782969985477839600,0.365839599609375,-0.0008903936250135303,-0.0017027603462338448,-0.0030675139278173447
1782969985487766800,0.375766845703125,0.0008473189081996679,-0.0008308412507176399,0.00008327187970280647
1782969985497693000,0.38569287109375,0.0008372908341698349,0.001329934224486351,0.00003939471207559109
1782969985507618600,0.39561865234375,0.0014990863855928183,-0.00018460536375641823,0.00008493475615978241
1782969985517545700,0.405545654296875,-0.0010180738754570484,-0.00020601926371455193,-0.00047084002289921045
1782969985527471900,0.415471923828125,0.002625130582600832,-0.0018987245857715607,0.002232534810900688
1782969985537397500,0.4253974609375,0.0011128077749162912,-0.00015298649668693542,-0.00028371764346957207
1782969985547324700,0.43532470703125,0.0008643347537145019,0.0008475631475448608,-0.0006536307628266513
1782969985557250800,0.445250732421875,0.00012518279254436493,0.0015559974126517773,-0.0025360118597745895
1782969985567176700,0.4551767578125,0.00010254592052660882,0.0002092365175485611,0.0001740207662805915
1782969985577104000,0.465103759765625,-0.0005460504908114672,0.0003826445899903774,-0.0019118644995614886
1782969985587029800,0.47502978515625,-0.00005256678559817374,0.001836996991187334,0.0006106815999373794
1782969985596956000,0.484955810546875,0.0012775316135957837,0.00018294714391231537,-0.0015122191980481148
1782969985606882800,0.4948828125,-0.0005398094654083252,0.002689514309167862,0.000408985186368227
1782969985616808700,0.50480859375,-0.0012954769190400839,-0.0032723871991038322,-0.0006884344038553536
1782969985626735600,0.514735595703125,0.0004089462454430759,-0.0004044291563332081,0.00006470747757703066
1782969985636661800,0.524661865234375,-0.0015865417663007975,0.0008879597298800945,-0.004057728219777346
1782969985646588000,0.534587890625,0.0002691489935386926,0.0015612072311341763,-0.00189923623111099
1782969985656514600,0.5445146484375,0.001566943945363164,-0.00023491354659199715,-0.0018782108090817928
1782969985666440700,0.554440673828125,0.002019148785620928,0.001567247323691845,0.003597780829295516
1782969985676366800,0.564366943359375,0.0012716363416984677,0.002347337082028389,-0.0021262371446937323
1782969985686293800,0.574293701171875,-0.0030456141103059053,0.001569161657243967,-0.0011770864948630333
1782969985696219600,0.5842197265625,-0.0025202727410942316,0.0013584587723016739,-0.00028297107201069593
1782969985706145800,0.594145751953125,-0.0006190420826897025,-0.0003976295702159405,-0.00017244985792785883
1782969985716072700,0.60407275390625,0.0008372615557163954,0.0011916570365428925,0.0018239144701510668
1782969985725998600,0.61399853515625,-0.00045117578702047467,-0.000254971906542778,0.000532813835889101
1782969985735925800,0.62392578125,0.0017643930623307824,-0.0014920339453965425,0.0010217467788606882
1782969985745851600,0.6338515625,-0.000643370789475739,-0.0003269012086093426,-0.0004933255258947611
1782969985755777800,0.64377783203125,-0.0011305911466479301,0.0018523195758461952,-0.0005742802168242633
1782969985765704700,0.65370458984375,-0.00018223939696326852,-0.000228141900151968,-0.00009997119195759296
1782969985775630600,0.663630615234375,0.0027619025204330683,-0.001677949447184801,-0.0005651991814374924
1782969985785556700,0.673556640625,-0.002050429582595825,-0.0008699460886418819,-0.0002930241171270609
1782969985795484000,0.68348388671875,0.0018661681097000837,-0.0012965546920895576,-0.000856480619404465
1782969985805409800,0.693409912109375,0.0012930558295920491,-0.000047532375901937485,0.0002220995957031846
1782969985815335700,0.703335693359375,-0.0002913804491981864,0.001079663634300232,-0.00026725034695118666
1782969985825262800,0.713262939453125,0.001827696803957224,-0.002016527345404029,0.0008001446258276701
1782969985835188700,0.723188720703125,0.0020339793991297483,-0.002667877357453108,-0.000811017001979053
1782969985845114600,0.733114501953125,0.001390559715218842,0.00014255661517381668,-0.000915146607439965
1782969985855041800,0.743041748046875,-0.0004405359795782715,0.0007928493432700634,0.00008302961941808462
1782969985864968000,0.752968017578125,-0.003064282238483429,-0.00014538224786520004,-0.00028874771669507027
1782969985874894800,0.762894775390625,-0.00005681390757672489,0.002052473835647106,-0.0027058180421590805
1782969985884820700,0.77282080078125,0.000052642018999904394,0.0038471785373985767,-0.0016259062103927135
1782969985894747000,0.782746826171875,-0.0017918550875037909,0.0013274005614221096,-0.0009584336075931787
1782969985904673800,0.792673828125,0.0005408075521700084,0.0010096854530274868,-0.0026982766576111317
1782969985914599700,0.802599609375,0.00040621543303132057,-0.0031179399229586124,0.0003652423620223999
1782969985924525800,0.81252587890625,0.001359627116471529,-0.00022414932027459145,-0.000731979962438345
1782969985934452700,0.82245263671875,-0.0034836209379136562,-0.0009774300269782543,0.0005318952025845647
1782969985944379000,0.83237890625,-0.0022817363496869802,0.0012042312882840633,0.000016040867194533348
1782969985954304800,0.8423046875,0.003101482754573226,-0.0012233308516442776,0.0016224568244069815
1782969985964231700,0.852231689453125,-0.0004671530914492905,0.0034220214001834393,-0.0018641535425558686
1782969985974157800,0.86215771484375,-0.0018785776337608695,0.0014293920248746872,-0.0009504783083684742
1782969985984083700,0.872083740234375,0.0013710116036236286,-0.000915521290153265,0.0010239894036203623
1782969985994010600,0.8820107421875,-0.0012175203301012516,0.00016024289652705193,-0.0004985696286894381
1782969986003936800,0.891936767578125,-0.0032399247866123915,0.0007778299041092396,0.0012998630991205573
1782969986013863700,0.90186376953125,-0.0009245650726370513,0.001429751981049776,0.002131875604391098
1782969986023789600,0.91178955078125,0.0005750608979724348,-0.0005324650555849075,0.0007086822297424078
1782969986033715700,0.9217158203125,-0.0010780313750728965,-0.0009001269936561584,-0.0003596897004172206
1782969986043643000,0.931642822265625,0.0035348297096788883,0.0012722136452794075,-0.0007751428638584912
1782969986053568800,0.94156884765625,0.0005643363110721111,-0.00005992036312818527,-0.0029201356228441
1782969986063494700,0.95149462890625,-0.000489210186060518,0.0007363646291196346,-0.00044312956742942333
1782969986073421800,0.961421875,-0.0006052515818737447,0.0010265321470797062,-0.0010319241555407643
1782969986083347700,0.97134765625,0.0013319316785782576,-0.0009229020215570927,-0.0003759876126423478
1782969986093273600,0.981273681640625,0.0012512936955317855,0.000848917756229639,-0.0023338263854384422
1782969986103200800,0.99120068359375,0.0016672795172780752,-0.0008152914233505726,0.00047314539551734924
1782969986113126700,1.001126708984375,0.0022289848420768976,-0.0003925771452486515,0.0029752415139228106
1782969986123053800,1.0110537109375,-0.0006948995869606733,-0.00034730322659015656,0.0017579104751348495
1782969986132979700,1.020979736328125,0.001608604216016829,-0.0008716760203242302,0.002248091623187065
1782969986142905600,1.030905517578125,-0.0005291151464916766,0.001218372955918312,0.00008480588439851999
1782969986152832800,1.040832763671875,0.0016726937610656023,-0.0006406526081264019,0.0032884981483221054
1782969986162759000,1.050759033203125,-0.001570770051330328,-0.0004552965983748436,-0.001978435553610325
1782969986172684500,1.0606845703125,-0.0038262431044131517,-0.0012927486095577478,-0.0013859113678336143
1782969986182611700,1.07061181640625,-0.0004139348748140037,-0.0009771641343832016,-0.0028820752631872892
1782969986192537900,1.080537841796875,-0.0006317355437204242,-0.002298857783898711,-0.0024238736368715763
1782969986202463700,1.090463623046875,0.0014726943336427212,0.00028254417702555656,0.0014310521073639393
1782969986212390700,1.100390625,0.0006218460621312261,-0.0031451769173145294,0.0013539863284677267
1782969986222316800,1.11031689453125,-0.0036184389609843493,0.0002519511617720127,-0.0017944026039913297
1782969986232243000,1.120242919921875,0.001342129660770297,0.0025603468529880047,-0.0012072817189618945
1782969986242169900,1.130169921875,0.0015266865957528353,-0.003464256413280964,-0.00006771506741642952
1782969986252095700,1.140095703125,0.0008796199690550566,-0.00013813143596053123,0.00019125232938677073
1782969986262022700,1.150022705078125,0.00016109907301142812,-0.00038873450830578804,0.0008969900663942099
1782969986271948800,1.15994873046875,-0.0017157811671495438,0.0015750774182379246,-0.0017305182991549373
1782969986281874700,1.169874755859375,-0.0002949848130811006,0.00178866321220994,-0.0008474140777252614
1782969986291801600,1.179801513671875,0.0017647186759859324,-0.0019832770340144634,-0.0028081468772143126
1782969986301727700,1.189727783203125,0.00004857761086896062,-0.0012415866367518902,-0.0006850748904980719
1782969986311654000,1.19965380859375,-0.00006597980973310769,0.0007593724876642227,0.0005517270183190703
1782969986321580500,1.20958056640625,-0.00035093806218355894,0.0010943980887532234,-0.0016102270456030965
1782969986331506700,1.219506591796875,0.001226416788995266,-0.0003287806175649166,0.0008633583784103394
1782969986341432800,1.229432861328125,0.0018027249025180936,-0.0011815244797617197,0.0016053151339292526
1782969986351359700,1.23935986328125,0.0004824649076908827,-0.002962465165182948,-0.000017457641661167145
1782969986361285600,1.24928564453125,-0.00044085303670726717,0.0008229520171880722,0.0013740439899265766
1782969986371211800,1.259211669921875,-0.00032662658486515284,0.0016566296108067036,-0.0006655374891124666
1782969986381139700,1.2691396484375,-0.0011191833764314651,0.00028989510610699654,0.0003134404541924596
1782969986391065900,1.27906591796875,0.0016113687306642532,0.001947813667356968,0.0010975104523822665
1782969986400992800,1.28899267578125,-0.0015673802699893713,0.00015577254816889763,0.0017358701443299651
1782969986410918700,1.298918701171875,-0.0008296645246446133,0.0023771747946739197,-0.0016114991158246994
1782969986420844800,1.3088447265625,0.0003144295187667012,-0.0005363230593502522,0.0029305219650268555
1782969986430771700,1.318771728515625,0.0018173991702497005,-0.0008920044638216496,-0.0007015425944700837
1782969986440697900,1.32869775390625,-0.00005000931560061872,0.00038285087794065475,-0.0005084634176455438
1782969986450623700,1.338623779296875,0.0037582155782729387,-0.0003833035007119179,-0.0027728010900318623
1782969986460551000,1.348551025390625,0.00292198290117085,-0.001850439002737403,0.0013148850994184613
1782969986470476800,1.358476806640625,-0.0015755383064970374,-0.00025941943749785423,-0.0003511972026899457
1782969986480402700,1.368402587890625,0.00358726573176682,-0.002517247572541237,-0.0025672134943306446
1782969986490329900,1.378329833984375,0.00164492754265666,0.00025192927569150925,0.0009716232307255268
1782969986500255700,1.388255859375,0.0009551687398925424,-0.002028002869337797,0.0010003852657973766
1782969986510182000,1.398181884765625,0.0014450093731284142,0.0020148069597780704,0.0014107686001807451
1782969986520109000,1.408109130859375,-0.0030243073124438524,0.002165808342397213,0.0030400906689465046
1782969986530034700,1.41803466796875,0.00024270612630061805,-0.002253676997497678,0.0013901670463383198
1782969986539961900,1.4279619140625,-0.0003788756439462304,0.003865468315780163,0.0009526098147034645
1782969986549888000,1.437887939453125,0.0004996686475351453,-0.0013887009117752314,-0.0006837711553089321
1782969986559813600,1.447813720703125,-0.002844462636858225,-0.002074731281027198,0.002205226104706526
1782969986569740800,1.45774072265625,-0.0009087889338843524,-0.0002657463774085045,0.0004090395523235202
1782969986579667000,1.4676669921875,0.0006819171831011772,-0.0007792040705680847,0.0014572597574442625
1782969986589592800,1.4775927734375,-0.0019314801320433617,0.001509728841483593,-0.002952292561531067
1782969986599519700,1.487519775390625,0.0023109354078769684,-0.0013502398505806923,-0.0004249527119100094
1782969986609446000,1.49744580078125,-0.0014402999076992273,0.0021764528937637806,-0.0013514007441699505
1782969986619371800,1.507371826171875,-0.0018245939863845706,0.0006877458654344082,-0.0007505915709771216
1782969986629299000,1.517298828125,-0.00029214005917310715,-0.0018909757491201162,-0.0017189753707498312
1782969986639224800,1.527224853515625,-0.002326262416318059,0.000307996291667223,0.0014009177684783936
1782969986649151000,1.53715087890625,-0.002093592192977667,0.0008053556084632874,0.0015841369749978185
1782969986659078000,1.547077880859375,-0.001120206667110324,0.003657867666333914,-0.00035997049417346716
1782969986669003800,1.557003662109375,-0.001192205585539341,0.0015099886804819107,-0.0015875508543103933
1782969986678930700,1.5669306640625,-0.0007775513804517686,0.0023898971267044544,0.0006963760824874043
1782969986688856800,1.57685693359375,-0.001141505315899849,-0.00028475048020482063,-0.0002252862323075533
1782969986698783000,1.586782958984375,0.0009775719372555614,0.000384502112865448,0.0013571641175076365
1782969986708709600,1.596709716796875,-0.002487077144905925,-0.000636804848909378,0.0004237318644300103
1782969986718635800,1.6066357421875,-0.0023043842520564795,0.0008915835060179234,0.0031385584734380245
1782969986728562000,1.61656201171875,-0.001050934661179781,0.0015631737187504768,0.000534476712346077
1782969986738488800,1.62648876953125,0.0015246083494275808,-0.0014989287592470646,-0.0009241364896297455
1782969986748414700,1.636414794921875,-0.00011760432971641421,-0.00019673490896821022,-0.0008389382855966687
1782969986758340900,1.6463408203125,-0.0009940506424754858,0.0006584059447050095,0.0001301859738305211
1782969986768267800,1.656267822265625,-0.0009817248210310936,-0.0002913353964686394,-0.00002828857395797968
1782969986778193700,1.666193603515625,-0.0007279256242327392,-0.00010757753625512123,0.00045960245188325644
1782969986788119800,1.676119873046875,0.0021986968349665403,0.002084628213196993,0.0004329680232331157
1782969986798046700,1.686046630859375,0.0007576602511107922,0.0012441342696547508,-0.002166543621569872
1782969986807972900,1.695972900390625,-0.001289256615564227,-0.00027665914967656136,0.0012128879316151142
1782969986817898800,1.705898681640625,-0.00018697421182878315,0.0029100794345140457,-0.0007477313629351556
1782969986827825700,1.71582568359375,-0.0004958115750923753,0.00012786826118826866,-0.0017264800844714046
1782969986837751800,1.725751708984375,0.0006895613623782992,-0.002185619669035077,0.0004338761791586876
1782969986847679000,1.735678955078125,0.0018273413879796863,-0.00023217173293232918,0.0026507112197577953
1782969986857604900,1.74560498046875,0.00011839093349408358,-0.0005757198669016361,-0.001448958646506071
1782969986867530800,1.75553076171875,0.0003225697437301278,0.0012567020021378994,0.0010124222608283162
1782969986877458000,1.7654580078125,0.0011787760304287076,-0.000035463832318782806,0.001452376483939588
1782969986887384000,1.775384033203125,0.0002356942422920838,0.0028195129707455635,0.002229468896985054
1782969986897309700,1.785309814453125,0.0012767239240929484,0.004808628000319004,0.0003522068727761507
1782969986907236900,1.79523681640625,0.0012405698653310537,0.0016518584452569485,-0.0005214603152126074
1782969986917163000,1.8051630859375,-0.0012566762743517756,-0.000906107947230339,0.0024972327519208193
1782969986927088600,1.815088623046875,-0.001169320777989924,-0.0004398878663778305,0.00135414011310786
1782969986937015800,1.825015869140625,0.0006219213246367872,-0.00008089374750852585,-0.0022057073656469584
1782969986946942000,1.83494189453125,-0.001262142090126872,0.000728363636881113,0.00009473320096731186
1782969986956867800,1.844867919921875,0.0006159191834740341,0.0017286469228565693,0.00044973252806812525
1782969986966794800,1.854794677734375,-0.0005196116399019957,0.002853214740753174,-0.00016227539163082838
1782969986976721000,1.864720947265625,-0.000854104699101299,-0.0001854519359767437,-0.0008254024432972074
1782969986986647800,1.874647705078125,0.0018562357872724533,0.0006451834924519062,-0.0003819287521764636
1782969986996574000,1.884573974609375,-0.00020505095017142594,-0.0011069104075431824,0.0015754946507513523
1782969987006499800,1.894499755859375,0.00298942718654871,-0.0014794592279940844,-0.0006051300442777574
1782969987016426800,1.9044267578125,-0.000704643374774605,0.00014107441529631615,0.0031416714191436768
1782969987026353000,1.914352783203125,-0.0009716891217976809,-0.00017911801114678383,0.0007027146639302373
1782969987036278800,1.92427880859375,-0.0001216080563608557,-0.0010084263049066067,0.0007961917435750365
1782969987046205700,1.934205810546875,0.0006795327644795179,0.0002831299789249897,0.0008749405387789011
1782969987056131800,1.9441318359375,0.0013903304934501648,-0.0020580547861754894,0.0017545826267451048
1782969987066058000,1.95405810546875,0.0000055775162763893604,-0.0009528095833957195,0.0011955448426306248
1782969987075984600,1.963984619140625,0.0008969375630840659,-0.0010561402887105942,-0.0007514923345297575
1782969987085910800,1.973910888671875,0.0008836584165692329,-0.0008111563511192799,0.00037504977080971
1782969987095837000,1.9838369140625,-0.00023699976736679673,0.0008985931053757668,-0.0011951499618589878
1782969987105763800,1.993763916015625,0.0015448533231392503,-0.0021834925282746553,0.000830994569696486
1782969987115689700,2.003689697265625,0.0013847973896190524,0.0012067114003002644,0.0009042314486578107
1782969987125615900,2.013615966796875,-0.0001348691585008055,0.00013152556493878365,0.0022424915805459023
1782969987135542800,2.023542724609375,-0.001334090600721538,-0.0009539788588881493,-0.00022572604939341545
1782969987145468700,2.03346875,0.001690034056082368,0.0012947320938110352,-0.001778322272002697
1782969987155395800,2.043395751953125,-0.001174994627945125,0.0014390754513442516,-0.000549273390788585
1782969987165321700,2.05332177734375,-0.0007364434422925115,0.0003416268154978752,0.00009502435568720102
1782969987175248000,2.063247802734375,-0.002008635550737381,-0.00026770448312163353,-0.000172889675013721
1782969987185175000,2.073175048828125,-0.0017604988534003496,-0.0005580577999353409,-0.0004982760874554515
1782969987195100700,2.0831005859375,0.0006973323761485517,-0.0004075891338288784,0.0003209122223779559
1782969987205026800,2.09302685546875,0.0016424901550635695,0.0006197779439389706,0.00020495906937867403
1782969987214954000,2.1029541015625,0.0014321004273369908,-0.0002260422334074974,-0.0030662016943097115
1782969987224879600,2.112879638671875,0.0012956655118614435,0.000540419016033411,0.00197277357801795
1782969987234805800,2.1228056640625,-0.0010577698703855276,0.0018980982713401318,0.0006246815901249647
1782969987244733000,2.13273291015625,0.0006135018775239587,0.0023836898617446423,-0.0007335434784181416
1782969987254658800,2.142658935546875,0.0019003413617610931,0.000826006755232811,-0.00033140613231807947
1782969987264584700,2.152584716796875,-0.0003121676272712648,0.002294688019901514,0.00022604851983487606
1782969987274512000,2.162511962890625,0.00003058119909837842,-0.0005263984203338623,-0.0012490763328969479
1782969987284438000,2.17243798828125,-0.0021525020711123943,0.0010025668889284134,-0.0011632733512669802
1782969987294363600,2.18236376953125,-0.0012254556640982628,0.0014947191812098026,0.0012218537740409374
1782969987304290800,2.192290771484375,0.00011462347174528986,-0.0005249856039881706,0.0012497450225055218
1782969987314217000,2.202217041015625,-0.00019776533008553088,0.0016079400666058064,0.00006943207699805498
1782969987324143900,2.212143798828125,0.0014678360894322395,-0.0016687277238816023,0.0011919441167265177
1782969987334069800,2.22206982421875,-0.0017340824706479907,0.0023092362098395824,-0.0008254004642367363
1782969987343996000,2.231995849609375,-0.0003402962174732238,0.0006102412007749081,-0.0014894669875502586
1782969987353922800,2.2419228515625,0.0003638435446191579,0.0005143671296536922,0.0004897944163531065
1782969987363849000,2.251848876953125,-0.0004506932746153325,-0.0011054840870201588,-0.0005849493318237364
1782969987373774800,2.26177490234375,-0.0017460548551753163,0.002112679649144411,-0.0030044312588870525
1782969987383701500,2.271701416015625,-0.00024260769714601338,-0.000460644718259573,0.00011541787534952164
1782969987393627600,2.281627685546875,0.0015699397772550583,-0.0003416016697883606,0.0012802844867110252
1782969987403553500,2.291553466796875,-0.0013950247084721923,0.0013924138620495796,0.0021708535496145487
1782969987413480400,2.30148046875,-0.001123648602515459,-0.0019530488643795252,0.0013223704881966114
1782969987423406600,2.311406494140625,0.00166060880292207,-0.0007686852477490902,0.0020767091773450375
1782969987433332700,2.321332763671875,0.0028302690479904413,-0.00046588387340307236,-0.0012748788576573133
1782969987443259400,2.33125927734375,0.0008779430063441396,0.0017149061895906925,-0.0012046857737004757
1782969987453185500,2.341185546875,0.00045130462967790663,0.0010840031318366528,-0.00031013006810098886
1782969987463111700,2.351111572265625,-0.0013091020518913865,0.0018687117844820023,-0.0018285458208993077
1782969987473038600,2.36103857421875,-0.00044304205221123993,-0.000997115857899189,-0.0006865823525004089
1782969987482964500,2.370964599609375,0.0008285107323899865,-0.0013305314350873232,0.0020468421280384064
1782969987492891600,2.3808916015625,0.00031239009695127606,-0.0022866062354296446,0.003402391215786338
1782969987502817500,2.390817626953125,0.001395274419337511,-0.0008492544293403625,-0.0003996074665337801
1782969987512743400,2.400743408203125,-0.0017121019773185253,-0.001223694533109665,-0.00014634092804044485
1782969987522670600,2.410670654296875,0.0015819813124835491,0.0007010945118963718,0.000553010031580925
1782969987532596500,2.420596435546875,-0.00012403956498019397,0.00047019869089126587,-0.001603884156793356
1782969987542522600,2.430522705078125,0.0013067193794995546,-0.000004068482667207718,-0.0004663550644181669
1782969987552449500,2.440449462890625,-0.0023735028225928545,0.0013219192624092102,-0.0010503862285986543
1782969987562375400,2.45037548828125,0.00004005458322353661,-0.0008352901786565781,-0.00004000181797891855
1782969987572301600,2.460301513671875,0.0004365992499515414,0.0010864469222724438,0.0008468306623399258
1782969987582228700,2.470228759765625,-0.0005005415296182036,-0.002789307152852416,0.000918559730052948
1782969987592154600,2.480154541015625,0.0007812379626557231,0.0009100898168981075,-0.0029856343753635883
1782969987602080500,2.49008056640625,-0.00014073046622797847,-0.00003920122981071472,0.00011264870408922434
1782969987612007700,2.500007568359375,0.0018696899060159922,0.0005986257456243038,0.00215822272002697
1782969987621933600,2.50993359375,-0.0010133138857781887,0.001528734341263771,-0.001938635017722845
1782969987631859500,2.519859375,0.00010441480844747275,-0.002325126202777028,0.001030256855301559
1782969987641786600,2.52978662109375,-0.00018293107859790325,-0.0010464326478540897,0.00003212783485651016
1782969987651712800,2.539712646484375,0.002405927749350667,0.00011497177183628082,-0.0018656407482922077
1782969987661638400,2.549638427734375,0.00028967144316993654,-0.0005403812974691391,0.0016759963473305106
1782969987671565600,2.559565673828125,0.0016305729513987899,-0.002218971960246563,-0.0005362914525903761
1782969987681491700,2.56949169921875,-0.00032557538361288607,-0.0010110358707606792,-0.0019000722095370293
1782969987691418600,2.579418701171875,-0.0011034846538677812,0.0008707535453140736,0.0007122224196791649
1782969987701344500,2.589344482421875,-0.002274231519550085,-0.0017102130223065615,-0.0011718661990016699
1782969987711270700,2.599270751953125,-0.000931998249143362,-0.0015935664996504784,0.00008834165055304766
1782969987721197600,2.609197509765625,-0.0020069091115146875,-0.00014379899948835373,0.0010407172376289964
1782969987731123700,2.619123779296875,0.000019223865820094943,0.0018168198876082897,-0.0026672021485865116
1782969987741049600,2.629049560546875,0.002672600792720914,0.00022285152226686478,-0.0006655238103121519
1782969987750976500,2.6389765625,0.003289122600108385,0.0018710820004343987,0.00007456867024302483
1782969987760902700,2.648902587890625,0.0007793246186338365,0.0017087096348404884,0.0010920434724539518
1782969987770828500,2.65882861328125,-0.0003810146590694785,0.001272217370569706,-0.00353067135438323
1782969987780755500,2.66875537109375,-0.00039771368028596044,0.0017449012957513332,-0.0004530643345788121
1782969987790681600,2.678681640625,-0.0002009060699492693,-0.0014295866712927818,0.001864951103925705
1782969987800607700,2.688607666015625,-0.00270714215002954,0.0015512257814407349,0.0023276139982044697
1782969987810534400,2.698534423828125,-0.0005678249290212989,0.0006990139372646809,0.0010231977794319391
1782969987820460500,2.70846044921875,-0.0012582703493535519,0.00032992521300911903,0.0004620749969035387
1782969987830386700,2.71838671875,-0.00024467112962156534,0.000660956371575594,0.0011752694845199585
1782969987840313600,2.728313720703125,0.0004886889364570379,-0.0005239676684141159,-0.001320193405263126
1782969987850239500,2.738239501953125,-0.00009241278166882694,-0.0007271668873727322,0.00334353419020772
1782969987860166700,2.748166748046875,0.002435964299365878,0.00012924149632453918,0.00025897903833538294
1782969987870092500,2.758092529296875,-0.0011774125741794705,-0.00040259165689349174,0.0025357152335345745
1782969987880018400,2.768018310546875,0.00022237068333197385,0.001536776777356863,0.0010398278245702386
1782969987889945600,2.777945556640625,0.00040133509901352227,0.0014931010082364082,-0.0005719172768294811
1782969987899871500,2.78787158203125,-0.0021645722445100546,-0.0014387047849595547,-0.000016961246728897095
1782969987909797600,2.797797607421875,0.002407276537269354,0.00013868557289242744,-0.0000917960423976183
1782969987919724500,2.807724609375,0.0006723562255501747,-0.00031067105010151863,0.0002997091505676508
1782969987929650400,2.817650390625,-0.0032259789295494556,-0.00137939746491611,-0.000785795331466943
1782969987939576600,2.82757666015625,0.00024710787693038583,0.0005777799524366856,-0.0006936904392205179
1782969987949503700,2.837503662109375,-0.0014708973467350006,-0.00009227124974131584,0.00021018646657466888
1782969987959429400,2.847429443359375,-0.0011806742986664176,0.0014730324037373066,0.0004771937383338809
1782969987969355500,2.85735546875,0.0016774301184341311,-0.001036730594933033,0.0010332617675885558
1782969987979282700,2.86728271484375,0.001733261626213789,-0.0021408917382359505,-0.001116017228923738
1782969987989208600,2.87720849609375,0.00030554100521840155,0.002049059607088566,-0.0021794175263494253
1782969987999134500,2.887134521484375,0.0004046945250593126,0.0009379037655889988,0.0024723829701542854
1782969988009061600,2.8970615234375,0.0005801968509331346,0.0011605438776314259,0.0020793001167476177
1782969988018987800,2.90698779296875,-0.000534672406502068,0.0011227969080209732,0.0006077907746657729
1782969988028913400,2.916913330078125,-0.0023426925763487816,-0.002060479484498501,0.002072529401630163
1782969988038840600,2.926840576171875,0.0014651950914412737,-0.0007364810444414616,0.0003805280430242419
1782969988048766700,2.9367666015625,0.004513715393841267,0.000019057653844356537,0.0008772077271714807
1782969988058693600,2.946693603515625,-0.001351702376268804,0.000933800358325243,0.0014826774131506681
1782969988068619500,2.95661962890625,0.0009149140096269548,-0.000402041245251894,-0.0039062288124114275
1782969988078545700,2.966545654296875,-0.0018268295098096132,-0.00022672582417726517,0.0004590650787577033
1782969988088472600,2.97647265625,0.0006198167102411389,0.0024947584606707096,-0.0005958130350336432
1782969988098398700,2.986398681640625,-0.0031132299918681383,0.001287857536226511,-0.0005848165601491928
1782969988108324600,2.99632470703125,0.002820026595145464,0.001016747672110796,-0.0007483346271328628
1782969988118251500,3.00625146484375,0.0011228099465370178,0.0015371483750641346,-0.0014216047711670399
1782969988128177700,3.016177734375,0.0008658148581162095,0.0019073276780545712,0.0006620525382459164
1782969988138103600,3.026103515625,0.0007793835829943419,-0.0022099895868450403,-0.00003591249696910381
1782969988148030500,3.036030517578125,-0.0014880318194627762,-0.0005108928307890892,0.0027263180818408728
1782969988157956600,3.04595654296875,0.0004447179089765996,-0.00048824772238731384,-0.0002741663483902812
1782969988167882800,3.0558828125,0.0011235576821491122,0.0013352185487747192,0.0011199984000995755
1782969988177809400,3.065809326171875,0.0006140922196209431,-0.00013326387852430344,0.0013305672910064459
1782969988187735600,3.075735595703125,0.000008755712769925594,0.00005901604890823364,0.0003902050666511059
1782969988197661700,3.08566162109375,-0.0004449207044672221,-0.0021940742153674364,0.0011095142690464854
1782969988207588600,3.095588623046875,-0.0013213669881224632,-0.00030615925788879395,-0.00029264017939567566
1782969988217514500,3.105514404296875,0.0007526384433731437,0.0001758919097483158,-0.000449969491455704
1782969988227441700,3.115441650390625,-0.00000156875466927886,0.0009391536004841328,-0.0009029731736518443
1782969988237367600,3.125367431640625,-0.0008633144316263497,-0.0012687332928180695,0.0005405762931331992
1782969988247293400,3.13529345703125,0.0009415098465979099,-0.0005329018458724022,-0.0003332068445160985
1782969988257220600,3.145220703125,-0.0010538091883063316,-0.0009666397236287594,-0.0018261999357491732
1782969988267146500,3.155146484375,0.0022596956696361303,-0.002529648831114173,0.0016689326148480177
1782969988277072600,3.16507275390625,0.0005536395474337041,-0.0021750798914581537,0.0024376134388148785
1782969988286999600,3.17499951171875,-0.0004035005113109946,0.0013552065938711166,0.0004069533897563815
1782969988296925400,3.184925537109375,0.00017278453742619604,-0.0017746004741638899,0.003201789455488324
1782969988306851600,3.1948515625,0.0008465643040835857,0.0010677911341190338,-0.0020062883850187063
1782969988316778800,3.20477880859375,-0.0011757495813071728,-0.0033473623916506767,-0.0009022964513860643
1782969988326704400,3.214704345703125,-0.00009690312435850501,0.0004905187524855137,0.0020972220227122307
1782969988336630500,3.224630615234375,-0.0007946181576699018,0.0008644219487905502,0.0018213983858004212
1782969988346557700,3.2345576171875,-0.001746964524500072,-0.0005624997429549694,-0.0000255039194598794
1782969988356483600,3.244483642578125,-0.0005401870002970099,0.0011869133450090885,0.0003239159705117345
1782969988366409500,3.254409423828125,-0.0018081178423017263,-0.0024456381797790527,0.0012789255706593394
1782969988376336600,3.264336669921875,-0.0011148396879434586,0.0005382788367569447,0.000881740590557456
1782969988386262800,3.2742626953125,-0.0010429343674331903,-0.00031925877556204796,-0.001054910128004849
1782969988396188700,3.284188720703125,-0.0007768870564177632,0.0008633248507976532,-0.0027798269875347614
1782969988406115800,3.29411572265625,0.0021624439395964146,-0.00009008683264255524,0.0024231907445937395
1782969988416041700,3.304041748046875,0.0011003928957507014,-0.0010599279776215553,-0.0009930547093972564
1782969988425969000,3.313968994140625,-0.0012035076506435871,0.0009744609706103802,-0.0015328774461522698
1782969988435894800,3.323894775390625,-0.0007964328397065401,0.0010265088640153408,0.00279947929084301
1782969988445821000,3.333821044921875,-0.0018784753046929836,-0.0002829674631357193,-0.001693806261755526
1782969988455747800,3.343747802734375,-0.0012685685651376843,0.002062050625681877,0.00182032969314605
1782969988465674000,3.353674072265625,-0.0016965384129434824,-0.0009193583391606808,-0.0014716037549078465
1782969988475600000,3.363599853515625,0.000584674533456564,-0.0032051587477326393,0.004141421988606453
1782969988485526800,3.37352685546875,-0.0011676853755488992,0.0010652202181518078,0.001232983311638236
1782969988495453000,3.383452880859375,0.0022224143613129854,0.00023860856890678406,0.002002718858420849
1782969988505378800,3.39337890625,0.0002852310717571527,-0.0015470408834517002,-0.0002708218526095152
1782969988515305700,3.4033056640625,0.0003565913939382881,-0.0014881445094943047,-0.002467954531311989
1782969988525231900,3.41323193359375,-0.0007009498658590019,0.00135318236425519,-0.0014703342458233237
1782969988535158000,3.423157958984375,-0.0005119809065945446,0.0012912405654788017,0.00010199728421866894
1782969988545084700,3.433084716796875,0.0005146677140146494,0.0013857828453183174,-0.0010149325244128704
1782969988555010800,3.4430107421875,0.0009119518799707294,0.0015559219755232334,-0.0012047141790390015
1782969988564937000,3.45293701171875,-0.001855871407315135,0.0012746923603117466,-0.0006920556188561022
1782969988574864000,3.46286376953125,0.0007139808731153607,-0.0001882263459265232,0.0029945645947009325
1782969988584789800,3.472789794921875,-0.0006639386410824955,-0.0004947562702000141,0.004277409054338932
1782969988594716000,3.4827158203125,-0.0004515830660238862,0.00008200248703360558,0.00018042302690446377
1782969988604642800,3.492642822265625,-0.0008345456444658339,-0.00045702094212174416,0.0016576785128563643
1782969988614568700,3.502568603515625,-0.00024091824889183044,-0.0002999412827193737,0.0007076010806486011
1782969988624495900,3.512495849609375,0.00011221690510865301,0.0006084628403186798,-0.0005057350499555469
1782969988634421800,3.522421875,-0.0008531588828191161,-0.0007926644757390022,0.0021351194009184837
1782969988644348000,3.532347900390625,-0.0007085491670295596,-0.002195617649704218,0.00274445116519928
1782969988654274800,3.54227490234375,-0.0011458080261945724,-0.0002679307945072651,0.0004895591409876943
1782969988664200700,3.55220068359375,0.0030553287360817194,-0.0012248042039573193,0.00025892932899296284
1782969988674126800,3.562126953125,-0.002062286715954542,0.0007048272527754307,0.00010470999404788017
1782969988684054000,3.572053955078125,-0.0007903610821813345,-0.0008595138788223267,0.0007286886684596539
1782969988693979600,3.581979736328125,0.0014782114885747433,-0.0006216326728463173,-0.0013184567214921117
1782969988703905800,3.59190576171875,0.0011141574941575527,-0.0002916669473052025,0.0005023464327678084
1782969988713833000,3.6018330078125,0.0004040982748847455,0.0014402340166270733,-0.00032684311736375093
1782969988723758800,3.6117587890625,-0.0023642575833946466,0.00044421199709177017,-0.000511666527017951
1782969988733684700,3.621684814453125,-0.0003613560984376818,-0.0004177526570856571,-0.0037526870146393776
1782969988743612000,3.63161181640625,-0.0025158533826470375,0.0027154567651450634,-0.0005004346603527665
1782969988753537800,3.641537841796875,0.0020307840313762426,0.0005955593660473824,0.0013935946626588702
1782969988763463700,3.651463623046875,0.0006374181248247623,0.0010645417496562004,0.00218029273673892
1782969988773390800,3.661390869140625,0.0007347277132794261,-0.0018171207047998905,0.001502036233432591
1782969988783316700,3.671316650390625,-0.0005374643951654434,-0.00119687058031559,-0.0012191816931590438
1782969988793243000,3.681242919921875,-0.0025320290587842464,-0.00005501089617609978,0.00007671513594686985
1782969988803169800,3.691169677734375,-0.001513103605248034,0.0003543170168995857,-0.00021756417118012905
1782969988813096000,3.701095947265625,-0.0015883505111560225,0.0002468409948050976,-0.0010337404673919082
1782969988823022800,3.71102294921875,-0.001217638491652906,-0.00030842842534184456,-0.00012000987771898508
1782969988832949000,3.720948974609375,-0.0005178629653528333,-0.0017154207453131676,0.00016078457701951265
1782969988842875000,3.730875,-0.0035882212687283754,0.0007152464240789413,0.0009727823780849576
1782969988852801800,3.7408017578125,-0.0004704729071818292,0.0002949293702840805,-0.00017482833936810493
1782969988862728000,3.75072802734375,0.0013812229735776782,0.00022994820028543472,0.001333586173132062
1782969988872653800,3.76065380859375,-0.0028563907835632563,-0.0003939727321267128,-0.0002544255694374442
1782969988882580700,3.770580810546875,0.0029021622613072395,-0.0015500509180128574,0.001231352100148797
1782969988892507000,3.7805068359375,-0.0009963500779122114,-0.003200290258973837,-0.0026741898618638515
1782969988902433000,3.79043310546875,-0.000212848128285259,0.0038688043132424355,-0.0006304800044745207
1782969988912359700,3.800359619140625,-0.0010262717260047793,0.0012735486961901188,-0.0005138887790963054
1782969988922285800,3.810285888671875,0.0030038896948099136,-0.0016700432170182467,-0.0003871222725138068
1782969988932212000,3.8202119140625,0.0015696586342528462,-0.0007438519969582558,-0.00039073009975254536
1782969988942139000,3.830138916015625,0.000029286224162206054,0.0005214158445596695,-0.002421390265226364
1782969988952064800,3.840064697265625,-0.0008001287933439016,0.0007214979268610477,0.0020564678125083447
1782969988961991000,3.849990966796875,0.0033224443905055523,-0.0012412520591169596,0.0020522065460681915
1782969988971917800,3.859917724609375,0.0007206057198345661,-0.0013798933941870928,0.0006662808591499925
1782969988981843700,3.86984375,0.0028458081651479006,-0.0006078430451452732,0.0009994424181059003
1782969988991769900,3.879769775390625,0.0012711724266409874,0.0011792806908488274,-0.000019587925635278225
1782969989001696800,3.88969677734375,0.0005262861959636211,-0.000872152391821146,-0.0004345084307715297
1782969989011623000,3.899622802734375,-0.0009596137679181993,-0.0012587986420840025,-0.0008538494585081935
1782969989021548800,3.909548828125,-0.0007018197793513536,0.0015577604062855244,0.00032726244535297155
1782969989031475700,3.919475830078125,-0.0006804913282394409,0.0007905559614300728,0.0005048689199611545
1782969989041401900,3.92940185546875,-0.0019462918862700462,0.00017456663772463799,0.0004902214277535677
1782969989051329000,3.9393291015625,0.0018145710928365588,-0.0004923762753605843,0.0019131102599203587
1782969989061254700,3.949254638671875,0.00020682072499766946,-0.0006787977181375027,-0.0008461909601464868
1782969989071180800,3.959180908203125,0.000221121939830482,-0.000002275221049785614,-0.000021380954422056675
1782969989081108000,3.96910791015625,0.0014523012796416879,0.0007053264416754246,0.0003176395548507571
1782969989091033900,3.979033935546875,0.00007836862641852349,-0.0006935270503163338,-0.0006230684230104089
1782969989100958700,3.988958740234375,0.0016965053509920835,0.0008564325980842113,-0.0014545073499903083
1782969989110886000,3.998885986328125,-0.003022343385964632,0.0017256448045372963,0.0012833569198846817
1782969989120812000,4.00881201171875,0.000020850609871558845,-0.0009854533709585667,0.0015209107659757137
1782969989130738700,4.01873876953125,0.0016627645818516612,0.00036697322502732277,-0.0004004745278507471
1782969989140664800,4.028664794921875,-0.002496560337021947,-0.002043986227363348,0.0008677227888256311
1782969989150591000,4.038591064453125,-0.0030336417257785797,0.0012513701803982258,0.00022731686476618052
1782969989160518000,4.048517822265625,0.0008604323375038803,-0.0005180337466299534,-0.001559131545946002
1782969989170443800,4.05844384765625,-0.00006125896470621228,0.0006290124729275703,0.00016259239055216312
1782969989180370000,4.068369873046875,0.0028716803062707186,-0.0007792669348418713,0.00018895766697824
1782969989190296800,4.078296875,-0.0007719114073552191,-0.0007868041284382343,-0.0007556476630270481
1782969989200222700,4.08822265625,-0.00003980846668127924,-0.0008163652382791042,-0.0014760327758267522
1782969989210148900,4.09814892578125,-0.0020683342590928078,0.002351940143853426,0.0009861970320343971
1782969989220075800,4.10807568359375,0.0008904376300051808,0.0008730865083634853,0.0002567572519183159
1782969989230002000,4.118001953125,0.001394595019519329,-0.00004594586789608002,-0.0009023761376738548
1782969989239927800,4.127927734375,0.002478767652064562,0.00016337865963578224,-0.001373489387333393
1782969989249854700,4.137854736328125,0.0005614802939817309,-0.00032743625342845917,-0.001835443777963519
1782969989259780900,4.14778076171875,-0.0009288245346397161,0.0002291640266776085,0.0012130765244364738
1782969989269706800,4.157706787109375,0.001401326386258006,0.0010365713387727737,-0.004471854772418737
1782969989279633700,4.167633544921875,0.0009073099354282022,0.0007806415669620037,0.00017669307999312878
1782969989289559800,4.177559814453125,0.00020422539091669023,0.0017755981534719467,0.0006139040924608707
1782969989299486000,4.18748583984375,-0.00045623857295140624,0.0021071620285511017,-0.0007658795802854002
1782969989309412600,4.19741259765625,0.00017409517022315413,-0.000433528795838356,0.00029651192016899586
1782969989319338800,4.2073388671875,0.001415394595824182,-0.0005722790956497192,0.0003441824810579419
1782969989329265000,4.217264892578125,-0.00021939304133411497,-0.00019998475909233093,-0.000545692048035562
1782969989339191800,4.22719189453125,0.0006674395990557969,-0.0003512524999678135,-0.00048523826990276575
1782969989349117700,4.23711767578125,-0.0008321967325173318,-0.0009967382065951824,0.00029821868520230055
1782969989359044900,4.247044921875,0.0004876658204011619,-0.0009607854299247265,0.0015190115664154291
1782969989368970800,4.256970703125,0.00003725531860254705,0.0008173845708370209,-0.0021019941195845604
1782969989378896600,4.266896728515625,0.0007501835352741182,0.00045279785990715027,0.0010096433106809855
1782969989388823600,4.276823486328125,-0.0006596959428861737,-0.0011761304922401905,0.001989628653973341
1782969989398749700,4.286749755859375,-0.0006077642319723964,-0.0004309779033064842,-0.0002913686912506819
1782969989408675300,4.29667529296875,-0.00006336517981253564,-0.0011025466956198215,-0.0007983664982020855
1782969989418602500,4.3066025390625,0.0000042791070882231,0.001632785890251398,-0.0027323542162775993
1782969989428528600,4.316528564453125,-0.0009436048567295074,0.0008742460049688816,-0.0007575124618597329
1782969989438454300,4.326454345703125,-0.0008831510785967112,0.00028222519904375076,-0.0002845351118594408
1782969989448381400,4.33638134765625,-0.003312136512249708,0.00123690627515316,0.001051769475452602
1782969989458307600,4.3463076171875,-0.00025083270156756043,-0.0017767269164323807,0.0032166531309485435
1782969989468233500,4.3562333984375,0.0005101083661429584,-0.0017560452688485384,-0.0006477462593466043
1782969989478160400,4.366160400390625,0.0015133211854845285,0.001714586280286312,-0.002723680343478918
1782969989488086500,4.37608642578125,0.0010702236322686076,0.0029366398230195045,0.00023306859657168388
1782969989498012400,4.386012451171875,-0.0002355242322664708,0.001220498699694872,-0.002304124878719449
1782969989507939600,4.395939697265625,-0.0018847633618861437,-0.00046544289216399193,0.001307611702941358
1782969989517866500,4.405866455078125,-0.0012152447598055005,-0.0011727784294635057,-0.0006359632243402302
1782969989527792400,4.41579248046875,0.000847295334096998,0.0011553699150681496,-0.0031074252910912037
1782969989537719600,4.425719482421875,0.0008909711614251137,0.0003210017457604408,0.0011720082256942987
1782969989547645700,4.435645751953125,-0.0000038505386328324676,0.0014318334870040417,-0.0014106938615441322
1782969989557571300,4.4455712890625,0.0010371791431680322,0.0014502089470624924,0.0020580734126269817
1782969989567498500,4.45549853515625,-0.0015365943545475602,0.0030107353813946247,0.0003284098347648978
1782969989577424600,4.465424560546875,-0.0023270207457244396,-0.0023787037935107946,-0.0008311304845847189
1782969989587350500,4.4753505859375,0.0015156216686591506,0.0008072042837738991,0.00012454716488718987
1782969989597277400,4.48527734375,-0.0014338291948661208,0.0027172230184078217,-0.0009345919825136662
1782969989607203600,4.49520361328125,0.0019230050966143608,-0.0005165576003491879,0.0008515601512044668
1782969989617129500,4.50512939453125,0.0024601647164672613,-0.0009024497121572495,-0.001985505223274231
1782969989627056600,4.515056640625,-0.00044006583630107343,0.001443934626877308,-0.0006575514562427998
1782969989636982500,4.524982421875,-0.0013466059463098645,0.001685749739408493,0.00035604764707386494
1782969989646908400,4.534908447265625,-0.0004602237022481859,-0.0005559795536100864,0.0012954024132341146
1782969989656835600,4.544835693359375,-0.0012274804757907987,-0.00018553389236330986,0.0015084552578628063
1782969989666761500,4.554761474609375,-0.00004000167245976627,-0.0009612417779862881,0.0005807525012642145
1782969989676687400,4.564687255859375,0.0009786573937162757,0.0018819491378962994,-0.000938048237003386
1782969989686614500,4.574614501953125,-0.0015405190642923117,-0.0021733250468969345,0.000005729845724999905
1782969989696540700,4.584540771484375,-0.0013061609352007508,0.001142044086009264,0.0020398523192852736
1782969989706467300,4.59446728515625,-0.0014061061665415764,0.001359099056571722,-0.0019480038899928331
1782969989716393500,4.6043935546875,-0.002436749404296279,-0.00005370797589421272,-0.0018563910853117704
1782969989726319600,4.614319580078125,-0.0004718525451608002,-0.00007078703492879868,-0.0019198058871552348
1782969989736246500,4.62424658203125,-0.0006122011691331863,0.0005896766670048237,0.004239552654325962
1782969989746172400,4.63417236328125,0.0008014260092750192,0.0024979859590530396,0.0011679338058456779
1782969989756098600,4.6440986328125,0.0014147519832476974,0.0009371074847877026,-0.0027397223748266697
1782969989766025500,4.654025390625,-0.0013506923569366336,0.002569001168012619,-0.0007437554304488003
1782969989775951400,4.663951416015625,-0.0019752036314457655,-0.00006486522033810616,0.0012821111595258117
1782969989785877500,4.67387744140625,-0.0019953367300331593,-0.0014339194167405367,0.0011707032099366188
1782969989795804400,4.683804443359375,0.0016241655685007572,0.0007309643551707268,0.00028999580536037683
1782969989805730600,4.69373046875,-0.00018051099323201925,0.001152291428297758,0.000459125149063766
1782969989815656400,4.703656494140625,-0.0010476362658664584,-0.0008064634166657925,0.0007544697728008032
1782969989825583400,4.713583251953125,0.0004452952998690307,-0.0018837552051991224,0.0014884453266859055
1782969989835509500,4.723509521484375,0.000004009518306702375,-0.0008760150521993637,-0.0010599334491416812
1782969989845435400,4.733435302734375,0.001908372389152646,-0.000778712797909975,-0.0020024310797452927
1782969989855362300,4.7433623046875,0.00022046096273697913,0.0004101223312318325,0.0021521002054214478
1782969989865288400,4.753288330078125,-0.003843559417873621,0.0017418069764971733,0.0008478009840473533
1782969989875214600,4.763214599609375,-0.0011548318434506655,0.002539956010878086,-0.0005178680876269937
1782969989885141200,4.773141357421875,-0.0014298305613920093,0.0007556797936558723,0.00029888912104070187
1782969989895067400,4.7830673828125,0.001742793247103691,-0.0005354206077754498,0.0009582879720255733
1782969989904993500,4.79299365234375,-0.0010008311364799738,0.0008808677084743977,0.001131444820202887
1782969989914920400,4.80292041015625,-0.00028683769050985575,-0.002480041468515992,0.0024584978818893433
1782969989924846300,4.812846435546875,-0.0027888761833310127,0.0040862709283828735,-0.0016029722755774856
1782969989934773500,4.8227734375,0.0003917371213901788,0.0006955340504646301,-0.00005887146107852459
1782969989944699600,4.83269970703125,-0.0011260471073910594,-0.0031923730857670307,-0.0016490814741700888
1782969989954625500,4.84262548828125,0.002157896989956498,-0.001077823108062148,-0.002896772464737296
1782969989964552400,4.852552490234375,0.00017918922821991146,-0.002260561566799879,0.0014124015579000115
1782969989974478600,4.862478515625,0.0002851830213330686,-0.00017583929002285004,-0.004070780705660582
1782969989984404500,4.872404541015625,0.0010403579799458385,0.0005668387748301029,-0.002790885278955102
1782969989994331600,4.88233154296875,-0.0003372952342033386,-0.0005687330849468708,0.0015428768238052726
1782969990004257500,4.892257568359375,0.00029408681439235806,0.001429570373147726,0.0009232718730345368
1782969990014183400,4.902183349609375,-0.0006255026673898101,0.003752645570784807,-0.0007832817500457168
1782969990024110600,4.912110595703125,-0.00039026077138260007,0.0001254281960427761,-0.0009878325508907437
1782969990034036500,4.922036376953125,0.0005367855774238706,0.0004532630555331707,0.00048649345990270376
1782969990043962400,4.93196240234375,0.0006475189002230763,0.0003830641508102417,-0.0008193629910238087
1782969990053889500,4.9418896484375,0.000378805969376117,0.0009290119633078575,-0.0026651998050510883
1782969990063815700,4.951815673828125,-0.001435845741070807,0.0027176435105502605,0.0015251851873472333
1782969990073741300,4.9617412109375,-0.0006608659168705344,-0.0007149050943553448,-0.0009574136347509921
1782969990083668500,4.97166845703125,-0.0007800769526511431,-0.0007400703616440296,0.0006992833223193884
1782969990093594600,4.9815947265625,0.0006873247912153602,-0.0020093326456844807,-0.001497558201663196
1782969990103520500,4.9915205078125,0.00006196108734002337,0.0016451659612357616,0.0007068170234560966
1782969990113447400,5.001447509765625,-0.0002789235149975866,-0.0003884239122271538,0.0022123020607978106
1782969990123373600,5.01137353515625,-0.0013693369692191482,0.0006893128156661987,0.0014363894006237388
1782969990133299700,5.0212998046875,-0.002443123608827591,0.0019071763381361961,0.0016542357625439763
1782969990143226400,5.031226318359375,-0.0007594787748530507,-0.0003861389122903347,0.0015075047267600894
1782969990153152500,5.041152587890625,0.0017428273567929864,-0.0008165054023265839,0.00017539155669510365
1782969990163079400,5.051079345703125,0.0011952400673180819,-0.002012230921536684,-0.0005332647124305367
1782969990173005600,5.061005615234375,-0.0020687300711870193,-0.00010008132085204124,0.0010236192028969526
1782969990182931500,5.070931396484375,-0.00044097547652199864,0.0004473598673939705,-0.0006081829196773469
1782969990192858400,5.0808583984375,0.00012947364302817732,-0.00019073393195867538,0.001515421667136252
1782969990202784500,5.090784423828125,0.0007301829755306244,0.0003813919611275196,-0.0003670264268293977
1782969990212710400,5.10071044921875,-0.0017681283643469214,0.0025484059005975723,-0.0002021767431870103
1782969990222637300,5.11063720703125,0.0027677465695887804,-0.0014991981443017721,0.0015687057748436928
1782969990232563500,5.1205634765625,0.0006302935071289539,-0.0041682180017232895,-0.0012617019237950444
1782969990242489600,5.130489501953125,-0.001320716692134738,0.0014432775788009167,0.00085836136713624
1782969990252416300,5.140416259765625,0.0005424308474175632,-0.0003330511972308159,-0.0029925694689154625
1782969990262342400,5.15034228515625,0.0006985713844187558,-0.00023260479792952538,0.002199889160692692
1782969990272268500,5.1602685546875,-0.0038423845544457436,-0.0004640333354473114,-0.000647030130494386
1782969990282195500,5.170195556640625,0.002719662617892027,0.00023604556918144226,-0.0007360853487625718
1782969990292121300,5.180121337890625,-0.000052954404964111745,0.0018419316038489342,-0.002363276667892933
1782969990302047500,5.190047607421875,-0.000801790039986372,0.0020446344278752804,0.0015915107214823365
1782969990311974400,5.199974365234375,-0.0012590547557920218,0.0016970918513834476,-0.0013843054184690118
1782969990321900500,5.209900634765625,-0.0004209998878650367,0.001288936473429203,-0.00010142952669411898
1782969990331826400,5.219826416015625,-0.0006255306070670485,-0.0001094890758395195,0.0012141721090301871
1782969990341753600,5.229753662109375,0.00036112783709540963,-0.001476784236729145,0.0020495138596743345
1782969990351679500,5.239679443359375,0.0000018674181774258614,0.0011757239699363708,0.000983184203505516
1782969990361605400,5.24960546875,0.0022018353920429945,0.0006311852484941483,0.0009574360447004437
1782969990371532500,5.259532470703125,-0.001675993436947465,-0.0002410002052783966,-0.0006617659237235785
1782969990381458400,5.26945849609375,-0.00037771195638924837,-0.000024942215532064438,0.001506193308159709
1782969990391384300,5.27938427734375,0.002756562316790223,0.00044510606676340103,0.0003418591804802418
1782969990401311500,5.2893115234375,0.00036247679963707924,-0.0011257543228566647,-0.0001627042656764388
1782969990411237400,5.2992373046875,0.002057578880339861,-0.001004047691822052,0.0002125351456925273
1782969990421164500,5.30916455078125,-0.0022579641081392765,0.0006587645038962364,0.0023009837605059147
1782969990431090400,5.31909033203125,0.0023256023414433002,0.00025076791644096375,0.0007542200619354844
1782969990441016300,5.329016357421875,0.0005406604032032192,0.0005530910566449165,-0.002931598573923111
1782969990450943500,5.338943603515625,-0.0005168808274902403,0.0003869100473821163,0.0016525007085874677
1782969990460869600,5.34886962890625,0.0006578742177225649,0.000364737119525671,-0.0006571622216142714
1782969990470795500,5.35879541015625,0.002767896745353937,0.00022225826978683472,-0.0005421136738732457
1782969990480722400,5.368722412109375,-0.0017810396384447813,0.0001445375382900238,-0.0002236663131043315
1782969990490648600,5.378648681640625,0.0011375186732038856,-0.0019537671469151974,-0.000519809836987406
1782969990500574500,5.388574462890625,0.0016030817059800029,0.0007919901981949806,0.00010880047921091318
1782969990510501400,5.39850146484375,-0.0007197274826467037,0.00045643188059329987,-0.00190028827637434
1782969990520427500,5.408427490234375,-0.0022504362277686596,-0.0007757656276226044,0.002466974314302206
1782969990530353700,5.418353759765625,-0.0010597367072477937,-0.0009861555881798267,0.0009431133512407541
1782969990540280300,5.4282802734375,-0.00040601432556286454,0.0006896210834383965,-0.0014618056593462825
1782969990550206500,5.43820654296875,0.00006163676152937114,0.0004275660030543804,-0.0017603461164981127
1782969990560132600,5.448132568359375,-0.0013960088836029172,0.0007746070623397827,-0.00396985188126564
1782969990570059500,5.4580595703125,-0.00021170110267121345,-0.0001124916598200798,0.00032342993654310703
1782969990579985400,5.4679853515625,-0.0003503317420836538,-0.0005473070777952671,-0.0006473283283412457
1782969990589911600,5.47791162109375,-0.0018619418842718005,0.001825036946684122,0.0014352635480463505
1782969990599838500,5.48783837890625,-0.0003033773973584175,-0.0007643019780516624,0.0018331125611439347
1782969990609764400,5.497764404296875,0.0021267570555210114,-0.0018428824841976166,-0.0006244525429792702
1782969990619690500,5.5076904296875,-0.0011546877212822437,0.0007733870297670364,0.0011221508029848337
1782969990629617400,5.517617431640625,-0.0011389751452952623,0.0001864260993897915,0.0009333326015621424
1782969990639543600,5.52754345703125,-0.0003470282827038318,0.001482093706727028,-0.001555669354274869
1782969990649470500,5.537470458984375,0.0019869660027325153,-0.0012271401938050985,-0.0012502047466114163
1782969990659396400,5.547396240234375,0.000312712014419958,0.00006326660513877869,0.0007351639214903116
1782969990669322500,5.557322509765625,-0.002130738226696849,-0.0001615043729543686,0.0013652676716446877
1782969990679249400,5.56724951171875,-0.00044345983769744635,-0.0007357457652688026,0.0005268644308671355
1782969990689175300,5.57717529296875,-0.0014424114488065243,-0.001926444936543703,-0.0004201555857434869
1782969990699101400,5.587101318359375,-0.0006485897465609014,-0.00043714558705687523,-0.0009332092013210058
1782969990709028600,5.597028564453125,-0.0013098526978865266,-0.0009487387724220753,0.0008657561847940087
1782969990718954500,5.60695458984375,-0.0010135713964700699,-0.0011026030406355858,-0.00026097032241523266
1782969990728880400,5.61688037109375,-0.00019171989697497338,0.0004936954937875271,-0.0002926619490608573
1782969990738807600,5.6268076171875,-0.0011124032316729426,0.0009663808159530163,0.0001821247860789299
1782969990748733400,5.6367333984375,-0.00013715357636101544,0.001520850695669651,0.00010063196532428265
1782969990758659300,5.646659423828125,0.0009189951233565807,-0.00018167681992053986,0.001144902897067368
1782969990768586500,5.65658642578125,-0.0011119315167889,-0.0006948676891624928,-0.0008418151410296559
1782969990778512400,5.666512451171875,-0.0011814715107902884,-0.0007306430488824844,0.0019528785487636924
1782969990788438500,5.6764384765625,-0.001275214715860784,-0.0013524913229048252,-0.0013265381567180157
1782969990798365400,5.686365478515625,-0.0009373798966407776,-0.0007373271510004997,-0.0003865595208480954
1782969990808291300,5.696291259765625,0.002081845887005329,0.001727961003780365,0.00322362151928246
1782969990818217500,5.706217529296875,-0.0030578146688640118,0.0011613164097070694,0.0009275159100070596
1782969990828144600,5.71614453125,0.0006900519947521389,-0.0009588259272277355,0.0007754493271932006
1782969990838070300,5.7260703125,0.0004915838944725692,0.0017863637767732143,-0.00011198781430721283
1782969990847996400,5.735996337890625,-0.00028845597989857197,-0.0011146175675094128,0.0003119873581454158
1782969990857923600,5.745923583984375,0.0003078627632930875,0.0003220527432858944,-0.003077161032706499
1782969990867849500,5.755849365234375,-0.0014527529710903764,-0.001836972078308463,-0.001130656455643475
1782969990877775400,5.765775390625,0.0008616369450464845,0.0006872736848890781,0.00049210200086236
1782969990887702500,5.77570263671875,-0.0010611653560772538,0.0006694304756820202,-0.0007798236911185086
1782969990897628700,5.785628662109375,0.0023048860020935535,-0.00004020053893327713,0.0019372896058484912
1782969990907554300,5.79555419921875,-0.002320225816220045,-0.00023168185725808144,0.001848073792643845
1782969990917481500,5.8054814453125,-0.0007233554497361183,0.0008330862037837505,0.0007854478899389505
1782969990927407600,5.81540771484375,-0.00012760635581798851,-0.002319297520443797,0.00033723784144967794
1782969990937333200,5.825333251953125,-0.00012000341666862369,0.0010147104039788246,0.00017256184946745634
1782969990947260400,5.835260498046875,0.0022488783579319715,-0.000960023608058691,0.0000013206154108047485
1782969990957186600,5.8451865234375,0.0008650278905406594,0.0005356087349355221,-0.0020122360438108444
1782969990967113500,5.855113525390625,0.0020043281838297844,-0.00022925157099962234,0.0015718461945652962
1782969990977039400,5.865039306640625,-0.00019698438700288534,0.001301588024944067,0.002147635444998741
1782969990986965500,5.874965576171875,-0.0003559750912245363,-0.0009858007542788982,0.0009622623911127448
1782969990996892400,5.884892333984375,-0.0021863174624741077,-0.0005571399815380573,0.0019458899041637778
1782969991006818600,5.894818603515625,-0.0019884444773197174,-0.0005893642082810402,-0.00044589501339942217
1782969991016744400,5.904744384765625,-0.0013623172417283058,-0.00048728007823228836,0.0006074022967368364
1782969991026671400,5.91467138671875,0.00002758646587608382,0.000559875275939703,-0.0020751997362822294
1782969991036597500,5.924597412109375,-0.0007313690148293972,0.00012111291289329529,-0.001003962941467762
1782969991046523400,5.9345234375,0.0005357629852369428,0.0003810371272265911,-0.001066813594661653
1782969991056450300,5.9444501953125,-0.0009685356635600328,-0.0016174055635929108,-0.0002950698835775256
1782969991066376400,5.95437646484375,0.0006000661524012685,0.00032457150518894196,-0.0026722075417637825
1782969991076302600,5.964302490234375,0.0004122964746784419,-0.0012611697893589735,0.0010085527319461107
1782969991086229500,5.9742294921875,-0.0001578863157192245,0.0005492470227181911,-0.0003496594727039337
1782969991096155400,5.9841552734375,-0.0002010586322285235,0.0008505606092512608,-0.0018225688254460692
1782969991106081500,5.99408154296875,0.0008905711001716554,0.0009919744916260242,-0.0008475855574943125
1782969991116008400,6.004008544921875,-0.0007577994838356972,0.0012296205386519432,0.0009157840395346284
1782969991125934300,6.013934326171875,-0.0005434149643406272,-0.000536853913217783,0.0005189731018617749
1782969991135860500,6.023860595703125,-0.0013967098202556372,0.001328667625784874,-0.001621365430764854
1782969991145787400,6.033787353515625,-0.0019690231420099735,0.0001784483902156353,-0.0015723631950095296
1782969991155713500,6.043713623046875,0.0005513668293133378,0.0011783745139837265,0.0008276953594759107
1782969991165639400,6.053639404296875,-0.0023117975797504187,-0.0008671996183693409,0.000879094353877008
1782969991175566300,6.06356640625,-0.001518630888313055,0.00020795827731490135,-0.0006938978331163526
1782969991185492500,6.073492431640625,-0.0013489875709638,0.0025970800779759884,-0.0004158638184890151
1782969991195418400,6.08341845703125,-0.0021412125788629055,0.0006630741991102695,0.0012528396910056472
1782969991205345300,6.09334521484375,0.0002268702519359067,-0.00025518378242850304,-0.0008236268768087029
1782969991215271400,6.103271484375,-0.0017639525467529893,0.0005563725717365742,0.0004219787660986185
1782969991225198600,6.113198486328125,-0.0014550258638337255,0.00048393430188298225,0.00037484068889170885
1782969991235124200,6.123124267578125,0.0003692272293847054,0.0039465646259486675,0.000401361845433712
1782969991245050400,6.13305029296875,-0.00011839755461551249,0.0018322812393307686,-0.0003741506952792406
1782969991254977500,6.1429775390625,-0.0015553387347608805,0.0022219382226467133,0.0003438177518546581
1782969991264903400,6.1529033203125,0.00045108681661076844,0.0017862450331449509,0.00036112836096435785
1782969991274829300,6.162829345703125,0.0004659405676648021,0.0012538358569145203,0.00008902675472199917
1782969991284756500,6.172756591796875,0.0008691431721672416,0.0005819201469421387,-0.00019167049322277308
1782969991294682600,6.1826826171875,0.0008917039376683533,0.0004388955421745777,-0.0014642266323789954
1782969991304608300,6.192608154296875,0.0001814388670027256,0.0003379620611667633,-0.0004937708145007491
1782969991314535400,6.202535400390625,-0.00101947202347219,0.0011067325249314308,0.0004992649191990495
1782969991324461600,6.212461669921875,0.00043381491559557617,-0.0019090308342128992,-0.000436037196777761
1782969991334387500,6.222387451171875,-0.001500938436947763,0.0021027852781116962,-0.000239728600718081
1782969991344314400,6.232314453125,-0.00047988243750296533,-0.000012563541531562805,-0.0019942191429436207
1782969991354240500,6.242240478515625,-0.0015742903342470527,0.0001538880169391632,-0.00011373276356607676
1782969991364166400,6.25216650390625,0.0000020346478777355514,0.0022090491838753223,-0.00047805323265492916
1782969991374093600,6.262093505859375,-0.0035581726115196943,-0.0011448003351688385,-0.0010027185780927539
1782969991384019500,6.27201953125,-0.001254005590453744,0.0013023782521486282,0.00005668681114912033
1782969991393945300,6.2819453125,-0.0014978761319071054,-0.0021151823457330465,-0.0012893886305391788
1782969991403872500,6.29187255859375,0.003648150246590376,0.0009959223680198193,-0.0008374502649530768
1782969991413798400,6.30179833984375,-0.00012678485654760152,-0.0003731008619070053,0.0024050790816545486
1782969991423724300,6.311724365234375,0.0005453969934023917,-0.0005912138149142265,0.001090276287868619
1782969991433651500,6.3216513671875,0.0004003852664027363,0.00076249148696661,0.00013376353308558464
1782969991443577600,6.33157763671875,0.0011135798413306475,0.0007877913303673267,-0.0011229821247979999
1782969991453503500,6.34150341796875,-0.00223351432941854,-0.0008816211484372616,-0.0016697101527824998
1782969991463430400,6.351430419921875,-0.0009322937112301588,-0.00040598073974251747,0.00016787101048976183
1782969991473356500,6.3613564453125,-0.0011669876985251904,0.00027292314916849136,-0.0018365432042628527
1782969991483282700,6.37128271484375,-0.001204538275487721,-0.00012495322152972221,0.0006814756197854877
1782969991493209300,6.381209228515625,-0.0008984311716631055,0.0003490871749818325,-0.003987130708992481
1782969991503135500,6.391135498046875,0.001970858545973897,-0.0006408095359802246,0.0027999351732432842
1782969991513062400,6.4010625,-0.0007151950849220157,-0.000022481661289930344,-0.002078040735796094
1782969991522988500,6.410988525390625,-0.001975402934476733,0.0013370621018111706,-0.00023912813048809767
1782969991532914400,6.42091455078125,-0.00007934096356621012,-0.001153893768787384,0.0010512882145121694
1782969991542841300,6.43084130859375,-0.0020311716943979263,0.002519404049962759,-0.00210056290961802
1782969991552767500,6.440767578125,0.00010040555207524449,0.0019994410686194897,0.000027699978090822697
1782969991562693400,6.450693359375,-0.0010809727245941758,0.0017256680876016617,-0.001890042214654386
1782969991572620300,6.460620361328125,0.0003824960731435567,-0.0005440148524940014,-0.0003436245024204254
1782969991582546400,6.47054638671875,-0.001665474846959114,-0.000013246666640043259,0.002215140499174595
1782969991592472600,6.48047265625,-0.0005602920427918434,0.0014047580771148205,-0.0008625143673270941
1782969991602399200,6.490399169921875,-0.00025615899357944727,0.001474000047892332,0.0011497702216729522
1782969991612325400,6.500325439453125,0.0014636381529271603,0.0011656684800982475,0.0013921096688136458
1782969991622251500,6.51025146484375,-0.00026475335471332073,0.0006386288441717625,0.001193704199977219
1782969991632178400,6.520178466796875,0.00010181440302403644,0.0030344738624989986,0.0015924215549603105
1782969991642104300,6.530104248046875,-0.001004462712444365,-0.0020455054473131895,-0.00009256054181605577
1782969991652030500,6.540030517578125,0.0017392172012478113,0.000009660143405199051,0.0009618693729862571
1782969991661957400,6.549957275390625,-0.00283422926440835,0.001622204203158617,-0.0009460192522965372
1782969991671883300,6.55988330078125,-0.001248279819265008,-0.0013938718475401402,-0.0036344185937196016
1782969991681809400,6.569809326171875,-0.0003489303635433316,0.00012812437489628792,0.0003768347669392824
1782969991691736600,6.579736572265625,-0.000007801558240316808,-0.0009671472944319248,-0.0015795009676367044
1782969991701662500,6.589662353515625,-0.0018315342022106051,-0.0011208117939531803,0.0013678193790838122
1782969991711588400,6.59958837890625,-0.0010287464829161763,0.0013844785280525684,0.0016426583752036095
1782969991721515500,6.609515625,-0.0015776240034028888,0.0003738086670637131,-0.0011949398322030902
1782969991731441400,6.61944140625,0.0024314061738550663,-0.0011995728127658367,0.00173007242847234
1782969991741367300,6.6293671875,0.0013743976596742868,-0.001046973280608654,-0.0005570504581555724
1782969991751294500,6.63929443359375,0.0013328948989510536,0.000984573271125555,-0.0018987227231264114
1782969991761220400,6.649220458984375,-0.0016256107483059168,0.0014567519538104534,0.00014285650104284286
1782969991771146500,6.659146484375,0.002625332912430167,0.000883183442056179,-0.000060310703702270985
1782969991781073400,6.669073486328125,0.00045032918569631875,0.0011090198531746864,0.0021767443977296352
1782969991790999300,6.678999267578125,-0.001363552873954177,0.0008218376897275448,0.0003287040162831545
1782969991800925400,6.688925537109375,0.0013837640872225165,0.001535831019282341,-0.0019171396270394325
1782969991810852600,6.6988525390625,-0.0016775161493569613,-0.0008480777032673359,-0.0008710103575140238
1782969991820778500,6.708778564453125,0.00045034955837763846,0.0016925781965255737,-0.0010164189152419567
1782969991830705400,6.718705322265625,0.0012344969436526299,-0.001148612704128027,0.0006512656109407544
1782969991840631600,6.728631591796875,0.00197325786575675,-0.0008655190467834473,-0.0013935095630586147
1782969991850557400,6.738557373046875,0.00014931663463357836,-0.00012922799214720726,0.0011242140317335725
1782969991860484400,6.748484375,-0.002029415452852845,-0.0009137955494225025,-0.0018537327414378524
1782969991870410500,6.758410400390625,-0.003449933836236596,-0.00036634737625718117,-0.0009259928483515978
1782969991880336600,6.768336669921875,0.0002603821631055325,-0.0015525193884968758,-0.0030424068681895733
1782969991890263600,6.778263671875,-0.00040996517054736614,-0.0016686271410435438,-0.0020805359818041325
1782969991900189400,6.788189453125,-0.001573233981616795,0.000676020048558712,0.00016184558626264334
1782969991910115600,6.798115478515625,0.0021171916741877794,-0.0004102680832147598,-0.0016568878199905157
1782969991920042500,6.80804248046875,-0.0006381148705258965,0.00044274237006902695,0.0006448823260143399
1782969991929968400,6.817968505859375,0.001058315858244896,0.0024203723296523094,0.0029068435542285442
1782969991939894500,6.82789453125,0.0014165110187605023,-9.736977517604828e-7,-0.0012357034720480442
1782969991949821400,6.837821533203125,0.00025221117539331317,-0.0024666127283126116,0.0011820817599073052
1782969991959747600,6.84774755859375,-0.00001676808824413456,-0.00007536029443144798,0.0004670229973271489
1782969991969673500,6.857673583984375,-0.0010990314185619354,0.0005395649932324886,-0.0017406339757144451
1782969991979600400,6.867600341796875,-0.0008622764144092798,-0.00033475086092948914,0.0009536859579384327
1782969991989526500,6.877526611328125,-0.0016202096594497561,0.0027071377262473106,0.003004978410899639
1782969991999452400,6.887452392578125,-0.001774406642653048,-0.002193611115217209,0.0003146529197692871
1782969992009379300,6.89737939453125,0.00034663337282836437,0.00013507530093193054,0.0020669400691986084
1782969992019305500,6.907305419921875,-0.00007920609641587362,-0.0015309981536120176,-0.000041750725358724594
1782969992029231600,6.917231689453125,0.00007830136019038036,-0.0008390648290514946,-0.000134787755087018
1782969992039158300,6.927158203125,0.003857060568407178,-0.0011290828697383404,-0.0014170997310429811
1782969992049084400,6.93708447265625,-0.0005140433786436915,-0.001389652257785201,0.0021962893661111593
1782969992059010600,6.947010498046875,-0.0009340238757431507,0.0020458255894482136,-0.00011719868052750826
1782969992068937500,6.9569375,0.003532896051183343,-0.0013499713968485594,-0.00018661492504179478
1782969992078863400,6.96686328125,0.0014724081847816706,-0.000247955322265625,0.0005124649032950401
1782969992088789500,6.97678955078125,-0.0014811092987656593,0.00034492509439587593,0.00011377420742064714
1782969992098716400,6.98671630859375,0.0006467564962804317,0.001969986129552126,0.00031324499286711216
1782969992108642300,6.996642333984375,-0.00045504039735533297,-0.0005835853517055511,-0.00018238474149256945
1782969992118568400,7.006568359375,-0.0035163441207259893,0.00017408374696969986,-0.00033844588324427605
1782969992128495400,7.016495361328125,0.0015931392554193735,-0.0018193398136645555,-0.0002804644173011184
1782969992138421500,7.02642138671875,-0.000055623801017645746,0.0015724622644484043,0.0024711135774850845
1782969992148348400,7.036348388671875,-0.00003051973908441141,0.00125990342348814,0.0014570807106792927
1782969992158274300,7.0462744140625,-0.002256656065583229,0.00017706211656332016,-0.00121114042121917
1782969992168200400,7.056200439453125,-0.0022066328674554825,0.0033865738660097122,0.002042020671069622
1782969992178127600,7.066127685546875,-0.0011533524375408888,0.002521578688174486,0.000044916290789842606
1782969992188053200,7.07605322265625,-0.0011812762822955847,-0.0005546011961996555,-0.0004786393838003278
1782969992197979400,7.0859794921875,0.0007407270604744554,0.0019120187498629093,0.0010702550644055009
1782969992207906600,7.095906494140625,-0.0016743033193051815,0.001417661551386118,-0.00042079994454979897
1782969992217832400,7.10583251953125,0.00016274515655823052,0.0003460054285824299,-0.0018828753381967545
1782969992227758300,7.11575830078125,0.003577303374186158,0.00041490281000733376,0.0017596763791516423
1782969992237685500,7.125685546875,0.00045341544318944216,0.0006348802708089352,0.00018095457926392555
1782969992247611600,7.135611572265625,0.0010385247878730297,-0.00038310419768095016,0.0010366986971348524
1782969992257537300,7.145537353515625,-0.0008696301374584436,-0.0004558083601295948,-0.0005598664283752441
1782969992267464400,7.15546435546875,-0.0009625542443245649,-0.000315692275762558,0.0005355320172384381
1782969992277390600,7.165390625,0.0013570589944720268,-0.0009886729530990124,0.0009925303747877479
1782969992287316500,7.17531640625,0.003646264551207423,0.0002239532768726349,0.002721823053434491
1782969992297243400,7.185243408203125,-0.0008944252622313797,0.0016114600002765656,0.00007224408909678459
1782969992307169500,7.19516943359375,-0.00007174171332735568,-0.002481105737388134,-0.0004130310844630003
1782969992317095400,7.205095458984375,0.0010877985041588545,-0.002163390628993511,0.000787522061727941
1782969992327022600,7.215022705078125,0.0005832278402522206,0.0011017583310604095,-0.0008712006965652108
1782969992336948500,7.224948486328125,-0.0007539453217759728,0.0009664697572588921,-0.004828924313187599
1782969992346874400,7.234874267578125,0.00028606149135157466,0.0007447772659361362,0.00007899815682321787
1782969992356801500,7.244801513671875,0.00014171816292218864,0.002171166241168976,-0.0015766890719532967
1782969992366727400,7.2547275390625,0.0013051725691184402,0.0005678087472915649,-0.0008819022914394736
1782969992376653300,7.2646533203125,0.0007560288067907095,0.00037233252078294754,0.00014581158757209778
1782969992386579700,7.274579833984375,0.00043302029371261597,0.00006275903433561325,-0.0007397959707304835
1782969992396505900,7.284505859375,-0.0001262435398530215,-0.00009942753240466118,-0.0004369945963844657
1782969992406432000,7.294431884765625,-0.0003973727289121598,-0.00012872088700532913,-0.0004777106223627925
1782969992416358700,7.304358642578125,0.000534733640961349,0.0005139000713825226,-0.0004313716199249029
1782969992426284800,7.314284912109375,-0.002438918687403202,0.0013542640954256058,-0.0004425860242918134
1782969992436211000,7.3242109375,-0.0016644715797156096,-0.0022346118930727243,-0.0007698885165154934
1782969992446137900,7.334137939453125,-0.00037370360223576427,-0.00348650268279016,-0.001305239275097847
1782969992456063700,7.344063720703125,0.0013368447544053197,-0.0010920544154942036,-0.0025683764833956957
1782969992465990000,7.353989990234375,-0.0005146999610587955,-0.0012094746343791485,-0.0009005807805806398
1782969992475916800,7.363916748046875,-0.0009961995529010892,-1.3317912817001343e-7,-0.0008071038173511624
1782969992485843000,7.373843017578125,0.0018331233877688646,-0.00016533257439732552,-0.0012558747548609972
1782969992495768800,7.383768798828125,0.0009159307228401303,0.0014152531512081623,0.0014264611527323723
1782969992505695700,7.39369580078125,-0.0012571627739816904,0.0002815639600157738,0.0009986249497160316
1782969992515622000,7.403621826171875,-0.0017988497857004404,-0.0012425631284713745,-0.00009140674956142902
1782969992525549000,7.413549072265625,0.000413266709074378,0.0014463928528130054,-0.0009174540173262358
1782969992535474700,7.423474609375,0.001130455988459289,0.00024184491485357285,0.001267935847863555
1782969992545400800,7.43340087890625,-0.0002010573516599834,-0.0014617179986089468,-0.0018624196527525783
1782969992555328000,7.443327880859375,0.0037465463392436504,-0.0006302790716290474,0.001253745169378817
1782969992565253600,7.453253662109375,-0.0004978722427040339,0.0015069739893078804,0.0011882896069437265
1782969992575179800,7.4631796875,-0.0005087911849841475,-0.002268322976306081,-0.0012988365488126874
1782969992585107000,7.47310693359375,0.0024634283035993576,-0.0032417934853583574,-0.00019741151481866837
1782969992595032800,7.48303271484375,-0.0011904287384822965,0.0009271190501749516,0.0005690461257472634
1782969992604958700,7.492958740234375,-0.0010561321396380663,-0.00037570251151919365,-0.0014787736581638455
1782969992614886000,7.502885986328125,-0.002432187320664525,-0.0004076603800058365,0.0021303421817719936
1782969992624811800,7.512811767578125,-0.0010705296881496906,-0.0013324911706149578,0.0022713395301252604
1782969992634737700,7.522737548828125,0.001240295241586864,0.0004414403811097145,-0.0018038295675069094
1782969992644664800,7.532664794921875,-0.0009434232488274574,0.0001041521318256855,0.0015028697671368718
1782969992654590700,7.5425908203125,-0.0023325278889387846,0.001343853771686554,-0.001152834389358759
1782969992664516900,7.552516845703125,0.0005918772658333182,-0.00035810889676213264,-0.001853784080594778
1782969992674443800,7.56244384765625,0.0019852430559694767,0.0011937147937715054,-0.0012127611553296447
1782969992684370000,7.572369873046875,0.0008217331487685442,-0.0007028155960142612,0.0000847553601488471
1782969992694295800,7.5822958984375,-0.0019120017532259226,-0.0013259951956570148,-0.0010124670807272196
1782969992704223000,7.592222900390625,-0.0005628889193758368,-0.0002945153973996639,0.002857295097783208
1782969992714148900,7.60214892578125,-0.0004180129326414317,-0.001094795297831297,0.001123577356338501
1782969992724074800,7.61207470703125,-0.001465716864913702,-0.0004150243476033211,0.002026502275839448
1782969992734002000,7.622001953125,-0.0016060654306784272,0.00007286667823791504,-0.0005194796831347048
1782969992743927800,7.631927734375,-0.0035258436109870672,0.0005674660205841064,-0.00013387983199208975
1782969992753853700,7.641853759765625,0.0003402672300580889,-0.0013872943818569183,0.000692765461280942
1782969992763780900,7.65178076171875,0.0025004660710692406,-0.0011280183680355549,0.0023038729559630156
1782969992773707000,7.66170703125,-0.001097997184842825,0.000501569826155901,0.0017555279191583395
1782969992783632600,7.671632568359375,0.0008587981574237347,0.0002988702617585659,0.003095656167715788
1782969992793559800,7.681559814453125,0.0022833230905234814,0.00027703214436769485,0.000891624134965241
1782969992803486000,7.69148583984375,0.0009462033049203455,-0.0000034989789128303528,0.0010550037259235978
1782969992813411800,7.701411865234375,0.0019427582155913115,-0.0006021778099238873,-0.000149810453876853
1782969992823338800,7.7113388671875,-0.000046691871830262244,-0.002157743787392974,0.0014205229235813022
1782969992833265000,7.721264892578125,0.0009895440889522433,0.0013823960907757282,-0.000350479269400239
1782969992843190800,7.731190673828125,-0.00019971176516264677,0.0015285471454262733,-0.0003253091126680374
1782969992853118000,7.741117919921875,0.002268772106617689,-0.0009242240339517593,-0.0013072165893390775
1782969992863043800,7.7510439453125,-0.0027880463749170303,0.0008787643164396286,-0.00080668437294662
1782969992872970000,7.760969970703125,-0.0011962748831138015,0.0004420056939125061,0.0010141187813133001
1782969992882897000,7.77089697265625,-0.0006060073501430452,0.000588513445109129,0.0005085548618808389
1782969992892822800,7.78082275390625,-0.0031615765765309334,-0.000004838686436414719,-0.0009130404214374721
1782969992902749700,7.790749755859375,0.002802786650136113,-0.0003101713955402374,0.0008767638355493546
1782969992912675800,7.80067578125,-0.0002739634073805064,-0.00046010734513401985,0.0003167010145261884
1782969992922602000,7.81060205078125,-0.0016006475780159235,-0.000664140097796917,0.0006723044207319617
1782969992932528600,7.820528564453125,0.0003637000045273453,0.0005113789811730385,-0.0018419859698042274
1782969992942454800,7.830454833984375,-0.0013530481373891234,0.0018256427720189095,-0.0015740575036033988
1782969992952381000,7.840380859375,0.001828363980166614,0.0019175214692950249,0.001105881412513554
1782969992962307800,7.850307861328125,-0.0024474889505654573,0.0012826435267925262,0.0019067906541749835
1782969992972233700,7.860233642578125,-0.003644846146926284,0.002059487160295248,-0.0003829951165243983
1782969992982160000,7.870159912109375,0.0007548953872174025,-0.0004675304517149925,0.0016763813327997923
1782969992992086800,7.880086669921875,-0.0005388682475313544,0.003054233267903328,0.0003061851020902395
1782969993002012700,7.8900126953125,0.0015707684215158224,-0.00016436586156487465,0.00008692126721143723
1782969993011938800,7.899938720703125,-0.0006180836935527623,0.0006463001482188702,-0.0004057635087519884
1782969993021865700,7.90986572265625,-0.0017038717633113265,0.0035669859498739243,-0.0005194825353100896
1782969993031791900,7.9197919921875,0.00048231720575131476,-0.00012841634452342987,-0.0004662193823605776
1782969993041717800,7.9297177734375,0.0013140876544639468,-0.0010129734873771667,0.0016393264522776008
1782969993051645000,7.93964501953125,-0.001380498637445271,0.0002245977520942688,-0.0026931038592010736
1782969993061570800,7.94957080078125,-0.0009177561150863767,-0.000525670126080513,0.0018357897642999887
1782969993071496700,7.95949658203125,-0.002082090126350522,0.0023220479488372803,0.0002530730562284589
1782969993081424000,7.969423828125,0.0005655526183545589,-0.00161943887360394,0.002280035289004445
1782969993091349800,7.979349853515625,-0.0001716103870421648,-0.00014697713777422905,0.0010914665181189775
1782969993101276000,7.98927587890625,-0.0007428565877489746,0.0005745422095060349,-0.0017638941062614322
1782969993111201800,7.999201904296875,-0.0006219490896910429,-0.0019224374555051327,0.0009099196176975965
1782969993121128000,8.0091279296875,0.0011899243108928204,-0.0012591802515089512,0.00046541448682546616
1782969993131054800,8.019054931640625,-0.0007496559410355985,-0.0006533111445605755,0.002419109456241131
1782969993140980700,8.028980712890625,0.00032643115264363587,-0.0014861270319670439,0.0008497495437040925
1782969993150907000,8.038906982421874,-0.00008795669418759644,-0.00046906573697924614,-0.0012589413672685623
1782969993160833800,8.048833740234375,-0.00033084372989833355,0.0023054764606058598,-0.0011226306669414043
1782969993170760000,8.058760009765624,0.0003730297612491995,-0.0012815352529287338,-0.0004009139956906438
1782969993180685800,8.068685791015625,0.00101755082141608,0.0002576052211225033,-0.00009444332681596279
1782969993190612700,8.07861279296875,-0.0021044728346168995,-0.0017823763191699982,0.0004618909442797303
1782969993200539000,8.088538818359375,0.0012736334465444088,-0.0004027807153761387,0.0006877511041238904
1782969993210464800,8.09846484375,-0.00026460833032615483,-0.0001971847377717495,0.0005972037324681878
1782969993220391700,8.1083916015625,-0.0006663432577624917,0.00009778980165719986,0.0020447985734790564
1782969993230317800,8.11831787109375,-0.002017897553741932,0.000813647173345089,-0.0019560682121664286
1782969993240244000,8.128243896484374,0.00007155050116125494,-0.0005447985604405403,-0.0005270335823297501
1782969993250170600,8.138170654296875,0.0024779830127954483,-0.0033967779017984867,0.001163008389994502
1782969993260096800,8.1480966796875,0.0009075209964066744,-0.000021039973944425583,-0.0011426376877352595
1782969993270023000,8.15802294921875,-0.002463774522766471,-0.001230647787451744,0.0013002799823880196
1782969993279949800,8.16794970703125,-0.0019280582200735807,0.00018595019355416298,0.00003906944766640663
1782969993289875700,8.177875732421874,-0.0004896848695352674,0.00030286284163594246,0.002637249417603016
1782969993299801900,8.1878017578125,-0.0013272345531731844,-0.0011941124685108662,0.0015124618075788021
1782969993309728800,8.197728759765624,0.0011324610095471144,0.0013734414242208004,0.002997973235324025
1782969993319655000,8.207655029296875,-0.0008894229540601373,-0.002380538731813431,-0.0019265301525592804
1782969993329580800,8.217580810546876,-0.00019007688388228416,-0.0006899642758071423,-0.0021499693393707275
1782969993339507700,8.2275078125,0.00011632591485977173,-0.0006180335767567158,0.0006347860908135772
1782969993349433900,8.237433837890626,-0.000008310023986268789,-0.002539237728342414,0.0016529125859960914
1782969993359359700,8.24735986328125,-0.002199866808950901,-0.001265589613467455,0.0007746603805571795
1782969993369286700,8.25728662109375,0.0017746348166838288,-0.0013774426188319921,0.00018130824901163578
1782969993379212800,8.267212890625,0.000006902591849211603,-0.0043573081493377686,-0.0008562573930248618
1782969993389139500,8.277139404296875,-0.0033827689476311207,0.0011202814057469368,0.000448957784101367
1782969993399066000,8.287066162109374,0.00019627918663900346,-0.00004126597195863724,-0.002368849702179432
1782969993408992300,8.2969921875,-0.0008926874143071473,0.002520162146538496,-0.003738247323781252
1782969993418918400,8.30691845703125,0.0006371397757902741,0.00046968692913651466,0.0021453709341585636
1782969993428845300,8.31684521484375,0.0017018715152516961,0.0011679679155349731,-0.0017228703945875168
1782969993438771200,8.326771240234375,0.0004934233147650957,0.00017316266894340515,0.0009398217080160975
1782969993448697300,8.336697265625,-0.0010466828243806958,0.0005358848720788956,-0.0007025496452115476
1782969993458624300,8.346624267578125,0.00027284814859740436,-0.0007075890898704529,-0.002091921865940094
1782969993468550100,8.356550048828124,0.0012118787271901965,0.00260458467528224,-0.004241891670972109
1782969993478476300,8.366476318359375,0.0015960097080096602,0.0013409387320280075,0.00085209752433002
1782969993488403200,8.3764033203125,-0.001468756003305316,-0.000007419846951961517,0.0001287829363718629
1782969993498329300,8.386329345703125,0.0014837872004136443,0.000532511156052351,0.0005899361567571759
1782969993508256500,8.396256591796876,-0.001105604344047606,-0.000547400675714016,-0.0031723114661872387
1782969993518183200,8.40618310546875,0.0005750922719016671,-0.0012574740685522556,-0.00004341406747698784
1782969993528109300,8.416109375,-0.00042572367237880826,0.00032657384872436523,0.002189912833273411
1782969993538035500,8.426035400390624,-0.0013523261295631528,0.0012381486594676971,0.002755825873464346
1782969993547962400,8.43596240234375,-0.0010801510652527213,0.0002999170683324337,-0.00070415303343907
1782969993557888300,8.44588818359375,0.00013698585098609328,0.0002878778614103794,0.0009116920409724116
1782969993567814400,8.455814453125,0.00021608173847198486,0.0005379486829042435,0.0010017069289460778
1782969993577741300,8.4657412109375,-0.0009426614851690829,-0.00011237198486924171,-0.000026007182896137238
1782969993587667200,8.475667236328125,-0.0008659624145366251,0.0007390403188765049,0.0027564633637666702
1782969993597593300,8.48559326171875,0.0006797549431212246,0.0005475562065839767,0.0006735956994816661
1782969993607520300,8.495520263671875,-0.0005913718487136066,-0.000013305339962244034,-0.00004013138823211193
1782969993617446400,8.5054462890625,-0.002096297685056925,0.0002863677218556404,-0.0007289818022400141
1782969993627372300,8.515372314453124,-0.0007423466886393726,0.000004605390131473541,0.0007482736837118864
1782969993637299200,8.52529931640625,-0.003106551244854927,0.002657594159245491,-0.0009706610580906272
1782969993647225300,8.535225341796876,-0.002401878824457526,-0.00013393070548772812,-0.0005493490025401115
1782969993657151200,8.545151123046875,0.0015856066020205617,-0.0023765393998473883,-0.00036151614040136337
1782969993667078100,8.555078125,-0.0008839426445774734,-0.0011866390705108643,0.0008214600384235382
1782969993677004300,8.56500439453125,-0.0014160237042233348,0.0003117523156106472,-0.00016596191562712193
1782969993686930400,8.574930419921875,-0.001380603644065559,0.0010664924047887325,-0.0024522857274860144
1782969993696857000,8.584857177734374,0.0005025924183428288,-0.0023040727246552706,-0.0005655840504914522
1782969993706783200,8.594783203125,0.0006136462325230241,0.0009130258113145828,-0.0018617445603013039
1782969993716709400,8.60470947265625,0.002019512467086315,-0.0006864033639431,-0.0016614363994449377
1782969993726636300,8.61463623046875,0.0006623654626309872,0.0035062115639448166,-0.0003303884295746684
1782969993736562200,8.624562255859376,-0.0008387031848542392,-0.0008830307051539421,0.0010381396859884262
1782969993746488300,8.63448828125,0.002082784427329898,0.0007265838794410229,-0.001506510772742331
1782969993756415500,8.64441552734375,0.0011629740474745631,-0.002472778083756566,0.00020060944370925426
1782969993766341000,8.654341064453124,0.0016015965957194567,-0.00169859710149467,-0.0009711814345791936
1782969993776267300,8.664267333984375,-0.00207524630241096,0.003621618263423443,-0.0026397625915706158
1782969993786194400,8.6741943359375,0.00018923947936855257,0.0000543142668902874,-0.0027364352717995644
1782969993796120300,8.684120361328125,-0.0012087286449968815,0.0013636024668812752,-0.00042168109212070704
1782969993806046200,8.694046142578125,-0.0008784966776147485,0.00045706238597631454,0.0006539697060361505
1782969993815973400,8.703973388671875,0.001099080080166459,0.002710049506276846,-0.004230243153870106
1782969993825899300,8.713899169921875,-0.0008050801116041839,0.0007893778383731842,-0.0026456620544195175
1782969993835826400,8.723826416015624,-0.0003897777060046792,0.0009907176718115807,-0.00030668918043375015
1782969993845752300,8.73375244140625,0.0013359506847336888,-0.003392845392227173,-0.0009312004549428821
1782969993855678200,8.74367822265625,-0.0003248517750762403,-0.00016018329188227654,-0.0009984859498217702
1782969993865605400,8.75360546875,0.0023814523592591286,-0.0030214833095669746,0.002493717009201646
1782969993875531500,8.763531494140626,-0.00009810138726606965,-0.00041686417534947395,-0.0006198305636644363
1782969993885457200,8.77345703125,0.0005309372791089118,0.000014834105968475342,-0.002763941418379545
1782969993895384300,8.78338427734375,0.0007967668352648616,0.0007513272576034069,0.002879764884710312
1782969993905310500,8.793310546875,-0.00013693745131604373,-0.00016160402446985245,0.0010339276632294059
1782969993915236400,8.803236328125,0.0012622893555089831,0.001658045221120119,0.0002128493506461382
1782969993925163300,8.813163330078124,-0.0014469444286078215,-0.0004498464986681938,-0.0011810491560027003
1782969993935089400,8.82308935546875,0.002843379508703947,-0.0017703771591186523,-0.0010545902187004685
1782969993945015600,8.833015625,0.000623901083599776,-0.0013663757126778364,-0.0004806789802387357
1782969993954942200,8.842942138671875,-0.0004729724896606058,0.0006893929094076157,0.000557861989364028
1782969993964868400,8.852868408203125,-0.001299085095524788,-0.000987865962088108,-0.0007979533402249217
1782969993974794500,8.86279443359375,0.0014316035667434335,0.0018995278514921665,-0.0005569658242166042
1782969993984721400,8.872721435546875,-0.0006813484942540526,0.0001562228426337242,0.000240917201153934
1782969993994647300,8.882647216796874,-0.0009913158137351274,0.0012726718559861183,-0.0011326607782393694
1782969994004573400,8.892573486328125,0.00031816057162359357,0.0007371101528406143,-0.0030554630793631077
1782969994014500400,8.902500244140626,-0.0036261812783777714,0.000346464104950428,-0.0005359303904697299
1782969994024426200,8.91242626953125,0.0014772344147786498,-0.0014469083398580551,-0.0005796062760055065
1782969994034352400,8.922352294921875,-0.00048267142847180367,-0.0017460959497839212,-0.0011302835773676634
1782969994044279300,8.932279296875,-0.0002075668890029192,-0.00035592587664723396,-0.0013164384290575981
1782969994054205400,8.942205322265625,0.0007007927051745355,0.0018092026002705097,0.003140892367810011
1782969994064131300,8.95213134765625,-0.0008853860199451447,-0.00018843449652194977,0.0006258027860894799
1782969994074058200,8.962058349609375,-0.0022155398037284613,-0.0010501961223781109,-0.0016361576272174716
1782969994083984400,8.971984375,-0.0009217761689797044,0.0005085524171590805,0.0012831996427848935
1782969994093910300,8.98191015625,0.00028638471849262714,0.00003835512325167656,-0.00039430742617696524
1782969994103837200,8.991837158203126,-0.0026723872870206833,0.0007158634252846241,-0.0008963132277131081
1782969994113763300,9.001763427734375,-0.0009729609591886401,0.0001446511596441269,-0.001582256518304348
1782969994123689500,9.011689453125,-0.00004005567461717874,-0.000931798480451107,-0.0007697261171415448
1782969994133616000,9.0216162109375,0.0006823115982115269,0.0019471943378448486,0.0009927309583872557
1782969994143542300,9.031542236328125,-0.0008000038214959204,0.0007471740245819092,-0.00008771347347646952
1782969994153468400,9.041468505859376,0.0017233941471204162,-0.00035739224404096603,0.001955091953277588
1782969994163395300,9.051395263671875,0.0001984680857276544,-0.0012138648889958858,0.0010578728979453444
1782969994173321200,9.0613212890625,0.0012166042579337955,0.00043135974556207657,-0.0026205582544207573
1782969994183247400,9.071247314453124,0.00020859776122961193,0.0008769063279032707,-0.001798440469428897
1782969994193174300,9.08117431640625,-0.000766236160416156,0.0020296527072787285,-0.0016020415350794792
1782969994203100400,9.091100341796874,-0.0008240268216468394,-0.00030434178188443184,0.0010509995045140386
1782969994213026300,9.1010263671875,-0.0003473656834103167,0.0010043615475296974,-0.002401928184553981
1782969994222953200,9.110953125,-0.002168168779462576,0.002651792950928211,-0.0010327971540391445
1782969994232879400,9.12087939453125,-0.0008339356281794608,-0.00012957816943526268,0.0016607778379693627
1782969994242805200,9.13080517578125,0.0009988518431782722,-0.0009008296765387058,-0.0017994673689827323
1782969994252732200,9.140732177734375,-0.0019555059261620045,-0.0014431336894631386,-0.0026472401805222034
1782969994262658300,9.150658203125,0.0016528109554201365,-0.00014590797945857048,0.0021810708567500114
1782969994272584400,9.16058447265625,0.003812274429947138,-0.0006558261811733246,-0.0009564033825881779
1782969994282511400,9.170511474609375,0.0027787017170339823,-0.001836671493947506,0.000417254981584847
1782969994292437200,9.180437255859376,0.0009740939713083208,0.0010631196200847626,-0.0005475254729390144
1782969994302363400,9.19036328125,-0.0009756062645465136,0.0001967931166291237,0.0019294805824756622
1782969994312290300,9.200290283203126,-0.0009358796523883939,-0.0030432995408773422,0.002695796312764287
1782969994322216200,9.21021630859375,0.0006755990907549858,0.0010880623012781143,-0.002473399043083191
1782969994332142300,9.220142333984375,-0.0012248476268723607,-0.0008234870620071888,0.0009001137223094702
1782969994342069500,9.230069580078125,0.002141654258593917,0.001615169458091259,-0.00030336889903992414
1782969994351995100,9.2399951171875,-0.000644052168354392,0.0008736364543437958,0.0010871726553887129
1782969994361922300,9.24992236328125,0.0006449178326874971,-0.0011341208592057228,-0.0009381612180732191
1782969994371848400,9.259848388671875,-0.0009586786618456244,-0.000922071747481823,-0.0011585706379264593
1782969994381774300,9.2697744140625,-0.0028998565394431353,0.0013932804577052593,0.0012774227652698755
1782969994391700000,9.279699951171875,-0.001775952521711588,-0.0009384267032146454,0.0005629430525004864
1782969994401627100,9.289627197265625,0.00035590786137618124,0.00022564129903912544,-0.0014251067768782377
1782969994411553000,9.299552978515624,0.0007296529365703464,0.0005863159894943237,-0.0014709167880937457
1782969994421480000,9.30947998046875,0.001606631907634437,-0.000004639383405447006,-0.0009257677593268454
1782969994431406000,9.319406005859374,-0.0008069775649346411,-0.001886041834950447,0.0006384393200278282
1782969994441332000,9.32933203125,-0.0017835588660091162,0.001523869577795267,-0.000520035857334733
1782969994451259000,9.3392587890625,0.001925711752846837,-0.0005651842802762985,0.0005199918523430824
1782969994461185000,9.34918505859375,0.00009185902308672667,0.0023275413550436497,-0.002063274383544922
1782969994471111200,9.359111083984375,0.002008614595979452,-0.0014054409693926573,-0.0009608613327145576
1782969994481037800,9.369037841796874,-0.0019762732554227114,0.0009996597655117512,-0.0008077295497059822
1782969994490964000,9.3789638671875,-0.0009012205991894007,0.0021695648320019245,0.000776403583586216
1782969994500890000,9.38889013671875,0.00023674809199292213,-0.0019663244020193815,-0.00019405235070735216
1782969994510817000,9.398817138671875,0.00033638140303082764,-0.0004604957066476345,-0.00020954664796590805
1782969994520743000,9.408742919921876,-0.0005174280377104878,-0.0031987580005079508,-0.001953384606167674
1782969994530669000,9.4186689453125,0.002478189067915082,0.00001942133530974388,0.0019039715407416224
1782969994540596000,9.428595947265626,0.00033008315949700773,-0.0006032255478203297,-0.00008913816418498755
1782969994550521900,9.43852197265625,-0.0004127862921450287,0.0007215975783765316,0.0005880561657249928
1782969994560448000,9.448447998046875,0.0034863478504121304,-0.001384163973852992,-0.0009776162914931774
1782969994570375000,9.458375,0.0022997488267719746,-0.00003958260640501976,-0.002820872236043215
1782969994580301000,9.468301025390625,-0.0004797923029400408,-0.0011791489087045193,0.001647379482164979
1782969994590227000,9.47822705078125,0.0009626339306123555,-0.00004502013325691223,-0.0009060846059583127
1782969994600153900,9.48815380859375,-0.0021247686818242073,0.0005454025231301785,-0.0004597387742251158
1782969994610080000,9.498080078125,-0.00044054791214875877,-0.0010167397558689117,-0.0000509386882185936
1782969994620006000,9.508005859375,0.0006699902005493641,0.0000019194558262825012,-0.0016506995307281613
1782969994629932800,9.517932861328125,0.0010573051404207945,0.000010021962225437164,0.0002938086399808526
1782969994639859000,9.52785888671875,0.0015281520318239927,0.00026355497539043427,-0.002234596526250243
1782969994649785000,9.53778515625,-0.0010713119991123676,0.00026755640283226967,-0.0012074895203113556
1782969994659711700,9.547711669921876,-0.001054267748259008,-0.001387597993016243,0.0023592819925397635
1782969994669638000,9.557637939453125,-0.0003496444260235876,0.0025825193151831627,0.0005839440273120999
1782969994679564000,9.56756396484375,-0.0031630077864974737,0.0003332137130200863,0.0007346790516749024
1782969994689491000,9.577490966796875,0.0006680171936750412,0.0003577987663447857,0.0008351203287020326
1782969994699416800,9.587416748046875,-0.0015152422711253166,-0.0010379641316831112,-0.0018797059310600162
1782969994709343000,9.597343017578124,-0.0002957258257083595,0.002181605901569128,-0.0009468443458899856
1782969994719270000,9.607269775390625,-0.00158016849309206,-0.000043997541069984436,-0.00007918651681393385
1782969994729195800,9.61719580078125,0.0018490056972950697,0.00048602186143398285,0.0004478958435356617
1782969994739122000,9.627121826171875,0.0015973369590938091,-0.000601879321038723,0.0006739981472492218
1782969994749048800,9.637048828125,-0.00037038495065644383,0.0004080338403582573,-0.003506376873701811
1782969994758975000,9.64697509765625,0.0005052624037489295,-0.00004736660048365593,-0.00011643918696790934
1782969994768900900,9.65690087890625,-0.0022747921757400036,-0.0016104141250252724,-0.0007536954944953322
1782969994778828000,9.666828125,0.0022832080721855164,0.0006237118504941463,0.0012993353884667158
1782969994788754000,9.67675390625,-0.00006007135380059481,0.0019183717668056488,0.0005968254990875721
1782969994798680000,9.68668017578125,-0.00013756932457908988,-0.0004457165487110615,0.0003073398256674409
1782969994808607000,9.69660693359375,0.002101986901834607,0.0006149876862764359,0.00013185804709792137
1782969994818532900,9.706532958984376,0.0007256652461364865,-0.0005951528437435627,0.0007923218654468656
1782969994828459000,9.716458984375,-0.0008400781080126762,0.00167804304510355,-0.0004454628797248006
1782969994838386200,9.72638623046875,0.0006491615786217153,0.00019732536748051643,0.00016040634363889694
1782969994848311800,9.736311767578124,-0.0010872986167669296,0.00032897572964429855,0.0019848812371492386
1782969994858238000,9.746238037109375,-0.0015126054640859365,-0.0012904924806207418,-0.00013925600796937943
1782969994868165000,9.7561650390625,0.0014022078830748796,-0.0007567903958261013,0.000804194831289351
1782969994878090800,9.7660908203125,0.00047729205107316375,0.0001382981427013874,-0.00016626110300421715
1782969994888017000,9.776016845703126,0.0005952505161985755,0.000891741830855608,0.0016629984602332115
1782969994897944000,9.785944091796875,0.00029058492509648204,-0.0009415782988071442,-0.0005692631821148098
1782969994907870000,9.795869873046875,-0.0005605252808891237,0.0010733501985669136,0.0010141899110749364
1782969994917795800,9.8057958984375,-0.0017024886328727007,-0.0025847679935395718,0.0013090017018839717
1782969994927723000,9.815722900390625,0.0006197972688823938,0.0006635189056396484,0.0012853927910327911
1782969994937649000,9.82564892578125,-0.002758955117315054,0.00013088667765259743,0.003228168934583664
1782969994947574800,9.83557470703125,0.0000789710902608931,0.002518060151487589,-0.0017807752592489123
1782969994957502000,9.845501953125,0.002012159675359726,0.0023476178757846355,-0.002475327579304576
1782969994967428000,9.855427978515625,-0.0011865866836160421,-0.00009109964594244957,0.00005205289926379919
1782969994977354000,9.86535400390625,0.00021024125453550369,-0.0004953676834702492,-0.0009293219191022217
1782969994987281000,9.875281005859375,0.0006743747508153319,0.00010166503489017487,0.0016160124214366078
1782969994997207000,9.88520703125,0.0001643794239498675,0.0003453441895544529,0.0013267929898574948
1782969995007133000,9.8951328125,0.0002141240838682279,0.0004208972677588463,0.0004382163751870394
1782969995017060000,9.90506005859375,-0.0009384920122101903,0.002060339320451021,-0.0006717891083098948
1782969995026986000,9.914986083984376,-0.0016860583564266562,0.001375746913254261,0.0008301608031615615
1782969995036911900,9.924911865234375,0.00017096393276005983,-0.0018733094912022352,0.0011702465126290917
1782969995046839000,9.934839111328126,-0.00104197405744344,-0.001007664017379284,-0.004333806224167347
1782969995056765000,9.944764892578124,-0.001009749830700457,0.0016163485124707222,0.0006609519477933645
1782969995066690800,9.95469091796875,0.0005743102519772947,0.00047625740990042686,-0.003015920054167509
1782969995076618000,9.964617919921874,-0.00009387687896378338,-0.001725377980619669,-0.0031062013003975153
1782969995086544100,9.974544189453125,-0.0012859172420576215,-0.0010501034557819366,-0.0006581137422472239
1782969995096469800,9.9844697265625,0.0017399664502590895,0.000006638932973146439,0.0006995657458901405
1782969995106397000,9.99439697265625,-0.00004668644396588206,0.0020867986604571342,-0.002033621072769165
1782969995116323000,10.004322998046876,0.00048514685477130115,0.00011472823098301888,0.0003565660445019603
1782969995126249000,10.0142490234375,-0.0018490951042622328,0.000018315855413675308,-0.0011591113870963454
1782969995136175900,10.02417578125,0.0006084699416533113,0.0006990195252001286,-0.0026451554149389267
1782969995146102000,10.03410205078125,0.0003416257386561483,0.0001186588779091835,0.00033352815080434084
1782969995156028200,10.044028076171875,0.00010487070539966226,0.0005413028411567211,-0.0006632930599153042
1782969995165955000,10.053955078125,-0.0011533815413713455,0.002021308057010174,-0.0003309395397081971
1782969995175881000,10.063880859375,-0.00006175186717882752,-0.0014597098343074322,0.0003044907934963703
1782969995185807000,10.07380712890625,0.0009976489236578345,0.0012858640402555466,-0.000346136512234807
1782969995195734000,10.083734130859375,0.001979023916646838,-0.0011330852285027504,0.0017588260816410184
1782969995205660000,10.093659912109375,0.00021182032651267946,0.0008489233441650867,-0.0001643850700929761
1782969995215586000,10.1035859375,-0.0009506494970992208,-0.0011638938449323177,-0.0006576025043614209
1782969995225513000,10.113512939453125,0.0014887492870911956,0.00005243765190243721,0.0007404270581901073
1782969995235439000,10.123439208984376,-0.0018998569576069713,-0.0002623479813337326,0.0034477966837584972
1782969995245365800,10.13336572265625,-0.00007633346831426024,-0.0009469473734498024,0.00012750050518661737
1782969995255292000,10.1432919921875,-0.001545066712424159,-0.0003876839764416218,-0.0011987537145614624
1782969995265218000,10.153218017578125,-0.0001976654166355729,-0.0011024409905076027,-0.0007749253418296576
1782969995275145000,10.16314501953125,-0.00000431991065852344,0.0016211741603910923,0.000532686710357666
1782969995285070800,10.17307080078125,0.0004855752340517938,-0.0002529597841203213,-0.001758683705702424
1782969995294997000,10.1829970703125,0.0003518845478538424,-0.0014686929062008858,-0.0012476230040192604
1782969995304924000,10.192923828125,-0.0004126967687625438,-0.0007439465261995792,-0.0029536806978285313
1782969995314849800,10.202849853515625,0.000602500222157687,-0.002027856418862939,-0.0023328978568315506
1782969995324776000,10.21277587890625,0.00006984203355386853,0.0006276322528719902,0.002885563997551799
1782969995334702800,10.222702880859375,0.0005079320399090648,0.0010329652577638626,0.0016969949938356876
1782969995344629000,10.23262890625,-0.0010664415312930942,0.0014916821382939816,0.002232892671599984
1782969995354555000,10.242554931640624,0.0023416057229042053,-0.0006122151389718056,-0.0008137636468745768
1782969995364482000,10.25248193359375,0.0015933882677927613,0.0005687419325113297,-0.001179145066998899
1782969995374408000,10.262407958984374,-0.0010569895384833217,0.0006497018039226532,0.0015186370583251119
1782969995384333800,10.272333740234375,-0.000018319376977160573,-0.00032760901376605034,0.0008668197551742196
1782969995394261000,10.282260986328126,0.0017715911380946636,-0.00008845701813697815,0.0007323302561417222
1782969995404187000,10.292186767578125,0.0009070670348592103,-0.001976713538169861,0.002644753083586693
1782969995414113000,10.302113037109375,0.0007600605022162199,0.0003759232349693775,0.0006508443038910627
1782969995424040000,10.3120400390625,-0.0004101446829736233,0.000026314053684473038,0.0017777732573449612
1782969995433965800,10.3219658203125,0.00021702973754145205,0.0015749423764646053,0.000580415828153491
1782969995443892000,10.33189208984375,0.00047975091729313135,0.0015777191147208214,-0.000933579751290381
1782969995453819100,10.341819091796875,0.0018089346121996641,-0.0014777255710214376,0.000006516114808619022
1782969995463744800,10.351744873046876,0.0008933410281315446,0.0009746630676090717,0.0010522585362195969
1782969995473671000,10.3616708984375,-0.0002968256885651499,-0.0005137776024639606,-0.00115203985478729
1782969995483598000,10.37159814453125,0.001376173342578113,-0.0018428280018270016,-0.0007228066097013652
1782969995493523700,10.381523681640624,0.000596399768255651,-0.00021270709112286568,0.0006274159532040358
1782969995503449900,10.391449951171875,0.0004262449510861188,0.0011354549787938595,-0.0006516012945212424
1782969995513377000,10.401376953125,0.0016385158523917198,-0.0031375871039927006,-0.0009765069698914886
1782969995523303000,10.411302978515625,0.0002429171436233446,-0.0022727528121322393,-0.0002310225972905755
1782969995533228800,10.421228759765626,-0.00020822236547246575,0.0005448716692626476,0.001112542231567204
1782969995543156000,10.431156005859375,0.0008291127742268145,0.0010575507767498493,-0.00010713271331042051
1782969995553082000,10.44108203125,0.0027212887071073055,-0.0014761807397007942,-0.0006208564736880362
1782969995563007700,10.4510078125,-0.0015901420265436172,0.0011085211299359798,-0.002147673163563013
1782969995572935000,10.460934814453125,0.0013843425549566746,-0.002668373752385378,0.002108857035636902
1782969995582861000,10.470861083984374,0.00034279454848729074,0.0007319063879549503,-0.0009886700427159667
1782969995592787000,10.480786865234375,0.0012125829234719276,-0.001604218501597643,0.00034211156889796257
1782969995602714000,10.490714111328124,0.0007442644564434886,0.00034323474392294884,-0.0004577009240165353
1782969995612640000,10.500639892578125,0.0024622695054858923,0.00043724430724978447,-0.0016460034530609846
1782969995622566000,10.51056591796875,0.0005206968635320663,-0.0004040207713842392,0.0003449677024036646
1782969995632493000,10.5204931640625,-0.0003810494381468743,-0.0021004544105380774,0.0021055834367871284
1782969995642419000,10.5304189453125,0.001758091850206256,0.00014327093958854675,0.00008707970846444368
1782969995652344800,10.5403447265625,-0.000011312367860227823,-0.00037498027086257935,-0.00043969356920570135
1782969995662272000,10.55027197265625,0.00085027189925313,-0.0014121788553893566,0.0011133875232189894
1782969995672198100,10.5601982421875,-0.002075477037578821,0.0007460471242666245,-0.00003576651215553284
1782969995682123800,10.570123779296875,-0.003929296042770147,0.0006229919381439686,-0.0009419001289643347
1782969995692051000,10.580051025390626,-0.0031252880580723286,-0.0012838314287364483,0.0007220429833978415
1782969995701977000,10.58997705078125,0.00015340009122155607,-0.0012555625289678574,-0.0010606249561533332
1782969995711903000,10.599903076171875,-0.00022370353690348566,0.0015671220608055592,-0.0017567751929163933
1782969995721830000,10.609829833984374,-0.0021635049488395452,-0.002098641125485301,-0.003146942239254713
1782969995731756000,10.619756103515625,-0.0009717403445392847,-0.0009963586926460266,-0.0005700676119886339
1782969995741682200,10.62968212890625,0.0024579602759331465,-0.0008648405782878399,-0.000912009971216321
1782969995751608800,10.63960888671875,0.0010691217612475157,0.001583669800311327,-0.0032976698130369186
1782969995761535000,10.649534912109376,-0.0007958072237670422,0.0004513785243034363,-0.0013531551230698824
1782969995771461000,10.659461181640625,0.000542963738553226,0.0016982704401016235,-0.00010093674063682556
1782969995781388000,10.669387939453125,-0.0004500539507716894,-0.0007747909985482693,0.0003439533757045865
1782969995791314000,10.67931396484375,-0.0004511192091740668,-0.0009204656817018986,-0.0015207920223474503
1782969995801240000,10.689239990234375,-0.000677377509418875,-0.0004824697971343994,0.0008401708910241723
1782969995811167000,10.6991669921875,-0.0013074814341962337,-0.0008217561990022659,0.0011091501219198108
1782969995821092900,10.7090927734375,0.0016548727871850133,-0.0003174757584929466,-0.001931093051098287
1782969995831019000,10.71901904296875,-0.00007271987851709127,-0.0008525047451257706,-0.00011534988880157471
1782969995840946000,10.72894580078125,-0.0009327814332209527,0.00047716032713651657,-0.0017422951059415936
1782969995850872000,10.7388720703125,-0.00023183738812804222,0.00045265909284353256,-0.0005244314670562744
1782969995860798000,10.7487978515625,0.000005287904059514403,-0.000982202123850584,0.0017521841218695045
1782969995870724900,10.758724853515625,0.0013158294605091214,0.0009453939273953438,0.0005447069415822625
1782969995880651000,10.768651123046874,0.00046010385267436504,0.00108391884714365,-0.000840725377202034
1782969995890577000,10.778576904296875,-0.0010706812608987093,-0.0007286285981535912,-0.000998118193820119
1782969995900503800,10.78850390625,0.0005661820759996772,0.003021017648279667,-0.0015765218995511532
1782969995910430000,10.798429931640625,-0.001290840096771717,-0.00017131352797150612,0.001021125353872776
1782969995920356000,10.808356201171875,-0.000639873615000397,0.0018045147880911827,0.0016875622095540166
1782969995930282800,10.81828271484375,-0.0011796962935477495,0.00010168971493840218,0.00018527312204241753
1782969995940209000,10.828208984375,-0.0014570896746590734,-0.0018058011773973703,0.00031453545670956373
1782969995950135000,10.838135009765624,-0.00007677337271161377,0.00036334339529275894,-0.000978429219685495
1782969995960062000,10.84806201171875,-0.002170966938138008,0.00013409694656729698,-0.003146415576338768
1782969995969987800,10.85798779296875,-0.0010838648304343224,0.000004667323082685471,-0.0005279954057186842
1782969995979914000,10.8679140625,0.0015933377435430884,0.0016447664238512516,0.00042826985009014606
1782969995989841000,10.8778408203125,0.00007586857827845961,0.000720649491995573,0.002642422216013074
1782969995999767000,10.88776708984375,-0.00015026627806946635,-0.003025277517735958,-0.0006054180557839572
1782969996009693000,10.89769287109375,0.0022830639500170946,-0.0031096998136490583,0.00046117801684886217
1782969996019619800,10.907619873046874,0.0008361418731510639,0.0005302638746798038,0.001695979037322104
1782969996029546000,10.9175458984375,0.002347485860809684,-0.002472184132784605,-0.00030378869269043207
1782969996039471900,10.927471923828126,-0.0011698264861479402,-0.0022061134222894907,-0.0013747860211879015
1782969996049398800,10.937398681640625,0.001240334240719676,-0.0024942674208432436,-0.0008496106020174921
1782969996059325000,10.947324951171876,-0.0020978120155632496,-0.0001948145218193531,-0.0006370318587869406
1782969996069251000,10.9572509765625,0.0002433728805044666,0.001109069213271141,-0.0029385355301201344
1782969996079178000,10.967177978515625,0.0016176800709217787,0.0009121838957071304,-0.0014820212963968515
1782969996089104000,10.977103759765624,-0.0017916986253112555,-0.0012455089017748833,-0.00017867027781903744
1782969996099030000,10.987030029296875,-0.00020125380251556635,-0.00007521640509366989,-0.0009171794517897069
1782969996108957000,10.99695703125,-0.00019965588580816984,-0.0005295518785715103,0.001843453268520534
1782969996118882800,11.0068828125,0.0015584088396281004,-0.002138920594006777,0.0016737361438572407
1782969996128809000,11.01680908203125,-0.0009020856814458966,-0.0001532677561044693,-0.004091475158929825
1782969996138736000,11.026736083984375,-0.00018751100287772715,0.00010979874059557915,0.0024584433995187283
1782969996148661800,11.036661865234375,0.0013344855979084969,0.000909013208001852,-0.0009852899238467216
1782969996158588000,11.046587890625,-0.0008133355877362192,0.0003048437647521496,0.0006533311679959297
1782969996168515000,11.05651513671875,0.0009235780453309417,-0.000028051435947418213,0.0017678639851510525
1782969996178441000,11.06644091796875,0.0017639568541198969,-0.001579005504027009,0.0006768875755369663
1782969996188366800,11.076366943359375,-0.00009839166887104511,0.0005914708599448204,-0.0013657568488270044
1782969996198294000,11.0862939453125,0.0016379033913835883,0.0013215276412665844,-0.0006341621046885848
1782969996208220000,11.096219970703125,0.0013313735835254192,-0.00021538278087973595,-0.0006773053319193423
1782969996218145800,11.106145751953125,0.002846554620191455,0.0013183383271098137,-0.0008332912693731487
1782969996228073000,11.116072998046874,-0.0009095677523873746,0.000453876331448555,-0.0004612476332113147
1782969996237998800,11.125998779296875,-0.0011174477403983474,-0.0010268967598676682,-0.0015971445245668292
1782969996247925000,11.135925048828126,0.00047885096864774823,0.0027641127817332745,-0.0004218914546072483
1782969996257852000,11.145851806640625,0.00006529796519316733,0.0005138502456247807,0.0012898247223347425
1782969996267777800,11.15577783203125,-0.0004417679156176746,-0.001807627035304904,0.0019130043219774961
1782969996277704000,11.165703857421875,-0.0002513271174393594,-0.0003524394705891609,-0.000022075488232076168
1782969996287631000,11.175631103515625,-0.0010396228171885014,0.0013852729462087154,0.0002000321401283145
1782969996297557000,11.185556884765624,-0.0003029845538549125,0.0015945383347570896,-0.000009492039680480957
1782969996307483000,11.19548291015625,0.00007997799548320472,0.0023681866005063057,-0.0024532086681574583
1782969996317409000,11.205408935546876,0.000745779019780457,-0.0007495703175663948,0.00042734364978969097
1782969996327335000,11.2153349609375,0.002236616564914584,0.002244888339191675,-0.003017987823113799
1782969996337261800,11.22526171875,0.0008049516472965479,-0.0010542706586420536,-0.0005244832718744874
1782969996347188000,11.23518798828125,-0.0003684371476992965,0.0005204565823078156,-0.000005699461326003075
1782969996357113900,11.24511376953125,-0.0025622546672821045,0.001975246239453554,0.0010633469792082906
1782969996367040800,11.255040771484374,0.00010197174560744315,0.0005387375131249428,0.0011469702003523707
1782969996376967000,11.264966796875,0.0018341167597100139,0.00014922162517905235,0.0023867832496762276
1782969996386893000,11.27489306640625,-0.0013827155344188213,-0.004510245285928249,-0.004108666442334652
1782969996396820000,11.284820068359375,-0.0002727145911194384,0.0008449037559330463,-0.001494244672358036
1782969996406745900,11.294745849609376,-0.0011097460519522429,0.0006036213599145412,0.0011811668518930674
1782969996416672000,11.304672119140625,-0.00028167260461486876,0.0002740314230322838,-0.000002816435880959034
1782969996426599000,11.314598876953125,0.0006954411510378122,0.002039174549281597,-0.0013751434162259102
1782969996436524800,11.32452490234375,0.001291734864935279,0.001312175765633583,-0.000050580245442688465
1782969996446451000,11.334450927734375,-0.0013442619238048792,-0.0003179451450705528,-0.0003997206222265959
1782969996456377900,11.3443779296875,0.0006475348491221666,0.0021384572610259056,-0.0016850292449817061
1782969996466304000,11.354303955078125,-0.0012901810696348548,0.0018923808820545673,-0.003497044090181589
1782969996476230000,11.36422998046875,-0.0010820763418450952,0.000719163566827774,0.0003093158593401313
1782969996486157000,11.374156982421875,-0.001111104735173285,-0.00008937204256653786,-0.0013498334446921945
1782969996496083000,11.3840830078125,0.00041222531581297517,-0.0004235822707414627,0.00014234613627195358
1782969996506008800,11.3940087890625,-0.002135354559868574,0.00025712139904499054,-0.00045899569522589445
1782969996515936000,11.40393603515625,-0.00008682528277859092,0.0013297623954713345,0.0007431261474266648
1782969996525862000,11.41386181640625,0.0019401066238060594,0.00023520318791270256,0.0007258156547322869
1782969996535788000,11.4237880859375,0.0001399278553435579,0.000608367845416069,-0.002748999511823058
1782969996545715000,11.43371484375,0.00005390775913838297,0.0005074338987469673,-0.001490123220719397
1782969996555640800,11.443640869140625,-0.0006695715710520744,0.0011602253653109074,-0.0003667048877105117
