time,seconds_elapsed,z,y,x
1782969338840301000,0.067301025390625,4.2506694852858775,-0.544186372166872,1.9686343608900903
1782969338850227000,0.07722705078125,1.562003817284107,-1.6840391283690928,1.9915213154807685
1782969338860152800,0.08715283203125,-2.884281763604283,-2.4655466484457254,1.6626738303877413
1782969338870079000,0.097078857421875,-9.49743090609312,-2.430130467149615,0.16486381446421144
1782969338880006100,0.107006103515625,-18.084917881810664,-2.0607018192127344,-2.0430366909235715
1782969338889932000,0.11693212890625,-29.470644414448735,-0.46413916811421513,-5.17565141031742
1782969338899858000,0.12685791015625,-39.97034565243721,1.4566615745857356,-7.555187416261434
1782969338909784000,0.1367841796875,-43.90466896841526,2.7603920568242666,-8.649348096346854
1782969338919711000,0.1467109375,-40.56799356567859,2.9238991959825156,-11.104852074205875
1782969338929636900,0.156636962890625,-30.582115125775335,-0.10160042582154273,-10.473396583908796
1782969338939563000,0.16656298828125,-19.561162985527513,-1.7457913817964492,-9.347629636204243
1782969338949489000,0.176489013671875,-11.65617428960204,-2.6938910014346242,-7.260898764982819
1782969338959415000,0.1864150390625,-8.219601173308492,-2.8119226298362014,-4.490903890293836
1782969338969342000,0.196342041015625,-7.217829438585042,-1.7883650336317718,-2.2718789104320107
1782969338979268000,0.20626806640625,-6.89988869356215,-0.3707160573989153,-0.5705575156114995
1782969338989194000,0.216194091796875,-6.749398272365331,0.9924202612712979,0.5389119388952851
1782969338999120000,0.226119873046875,-6.116906424757838,2.1526468201994895,1.1162731431722641
1782969339009046000,0.2360458984375,-4.599737189978361,2.9211224247455596,1.1154662107035518
1782969339018973000,0.245972900390625,-2.187909272238612,3.208204213385284,0.7735409251116215
1782969339028899000,0.255899169921875,0.5050128841638565,3.1090754383742807,0.15393661612793802
1782969339038825000,0.265824951171875,3.1479519892573355,2.768922277021408,-0.7759964285049588
1782969339048750800,0.275750732421875,5.709441476154327,2.644099088783562,-1.412962133590877
1782969339058677000,0.285677001953125,8.401115093800424,3.078373426118493,-0.8296066573351621
1782969339068604000,0.29560400390625,10.791225685250758,4.09720238636583,0.7666707470811903
1782969339078530000,0.305530029296875,12.790700882345437,5.141351665830612,2.4896888637945054
1782969339088456000,0.3154560546875,14.34817933115959,6.276860839870571,3.385976317000389
1782969339098382000,0.325382080078125,15.718728848695754,6.704408791559934,4.325048142182827
1782969339108308000,0.335307861328125,16.795953591549395,7.321768536487221,4.007884519012272
1782969339118235000,0.34523486328125,18.530461508917806,7.938785751587152,3.4011484594300385
1782969339128161000,0.3551611328125,20.948310586643217,8.289881162714957,3.487605676655471
1782969339138087000,0.3650869140625,22.929814073717594,8.486389238721133,3.3716295194789767
1782969339148012800,0.3750126953125,24.551642537367343,8.374191431039572,3.30292510882616
1782969339157939000,0.38493896484375,25.67249599406719,8.097679843991994,2.9299761778086424
1782969339167866000,0.3948662109375,25.75575529203415,7.547920640128851,2.541606390297413
1782969339177792000,0.4047919921875,24.8554559728384,6.846264070880412,1.9150299042135477
1782969339187718000,0.4147177734375,23.020033858346938,6.303535496306419,1.3891541186325251
1782969339197644000,0.42464404296875,20.393851826786992,5.924865849554538,1.5675566291056573
1782969339207570200,0.434570068359375,17.724675872153043,5.700339301288127,1.9216513681799172
1782969339217496800,0.444496826171875,15.36539471873045,5.291615877056121,2.0905748332984744
1782969339227423000,0.454423095703125,12.758768451511859,4.742060671332478,1.8533491085872054
1782969339237349000,0.46434912109375,9.582782792425155,4.140829054385423,1.2029691375896334
1782969339247274800,0.474274658203125,5.313694437873363,3.6813866657853125,0.7327244922071695
1782969339257202000,0.484201904296875,0.5690075096905232,2.902622306936979,0.06600625761002302
1782969339267128000,0.494128173828125,-3.4278117176890373,1.5547320727154612,-0.6420104943200945
1782969339277054000,0.504053955078125,-6.608250264531374,-0.1120708203010261,-2.1041697895392772
1782969339286979800,0.513979736328125,-9.591338439324497,-2.2261367115631696,-5.036788883072138
1782969339296906000,0.523906005859375,-13.168632862472533,-4.212677023760974,-8.206386886948346
1782969339306833200,0.533833251953125,-18.68961980521679,-5.082624167051911,-10.938593005990981
1782969339316758800,0.5437587890625,-26.80420285321474,-4.44270538431406,-13.757041822725533
1782969339326685000,0.553684814453125,-35.79880464892387,-3.0593548373937605,-16.76192740330696
1782969339336611000,0.563611083984375,-42.652758689785,-2.3169025857679544,-19.3386600520432
1782969339346537000,0.573536865234375,-44.93922127523422,-2.658842192146182,-21.326669267749786
1782969339356463900,0.5834638671875,-42.28349984545707,-3.200755358684063,-22.42742452379465
1782969339366390000,0.59339013671875,-34.45120112268925,-3.9581349841982125,-21.50892553104162
1782969339376316200,0.603316162109375,-24.65884619002342,-4.578105788406729,-18.990564407253263
1782969339386241800,0.61324169921875,-16.83473544988632,-3.8283679098173975,-15.912518897914886
1782969339396168000,0.62316796875,-11.999549335610865,-2.7283625953570008,-12.307282574874161
1782969339406095000,0.63309521484375,-8.706703722250461,-1.5181965320006012,-8.908599336513877
1782969339416021000,0.64302099609375,-6.014312896245718,-0.1278779726985842,-6.126050685200095
1782969339425947000,0.65294677734375,-3.766336985579133,0.75211951302886,-3.1160894087895747
1782969339435873000,0.662873046875,-1.5348562826395034,1.5339884137637911,-0.787276751127839
1782969339445800200,0.67280029296875,0.5691840353012084,2.2622648405209183,0.721003951536119
1782969339455725800,0.682725830078125,2.0650228972822426,2.701395385715365,1.9946233731493352
1782969339465652000,0.69265185546875,3.558847496831417,3.341930254524946,2.256931370538473
1782969339475578000,0.702578125,4.5495805356681345,3.757926007847488,3.650736675977707
1782969339485504000,0.71250390625,6.055399524393677,3.799325062945485,5.064545489525795
1782969339495431000,0.722430908203125,7.453997909328341,4.014051517209411,5.35083145161271
1782969339505357000,0.732357177734375,8.64008810057044,4.363061354234814,5.591253488147259
1782969339515283000,0.742282958984375,9.889467399418354,4.698218314735591,6.349269657999277
1782969339525208800,0.752208740234375,11.13939965597391,4.7892695817530155,7.173585807710886
1782969339535135000,0.762135009765625,12.324563380020857,4.791517360679805,7.754697596693038
1782969339545062100,0.772062255859375,13.259938688772916,4.8108197347819806,8.045271611362695
1782969339554988000,0.781988037109375,13.722151711130142,4.778610240572691,8.128580009168386
1782969339564914000,0.791913818359375,13.93045543887019,4.690141391263902,8.142688029497862
1782969339574840000,0.801840087890625,13.944412652552128,4.532505189965665,7.432884394150972
1782969339584766000,0.811765869140625,13.622204313212633,4.063376396870613,6.072578622731566
1782969339594692900,0.82169287109375,13.36931325572729,3.450101875430345,4.604751803269982
1782969339604619000,0.831618896484375,13.518859674072266,3.227547504019737,3.81135423117429
1782969339614545000,0.841544921875,14.25692611182928,3.511289626842737,3.7077871814548966
1782969339624471000,0.851470947265625,14.929666383194922,3.506291380164027,3.873298061650991
1782969339634397000,0.86139697265625,15.324408043825626,3.1031282204076645,4.307708592586219
1782969339644324000,0.871323974609375,15.624314534986018,2.7121125945627687,4.387199185669422
1782969339654250000,0.88125,15.633530107098817,2.630987678276002,4.30929323142916
1782969339664175900,0.89117578125,15.296054056000708,2.822516796825826,4.184340863853693
1782969339674102000,0.90110205078125,14.07018305851221,2.90206058140099,4.164839460048079
1782969339684028000,0.91102783203125,11.462218236166239,2.7998350094184277,4.476569952253997
1782969339693955000,0.920955078125,11.013313608193396,2.380844458194077,3.7750492843449113
1782969339703881000,0.930880859375,9.78997651309669,2.3608093859031793,3.9814620837718246
1782969339713806800,0.940806884765625,8.737088339120149,1.9079042901173233,3.79168769993484
1782969339723733000,0.95073291015625,7.617875050842762,1.1963377367511392,3.1604601731747386
1782969339733659100,0.9606591796875,5.886128414881229,0.23970219782739877,2.6371637365624307
1782969339743586000,0.9705859375,2.9815456215262413,-0.939528629039228,2.0553397076576947
1782969339753513200,0.98051318359375,-1.0071849919438363,-1.9980843272581694,1.5380810899049042
1782969339763439000,0.990439208984375,-5.590007287478446,-2.9112460506364704,1.1570075968816875
1782969339773365200,1.000365234375,-11.011880360519886,-3.7658959638133642,0.34617841299176216
1782969339783292400,1.01029248046875,-19.488955827450752,-3.915560163319111,-2.370789804908633
1782969339793218300,1.02021826171875,-32.29419844536781,-3.6085841721639036,-8.720257615828514
1782969339803144200,1.030144287109375,-43.530172807955736,-2.7087492556095123,-17.045068637627363
1782969339813070300,1.0400703125,-48.30765258319378,-2.315328029927611,-24.23562662292719
1782969339822996500,1.04999658203125,-45.04493088994026,-3.25416458504945,-26.650062092816828
1782969339832923100,1.059923095703125,-35.70040389592647,-4.940963533520698,-25.467880599451064
1782969339842849300,1.069849365234375,-22.996877439165115,-5.2205035284787416,-23.643066388213633
1782969339852775400,1.079775390625,-12.258333542788028,-3.991927948206663,-19.46797616778612
1782969339862701000,1.089701171875,-5.929684648013114,-2.152114759149402,-13.492410058563946
1782969339872627200,1.099627197265625,-2.982638677459955,-0.05883797341585159,-7.558166139811277
1782969339882554400,1.109554443359375,-0.7670996400177479,1.6175269670635462,-2.6566853063732383
1782969339892480300,1.119480224609375,1.0656786819666624,3.0340313033059236,1.1243734475195408
1782969339902406100,1.12940625,1.7079232773035764,3.9803243119135496,3.768589732941985
1782969339912332300,1.139332275390625,2.3009330093502998,4.606380865776538,5.392404986494779
1782969339922258400,1.149258544921875,3.033262949281931,5.1425814998865125,5.830637998327613
1782969339932185000,1.15918505859375,3.222590758395195,5.394621493500471,5.393542466092109
1782969339942111200,1.169111328125,3.582050093242526,5.438627808487415,4.5208138753890985
1782969339952037400,1.179037353515625,4.654153255298733,5.210479562592506,4.081466764834523
1782969339961963300,1.18896337890625,6.3932110910564655,5.204937126034498,4.648514080367982
1782969339971889200,1.19888916015625,8.383006021136046,5.5670905222713944,6.145339907559752
1782969339981816300,1.20881640625,10.31514429653883,6.2004819490671155,8.427302258980273
1782969339991742500,1.218742431640625,11.821272497344017,6.969105437651276,10.228334612613915
1782969340001668000,1.228668212890625,12.521174331879616,7.482780936220288,11.377816782426834
1782969340011594200,1.23859423828125,13.054176462209224,7.735788898083567,11.828055289351939
1782969340021520400,1.248520263671875,13.711555498313903,7.879075671511888,11.651314574611186
1782969340031447300,1.258447265625,13.95138015347719,7.233904959595203,12.03769991030693
1782969340041373200,1.268373291015625,14.091170901483297,6.310908655422925,12.73842007548809
1782969340051299300,1.27829931640625,14.304342527520657,5.652738176679611,12.835491625708341
1782969340061225200,1.28822509765625,14.674721315789222,4.983036250096559,12.608374476426839
1782969340071152000,1.298152099609375,14.680178412151335,4.372165867188572,12.165813080000877
1782969340081078300,1.308078369140625,13.877261608821152,3.6326588752344247,11.62644784438014
1782969340091004400,1.31800439453125,12.669264121675491,3.077691873595118,11.16170501128435
1782969340100930300,1.327930419921875,11.1692967815876,2.760978332279622,10.071849919438362
1782969340110856200,1.337856201171875,9.807176069700718,2.5966598767384883,9.406319141060113
1782969340120783400,1.347783447265625,8.459809274831414,2.3590710178032515,9.124062872880696
1782969340130709200,1.357709228515625,7.457302211570739,2.2742992694467303,8.854144108226896
1782969340140635100,1.36763525390625,6.313934140723943,2.1089999861747026,8.646472833171487
1782969340150561300,1.377561279296875,5.088375862446427,1.7562608994930982,7.60051416619718
1782969340160487200,1.387487060546875,3.3152947610557075,0.8702794439852237,5.433422641059756
1782969340170414300,1.397414306640625,0.448662635910511,-0.8161585622191428,1.7185364412546156
1782969340180340200,1.40734033203125,-3.399834746482968,-2.4074735219225287,-3.1524311804980036
1782969340190266400,1.417266357421875,-7.594650827121734,-3.6950267763420936,-8.34450239521861
1782969340200192300,1.427192138671875,-11.741207026982307,-5.0936768914639945,-13.632750257146357
1782969340210118400,1.437118408203125,-16.79344716168642,-6.961984791991115,-20.667258433556555
1782969340220045300,1.44704541015625,-20.95554462954998,-9.605714755201339,-29.015746099019047
1782969340229971200,1.45697119140625,-22.39159800813198,-12.077262689888476,-34.063728576278685
1782969340239897300,1.4668974609375,-21.61952174874544,-13.323482063400744,-36.26494448933601
1782969340249823200,1.4768232421875,-19.249991588509083,-12.500559413874148,-35.142173800837995
1782969340259749000,1.4867490234375,-16.130655452883243,-9.782821965166926,-30.94075203832388
1782969340269676300,1.49667626953125,-12.935851696079968,-5.867081184583902,-24.86858433448076
1782969340279602200,1.506602294921875,-10.012520947635172,-1.8856138401150702,-18.44731911532879
1782969340289528300,1.5165283203125,-7.565037779146432,0.824856832459569,-12.655115184813738
1782969340299454200,1.5264541015625,-5.656281548374891,2.323122921587527,-8.718518078684806
1782969340309380400,1.53638037109375,-5.103955124372243,4.3246974290490146,-7.782710808256268
1782969340319307300,1.546307373046875,-4.257757397720217,4.42459572712779,-5.685424056228995
1782969340329233200,1.556233154296875,-2.6069027460724112,4.3448245635375375,-2.927034863659739
1782969340339159300,1.5661591796875,-0.9043833736389875,4.468905116714537,-1.0529495487749576
1782969340349085400,1.57608544921875,0.5887631805181502,4.128121256242692,0.36112639127671714
1782969340359011000,1.586010986328125,2.0526918234974145,3.723350076767802,1.4555769942194223
1782969340368938200,1.595938232421875,2.928700751045346,3.335466026946902,2.5363918705195188
1782969340378864400,1.605864501953125,3.1132255437910556,3.0932474623844026,3.973758669787645
1782969340388790300,1.615790283203125,2.9768074870884416,3.465997363698482,5.662601983568072
1782969340398716200,1.625716064453125,3.1432746450960636,4.496057035273314,7.9998454927057026
1782969340408642300,1.635642333984375,3.0608184802055356,6.653093614864349,11.438847881972789
1782969340418569200,1.6455693359375,0.9618214171290397,6.95693744547367,10.549130747067927
1782969340428495000,1.6554951171875,2.553758015862107,5.050333424299955,10.603367364168166
1782969340438421200,1.665421142578125,6.725823920032382,6.196244165366887,10.46348426170349
1782969340448347400,1.675347412109375,6.853564749282598,7.08745066204667,11.026425603222846
1782969340458273300,1.685273193359375,6.775102037942409,6.034943011820316,11.074635799640417
1782969340468200200,1.6952001953125,6.612293402442336,5.078619023063778,10.157174917763472
1782969340478126300,1.705126220703125,6.4295163301467895,3.7509941627576944,9.812859960556029
1782969340488052500,1.715052490234375,6.643963382947445,2.830612424997985,10.004684847182034
1782969340497978000,1.72497802734375,7.416759773302078,2.8263813632994887,10.39653312445879
1782969340507904300,1.734904296875,7.965588418316841,2.7587659169271586,10.763899286907911
1782969340517831400,1.74483154296875,7.52352737262845,3.1580691863849757,11.384672055149078
1782969340527757000,1.754757080078125,6.613992023053765,3.616263913011551,10.933866561990977
1782969340537683200,1.76468310546875,5.846183942505717,3.172149441924691,10.48245082798004
1782969340547609300,1.774609375,6.450684205859899,2.5245570558190344,9.44594095735252
1782969340557536300,1.784536376953125,7.229635611712932,1.7072244813844561,8.541009302181005
1782969340567462100,1.794462158203125,7.900398445525765,0.8057040959611534,8.004647924551367
1782969340577388300,1.80438818359375,8.610454594329,0.11705284649729727,7.680256980475783
1782969340587314400,1.814314453125,9.805591430857778,-0.3629553602695465,7.03013887528479
1782969340597240300,1.824240234375,10.649234796851873,-0.8358522737264633,6.34247459103167
1782969340607167200,1.834167236328125,10.981892049491405,-1.292269761547446,5.707418445894122
1782969340617093400,1.84409326171875,10.8007335183084,-1.0209387920081614,5.32097407348752
1782969340627019300,1.854019287109375,9.282352569651604,-0.7474015445962547,5.028997206282615
1782969340636945200,1.863945068359375,6.2742170473635195,-0.4899792734220624,3.878593829971552
1782969340646871300,1.873871337890625,3.2368285425841807,-0.766120273591578,3.4290655171424147
1782969340656798500,1.883798583984375,0.8649258079975843,-1.019391854827106,2.699083017119765
1782969340666724000,1.89372412109375,-2.4807839650660752,-1.4823898900821804,-1.1624760914206504
1782969340676650200,1.903650146484375,-8.061004602545498,-3.2130271034970876,-7.934830291959643
1782969340686576400,1.913576416015625,-15.774035140854119,-5.524934219065308,-16.579423302733897
1782969340696502300,1.923502197265625,-22.757508711075783,-7.6654697457104914,-24.79972999396324
1782969340706429200,1.93342919921875,-26.240286529183386,-9.330314928787946,-29.730529860866067
1782969340716355300,1.943355224609375,-25.448147140455244,-10.549604209798574,-34.64530915181636
1782969340726281200,1.95328125,-20.319619884884357,-9.894624051529169,-37.643034339249134
1782969340736207400,1.963207275390625,-12.961645478028059,-8.99298383911848,-33.98941480131149
1782969340746133200,1.97313330078125,-7.110954871752858,-7.028708550220728,-25.598350561404228
1782969340756059600,1.9830595703125,-3.6005455348759887,-3.845878724327683,-18.27112317498922
1782969340765985800,1.99298583984375,-2.8999302913740275,0.2960655978232622,-12.513697127866743
1782969340775912000,2.002911865234375,-3.621776538953185,3.108854781360924,-7.5469532564014195
1782969340785837600,2.012837646484375,-3.854200562471151,4.674168453845382,-3.642651569199562
1782969340795763700,2.022763671875,-4.06237335730791,5.745511737444996,-0.8013122907429933
1782969340805691000,2.03269091796875,-4.048859795740246,5.058111657086014,2.002608234423399
1782969340815616800,2.04261669921875,-4.054370668116212,5.112905908069014,4.152414862760901
1782969340825542700,2.052542724609375,-3.364524948170781,5.032027367758751,4.911914549168944
1782969340835468800,2.06246875,-1.7379606881707905,4.727633209790289,5.220885221272707
1782969340845395000,2.07239501953125,-0.01087999819368124,4.225084669913351,4.88694961926043
1782969340855321600,2.082321533203125,0.22833207802921532,3.977873411630094,5.166161697438359
1782969340865247700,2.092247802734375,0.4263955667838454,4.125523348703981,6.738754713276029
1782969340875174000,2.102173828125,1.820654168948531,4.5720890123352405,9.113637340456247
1782969340885099800,2.112099853515625,3.8741912110984322,4.30545000000447,11.292911470818519
1782969340895025700,2.122025634765625,5.26416672911644,3.9638250125333663,13.25491296956539
1782969340904952800,2.131952880859375,5.176244115513563,3.744780987331271,14.04162799515724
1782969340914878700,2.141878662109375,5.116032515656948,3.706404787185788,13.544722429603338
1782969340924804600,2.1518046875,5.887639403966069,4.753058450686932,13.258666769140959
1782969340934730800,2.161730712890625,6.7005304888218635,5.21770892932415,13.692661412751674
1782969340944657000,2.171656982421875,7.270777769440412,4.935998604589701,14.232659101057052
1782969340954583600,2.18158349609375,7.976663354560732,4.824059740105271,14.366093758034705
1782969340964509700,2.191509765625,8.527004157704114,5.2271700006306165,13.80742176439762
1782969340974435800,2.201435791015625,8.521821786630154,5.455387220108509,13.533367507374287
1782969340984361700,2.21136181640625,8.276286352604627,5.140469037777185,13.634073614704608
1782969340994288600,2.22128857421875,8.020996417284012,4.899938280171155,13.062321190220116
1782969341004214800,2.23121484375,7.529387789094447,4.394147397372127,11.492221744763851
1782969341014141000,2.241140869140625,7.3029533613801,3.550307339762151,9.229256939280033
1782969341024066600,2.251066650390625,7.295923901134729,2.8321511788725853,7.423255565062165
1782969341033992700,2.26099267578125,7.069590595707297,2.235291493399441,6.021931554555892
1782969341043920000,2.270919921875,6.475265689408778,1.5956798769146203,4.464814924791455
1782969341053845800,2.280845703125,5.136530529284477,1.2277338687509298,2.7476082708358764
1782969341063771600,2.290771728515625,3.4504601873487233,0.8662211085051298,1.4647545724093913
1782969341073697800,2.30069775390625,1.5171739109545945,-0.0035435178257524967,0.3609954583734274
1782969341083623700,2.310623779296875,-0.4775485386550426,-0.9078997111968695,-1.7802467552363872
1782969341093550600,2.320550537109375,-2.131618060696125,-1.6897519530579446,-5.586812290829419
1782969341103476700,2.330476806640625,-3.5822242807656526,-2.30071819755584,-9.222574685037136
1782969341113403000,2.34040283203125,-5.405409429496526,-3.255580004805326,-12.284356457316875
1782969341123328800,2.350328857421875,-8.150152958551049,-4.181609977585077,-16.167425386875866
1782969341133254700,2.360254638671875,-11.904384495794773,-4.820290158438683,-19.823363138628004
1782969341143181800,2.370181884765625,-15.578193419802188,-5.267943909567594,-23.294415447628495
1782969341153107700,2.380107666015625,-18.685419430917502,-5.308410359990597,-26.367614101457594
1782969341163033600,2.39003369140625,-20.007438434040544,-5.249926606839895,-28.403012844848632
1782969341172959700,2.399959716796875,-18.380608801102635,-4.426892898154258,-27.643335463786123
1782969341182885600,2.4098857421875,-14.882564440280198,-2.979358048354089,-23.057090208065507
1782969341192812800,2.419812744140625,-10.61291026853919,-1.254250850407034,-17.268112838381526
1782969341202738700,2.42973876953125,-7.0302470118343825,0.2665514801777899,-12.050907766926288
1782969341212664800,2.439664794921875,-4.84004407570064,1.0277579705037176,-7.921455262079834
1782969341222590700,2.4495908203125,-3.440492335563898,1.3003461004972456,-4.6601405130147935
1782969341232516900,2.459516845703125,-2.287157581976056,1.4594254863411187,-2.1778893980056044
1782969341242443800,2.46944384765625,-1.443001590284705,1.3480287659093737,-0.1021288336098194
1782969341252369700,2.47936962890625,-0.7126829901754855,1.258247811088711,1.362754333615303
1782969341262295800,2.4892958984375,-0.24446809705495834,1.273515376716852,2.4283482599079607
1782969341272221700,2.4992216796875,0.0906003083795309,1.4939916266791522,3.2178590536981817
1782969341282147600,2.509147705078125,0.4268517861187458,1.6325538558036088,3.9247921020448207
1782969341292074800,2.51907470703125,0.8747370079159736,1.653117043621838,4.530646118095517
1782969341302000600,2.529000732421875,1.6637760925412177,1.9220950202941893,4.9293286253064865
1782969341311926800,2.5389267578125,3.0016555126190183,2.120935046379268,5.596259333610535
1782969341321852700,2.548852783203125,4.639679908788204,2.194709307642281,6.748990860608219
1782969341331778800,2.55877880859375,6.097092886263132,2.3144690750107166,7.976203335833549
1782969341341705700,2.568705810546875,7.161820551115274,2.4072417589932678,9.010605420526861
1782969341351631600,2.578631591796875,8.10000039589405,2.182571418341994,9.392826622280477
1782969341361557800,2.588557861328125,8.36802004892826,2.8459795054778456,9.270910553660988
1782969341371484000,2.59848388671875,8.17042183959782,3.9227515361279246,10.008333432817459
1782969341381410800,2.608410888671875,8.338558976644277,4.033523987181485,10.509039559698104
1782969341391336700,2.618336669921875,8.710812911134958,3.7680785685494538,10.299462743282318
1782969341401262800,2.628262939453125,8.990196838748455,3.859707927715778,10.135759204769133
1782969341411188700,2.638188720703125,9.508077387791872,3.7667347527250645,9.905559287041426
1782969341421114600,2.648114501953125,9.739851422968506,3.748466397845745,9.645720602375269
1782969341431041800,2.658041748046875,9.625099254629015,3.617363398686051,9.416609648928045
1782969341440967700,2.6679677734375,9.8285835993886,2.985488221672177,8.768907957229018
1782969341450893600,2.6778935546875,10.168021305948495,2.3860522559702395,7.863874595248698
1782969341460819700,2.68781982421875,10.493099647766352,2.082238528238237,7.426887784084677
1782969341470745900,2.697745849609375,10.659938561695814,1.9601894808888434,7.452555893826484
1782969341480672800,2.7076728515625,10.46223572294712,1.956445033663511,7.529891646963358
1782969341490598700,2.7175986328125,9.844317759615182,1.9647043279647827,7.303441437157988
1782969341500524800,2.72752490234375,7.589023050367832,1.7693287631198762,7.134863570606708
1782969341510451000,2.737450927734375,7.292189975303411,1.0344511845320463,6.378873938146233
1782969341520376600,2.74737646484375,5.887613685002923,0.38438802439868447,5.179294735255837
1782969341530303700,2.7573037109375,3.4151737699121236,-0.3482978893637657,3.5830145543605085
1782969341540230000,2.76722998046875,1.049365845069289,-1.485038651025295,1.0538163947373629
1782969341550155500,2.777155517578125,-0.7218120530486106,-1.7161967462606726,-0.9131184687584638
1782969341560081700,2.78708154296875,-2.855370726418495,-1.5762543148241936,-2.1188883429825305
1782969341570007800,2.7970078125,-7.269362057423591,-2.2155551117941736,-3.4994781930178402
1782969341579934700,2.806934814453125,-13.739694382083416,-3.7904070124745366,-6.0971168516606085
1782969341589860600,2.816860595703125,-21.86497651875019,-5.725691184687614,-11.529656864666938
1782969341599786800,2.826786865234375,-28.946000947141645,-6.8967176623106,-17.93337707477808
1782969341609713000,2.836712890625,-32.92761676017046,-7.061289800351858,-22.852965811836718
1782969341619638800,2.846638671875,-32.93209419784546,-6.328249081802368,-25.644640018892286
1782969341629565700,2.856565673828125,-28.500398867845533,-5.165530413797497,-25.16708095884323
1782969341639491800,2.866491943359375,-21.175289788758754,-3.7469209219694135,-21.547590485000608
1782969341649417700,2.876417724609375,-13.952045339387654,-1.763444527386874,-15.932275737786291
1782969341659343600,2.886343505859375,-8.715745106840133,0.35212782291546463,-10.244929189062118
1782969341669269800,2.896269775390625,-5.651054169115424,1.8762069832138717,-5.855537461784482
1782969341679197000,2.906197021484375,-3.9341339308857917,2.950236291027069,-2.606873519977927
1782969341689122600,2.91612255859375,-2.805056251198053,3.711301911577582,-0.26767770772874355
1782969341699048700,2.926048583984375,-1.8343313966453074,4.088649369814991,1.6625065109968185
1782969341708974800,2.935974853515625,-0.9057593381673097,4.150674741095305,2.996247516095638
1782969341718900700,2.945900634765625,-0.08368716799020767,4.046277378031611,3.9496003800868986
1782969341728827600,2.95582763671875,0.6709709236055612,3.9217461584776636,4.460408798786998
1782969341738753800,2.96575390625,1.3651391829252242,3.7025393439292906,4.364285343071818
1782969341748679700,2.9756796875,2.2137831336855887,3.4862677060499787,4.049360730999708
1782969341758605600,2.98560546875,3.282565042364597,3.148341280835867,4.018914154809713
1782969341768531500,2.995531494140625,4.56551694046855,2.7563518415227533,4.270861209443211
1782969341778458600,3.005458740234375,6.031418929347396,2.567790632867813,4.6862113583385945
1782969341788384500,3.015384521484375,7.527610842549801,2.4399159481048582,5.400370850807428
1782969341798310400,3.025310302734375,9.071808369508386,2.2676304592072962,6.427045556119084
1782969341808236500,3.035236572265625,10.892560738134383,2.2941484637767076,7.810973610666394
1782969341818163500,3.04516357421875,12.668190939486026,2.5196523326426745,9.22797274468839
1782969341828089600,3.055089599609375,14.054323810601234,2.9482895408734677,10.47598133970499
1782969341838015500,3.065015380859375,14.84291164432764,3.4429417745426294,11.369368103033304
1782969341847941400,3.07494140625,14.82804608362913,3.9278956210181115,11.823161672091484
1782969341857867500,3.084867431640625,14.105565337538719,4.285214144444465,11.669916399228573
1782969341867794400,3.09479443359375,13.180725451326369,4.49651909982711,11.106180107939243
1782969341877720600,3.104720458984375,12.347958284133671,4.528310660885274,10.36473279557228
1782969341887646500,3.114646484375,11.614347072219848,4.411610281087458,9.552442599219082
1782969341897572600,3.124572509765625,10.880002869856357,4.329555974996089,8.827104125609994
1782969341907498500,3.13449853515625,10.0297035531044,4.070469277741014,8.025913415420055
1782969341917425400,3.14442529296875,9.13782018007636,3.6215552974179386,7.047454751744866
1782969341927351600,3.1543515625,8.45617880937457,3.15648542432487,5.796739235857129
1782969341937277400,3.16427734375,7.632905446714163,2.6353625323593617,4.260515171995759
1782969341947203300,3.174203369140625,6.747115714386105,2.1442580542996525,3.098350630742311
1782969341957129500,3.18412939453125,6.3255322240591045,1.7348918021194635,2.021968768453598
1782969341967056600,3.194056640625,5.639956436517834,1.3326437113814056,0.6252256559967995
1782969341976982500,3.203982421875,4.133442451265454,0.809050776040554,-1.4377993454664946
1782969341986908400,3.213908447265625,2.0080746831357477,0.2285715858735144,-3.5838059969991445
1782969341996834600,3.22383447265625,-0.6258581086814403,-0.3893867094688117,-5.790495373031496
1782969342006760700,3.2337607421875,-4.298962099289894,-1.201213964485377,-8.438896250662207
1782969342016687400,3.243687255859375,-9.611194063395262,-2.167615402881056,-11.393266865015029
1782969342026613500,3.253613525390625,-16.172126111912725,-2.9290818593174217,-14.680812033879755
1782969342036539600,3.26353955078125,-22.481130395019054,-3.456596498146653,-18.639631493210793
1782969342046465300,3.27346533203125,-26.709379374182223,-3.7420071387037632,-22.54887180585861
1782969342056391400,3.283391357421875,-28.01990784599781,-3.6133225988626476,-25.372037714242932
1782969342066318600,3.293318603515625,-27.014485772073268,-3.280664469440281,-25.777822162413596
1782969342076244500,3.303244384765625,-23.714803590691087,-2.7671736797884106,-24.220438406145572
1782969342086170400,3.31317041015625,-18.834678264492748,-2.064383576465398,-21.17939313242435
1782969342096096500,3.323096435546875,-13.839413816463946,-0.9528424302510916,-16.85853835027814
1782969342106022700,3.333022705078125,-10.028693499279022,0.11707856546044348,-12.239114463055133
1782969342115949300,3.34294921875,-7.343623809942603,0.9067568247720599,-8.117356019842624
1782969342125875500,3.35287548828125,-5.248800817680358,1.3975642195813358,-4.33878674467802
1782969342135801600,3.362801513671875,-3.758561090880632,1.8755775992691517,-0.9894950214743614
1782969342145727500,3.3727275390625,-2.5368822843849657,2.3556259919159115,1.61783676366508
1782969342155654400,3.382654296875,-1.4175082525879144,2.470097735878825,3.73265975690484
1782969342165580500,3.39258056640625,-0.22521745314002037,2.3993241177365183,5.055661341324448
1782969342175506700,3.402506591796875,1.0851157883644102,2.456148120981455,5.737049614048003
1782969342185432300,3.412432373046875,2.5121862345457076,2.322241024186462,6.090740302366018
1782969342195358500,3.4223583984375,3.9950966413706537,2.0712205828785897,6.081265202534198
1782969342205285600,3.43228564453125,5.483762250721455,1.9478553383640944,5.898451305359601
1782969342215211300,3.442211181640625,6.994229942035675,2.016617762814462,5.889890397763252
1782969342225137400,3.452137451171875,8.508966396710276,2.1248501739963888,5.917520162966847
1782969342235063600,3.4620634765625,10.432179607379435,2.3623987009212373,6.160845519727468
1782969342244989400,3.471989501953125,12.635230919170379,2.758403805616498,6.721811177259683
1782969342254916400,3.481916259765625,14.428887775599955,2.946964722010493,7.208032851713895
1782969342264842500,3.491842529296875,15.171220054107904,3.114421475577354,7.785620558223128
1782969342274768600,3.5017685546875,15.142605369520187,3.317363968545198,8.06965552651286
1782969342284694500,3.511694580078125,14.938509030342102,3.181779732318222,8.30953220412433
1782969342294620400,3.521620361328125,16.467212635570764,3.8142920381918546,7.998967540827393
1782969342304547600,3.531547607421875,18.72842621347308,4.942934541332721,7.242310384368896
1782969342314473500,3.541473388671875,19.32124246877432,4.691961884689331,6.748290603384375
1782969342324399400,3.5513994140625,17.853153783506155,3.4914804722622037,6.8245888301670545
1782969342334325500,3.561325439453125,15.888440103191137,2.64298440553993,6.841967834991216
1782969342344251400,3.57125146484375,14.322359830248356,2.2747151567712427,6.3872004524648185
1782969342354178300,3.58117822265625,12.996018872272968,2.172907225678861,5.787537107747793
1782969342364104400,3.5911044921875,11.190459981125592,1.8958789212808012,5.782670378494262
1782969342374030600,3.601030517578125,8.656997734317184,1.4287088610380887,5.964980417799949
1782969342383956500,3.61095654296875,6.497187598359584,1.1182749845139681,5.212829340589046
1782969342393882600,3.620882568359375,3.832276315432787,1.0872558691330254,4.761410683968663
1782969342403809500,3.6308095703125,2.6755203552246094,0.6410010250166058,4.674927747780084
1782969342413735400,3.6407353515625,3.0878163772463796,-0.23618542187809943,4.48313851698935
1782969342423661600,3.65066162109375,3.346055810022354,-1.1329210572429,3.44744522344172
1782969342433587500,3.66058740234375,2.924334957051277,-2.279169067440182,2.4765517343237993
1782969342443513300,3.670513427734375,0.989492098864913,-3.1066365207895634,1.8219570682406425
1782969342453440500,3.6804404296875,-3.827007435119152,-3.507251457367837,0.3246089707404375
1782969342463366400,3.690366455078125,-12.74726038454771,-3.1772716072440144,-2.3339459288969633
1782969342473292500,3.70029248046875,-25.257529876053333,-2.671107799479365,-7.545282108318805
1782969342483218400,3.710218505859375,-34.52835333595276,-2.600958158454299,-14.81426305747032
1782969342493144600,3.72014453125,-37.202279115462304,-3.54854705209136,-20.814013175356386
1782969342503071500,3.730071533203125,-34.798215401983256,-5.007241301548481,-23.674964916777608
1782969342512997400,3.739997314453125,-29.5843269077301,-5.711646292722225,-23.838067566788194
1782969342522923500,3.749923583984375,-23.804378063154218,-4.920313544201851,-21.876253115046023
1782969342532849700,3.759849609375,-18.011600132143496,-3.1240871295452117,-17.966714696234465
1782969342542775300,3.769775390625,-12.527363249647616,-1.247687838629633,-13.286565998935698
1782969342552702500,3.779702392578125,-8.433529170671106,0.22812091949656604,-8.828754230904579
1782969342562628600,3.789628662109375,-5.754305284753442,0.9866903393171728,-5.179526790446043
1782969342572554500,3.799554443359375,-4.088991315120459,1.4371391279920935,-2.3830606729388237
1782969342582480400,3.80948046875,-3.1804286099702117,1.9540506858728826,-0.1964440708592534
1782969342592407600,3.819407470703125,-2.7032646867185828,2.4099209150746463,1.2970043888539076
1782969342602333400,3.82933349609375,-2.3227631483644244,2.786870313905179,1.9971847480699418
1782969342612259300,3.83925927734375,-2.0399661974370478,3.2069755483731623,2.111841054819524
1782969342622185500,3.849185546875,-1.9331343007028101,3.521687102216482,1.9791680298641323
1782969342632111600,3.859111572265625,-1.7821148871958254,3.81250077086091,1.6555848950400947
1782969342642038500,3.86903857421875,-0.9034715194910764,3.897420110994577,1.4087088600605726
1782969342651964400,3.87896435546875,1.1474591395527123,3.6473382657110687,1.3901394764080643
1782969342661890600,3.888890625,4.200550240376591,3.3916786202952265,1.535241190303862
1782969342671816700,3.898816650390625,7.686243069148063,3.288554053646326,1.794510550649464
1782969342681742300,3.908742431640625,10.557194811058045,3.4558404190823433,2.833180229659378
1782969342691669500,3.91866943359375,12.445001777303219,3.872252936512232,4.258907444538176
1782969342701595600,3.928595703125,13.53362002083063,4.224019378769397,5.348242019641399
1782969342711521300,3.938521240234375,14.309395134735107,4.6430537691354745,6.363803210264444
1782969342721447400,3.948447509765625,14.594637140727043,5.270963549649715,7.427838216677308
1782969342731373600,3.95837353515625,14.101283130174874,5.909669449466467,7.6767931037575
1782969342741300500,3.968300537109375,13.415112883871792,6.494469571572542,7.2011916075170035
1782969342751226400,3.978226318359375,12.8833113615036,7.024059263110161,6.859106601318716
1782969342761152300,3.98815234375,12.492802808398007,7.237158408433198,6.532925266695022
1782969342771077400,3.998077392578125,12.549336596524714,7.178200023508071,6.12404577511847
1782969342781004500,4.008004638671875,13.296832541406154,7.088492864575982,5.673182414293289
1782969342790930200,4.01793017578125,14.17503576412797,6.620461511328816,5.206292047774792
1782969342800856300,4.027856201171875,14.973372253930568,5.814814406251907,4.890886958709359
1782969342810782500,4.037782470703125,15.826566123080253,5.066241772049665,4.723334635813534
1782969342820708400,4.047708251953125,16.44752593832612,4.492414879378676,4.33686542122662
1782969342830635300,4.05763525390625,16.36566715480685,4.108671290363371,3.89099913803637
1782969342840561400,4.0675615234375,15.20658479747772,3.8211221764728425,3.5568075154364105
1782969342850487600,4.077487548828125,13.381508720433711,3.41119814427942,2.7559648880317806
1782969342860413400,4.087413330078125,10.393182644987105,2.765966057564318,1.8068661743536591
1782969342870339300,4.09733935546875,7.356060682189464,1.7073893165573477,0.9503992748826742
1782969342880266500,4.1072666015625,4.763399227437377,0.5742787280917168,-0.9287427388697862
1782969342890192400,4.1171923828125,0.5927805994659662,-0.9085492611467838,-3.6928380341261624
1782969342900118300,4.1271181640625,-4.507964330688119,-2.584434016893804,-6.338206996715068
1782969342910044400,4.13704443359375,-11.578667856073379,-3.979011183488369,-7.471722366589307
1782969342919971600,4.1469716796875,-20.50477070057392,-4.0945696997746825,-9.048698712077737
1782969342929897200,4.156897216796875,-30.304658951354025,-2.860223427146673,-12.124134331178665
1782969342939823400,4.1668232421875,-38.57062147834301,-1.7684420434132218,-16.473416750907898
1782969342949749500,4.17674951171875,-42.81123894069194,-1.694783955875784,-20.051134952425954
1782969342959675400,4.18667529296875,-39.928596760988235,-2.8981974762320517,-22.528032431447503
1782969342969602300,4.196602294921875,-30.74251728465557,-4.455161545783281,-23.636143310952185
1782969342979528400,4.206528564453125,-21.640534141635893,-4.986673145294189,-20.9022736426115
1782969342989454300,4.216454345703125,-10.982986274468898,-3.8340257894486185,-15.825635564231872
1782969342999380200,4.226380126953125,-4.045847169920802,-2.0625945010915396,-10.453058729279041
1782969343009306400,4.236306396484375,-0.7655424737036228,-0.667481912446022,-5.896269869667291
1782969343019233500,4.246233642578125,0.7766384527355432,0.14567366856485606,-2.5217232936978338
1782969343029159400,4.256159423828125,1.507327639722824,0.41333910133391616,-0.4794812602832913
1782969343039085300,4.266085205078125,2.0439654962062836,0.5218864236839116,0.8341296877175569
1782969343049011500,4.276011474609375,2.529256027290225,0.43898207663446664,1.7896937980175018
1782969343058937300,4.285937255859375,3.049963908714056,0.08568287185207009,2.3360461160466075
1782969343068864300,4.2958642578125,3.5528520558089016,-0.41699455510154365,2.3148162810131905
1782969343078790400,4.305790283203125,4.020013640484214,-1.0619000402107834,1.9789163931906222
1782969343088716300,4.31571630859375,4.513727131998539,-1.606822763828188,1.7847966736257075
1782969343098642400,4.325642333984375,5.067193958207965,-1.801423544908315,1.9483868148922918
1782969343108568300,4.335568359375,5.702784356352686,-1.8284456996075809,1.9286092244938016
1782969343118495500,4.34549560546875,6.674978698936104,-1.160034981878847,3.0247178237766024
1782969343128421400,4.35542138671875,7.997168966972827,-0.5125656376309693,4.333473440700769
1782969343138347300,4.36534716796875,9.129759038695692,-0.009954846172779797,5.306414802259207
1782969343148273400,4.3752734375,9.86901731658578,0.39371085627824065,5.697968480503559
1782969343158199300,4.38519921875,10.478059899544716,0.8172036873579025,5.795223570597171
1782969343168126500,4.39512646484375,11.117257966792582,1.2085656424224376,5.788614966112375
1782969343178052400,4.40505224609375,11.890299856340885,1.535937502004951,5.810410033813119
1782969343187978200,4.414978271484375,12.387550289809703,1.7387873482532799,5.41657379758954
1782969343197904400,4.424904296875,12.675350163590908,1.7929099835850297,4.979672911143303
1782969343207830500,4.43483056640625,13.098934472346306,1.8963104445658623,4.386054691809416
1782969343217757400,4.44475732421875,13.699220917397737,1.9870453391104936,4.052946480531991
1782969343227683300,4.454683349609375,14.272040678852795,1.999335642493516,3.8588738149791952
1782969343237609500,4.464609375,14.699049116837978,1.9201701897114514,3.4949873113393783
1782969343247535400,4.474535400390625,14.988834026956557,1.8378775448195634,3.005589344936609
1782969343257462300,4.484462158203125,15.209837077271937,1.8345304263487456,2.6815821394816037
1782969343267388400,4.494388427734375,15.091188486015795,1.8219079684019088,2.688915258848667
1782969343277314300,4.504314208984375,14.254559967219828,1.7648522022277116,2.8882053667888044
1782969343287240200,4.514240234375,12.866159151172637,1.7726590765863657,3.0474358515411613
1782969343297166300,4.524166259765625,11.279402000904083,1.7956019991479812,3.0779522780969737
1782969343307093500,4.534093505859375,9.539292610266804,1.5570863807566464,2.9627053119778632
1782969343317019400,4.544019287109375,7.613565370950102,0.6291634338371456,2.7108780843317506
1782969343326945300,4.5539453125,5.219411641588807,-0.875793823492527,1.8634993312016128
1782969343336871400,4.563871337890625,0.9401081824928521,-2.784388726222515,0.2730100086674094
1782969343346797600,4.573797607421875,-5.269644868266582,-4.305652536839246,-1.6166981150239705
1782969343356724200,4.58372412109375,-14.00556065647602,-4.414516816183925,-3.892836290335655
1782969343366650400,4.593650390625,-25.073496666216847,-3.21459859059751,-7.826132016831636
1782969343376576500,4.603576416015625,-34.382751271319385,-2.8193934041082858,-12.514861495471
1782969343386502100,4.613502197265625,-40.06821332147121,-2.112257965057343,-18.028317458188532
1782969343396428300,4.62342822265625,-40.85288485853672,-2.28802676602602,-20.017751738262174
1782969343406355500,4.63335546875,-36.14446751360893,-2.596094351810217,-18.5314481818676
1782969343416281300,4.64328125,-27.58742945216894,-2.5150468846738336,-15.180148041450977
1782969343426207200,4.653207275390625,-17.99613368294239,-1.730260342926532,-11.141945833325385
1782969343436133400,4.66313330078125,-9.886834712827206,-1.070173947559297,-7.054523959478735
1782969343446059500,4.6730595703125,-4.827074704012275,-0.6934422831326723,-3.817696585938334
1782969343455986200,4.682986083984375,-2.3405881433904168,-0.37340880361422896,-1.3927058197647333
1782969343465912300,4.692912353515625,-1.9960726951748131,0.9429388758741318,-0.6927288741663098
1782969343475838500,4.70283837890625,-2.2310943339705465,1.7668793241411447,-0.6603779256597161
1782969343485764400,4.712764404296875,-2.4417893407613036,2.146204219931364,-0.9682681090503931
1782969343495690200,4.722690185546875,-2.556591193461418,2.3843922138035296,-1.4895385927930473
1782969343505617400,4.732617431640625,-2.2537340358018874,2.6594322669938206,-1.6965765383809803
1782969343515543600,4.74254345703125,-1.2641238635152579,3.011099048268795,-1.0833961249649524
1782969343525469200,4.75246923828125,0.04761164600253105,3.097983258734643,-0.39018823511004447
1782969343535395300,4.762395263671875,1.3726315845072268,2.9417160077020523,-0.020599135914444924
1782969343545322500,4.772322509765625,3.114164870467782,2.662686008092761,0.594412876842916
1782969343555248400,4.782248291015625,5.096095643043518,2.361539746004343,1.3401257376998663
1782969343565174300,4.79217431640625,7.06587303648889,2.070177503566444,2.1020684333458544
1782969343575100400,4.802100341796875,8.788443263304233,1.988413412593305,2.955104189324379
1782969343585026300,4.8120263671875,9.968846641081571,2.2991388194099067,3.7515015277579424
1782969343594953200,4.821953125,10.645018055939675,2.84747266664505,4.533636239822209
1782969343604879400,4.83187939453125,10.63264022040367,3.5610233795657753,5.107752178567647
1782969343614805500,4.841805419921875,10.23429556684494,4.271463559250534,5.545041187548637
1782969343624731400,4.8517314453125,10.164200870877504,4.496109642243385,5.664020618194341
1782969343634657300,4.8616572265625,10.556804350435733,4.387123197823763,5.29521886998415
1782969343644584400,4.87158447265625,11.42890282654166,4.010959104152024,4.788150222334266
1782969343654510300,4.88151025390625,12.268010887193679,3.433526588204503,4.387027920755743
1782969343664436200,4.891436279296875,12.757217130416631,2.937856701925397,3.879193257169425
1782969343674362400,4.9013623046875,12.872058146083354,2.5680750027671455,3.5121842375949024
1782969343684288300,4.911288330078125,12.669033820050954,2.3962205987632275,3.477653899222612
1782969343694215400,4.92121533203125,12.467649662441014,2.2738716916844246,3.6202871771782634
1782969343704141300,4.931141357421875,12.169750419449805,2.1359160501509904,3.493827912171185
1782969343714067500,4.9410673828125,11.583298438483476,2.0156229065582156,3.1159327569231388
1782969343723993300,4.950993408203125,10.704301435035466,1.8923279508009552,2.6708926954239605
1782969343733919500,4.96091943359375,9.504175704178213,1.8494559005409479,2.188529596094042
1782969343743846400,4.970846435546875,8.2844322496593,1.5850734349653124,1.5231012551769614
1782969343753772300,4.980772216796875,7.462722483053803,1.1093255159914492,0.7396898011751473
1782969343763698000,4.990697998046875,6.904632673218846,0.5249895042657852,0.059414896520972246
1782969343773624000,5.0006240234375,6.273658244436979,-0.014633213247358797,-0.4531342283666134
1782969343783549700,5.0105498046875,5.240379026293755,-0.3461374964594841,-0.8106234321847557
1782969343793476900,5.020476806640625,3.7046155656814572,-0.555055556705594,-1.1694848011389374
1782969343803403000,5.030403076171875,2.1008704557329416,-0.6963479414463043,-1.8866772315628826
1782969343813328600,5.04032861328125,-0.734851567363739,-0.6615213966064155,-3.0932880866557357
1782969343823254800,5.0502548828125,-6.344796896499395,-0.008751315601915121,-4.828744098529219
1782969343833182000,5.060181884765625,-14.105317500257492,1.3844418492883444,-7.247565236157178
1782969343843107800,5.07010791015625,-22.72827092615366,3.045217006447911,-9.069510613960027
1782969343853033700,5.08003369140625,-30.151839210426807,4.125350330224633,-10.471083046269417
1782969343862959900,5.0899599609375,-34.26352283434868,4.643355382430554,-13.91439979160428
1782969343872886000,5.099885986328125,-33.81550784869194,3.238994780707359,-16.981352244520185
1782969343882813000,5.10981298828125,-29.416541068339345,0.40934579391404985,-17.512764475309847
1782969343892738800,5.11973876953125,-22.66190898697376,-1.078068500201404,-16.608825922828913
1782969343902665000,5.1296650390625,-14.448977792948483,-1.7596172241836785,-13.316817344814538
1782969343912590800,5.1395908203125,-7.184069207802414,-2.4151985632166264,-9.151038558089732
1782969343922516700,5.149516845703125,-2.2684207328021526,-3.096435737031698,-6.45357291303873
1782969343932444000,5.15944384765625,1.0417711521565913,-4.109271886605024,-3.791868609459698
1782969343942370000,5.1693701171875,3.1311183433562517,-4.547156523391604,-1.2261135740727185
1782969343952295700,5.179295654296875,3.6554607818901537,-3.9209073695659633,0.3671726857036352
1782969343962221800,5.189221923828125,3.402751510712504,-3.5305408552795647,1.7481727239750324
1782969343972148000,5.19914794921875,2.8586376192599534,-3.294100289596617,2.525233055384457
1782969343982075000,5.209074951171875,2.6060242096722126,-2.9263682164445517,2.8212480920642613
1782969343992000800,5.219000732421875,2.6708564550668,-2.606591488166153,3.3342432071536776
1782969344001927000,5.228927001953125,3.1012352462679145,-2.355560671594739,3.8246354452908036
1782969344011853000,5.23885302734375,4.10558647609055,-1.990895584797859,4.34286290807575
1782969344021779000,5.248779052734375,5.618158446207643,-1.5865679113067686,5.034651286521553
1782969344031705900,5.258705810546875,7.141037290805578,-1.377890820209682,5.158495692855119
1782969344041632000,5.268632080078125,8.495776660269499,-1.6013303038917481,4.708771565192937
1782969344051558000,5.278557861328125,9.371920027852058,-1.5445488246142864,3.9222757353097197
1782969344061483800,5.28848388671875,9.946907196474076,-1.1483818804208188,3.5677328140765425
1782969344071410000,5.298409912109375,10.194007980120182,-0.6808254512090236,3.366307739934325
1782969344081337000,5.308337158203125,10.318373195457458,-0.19309118023477492,3.1869708712205287
1782969344091262700,5.3182626953125,10.489654475748539,0.18950725733339785,2.8015590567320583
1782969344101188900,5.32818896484375,10.72881979022026,0.48873278049230573,2.3706924820140003
1782969344111115000,5.338114990234375,11.500842273592948,0.8517254040323198,1.9544398313209412
1782969344121041000,5.348041015625,12.96557697225809,1.0356820415012538,1.7163213955536483
1782969344130967800,5.3579677734375,14.7311206638813,1.099418308352679,1.759612840269506
1782969344140894000,5.36789404296875,16.166940233707425,1.2008632513515651,1.9169062194794415
1782969344150819800,5.37781982421875,16.94419769512415,1.1799394135273993,1.9953210000246762
1782969344160746000,5.38774609375,17.458048550260067,0.7210274785421789,1.9932433169677852
1782969344170671900,5.397671875,17.863131572163105,0.31110812252387404,2.112283830150962
1782969344180599000,5.40759912109375,17.752049032247065,0.26652532282322644,2.6534491009309886
1782969344190525000,5.41752490234375,15.64555606045723,0.4141602084584534,3.301665464153886
1782969344200450800,5.427450927734375,12.561041062843799,0.5547593502379954,3.441773023024201
1782969344210377000,5.437376953125,9.186362384927273,0.4479929199554026,3.4110575667649505
1782969344220304000,5.447303955078125,5.673196442818641,-0.2914772471196949,2.2187951166287063
1782969344230229800,5.457229736328125,2.1090935096770522,-1.8022604341238737,0.4044897321850061
1782969344240156000,5.467156005859375,-1.8464654865533112,-4.342223441128432,-0.7419619838908315
1782969344250081800,5.477081787109375,-8.856889023020862,-5.667634717038274,-2.519504156343639
1782969344260008000,5.487008056640625,-20.36817494921684,-4.575061598405242,-5.112617738777399
1782969344269934800,5.496934814453125,-32.99202873432636,-2.410541969582438,-7.998000741621851
1782969344279861000,5.506861083984375,-42.3420782911539,-0.5901369530893862,-10.877435649716853
1782969344289787000,5.516786865234375,-45.62068962745666,0.42645986419171095,-15.076722738289833
1782969344299713000,5.526713134765625,-41.75696720340252,-1.4709724240109323,-18.52424687218666
1782969344309639000,5.536638916015625,-32.762517383384704,-4.064996399287879,-20.004840818762776
1782969344319565800,5.54656591796875,-22.494534650993344,-4.937831665235757,-18.926519512844084
1782969344329492000,5.556491943359375,-13.552093250632286,-4.7361736591204995,-14.596269125843047
1782969344339417900,5.56641796875,-8.01993492553234,-3.6889775593057275,-9.419722227990627
1782969344349343700,5.57634375,-5.657403830403089,-2.041829068699479,-5.15649779703617
1782969344359270000,5.586269775390625,-4.0887598444521425,-0.48214346522986884,-1.9183739539444447
1782969344369196800,5.59619677734375,-2.2999907600641247,0.7871475717902183,0.22385332517996429
1782969344379123000,5.606123046875,-0.5411117870271206,1.7890952476024626,1.4784386682383714
1782969344389048800,5.616048828125,1.1541133367449044,2.47516144900918,2.1695982472613453
1782969344398975000,5.62597509765625,2.6509897250801324,2.8763983168780802,2.4349166785128413
1782969344408900900,5.63590087890625,3.8628959101021287,3.041451808695495,2.2921920690119264
1782969344418827800,5.645827880859375,5.180319986650347,3.0635122493341562,2.231663950552046
1782969344428754000,5.65575390625,6.7088026426047085,3.077207304948568,2.325444058011472
1782969344438679800,5.6656796875,7.880834497877955,3.2217908401891586,2.3519375126615167
1782969344448605700,5.675605712890625,8.656828222969175,3.5058152870848773,2.374778436153382
1782969344458531800,5.68553173828125,9.53219242287278,3.756256321069598,2.763459335440397
1782969344468459000,5.695458984375,10.458529854166507,4.173913285602629,3.438758059117198
1782969344478385000,5.705385009765625,11.318425851303338,4.713286412268877,3.862908477322757
1782969344488310800,5.715310791015625,12.054190441858768,5.055779414746165,4.098059003195166
1782969344498237000,5.72523681640625,12.589578590542077,5.18885692884922,4.01369729694426
1782969344508163800,5.735163818359375,13.168837445133924,5.28210570591092,3.7083994681343433
1782969344518089700,5.74508984375,13.787687136358022,5.469530311751365,3.4658179154783486
1782969344528016000,5.755015869140625,14.259489824837445,5.610201349723339,3.447265775221586
1782969344537942000,5.76494189453125,14.510426241123675,5.490843148893117,3.345716495065391
1782969344547867600,5.77486767578125,14.42539233469963,5.234763524499535,2.8139082506954667
1782969344557794800,5.784794921875,14.324323823797702,5.045709271630645,2.3852166819289327
1782969344567721000,5.794720947265625,14.090707960146664,4.778413841217756,2.1603379592239857
1782969344577646800,5.804646728515625,13.804081806319951,4.416338770914077,2.063000743804872
1782969344587572700,5.81457275390625,13.512558528101444,4.070259434382617,2.021579184614122
1782969344597499000,5.824498779296875,13.14713531641364,3.6422529252707956,2.0031085851609705
1782969344607426000,5.834426025390625,12.703545161461829,3.207648333068192,1.9070206391505895
1782969344617351700,5.8443515625,12.064269937324523,2.9367040247589347,1.8220901931010185
1782969344627277800,5.85427783203125,10.68743330234289,2.829919474297762,1.878290657620132
1782969344637204000,5.864203857421875,8.996684447202085,2.755987976646423,1.8193408943928777
1782969344647129900,5.8741298828125,7.23169079067707,2.5726035861074923,1.387050716612488
1782969344657056800,5.884056884765625,5.300599393978715,2.1914752941571174,0.4907810913242399
1782969344666983000,5.89398291015625,3.645096624264121,1.975865773448348,-0.08189940779060124
1782969344676909000,5.903908935546875,2.1326742917507886,1.8668699766784906,-0.8473734924331306
1782969344686834700,5.913834716796875,0.6079249771058559,1.8423459224052725,-1.8654995651081203
1782969344696760800,5.9237607421875,-1.4863339515328406,1.8091180449336766,-3.7241906192451713
1782969344706688000,5.93368798828125,-5.085246332249045,1.4073866715461014,-6.8131661033988
1782969344716614000,5.94361376953125,-11.11137066231966,0.8587586636699736,-10.634980646049975
1782969344726539800,5.953539794921875,-19.689367340636252,0.9239126883648335,-14.91422799104452
1782969344736466000,5.9634658203125,-29.639767639923093,1.6867475105449556,-19.600866050362587
1782969344746391800,5.973391845703125,-38.14474116760492,1.8325426135323941,-23.595547096669673
1782969344756318700,5.983318603515625,-42.89776220889091,2.0633869666434825,-27.51230669890642
1782969344766246100,5.99324609375,-40.31163161721229,1.1132039648599923,-27.244997824490067
1782969344776172000,6.003172119140625,-30.36251726608276,-1.1688640388920903,-21.81234149162769
1782969344786098000,6.013097900390625,-18.082162445622682,-1.3074822359874845,-16.026428185689447
1782969344796025000,6.023025146484375,-8.889486639764904,-1.4083612156666814,-11.542376060986518
1782969344805951000,6.032950927734375,-4.182378039348126,-2.7122081638917326,-7.43617057621479
1782969344815876900,6.042876953125,-1.7325988688766956,-3.7048949671447273,-3.9512119069367646
1782969344825803000,6.052802978515625,0.04406067552268505,-3.3162013545066116,-1.6215253890499473
1782969344835729000,6.06272900390625,1.6132289776086806,-2.824161933684349,0.5068696179464459
1782969344845655800,6.07265576171875,3.0391829869806766,-2.813165323373675,2.5214818861573933
1782969344855582000,6.08258203125,4.218310353472829,-2.978461099514365,3.7270083070144056
1782969344865508000,6.092508056640625,5.004244457820057,-3.1586928712412714,4.181016103345155
1782969344875434000,6.10243408203125,5.504134592142701,-3.295130217166245,4.4405689568072555
1782969344885360000,6.112360107421875,5.519685212495923,-3.2799621663898226,4.690009873838722
1782969344895287000,6.122287109375,5.322731146287918,-3.3325206211447713,5.004847099888324
1782969344905213000,6.132212890625,5.214994409668445,-3.761649704545736,4.884341774849593
1782969344915139000,6.14213916015625,5.358222146385907,-3.6002404144495723,4.742698384714126
1782969344925065000,6.15206494140625,5.936491405418515,-2.4511281008623538,5.330458525669575
1782969344934990800,6.161990966796875,6.5361886524051425,-1.3993268453396857,6.565225946319103
1782969344944918000,6.17191796875,7.208270167601108,-0.5506041302546858,7.612641241842508
1782969344954844000,6.181843994140625,8.071336611467599,0.04153451804593205,8.085780147361755
1782969344964770000,6.19177001953125,9.339564987692237,0.5149981254749,8.242612631061673
1782969344974696000,6.201696044921875,10.412343272531032,1.0201138854913412,8.390313713800907
1782969344984622000,6.2116220703125,11.114590208888053,1.3860153822153807,8.652646553370356
1782969344994549000,6.221549072265625,11.65854394134283,1.6640847200989721,8.582445474418996
1782969345004475000,6.231474853515625,11.913577856075763,1.844789370034635,8.3501933003366
1782969345014401000,6.241401123046875,12.071260819125175,1.974174167099595,8.152481109237671
1782969345024327000,6.251326904296875,12.153117264556885,2.021740512655675,7.886069475921988
1782969345034252800,6.261252685546875,12.083061147034167,2.031124573203176,7.564607571035623
1782969345044180000,6.271179931640625,11.912090832388401,2.001224671110511,7.150624034318327
1782969345054106000,6.281106201171875,11.422170303416252,1.921584732684493,6.459660123997926
1782969345064032000,6.291031982421875,10.67799911904335,1.9447358911693096,5.9210734715342515
1782969345073958000,6.3009580078125,10.05885249069929,1.7958114041149615,5.625186152887344
1782969345083884000,6.310884033203125,9.628438628184794,1.4604825941786168,5.16050937076509
1782969345093811000,6.32081103515625,8.670044262894988,1.165572157739848,4.67071071460694
1782969345103736800,6.33073681640625,7.08920481223762,0.6999613096378743,4.183077419789135
1782969345113663000,6.3406630859375,5.251007972335815,0.283553614513576,2.942244123229384
1782969345123589000,6.350589111328125,2.548071202397346,-0.5752472808629274,1.3447487213253975
1782969345133516000,6.36051611328125,-0.6694599345207214,-1.057287724109739,-0.020042963336408138
1782969345143442000,6.37044189453125,-5.289236288443208,-0.7322888772688806,-2.1190350579768418
1782969345153368000,6.3803681640625,-11.926121695828437,-0.57201604385674,-5.904080835679173
1782969345163294000,6.3902939453125,-20.371022739863395,-0.8880341502539812,-12.044272274434565
1782969345173219800,6.4002197265625,-29.58448355959654,-1.6459673179976642,-20.17031662764549
1782969345183147000,6.41014697265625,-36.30845863689184,-2.1121306854158637,-28.24120783343315
1782969345193073200,6.4200732421875,-37.48745331691503,-2.1796844647288323,-32.98139511210918
1782969345202998800,6.429998779296875,-31.63512429578304,-3.0519509908780456,-30.94397158489227
1782969345212925000,6.439925048828125,-21.599019058942794,-2.8347762666791674,-23.86948444931507
1782969345222851000,6.44985107421875,-12.058413027989864,-0.7509586525559425,-16.06915439773798
1782969345232778000,6.459778076171875,-6.0613996415913105,0.5950887302778661,-9.22834800774157
1782969345242704000,6.469703857421875,-3.539531386464834,1.353045571158081,-4.9789323219090695
1782969345252630000,6.479630126953125,-2.3614392082393167,1.5821993408337234,-1.7139374230265616
1782969345262556200,6.48955615234375,-1.252549161055684,1.9230783322431146,0.7000847898870706
1782969345272481800,6.499481689453125,-0.49880175456404685,2.3330280833996833,2.0074165114879605
1782969345282409000,6.509408935546875,-0.5218494526743889,2.6059654652222988,2.2296149090677497
1782969345292335000,6.519335205078125,-0.5552613084107637,2.6428137251481414,2.176556688097119
1782969345302261000,6.529260986328125,-0.1694055495470762,2.610268130852282,2.265782200992107
1782969345312187000,6.539186767578125,0.4222323096245527,2.564890235251188,2.420309914880991
1782969345322113000,6.549113037109375,0.934244843417406,2.550527655638754,2.647183903056383
1782969345332040200,6.559040283203125,1.5734709677159786,2.894356582894921,3.3557676412194963
1782969345341965800,6.5689658203125,2.606179692494869,3.331308615006506,4.589041608440875
1782969345351892000,6.57889208984375,3.7369583308815955,3.627279812544584,5.95640022098124
1782969345361818000,6.588818115234375,4.80404921773374,3.7776770024999973,7.360587804225086
1782969345371744000,6.598743896484375,5.82818008378148,3.9309427336290477,8.97858589593172
1782969345381671000,6.6086708984375,6.894743731889128,4.051654687155783,10.56423245460987
1782969345391597000,6.61859716796875,7.932254303991794,4.182768207709491,12.02178922446966
1782969345401523000,6.62852294921875,9.199210760584473,4.3965211407661435,12.985525535309314
1782969345411448800,6.63844873046875,10.157966360402106,4.599311365781724,14.274452416169643
1782969345421375000,6.648375,10.88743915733695,4.810001404136419,15.389605615401267
1782969345431302100,6.65830224609375,11.67928160894513,4.7537876417443155,15.665931324487923
1782969345441228000,6.66822802734375,11.721679319691658,4.519069369809329,15.211861861097812
1782969345451154000,6.67815380859375,11.134770242607592,4.201888795503974,13.925787447059154
1782969345461080000,6.688080078125,9.980769718587398,3.8903845132693644,12.427318821096419
1782969345471007000,6.698007080078125,8.73188375621438,3.496993974986672,10.704896478319167
1782969345480932900,6.707932861328125,8.11367119385004,3.3019027800410985,8.77121681869328
1782969345490859000,6.71785888671875,8.986421996384859,3.4425896001040934,8.261051958593725
1782969345500785000,6.727784912109375,10.71706973119378,3.034049423484504,9.532589897757768
1782969345510711000,6.7377109375,11.830996603500843,2.6551050514444707,10.039134229272603
1782969345520638000,6.747637939453125,11.279933915823698,2.823355877998471,9.089260439568758
1782969345530564000,6.757564208984375,9.308725028270482,2.5266435067042705,7.9130732181817285
1782969345540490000,6.767489990234375,6.474297136637568,1.8922905414000153,6.278900236743688
1782969345550416000,6.777415771484375,4.516265710565447,1.6960899239078162,4.081588929909468
1782969345560342000,6.787342041015625,3.7112346915602683,1.3731719749942422,2.152170434859395
1782969345570269000,6.79726904296875,2.913091093981266,0.0733335317581892,0.15455869354903698
1782969345580195000,6.807195068359375,1.630175436234474,-1.0933844350159168,-2.7978683855205775
1782969345590121000,6.817120849609375,0.47010874404311176,-1.6271353378862141,-6.416581445249915
1782969345600046800,6.827046875,-0.7069301257371902,-2.0570953191533685,-9.522922490224241
1782969345609973000,6.836972900390625,-3.6337434556007384,-2.602636613060534,-12.23093349468708
1782969345619900000,6.84689990234375,-9.334753788018226,-2.873306780603528,-16.437431245291233
1782969345629826000,6.856825927734375,-16.178305677330492,-3.228366419187188,-22.68329781196117
1782969345639752000,6.866751953125,-22.402201235210896,-4.132860851985216,-28.830726216232776
1782969345649678000,6.876677978515625,-26.69456057523489,-5.515346891030669,-34.757988605535026
1782969345659604000,6.88660400390625,-27.812309051656722,-6.0613844440221785,-39.6840421546936
1782969345669531000,6.89653076171875,-25.55463066214323,-5.876095681166649,-39.967521242666244
1782969345679457000,6.90645703125,-20.551780289030074,-5.224253236401081,-32.450148885536194
1782969345689383000,6.9163828125,-11.949739887303114,-2.4866104792624713,-22.48615260709524
1782969345699308800,6.926308837890625,-4.471434635192155,0.3655363166734576,-13.50023680666685
1782969345709235000,6.93623486328125,0.46727264383435246,1.7696265770226716,-7.077878531581163
1782969345719162000,6.946162109375,3.1934429898440837,1.7331284457087517,-2.4898306103527545
1782969345729088000,6.956087890625,4.053036204642058,1.5246303644403814,0.6143704999834299
1782969345739014000,6.966013916015625,3.5574434752523896,1.9178142742350697,2.6156021853566167
1782969345748940000,6.97593994140625,2.695422741046548,2.2749802374482155,4.0713609658837315
1782969345758867000,6.985866943359375,2.1227111161410805,2.3540330236360427,4.993520819231867
1782969345768792600,6.99579248046875,1.8919260920017957,2.21730546259284,5.512768564975262
1782969345778718700,7.00571875,2.0193284830778837,2.0698113006025554,5.917938680639863
1782969345788644900,7.015644775390625,2.510772276094556,1.8007164195522665,6.347728273776173
1782969345798570800,7.02557080078125,3.3629835639476773,1.5699968618646263,6.755390206256508
1782969345808497700,7.03549755859375,4.552786053711175,1.443507201719284,7.61131437715292
1782969345818423800,7.045423828125,5.744972223740816,1.4907693036317824,8.660406665977835
1782969345828350000,7.055349853515625,6.642838762831688,1.8159832545280457,9.651766896802187
1782969345838275600,7.065275634765625,6.9248863566964864,2.21090845503211,10.510140798938274
1782969345848201700,7.07520166015625,7.02592388793826,2.498028529855609,11.468607060420512
1782969345858129000,7.08512890625,6.9307976265668865,2.8219682230323553,11.962867079901695
1782969345868054500,7.095054443359375,7.009609881997108,2.976314150613546,12.221204712355137
1782969345877980700,7.104980712890625,7.288359603360295,2.9369933630943295,12.321394102334976
1782969345887906800,7.11490673828125,7.554487159037589,2.7697344701871276,12.237848388642073
1782969345897832700,7.124832763671875,8.016969645985961,2.466822367469966,11.903341708743572
1782969345907759600,7.134759521484375,8.672253755638003,2.161733797496557,11.616703864479064
1782969345917685800,7.144685791015625,9.262303468835354,1.9743834259361028,11.390264760589599
1782969345927612000,7.15461181640625,9.691385790485143,1.8427037959322332,10.82718313381672
1782969345937537800,7.164537841796875,9.814040694773196,1.6665855970039962,10.146535450327395
1782969345947463700,7.174463623046875,9.788367324334383,1.3701938359662889,9.567636661219597
1782969345957390800,7.184390869140625,9.53240285075307,1.1075649360597133,9.175245363107322
1782969345967316700,7.194316650390625,9.119662592095136,1.0552242157086729,9.086768038231133
1782969345977242600,7.20424267578125,8.490930973803996,1.0530071241810917,8.881957413303851
1782969345987168800,7.214168701171875,7.61976247202456,0.9073860625863075,8.419226504552364
1782969345997094700,7.2240947265625,6.720638626348972,0.5271063502892851,7.795572627916932
1782969346007021600,7.234021484375,5.786226025149226,0.25244126789122817,7.002998939424753
1782969346016947700,7.24394775390625,4.168384000787139,0.032710429468750954,5.91020428699553
1782969346026873900,7.253873779296875,1.1891396419405937,-0.6542611963450908,3.710528589117527
1782969346036799700,7.2637998046875,-2.6247487838864325,-1.7742843397006391,-0.12202420516908168
1782969346046726700,7.2737265625,-6.2587576124250885,-2.7750837222605944,-5.3600709891229865
1782969346056652800,7.28365283203125,-9.82516999155283,-3.5360873834908007,-11.12129350591898
1782969346066578700,7.29357861328125,-13.388637549400329,-4.359533764630556,-16.805266194295882
1782969346076504800,7.3035048828125,-17.127135510939357,-5.278870377251505,-23.132313499093055
1782969346086430700,7.3134306640625,-20.429619890260696,-6.33762539743483,-28.879178404712675
1782969346096358000,7.32335791015625,-21.685815883386134,-7.208661212745309,-32.10419609799385
1782969346106283800,7.33328369140625,-20.27518686891794,-6.811861450541019,-32.3692323513031
1782969346116209700,7.343209716796875,-17.016208453845977,-5.147023866248131,-29.00933038675785
1782969346126135800,7.3531357421875,-12.900461233747004,-2.8338065448641774,-22.65040325809717
1782969346136061700,7.363061767578125,-8.95374137753248,-0.1682328525058925,-15.213234318494797
1782969346145988600,7.372988525390625,-6.1433916961014265,2.1218922009736296,-8.683426891559362
1782969346155914800,7.382914794921875,-4.745547344404459,3.4314708247184753,-4.161697070369124
1782969346165840600,7.392840576171875,-4.331099112784862,4.121760781300067,-1.4861159248679876
1782969346175766800,7.402766845703125,-4.425437438648939,4.396234432779252,-0.003703530693054199
1782969346185692700,7.412692626953125,-4.379237997531891,4.527947965052723,0.7243260816961526
1782969346195619800,7.422619873046875,-3.8177000930696723,4.26781438909322,1.1218278546899556
1782969346205545700,7.432545654296875,-2.7215800956100225,3.7569104010641574,1.3488614173412323
1782969346215471900,7.442471923828125,-1.4842600678682327,3.2164763671681285,1.4957827478796242
1782969346225397800,7.452397705078125,-0.14678396789431572,2.65713012753129,1.8429209458142517
1782969346235323600,7.46232373046875,1.3950672881990671,2.183465152311325,2.6311311783999205
1782969346245250800,7.472250732421875,2.9557705442786215,1.8077479256242512,3.738169460237026
1782969346255176700,7.4821767578125,4.170975186324119,1.5289254312857985,4.9280169581860305
1782969346265102600,7.4921025390625,5.121386151644587,1.3898480922460554,6.250488381251692
1782969346275028700,7.50202880859375,6.297711904719471,1.3927648564755917,7.703292988148331
1782969346284955000,7.511954833984375,7.582249610710144,1.4114473451137541,9.163955907329916
1782969346294881800,7.5218818359375,8.604455061653256,1.3703583788782356,10.574739820098877
1782969346304807700,7.5318076171875,9.428380166220665,1.368953772777319,11.882116549885271
1782969346314733800,7.54173388671875,10.168525163817405,1.4744111662879584,12.92958211429119
1782969346324659700,7.55165966796875,10.761032791560888,1.7113655267119408,13.749137917733192
1782969346334585600,7.561585693359375,11.03809499822855,1.9101590833067892,14.305483514249325
1782969346344512800,7.5715126953125,11.079038418513536,2.112785349932313,14.312656766879558
1782969346354438700,7.581438720703125,10.931536657738684,2.358270807336271,13.907129508340358
1782969346364364500,7.591364501953125,10.614833345556258,2.4847315336480733,13.225759355795383
1782969346374290700,7.601290771484375,9.853374341773986,2.496215342953801,12.206457225078344
1782969346384217900,7.6112177734375,8.867205249851942,2.4181568285003303,11.232213548749685
1782969346394143700,7.621143798828125,7.882062578368187,2.2703226209007203,10.216681584221124
1782969346404069600,7.631069580078125,6.905245252159237,2.12234900483042,9.24610169109702
1782969346413995800,7.640995849609375,6.31677433258593,2.0118904420316217,8.542399295234679
1782969346423922000,7.650921875,6.057509063893556,1.9653866111405192,7.807679245296121
1782969346433848600,7.6608486328125,5.607210351213812,1.6992418120674788,6.653735419899225
1782969346443774700,7.670774658203125,5.159785732665657,1.5810772049359976,5.425452685093879
1782969346453700900,7.680700927734375,4.808555296981335,1.6528183529362082,4.028884929203987
1782969346463626500,7.69062646484375,4.300407037401199,1.4179657870970666,2.1769775438576935
1782969346473552600,7.700552734375,3.2930607174158095,0.847504571466893,-0.5211854358077049
1782969346483479800,7.710479736328125,1.332197867310047,-0.09529650337174535,-3.9660178464025257
1782969346493405700,7.72040576171875,-0.7125742691040039,-1.1638498639918864,-7.09381026020646
1782969346503331600,7.73033154296875,-3.136128864994645,-2.160102835293859,-10.07136944244504
1782969346513257700,7.7402578125,-6.851454625260829,-2.740687531661987,-13.42809628408551
1782969346523183900,7.750183837890625,-11.79416704827547,-3.0240690044790504,-17.412686144489047
1782969346533110500,7.760110595703125,-16.40201389495134,-3.35433410128504,-21.711378194665908
1782969346543036700,7.77003662109375,-19.075458028423785,-3.883956526048481,-25.59827106642723
1782969346552962800,7.779962890625,-19.786603726029394,-4.728439557737111,-27.9788580427289
1782969346562888700,7.789888671875,-19.231860888534783,-5.283977345001698,-29.27528317039013
1782969346572814600,7.799814697265625,-17.8174055937767,-5.003189395809173,-28.539676400744913
1782969346582741800,7.80974169921875,-15.241298383462428,-3.366124784582853,-25.052968257451056
1782969346592668000,7.81966796875,-11.221935315841435,-0.8012712280802429,-19.648544331860542
1782969346602593500,7.829593505859375,-7.062360644453763,1.2600655280351638,-14.277025481528042
1782969346612519700,7.839519775390625,-4.012106812882423,2.302000930842757,-10.37739587779045
1782969346622445800,7.84944580078125,-1.8207815947204826,2.553517192843556,-7.223075522544979
1782969346632372700,7.859372802734375,0.020257190608978272,2.595777248685062,-4.346338767492771
1782969346642298600,7.869298583984375,1.4660165551692246,2.5305869836330412,-1.7010452082276344
1782969346652224800,7.879224853515625,2.3485317958712577,2.2724257306598123,0.6555670182466506
1782969346662150700,7.889150634765625,2.8252573277056214,1.937948861377686,2.684706116721034
1782969346672077600,7.89907763671875,3.0687855135619637,1.5974841498576104,4.250971098580957
1782969346682003700,7.909003662109375,3.137634008860588,1.3220036594234406,5.287594950976968
1782969346691929900,7.918929931640625,3.170657157540321,1.1344511894196272,5.898078964915872
1782969346701855700,7.928855712890625,3.3154350463092324,1.0816440206006168,6.338905500373244
1782969346711781600,7.93878173828125,3.810330441084504,0.9706415601834654,6.620221857354045
1782969346721708800,7.948708740234375,4.59352839846611,0.9907371304899454,6.988949955806135
1782969346731634700,7.958634765625,5.352061285668611,1.0528430196605623,7.526234878021478
1782969346741560600,7.968560546875,6.071624683007598,1.1613470873907208,8.239711648923159
1782969346751486700,7.97848681640625,6.990875955432653,1.4321281679622828,9.190741038402914
1782969346761412600,7.98841259765625,8.270807044410706,1.8098190328098833,10.2660023722291
1782969346771339800,7.99833984375,9.305921661287545,2.082394449452311,11.065810688149929
1782969346781266000,8.008265869140626,9.865441211664676,2.1937879550136623,11.459525928342341
1782969346791191800,8.01819189453125,10.31904305754304,2.2429421542830763,11.49593462780714
1782969346801118000,8.028117919921876,10.750655189931392,2.3945612872488797,11.267926667165755
1782969346811044000,8.038044189453124,10.833610536515712,2.4117921157740057,10.955255386978386
1782969346820970800,8.047970703125,10.659614736568928,2.1919760832861064,10.122858806663752
1782969346830897000,8.05789697265625,10.254972444170713,1.8603924512274561,8.994939649361372
1782969346840823000,8.067822998046875,9.840687878680228,1.6354112910613416,8.18849291833937
1782969346850748700,8.077748779296876,9.557851764786243,1.6011371194072066,7.818513358521461
1782969346860674800,8.0876748046875,9.208420487478374,1.6329359869889915,7.847775108841061
1782969346870602000,8.09760205078125,8.959156388318538,1.5786036544293165,7.864353903198242
1782969346880528000,8.10752783203125,8.672229790240525,1.5204032482646406,7.652918307173252
1782969346890453800,8.117453857421875,7.838912003427743,1.4103560427457094,7.160648584726452
1782969346900380000,8.1273798828125,6.462666904598474,1.24447676762864,6.479812685188651
1782969346910306000,8.13730615234375,4.895034141516685,0.9648213295973836,5.849003676101565
1782969346920232700,8.147232666015626,3.0746798322975635,0.6395538949482142,5.026735691091418
1782969346930158800,8.157158935546875,0.9837176071166992,0.3246954799801111,3.393246015742421
1782969346940085000,8.1670849609375,-1.7571914583414792,-0.3105130792401731,0.996075568908453
1782969346950011000,8.177010986328124,-4.447402017697692,-1.0368398332342506,-1.772337589547038
1782969346959936800,8.186936767578125,-7.204082652783393,-1.612071916528046,-5.241348163586855
1782969346969864000,8.196864013671876,-10.462773483085632,-2.268307627816498,-9.382390568462014
1782969346979790000,8.2067900390625,-13.988532364785671,-2.9043016383260487,-14.040501036953925
1782969346989715700,8.2167158203125,-17.63158608504534,-3.66622825962007,-19.850707072627543
1782969346999641900,8.226641845703124,-20.93070478732586,-4.72784626801908,-25.526816772544382
1782969347009569000,8.236569091796875,-22.998708161723613,-5.347583263471722,-28.42768902094364
1782969347019494700,8.24649462890625,-23.09832004407644,-4.797076748372614,-28.138806612622737
1782969347029420800,8.2564208984375,-20.776599098241327,-3.663807462213933,-24.511560702347754
1782969347039347000,8.266346923828126,-16.499977425575256,-1.6995543851479886,-18.563744185316562
1782969347049272800,8.27627294921875,-11.780398050642013,0.3969355174131691,-12.375525505495071
1782969347059199700,8.28619970703125,-8.294255724537372,1.5326456208527088,-7.505780119013786
1782969347069126000,8.2961259765625,-6.113299340176582,2.0510107385426757,-4.3380747970163815
1782969347079052000,8.306052001953125,-4.380946555015444,2.126011180599779,-2.2538602925300597
1782969347088978000,8.31597802734375,-2.9450948364853855,2.0849762826390563,-0.8018255009621381
1782969347098903800,8.32590380859375,-1.8163661163657903,2.0812568237245084,0.2931026563644409
1782969347108831000,8.3358310546875,-1.0377186618953942,1.9958073222368955,1.070399865269661
1782969347118756900,8.3457568359375,-0.49666941871047016,1.8821876650586724,1.4660790990114212
1782969347128682800,8.355682861328125,0.2600187174081802,1.6523675404287874,1.7064064429998398
1782969347138609000,8.36560888671875,1.3393003927916287,1.2914447089001535,1.9189391866117715
1782969347148534800,8.37553466796875,2.6998136694818733,0.9875365808829665,2.344489827004075
1782969347158461700,8.385461669921876,4.291974140098691,0.8102171894714236,3.1078321603149175
1782969347168387800,8.395387939453125,5.890598838293552,0.7949908326365053,3.977209102502465
1782969347178315800,8.405315673828126,7.215173371118307,1.0247199179820716,4.915469026780128
1782969347188242000,8.415241943359375,8.319669567257165,1.3873648971281944,6.11235299923718
1782969347198167800,8.425167724609375,9.5696824878335,1.7933197334297,7.621062448707223
1782969347208094000,8.435093994140624,10.834543433451651,2.1767858206778765,9.096112789681554
1782969347218019800,8.445019775390625,11.706281844073533,2.5638299125432966,10.25930608946085
1782969347227946800,8.45494677734375,12.011631403070687,2.976398321765661,10.856056177079678
1782969347237873000,8.464872802734375,12.025572250139712,3.1641569818660615,11.481409258848428
1782969347247799000,8.474799072265625,11.556886232376097,3.6664848647296426,11.148712258720398
1782969347257724700,8.484724609375,10.815867959076165,3.9880771179974075,10.501391675293444
1782969347267650800,8.49465087890625,10.20712114419341,4.072390016670525,10.09520273797512
1782969347277578000,8.504577880859374,9.723597622781991,4.041275624221563,9.618696986371278
1782969347287504000,8.51450390625,9.3449455116868,3.889975640207529,9.023731444081664
1782969347297429800,8.5244296875,9.225181652665137,3.6103020819976925,8.31333861066997
1782969347307356000,8.53435595703125,9.230612445542215,3.2195275714322924,7.6078101684242485
1782969347317282800,8.54428271484375,9.22937267461419,2.720625571364164,6.829025351309776
1782969347327208700,8.554208740234374,9.22933643425703,2.272577706351131,5.950368539601564
1782969347337134800,8.564134765625,9.304564985981584,1.8588579351365566,5.182949166110157
1782969347347061000,8.57406103515625,9.392078434261679,1.5158914699286221,4.598074809724092
1782969347356987000,8.58398681640625,9.399607076200843,1.3760799713954328,4.13365463271141
1782969347366913800,8.593913818359376,9.162249103412032,1.3758844488233326,3.5718250518262384
1782969347376840000,8.60383984375,8.460872520148754,1.3489732071526348,2.997935615313053
1782969347386766000,8.61376611328125,7.094906238749623,1.2231443490035832,2.4114538237303496
1782969347396691700,8.623691650390626,4.694100650283694,0.7327800217866897,1.432117792698741
1782969347406617900,8.633617919921875,0.7382195824921131,-0.37628961974754926,-0.8136053706049918
1782969347416545000,8.643544921875,-4.048790237635374,-1.8239738148905336,-3.9281607016950844
1782969347426470700,8.653470703125,-9.138142251637577,-3.245423644711077,-7.784308306580781
1782969347436396800,8.663396728515625,-14.706996276450157,-4.618007006162404,-12.295859848105907
1782969347446323000,8.673322998046874,-19.90727710111141,-5.980078033688664,-17.084449046379326
1782969347456248800,8.683248779296875,-23.190464074766634,-7.414613408923149,-21.53471931298971
1782969347466175700,8.69317578125,-24.047300684332846,-8.19063869819641,-24.541041648375987
1782969347476102000,8.703101806640625,-23.026454246783256,-7.98502377114892,-25.45037767598629
1782969347486028000,8.713028076171875,-20.916493891143798,-6.942837608450651,-24.64305007047653
1782969347495954000,8.722953857421874,-18.49215194426775,-5.005829096662998,-22.213590049934385
1782969347505879800,8.7328798828125,-15.233360576200484,-2.671483647054434,-18.25861440654993
1782969347515807000,8.742806884765624,-11.057153918963671,-0.5668623143553734,-13.46146430068016
1782969347525732900,8.75273291015625,-7.439252760139107,0.8475881580971181,-9.008962329494953
1782969347535658800,8.76265869140625,-5.107653394368291,1.4309912728868424,-5.841517704260349
1782969347545585000,8.7725849609375,-3.620459611135721,1.598239206008613,-3.653831719383597
1782969347555510800,8.7825107421875,-2.687932093030214,1.634644106081128,-2.21667125634253
1782969347565437700,8.792437744140624,-1.8685761960744858,1.7031519712485372,-1.1494073510110379
1782969347575363800,8.80236376953125,-0.7986410257071256,1.8493094778075814,-0.2386784077376127
1782969347585290000,8.8122900390625,0.6066366908609867,2.0650772578179835,0.4961415954440832
1782969347595216000,8.8222158203125,2.0755904685258866,2.4629162999421355,1.2335527841627598
1782969347605142800,8.832142822265626,3.6764462867736816,2.8605326392263173,1.9203455462783574
1782969347615069000,8.84206884765625,5.326037786617875,3.2412904904291033,2.592336460581422
1782969347624994800,8.851994873046875,6.6784758934021,3.7008608893230557,3.5564053643763063
1782969347634921000,8.8619208984375,7.6213862738341085,4.199167261585593,4.555651380014419
1782969347644846800,8.871846923828125,8.262436690950393,4.776810789935291,5.436833910807967
1782969347654774000,8.88177392578125,8.835618271455168,5.240757796478271,6.020776539301872
1782969347664700000,8.891699951171875,9.701346043485403,5.530162182846665,6.438863419684767
1782969347674625800,8.901625732421875,11.264030244249104,5.927739359164238,6.938554816564917
1782969347684552000,8.911552001953124,13.161656009197234,6.2274669866263865,7.427771581181883
1782969347694477800,8.921477783203125,14.213310257464647,6.400148781365155,7.773781067347526
1782969347704404700,8.93140478515625,14.219807802790402,6.561373362544178,7.7457386296898125
1782969347714331000,8.941330810546875,13.44881875411868,6.670908088496327,7.482234408253431
1782969347724256800,8.9512568359375,12.380437827455996,6.691189244502782,7.3962167514890425
1782969347734183000,8.961182861328124,11.66809035284519,6.747449476385116,7.696064205938577
1782969347744108800,8.97110888671875,11.497494132208823,6.650830346107482,8.204324109199643
1782969347754036000,8.981035888671874,11.848375608325004,6.281672039544582,8.533693426209688
1782969347763961600,8.990961669921875,12.361499318230152,5.805374377733469,8.657026375889778
1782969347773887700,9.0008876953125,12.62650050022602,5.182510190171003,8.611612532192469
1782969347783813600,9.010813720703124,12.886060952472686,4.432980401374399,8.311131456014513
1782969347793739500,9.020739501953125,12.781225782513618,3.6191432678401467,7.760721094766259
1782969347803666700,9.030666748046874,12.096658295232057,2.646640882220864,6.957353040537238
1782969347813592600,9.040592529296875,10.932045191782713,1.9016770861655472,6.089639647647738
1782969347823518500,9.0505185546875,9.254249926239252,1.2272919702023266,5.488019908165931
1782969347833444600,9.060444580078125,7.2020625451326366,0.4474013838030398,4.941635733693838
1782969347843370800,9.070370849609375,4.9382642114341255,-0.5083187938414514,3.9144729526042936
1782969347853297700,9.080297607421874,1.7179957585066556,-1.7072032924659548,1.5607757367938757
1782969347863223600,9.0902236328125,-3.305105959996581,-2.8545734385609625,-2.5683716476261615
1782969347873149700,9.100149658203126,-10.855990710628031,-3.933249257005751,-7.232815995314717
1782969347883075800,9.110075927734375,-20.975112084329126,-4.236554450693727,-11.674232508862017
1782969347893002500,9.12000244140625,-30.692804866981504,-4.124897033499181,-16.85107166765928
1782969347902928600,9.1299287109375,-36.39330082013607,-4.851158174911141,-21.474857257223128
1782969347912854800,9.139854736328125,-35.55470363161564,-5.89884468859136,-24.82259649028778
1782969347922780400,9.149780517578124,-30.53367462773323,-7.083451363277435,-26.62657600328922
1782969347932706600,9.15970654296875,-24.96450203849077,-8.29394066723883,-25.339809515333176
1782969347942633700,9.1696337890625,-20.654857217144965,-7.308049807736277,-22.22587202388048
1782969347952559600,9.1795595703125,-17.21549885404706,-5.142331324517727,-17.354499328458306
1782969347962485500,9.189485595703125,-13.767452157580852,-2.513665951709449,-12.04907704436779
1782969347972411600,9.19941162109375,-10.18097548006773,-0.26945319296866654,-7.417178290975094
1782969347982337800,9.209337890625,-6.8108397062778465,1.2575740034803748,-3.959122826191783
1782969347992264400,9.219264404296876,-4.049871018609404,1.868249886729568,-1.7670318843543529
1782969348002190600,9.229190673828125,-2.027106715863943,1.9734614887855946,-0.619015987701714
1782969348012116700,9.23911669921875,-0.41784839545190333,1.980834940163046,-0.11059124926775693
1782969348022042600,9.249042724609374,1.0546119290292262,1.9475282983668147,0.11151683968007564
1782969348031968500,9.258968505859375,2.475584642857313,1.9451222601383924,0.19658406385183333
1782969348041895700,9.268895751953124,3.720377782958746,1.9671178188472984,0.1665653576850891
1782969348051821800,9.27882177734375,4.7849184008061885,1.9780711745381354,0.2838783164232969
1782969348061747500,9.28874755859375,5.93286386257112,2.0885838056117296,0.5579083157882094
1782969348071673600,9.298673583984375,7.343051563012599,2.2902190153732893,0.9149149967864155
1782969348081599700,9.308599853515625,8.763958225867151,2.444675417591631,1.4253542899131775
1782969348091526400,9.3185263671875,9.839776024532318,2.5856191350251434,1.9659668952465057
1782969348101452500,9.32845263671875,10.558782372510432,2.7708646432608366,2.365841534851491
1782969348111378700,9.338378662109376,11.172720910817384,2.930506631423533,2.586270876932144
1782969348121304600,9.3483046875,11.799434759545326,3.0287016327157614,2.8195144001394508
1782969348131230700,9.358230712890625,12.209295663374661,3.01088452873528,2.8363281722962856
1782969348141157600,9.36815771484375,12.281761180126667,3.0268259019717574,2.678597862973809
1782969348151083800,9.378083740234375,12.071713239067792,3.0546172874778508,2.519745856145024
1782969348161009700,9.388009765625,11.75805762401819,3.1018586388632654,2.2974016203537584
1782969348170935600,9.397935546875,11.438261021995544,3.233890151044726,2.142885743033141
1782969348180862700,9.40786279296875,11.117622708451748,3.3169813989683985,1.969784553838521
1782969348190788600,9.41778857421875,10.66813238954544,3.3328447385326028,1.685442419295758
1782969348200714500,9.427714599609375,10.267028792667388,3.2591207461521026,1.3808293578796087
1782969348210640600,9.437640625,10.091307484102249,3.1837396342143416,1.1097767668902874
1782969348220566500,9.44756640625,9.98438440195322,3.1730273938030003,0.8982748276308178
1782969348230493400,9.457493408203124,9.934241776168346,3.158949476350844,0.8170430899687111
1782969348240419600,9.467419677734375,10.245419018405675,3.1685654459580777,0.9160481655348092
1782969348250345700,9.477345703125,10.782464871168136,3.120452864696085,1.0356182555500417
1782969348260271600,9.487271728515625,11.125499725437164,3.045722910143435,1.1325360765133052
1782969348270197500,9.497197509765625,11.22282262006998,2.8704426233440636,1.314277741346508
1782969348280124700,9.507124755859374,11.281132185697555,2.532180098043382,1.5152579943306743
1782969348290050600,9.517050537109375,11.41342585594654,2.02622613363713,1.707290970749408
1782969348299976700,9.526976806640626,11.261305203199386,1.4021455560222267,1.559715998607874
1782969348309902600,9.536902587890625,10.29078610035181,0.9172948776602744,1.4417187108673155
1782969348319828500,9.546828369140625,7.9019293083548545,1.0884259358257056,1.6711384380027652
1782969348329755600,9.556755615234374,2.8270664229542017,2.2550369350939987,1.797390197739005
1782969348339681500,9.566681640625,-5.223701447737216,4.711256367745995,0.6327110433161258
1782969348349607700,9.576607666015626,-13.607092084276676,6.772547677284479,-3.6973178098887205
1782969348359533600,9.586533447265625,-20.378408758461475,5.755155764102936,-10.976360134327411
1782969348369459700,9.596459716796875,-26.780221089124677,2.429788229583204,-20.343928981232644
1782969348379386600,9.60638671875,-31.99550308356285,-1.800942629523575,-26.26012052594423
1782969348389312500,9.6163125,-33.087876295709606,-2.863722375178337,-24.426795675992963
1782969348399238700,9.62623876953125,-29.411878921747206,-0.5049927912238985,-19.45659903372526
1782969348409164500,9.63616455078125,-23.49033081843853,2.051682208063453,-13.80559454897046
1782969348419091700,9.646091796875,-17.86677665066719,2.4233164032205936,-9.348013082563877
1782969348429017600,9.656017578125,-13.574213897025585,0.9485119267661124,-7.067371750614047
1782969348438943700,9.66594384765625,-9.971361254251002,-0.7095012183342129,-6.210898129141331
1782969348448869600,9.67586962890625,-6.558533170682192,-1.8450183564849196,-5.1766217166543
1782969348458795500,9.68579541015625,-3.66464362077713,-2.2903046478301285,-3.5674458138287064
1782969348468722700,9.69572265625,-1.2173346398115157,-2.0186296871587635,-1.7083038010537623
1782969348478648600,9.705648681640625,0.9720546418517827,-2.0770470970749852,0.0728987936027348
1782969348488574500,9.715574462890626,2.740015916010737,-2.353348256242275,1.1343166032545269
1782969348498500600,9.72550048828125,4.145860618811845,-2.3551557440556583,1.6783968846984207
1782969348508426800,9.7354267578125,5.3600061071932315,-2.260038396643102,2.21967029202804
1782969348518353700,9.745353759765624,6.276914031362534,-2.187434786594659,2.6977541066035626
1782969348528279600,9.755279541015625,6.934836672824621,-2.160039268538356,2.9223575194984672
1782969348538205700,9.765205810546876,7.390426477649807,-2.0446943950027228,2.7467478546142576
1782969348548131600,9.775131591796875,7.784810995405912,-1.9125206978715954,2.4456829871989787
1782969348558057500,9.785057373046875,8.089825038838386,-1.7193810753852128,2.5331252699390054
1782969348567984600,9.794984619140624,8.318479480689764,-1.2835060248553751,2.8212419545844196
1782969348577910800,9.804910888671875,8.452024612304568,-0.8906004936106503,2.8185955317288633
1782969348587836400,9.81483642578125,8.531016900476812,-0.4992421187426895,2.7277546925917266
1782969348597762600,9.824762451171875,8.692895561650396,-0.09308825273774564,2.603430978308618
1782969348607688700,9.834688720703125,8.987530834409593,0.2558207542616874,2.3797381043873727
1782969348617615600,9.84461572265625,9.626913026052712,0.4014823670625686,1.9854992787122725
1782969348627541500,9.85454150390625,10.42512092103958,0.5027290110103786,1.6895473703965544
1782969348637467600,9.864467529296874,10.927322254914044,0.696663583266735,1.6385373141273856
1782969348647393800,9.874393798828125,11.103173327338695,0.8899392532229423,1.6222117638789115
1782969348657319400,9.8843193359375,9.992715007925034,0.7245413318820297,-0.414896194582805
1782969348667246600,9.89424658203125,9.315429494345187,1.4151299791492522,-0.27464531825166194
1782969348677172700,9.9041728515625,7.755674332770705,1.8355195835165679,-3.0480139436900613
1782969348687098600,9.9140986328125,9.593803368133306,-1.1912370526112614,-4.098064556153118
1782969348697024500,9.9240244140625,9.331736486023663,-0.6308395503558218,-3.6105364752754565
1782969348706950700,9.93395068359375,9.998488915151357,-0.535739738599956,-2.6943691403403878
1782969348716877800,9.9438779296875,10.498768341052532,-0.3717486153170466,-0.5237482720330358
1782969348726803500,9.953803466796876,9.807629658687114,-0.5406479689076542,1.2916633200868963
1782969348736729600,9.9637294921875,8.402350188553333,-0.35361207012385126,3.975983944621682
1782969348746655700,9.97365576171875,4.96237047868669,0.10616276530101895,5.432539428484439
1782969348756581600,9.98358154296875,-1.0691495729476213,-0.05497618342116475,4.493419087985158
1782969348766508000,9.993508056640625,-13.089616024380922,0.3003396218806505,0.431626928098686
1782969348776434000,10.003433837890626,-25.676297724437713,1.6700360297188162,-2.166273194491863
1782969348786360000,10.013360107421875,-32.15705558152199,1.8386565663680434,-1.9806321110673248
1782969348796286000,10.023285888671875,-37.11542617691755,3.9177679024964567,-2.1337698319025336
1782969348806212900,10.033212890625,-30.861063000059126,5.8092386519461865,-0.8934670620229095
1782969348816139000,10.043138916015625,-20.383143385767937,2.4427765982329843,-1.1323826395172625
1782969348826065200,10.053065185546876,-13.803701867091656,0.6066356679476798,-1.8203489023916422
1782969348835990800,10.06299072265625,-9.760931620398162,0.6003193244077265,-1.1782639545958489
1782969348845917000,10.0729169921875,-7.315120184513926,0.16144319236576557,-0.7296743108563125
1782969348855844000,10.082843994140624,-5.563196437442302,0.12313859615176916,-0.4796331263767555
1782969348865770000,10.09277001953125,-4.023381655612588,0.25922785929143427,-0.15749777920823543
1782969348875695900,10.10269580078125,-2.4546102438896895,0.3647061494596302,0.14802563851848244
1782969348885622000,10.1126220703125,-0.899400909051299,0.555792346547544,0.48204351198673245
1782969348895548000,10.1225478515625,0.3997977749764919,0.7906723849155008,0.8926648057293146
1782969348905474800,10.132474853515625,1.6556687739312648,0.8459057579681277,0.8718896556608379
1782969348915401000,10.14240087890625,2.749025151896477,0.5976990589067339,0.6241602917876095
1782969348925327000,10.1523271484375,3.7130800271660087,0.4340022423952818,0.07409783066157251
1782969348935253000,10.1622529296875,4.626291434904933,0.21983605236262083,-0.6413154247280209
1782969348945179000,10.172178955078126,5.451418316477537,0.1627551517471671,-1.1190970414865762
1782969348955106000,10.18210595703125,6.2007823933184145,0.39809214010238647,-1.466254747839272
1782969348965032200,10.1920322265625,6.717157213973999,0.7154074467033147,-1.5381583929248153
1782969348974957800,10.201957763671874,7.072734738951921,1.1428913932457565,-1.4151467841535805
1782969348984884000,10.211884033203125,6.872842281204462,1.465477041465044,-1.27412108752504
1782969348994810000,10.22181005859375,6.124256202998757,1.9046593168467283,-1.1067132146012038
1782969349004737000,10.231737060546875,5.858366547730565,2.0897569410443304,-1.0633352606456725
1782969349014663000,10.241662841796876,5.908057338094711,2.028840992310643,-1.0903276047285646
1782969349024589000,10.251589111328125,6.081751524746418,1.8906997650772333,-1.2121345869503914
1782969349034515000,10.261514892578125,6.822180015459656,1.5897931569635868,-1.2603368923224507
1782969349044441000,10.271441162109374,7.8339552578032015,1.5308219125568865,-1.0419885212343185
1782969349054368000,10.281367919921875,8.485714115938544,1.7100442149803041,-0.4287785529302433
1782969349064294100,10.291294189453126,8.501859779575467,1.8984221760228275,0.3481186968719587
1782969349074220000,10.301219970703125,8.179875896641612,1.9202330258145928,0.662751888249442
1782969349084146000,10.31114599609375,7.239004913082718,1.8961504316985607,0.5123435193128884
1782969349094072000,10.321072021484374,6.160491883984208,1.7978420331597327,0.24252752091381696
1782969349103999000,10.3309990234375,5.282309704050421,1.635556252489984,-0.06340732715800404
1782969349113924900,10.3409248046875,4.667783136722445,1.3532535148203373,-0.11604268307406454
1782969349123851000,10.35085107421875,3.8827866054862734,1.0661115204259752,0.012138181561231613
1782969349133777000,10.36077685546875,3.287756765788793,0.7506994170978665,0.11218049122057855
1782969349143704000,10.3707041015625,2.8913533094257113,0.5181488445907831,0.46179275111854073
1782969349153630000,10.3806298828125,2.3629636413276196,0.35402181996852156,0.9065753307253122
1782969349163556000,10.39055615234375,1.1823492511481046,-0.2889338462471962,0.7534226315166801
1782969349173482000,10.40048193359375,-0.6605629268378019,-0.7480433496311306,0.52139378132876
1782969349183408000,10.410408203125,-2.7157892372488974,-1.1803671374201774,0.14760500195361673
1782969349193335000,10.4203349609375,-4.4299587154656646,-1.7117068874955177,-0.3808353734184056
1782969349203261000,10.430260986328125,-6.1098687812060115,-2.235205860942602,-0.8233953085396438
1782969349213187000,10.44018701171875,-8.246846907630562,-2.57919114780426,-1.108103719111532
1782969349223113000,10.450113037109375,-11.245047311359643,-2.3188030125617978,-1.373980807159096
1782969349233038800,10.460038818359376,-14.113465735399723,-1.9745090981423854,-1.9135963642790912
1782969349242966000,10.469966064453125,-16.617141331231593,-1.6856582540035248,-2.825423039661348
1782969349252892000,10.479891845703126,-18.187804255789516,-1.2863041311413048,-3.463600823950767
1782969349262818000,10.489818115234375,-17.77411824071407,-0.9949538714021444,-3.4397327493682504
1782969349272744000,10.499743896484375,-15.227838013386725,-1.3478107392445207,-3.408057215905189
1782969349282670000,10.509670166015624,-11.508605893331765,-1.7442264705672859,-3.130271371138096
1782969349292597000,10.519596923828125,-7.565007384008169,-1.887984953160584,-2.3736013551980255
1782969349302523000,10.52952294921875,-3.8191111289113757,-2.032031605045497,-1.759229540040344
1782969349312449000,10.539448974609375,-0.8164420553356408,-2.130653599578142,-1.2893639571033417
1782969349322375200,10.549375244140625,1.3640835363924502,-1.9905837423697113,-0.7609964277718215
1782969349332300800,10.55930078125,2.8982611891180277,-1.654142879538238,-0.2254357355332002
1782969349342228000,10.56922802734375,3.931400706529617,-1.257083297353983,0.1244668856134638
1782969349352154000,10.579154052734374,4.578598540359735,-0.8129919148817658,0.49579446250684556
1782969349362080000,10.589080078125,4.738220947039127,-0.30093086577206846,0.6563198824405669
1782969349372006000,10.599005859375,4.618596204227209,0.095499478597939,0.7093059149578214
1782969349381932000,10.60893212890625,4.759016482308507,0.49586833146065473,0.7552714011885225
1782969349391859000,10.61885888671875,5.197486225506663,0.6280629252493382,0.6585577244952321
1782969349401784800,10.628784912109374,5.839862922790646,0.8511416127949952,0.7568478567250072
1782969349411711000,10.6387109375,6.454562508597969,1.0636366547450422,0.7696852725967764
1782969349421637000,10.64863720703125,7.040738595232367,1.3118404311969876,0.7529393049791455
1782969349431563000,10.65856298828125,7.729929650661349,1.6751552724286913,0.8426771513104439
1782969349441490000,10.668489990234375,8.327351353931427,1.990675804567337,0.8669001768104732
1782969349451416000,10.678416015625,8.69003257343471,2.2317980983257293,0.7310857850894331
1782969349461342200,10.68834228515625,9.146171828836202,2.519533382438123,0.7983098940566181
1782969349471267800,10.698267822265626,9.832641350346803,3.0469302401065823,0.7389630943357944
1782969349481194000,10.708194091796875,9.953694664657116,2.8509482338011263,0.6574302548352629
1782969349491121200,10.71812109375,9.96474797359109,3.051721858297288,0.42877157520018516
1782969349501046800,10.728046875,9.519934998846054,3.2589158712297674,0.5411807971427217
1782969349510973000,10.737972900390625,9.077866354373096,3.23131854699105,0.65674789859429
1782969349520899000,10.747899169921874,8.873097815021872,3.089831516461074,0.7121061401356011
1782969349530825000,10.757824951171875,8.673355579400061,3.0929882269263267,0.8871553215928375
1782969349540752000,10.767751953125,8.361181727340817,2.8926138308808205,1.1607876268770545
