time,seconds_elapsed,z,y,x
1782969338840301000,0.067301025390625,0.3484746217727661,-0.04025846719741821,-0.9146406650543213
1782969338850227000,0.07722705078125,0.3073667585849762,-1.0045175552368164,-1.3848575353622437
1782969338860152800,0.08715283203125,0.18367436528205872,-2.4503602981567383,-1.7110180854797363
1782969338870079000,0.097078857421875,0.01816118322312832,-4.272674560546875,-1.6719000339508057
1782969338880006100,0.107006103515625,-0.054619282484054565,-5.737051963806152,-1.1084612607955933
1782969338889932000,0.11693212890625,0.09017287194728851,-5.802347660064697,-0.025182459503412247
1782969338899858000,0.12685791015625,0.522087812423706,-4.288142681121826,1.1151583194732666
1782969338909784000,0.1367841796875,0.6303734183311462,-1.7345045804977417,2.024395704269409
1782969338919711000,0.1467109375,0.6157894134521484,0.8858001232147217,2.1415445804595947
1782969338929636900,0.156636962890625,0.3914717733860016,2.7095351219177246,1.535612940788269
1782969338939563000,0.16656298828125,0.043765485286712646,3.6248316764831543,0.5857827067375183
1782969338949489000,0.176489013671875,-0.30019518733024597,3.6733195781707764,-0.16285835206508636
1782969338959415000,0.1864150390625,-0.572567343711853,3.175868511199951,-0.45014044642448425
1782969338969342000,0.196342041015625,-0.6976722478866577,2.3680825233459473,-0.32643067836761475
1782969338979268000,0.20626806640625,-0.6671774387359619,1.5014005899429321,0.11084464937448502
1782969338989194000,0.216194091796875,-0.503411054611206,0.8261045217514038,0.6995676755905151
1782969338999120000,0.226119873046875,-0.2631334960460663,0.4579842984676361,1.2736772298812866
1782969339009046000,0.2360458984375,-0.022393206134438515,0.4135604202747345,1.6869395971298218
1782969339018973000,0.245972900390625,0.11026203632354736,0.6078553795814514,1.889910101890564
1782969339028899000,0.255899169921875,0.04953266307711601,0.9380518794059753,1.9348254203796387
1782969339038825000,0.265824951171875,-0.1989341378211975,1.2697160243988037,1.8899202346801758
1782969339048750800,0.275750732421875,-0.48826661705970764,1.4735482931137085,1.7956587076187134
1782969339058677000,0.285677001953125,-0.613712728023529,1.4913156032562256,1.672027826309204
1782969339068604000,0.29560400390625,-0.5025573372840881,1.3191770315170288,1.565194845199585
1782969339078530000,0.305530029296875,-0.2446395456790924,0.9913813471794128,1.5263901948928833
1782969339088456000,0.3154560546875,0.16516707837581635,0.5654243230819702,1.548357605934143
1782969339098382000,0.325382080078125,0.508532702922821,0.025564569979906082,1.6900502443313599
1782969339108308000,0.335307861328125,0.7344409227371216,-0.44534268975257874,1.8332127332687378
1782969339118235000,0.34523486328125,0.8855952620506287,-0.9079177379608154,1.8485476970672607
1782969339128161000,0.3551611328125,0.9713332056999207,-1.384863018989563,1.6975685358047485
1782969339138087000,0.3650869140625,1.0038074254989624,-1.7519598007202148,1.3276994228363037
1782969339148012800,0.3750126953125,0.998803436756134,-1.9164371490478516,0.6752055883407593
1782969339157939000,0.38493896484375,0.9503759741783142,-1.8435794115066528,-0.18280231952667236
1782969339167866000,0.3948662109375,0.8397538065910339,-1.6418211460113525,-1.0870442390441895
1782969339177792000,0.4047919921875,0.6798282861709595,-1.5045440196990967,-1.8713899850845337
1782969339187718000,0.4147177734375,0.5653626918792725,-1.4290220737457275,-2.4359161853790283
1782969339197644000,0.42464404296875,0.5387521386146545,-1.4150968790054321,-2.772348642349243
1782969339207570200,0.434570068359375,0.5809122920036316,-1.5005637407302856,-2.9088664054870605
1782969339217496800,0.444496826171875,0.6746416687965393,-1.6571381092071533,-2.9133849143981934
1782969339227423000,0.454423095703125,0.776794970035553,-1.7955111265182495,-2.8188745975494385
1782969339237349000,0.46434912109375,0.9200754165649414,-1.925782322883606,-2.605029821395874
1782969339247274800,0.474274658203125,1.12398362159729,-2.0753448009490967,-2.2036430835723877
1782969339257202000,0.484201904296875,1.3411686420440674,-2.2494912147521973,-1.722099781036377
1782969339267128000,0.494128173828125,1.5406625270843506,-2.372389793395996,-1.3617339134216309
1782969339277054000,0.504053955078125,1.59047269821167,-2.42201828956604,-1.2995991706848145
1782969339286979800,0.513979736328125,1.4832147359848022,-2.5249903202056885,-1.5670192241668701
1782969339296906000,0.523906005859375,1.3554810285568237,-2.8200576305389404,-1.9491170644760132
1782969339306833200,0.533833251953125,1.3038289546966553,-3.149277687072754,-2.102278232574463
1782969339316758800,0.5437587890625,1.3806837797164917,-3.249023199081421,-1.7275636196136475
1782969339326685000,0.553684814453125,1.4813563823699951,-2.9787559509277344,-0.7683902382850647
1782969339336611000,0.563611083984375,1.5137958526611328,-2.3871195316314697,0.5027378797531128
1782969339346537000,0.573536865234375,1.346477746963501,-1.519174575805664,1.721709966659546
1782969339356463900,0.5834638671875,0.9262977242469788,-0.37992167472839355,2.4397127628326416
1782969339366390000,0.59339013671875,0.4142496585845947,0.745552122592926,2.3599841594696045
1782969339376316200,0.603316162109375,-0.13559135794639587,1.6650880575180054,1.7723485231399536
1782969339386241800,0.61324169921875,-0.6014285087585449,2.189218044281006,1.1293871402740479
1782969339396168000,0.62316796875,-0.9858057498931885,2.2977089881896973,0.6984849572181702
1782969339406095000,0.63309521484375,-1.297436237335205,2.062953233718872,0.5062769055366516
1782969339416021000,0.64302099609375,-1.4624837636947632,1.6684482097625732,0.4967893660068512
1782969339425947000,0.65294677734375,-1.514316439628601,1.18562650680542,0.5668615698814392
1782969339435873000,0.662873046875,-1.5047093629837036,0.7915095090866089,0.6257525682449341
1782969339445800200,0.67280029296875,-1.4557673931121826,0.5656901001930237,0.703262984752655
1782969339455725800,0.682725830078125,-1.44865882396698,0.45086175203323364,0.794045627117157
1782969339465652000,0.69265185546875,-1.4166301488876343,0.5588641166687012,0.928450345993042
1782969339475578000,0.702578125,-1.2999197244644165,0.8140636682510376,1.061147928237915
1782969339485504000,0.71250390625,-1.222499132156372,0.9106075763702393,1.2347804307937622
1782969339495431000,0.722430908203125,-1.1837211847305298,0.7953240871429443,1.4579511880874634
1782969339505357000,0.732357177734375,-1.1122069358825684,0.5824671983718872,1.6845183372497559
1782969339515283000,0.742282958984375,-0.9854428768157959,0.34295520186424255,1.8404927253723145
1782969339525208800,0.752208740234375,-0.7820488214492798,0.14284126460552216,1.8586426973342896
1782969339535135000,0.762135009765625,-0.5288117527961731,0.04817361757159233,1.7053405046463013
1782969339545062100,0.772062255859375,-0.261689692735672,0.07231626659631729,1.4170358180999756
1782969339554988000,0.781988037109375,0.00002473236236255616,0.2354990690946579,1.0442497730255127
1782969339564914000,0.791913818359375,0.2096395492553711,0.4305633008480072,0.696376383304596
1782969339574840000,0.801840087890625,0.2544426918029785,0.5345398187637329,0.4750632047653198
1782969339584766000,0.811765869140625,0.10492409765720367,0.4466162323951721,0.45716139674186707
1782969339594692900,0.82169287109375,-0.1400153487920761,0.24021300673484802,0.585787832736969
1782969339604619000,0.831618896484375,-0.3558293282985687,0.12713821232318878,0.6475520133972168
1782969339614545000,0.841544921875,-0.5102460980415344,0.06490946561098099,0.569242537021637
1782969339624471000,0.851470947265625,-0.5752742290496826,0.05779220536351204,0.36130788922309875
1782969339634397000,0.86139697265625,-0.5710129141807556,0.08371967077255249,0.05325684696435928
1782969339644324000,0.871323974609375,-0.5268592834472656,0.07786446064710617,-0.2907904386520386
1782969339654250000,0.88125,-0.4415787160396576,0.11664194613695145,-0.6584680676460266
1782969339664175900,0.89117578125,-0.3401242792606354,0.11897806078195572,-0.9393314719200134
1782969339674102000,0.90110205078125,-0.17230358719825745,0.13371653854846954,-0.9518603682518005
1782969339684028000,0.91102783203125,-0.08597877621650696,-0.07219445705413818,-0.893634021282196
1782969339693955000,0.920955078125,-0.031390633434057236,-0.17635893821716309,-0.761609673500061
1782969339703881000,0.930880859375,0.025536540895700455,-0.30656158924102783,-0.6769117116928101
1782969339713806800,0.940806884765625,0.04484818875789642,-0.32423967123031616,-0.7207433581352234
1782969339723733000,0.95073291015625,0.0468473844230175,-0.27714160084724426,-0.9410749077796936
1782969339733659100,0.9606591796875,0.024472035467624664,-0.23646339774131775,-1.2654974460601807
1782969339743586000,0.9705859375,0.06337971240282059,-0.30908337235450745,-1.5960264205932617
1782969339753513200,0.98051318359375,0.27047163248062134,-0.4751985967159271,-1.967215895652771
1782969339763439000,0.990439208984375,0.7083290219306946,-0.9173089265823364,-2.469653367996216
1782969339773365200,1.000365234375,1.3986828327178955,-1.8288649320602417,-2.805349349975586
1782969339783292400,1.01029248046875,2.0697989463806152,-3.2567856311798096,-2.2500953674316406
1782969339793218300,1.02021826171875,2.381774663925171,-4.220818996429443,-0.6568384766578674
1782969339803144200,1.030144287109375,2.1954922676086426,-4.155777931213379,1.2773438692092896
1782969339813070300,1.0400703125,1.6407086849212646,-2.943565607070923,2.675562858581543
1782969339822996500,1.04999658203125,0.9578803777694702,-1.0611801147460938,3.052762985229492
1782969339832923100,1.059923095703125,0.09006880968809128,1.1442190408706665,2.2774343490600586
1782969339842849300,1.069849365234375,-0.8299739956855774,3.12090802192688,0.9560590386390686
1782969339852775400,1.079775390625,-1.5387293100357056,4.208835601806641,-0.1609562188386917
1782969339862701000,1.089701171875,-1.883212924003601,4.198290824890137,-0.6888231039047241
1782969339872627200,1.099627197265625,-1.8593456745147705,3.322542190551758,-0.652458131313324
1782969339882554400,1.109554443359375,-1.5591157674789429,1.9296947717666626,-0.32573169469833374
1782969339892480300,1.119480224609375,-1.0417444705963135,0.3245700001716614,0.2249482274055481
1782969339902406100,1.12940625,-0.38407039642333984,-1.1143980026245117,0.8222798109054565
1782969339912332300,1.139332275390625,0.2529561519622803,-2.174987316131592,1.3132702112197876
1782969339922258400,1.149258544921875,0.7630727291107178,-2.7557456493377686,1.7193150520324707
1782969339932185000,1.15918505859375,1.0762275457382202,-2.7900123596191406,2.0690412521362305
1782969339942111200,1.169111328125,1.1563705205917358,-2.526367425918579,2.2977421283721924
1782969339952037400,1.179037353515625,1.013441562652588,-2.272512912750244,2.4925129413604736
1782969339961963300,1.18896337890625,0.8504486083984375,-2.326270818710327,2.713960886001587
1782969339971889200,1.19888916015625,0.792648196220398,-2.613285779953003,2.9142019748687744
1782969339981816300,1.20881640625,0.8208047747612,-2.950176477432251,3.036846876144409
1782969339991742500,1.218742431640625,0.8997693657875061,-3.2067716121673584,3.0891551971435547
1782969340001668000,1.228668212890625,0.9763705134391785,-3.2631804943084717,3.0156736373901367
1782969340011594200,1.23859423828125,0.9774320721626282,-3.00453782081604,2.7503814697265625
1782969340021520400,1.248520263671875,0.9527296423912048,-2.5569896697998047,2.296691417694092
1782969340031447300,1.258447265625,0.9577813744544983,-1.9886629581451416,1.694738507270813
1782969340041373200,1.268373291015625,0.996135413646698,-1.4237431287765503,0.9765588641166687
1782969340051299300,1.27829931640625,0.9525027275085449,-0.9449520707130432,0.28816869854927063
1782969340061225200,1.28822509765625,0.8883984088897705,-0.622417151927948,-0.3445465862751007
1782969340071152000,1.298152099609375,0.7708014845848083,-0.5932776927947998,-0.793370246887207
1782969340081078300,1.308078369140625,0.6433503031730652,-0.7487990856170654,-1.0373306274414062
1782969340091004400,1.31800439453125,0.5228723883628845,-0.9318565130233765,-1.1361680030822754
1782969340100930300,1.327930419921875,0.4198433458805084,-1.0789848566055298,-1.1611943244934082
1782969340110856200,1.337856201171875,0.36589860916137695,-1.1864593029022217,-1.1357709169387817
1782969340120783400,1.347783447265625,0.3692387044429779,-1.2103967666625977,-1.1215721368789673
1782969340130709200,1.357709228515625,0.4726444482803345,-1.1060911417007446,-1.2039523124694824
1782969340140635100,1.36763525390625,0.6903876662254333,-0.8719961047172546,-1.396905779838562
1782969340150561300,1.377561279296875,0.9420068860054016,-0.6107663512229919,-1.6409356594085693
1782969340160487200,1.387487060546875,1.120056390762329,-0.5158684849739075,-1.7596431970596313
1782969340170414300,1.397414306640625,1.1308112144470215,-0.7052940726280212,-1.5820086002349854
1782969340180340200,1.40734033203125,1.0925381183624268,-1.206130027770996,-1.1012215614318848
1782969340190266400,1.417266357421875,1.1904418468475342,-1.8446305990219116,-0.5670492649078369
1782969340200192300,1.427192138671875,1.3231031894683838,-2.249206781387329,-0.10252133756875992
1782969340210118400,1.437118408203125,1.118135690689087,-1.940265417098999,0.28984031081199646
1782969340220045300,1.44704541015625,0.6415321826934814,-1.2395161390304565,0.4741763174533844
1782969340229971200,1.45697119140625,0.023815693333745003,-0.5125057101249695,0.4277086853981018
1782969340239897300,1.4668974609375,-0.673115074634552,0.35111939907073975,0.12041974812746048
1782969340249823200,1.4768232421875,-1.3684356212615967,1.337890625,-0.34936586022377014
1782969340259749000,1.4867490234375,-1.889282464981079,2.216752767562866,-0.7692341208457947
1782969340269676300,1.49667626953125,-2.1230428218841553,2.714919328689575,-0.9276581406593323
1782969340279602200,1.506602294921875,-2.0630171298980713,2.6011159420013428,-0.7117906212806702
1782969340289528300,1.5165283203125,-1.6669113636016846,1.8186686038970947,-0.3187114894390106
1782969340299454200,1.5264541015625,-1.479822039604187,0.7765321135520935,0.3825546205043793
1782969340309380400,1.53638037109375,-1.337654709815979,-0.08896432816982269,1.1386377811431885
1782969340319307300,1.546307373046875,-1.1108640432357788,-0.6879042387008667,1.6686224937438965
1782969340329233200,1.556233154296875,-0.8548765182495117,-1.0242241621017456,1.8669962882995605
1782969340339159300,1.5661591796875,-0.6051971912384033,-0.9809620976448059,1.764302372932434
1782969340349085400,1.57608544921875,-0.4024654030799866,-0.6341058611869812,1.3870989084243774
1782969340359011000,1.586010986328125,-0.3030988872051239,-0.13334694504737854,0.8753268718719482
1782969340368938200,1.595938232421875,-0.3232150673866272,0.19405941665172577,0.45188164710998535
1782969340378864400,1.605864501953125,-0.41835492849349976,0.19959762692451477,0.2912820279598236
1782969340388790300,1.615790283203125,-0.4357331395149231,0.006741357501596212,0.31035929918289185
1782969340398716200,1.625716064453125,0.04749837890267372,-0.45662716031074524,0.32832181453704834
1782969340408642300,1.635642333984375,0.21008622646331787,-0.4432535469532013,0.7371596097946167
1782969340418569200,1.6455693359375,-0.17747586965560913,0.22751550376415253,1.2148230075836182
1782969340428495000,1.6554951171875,0.10999559611082077,-0.3166404962539673,1.2252631187438965
1782969340438421200,1.665421142578125,0.58693927526474,-0.6898778676986694,1.2169586420059204
1782969340448347400,1.675347412109375,1.1264357566833496,-0.6646196842193604,1.2223856449127197
1782969340458273300,1.685273193359375,1.5211491584777832,-0.3508983552455902,0.9686641693115234
1782969340468200200,1.6952001953125,1.530646562576294,0.03438142314553261,0.49561458826065063
1782969340478126300,1.705126220703125,1.2701756954193115,0.3754170835018158,-0.02009741961956024
1782969340488052500,1.715052490234375,0.9582509994506836,0.5349137783050537,-0.47971561551094055
1782969340497978000,1.72497802734375,0.7580502033233643,0.2779634892940521,-0.7411189079284668
1782969340507904300,1.734904296875,0.7586976289749146,0.04540000483393669,-0.7845244407653809
1782969340517831400,1.74483154296875,0.9278733134269714,-0.0961897075176239,-0.676186203956604
1782969340527757000,1.754757080078125,1.119119644165039,-0.0898420661687851,-0.49402597546577454
1782969340537683200,1.76468310546875,1.1817152500152588,0.07812556624412537,-0.4097656309604645
1782969340547609300,1.774609375,1.1145823001861572,0.3181866407394409,-0.47954392433166504
1782969340557536300,1.784536376953125,0.996371865272522,0.574630856513977,-0.5733046531677246
1782969340567462100,1.794462158203125,0.8389782309532166,0.7508730292320251,-0.6220884323120117
1782969340577388300,1.80438818359375,0.5545410513877869,0.7332860231399536,-0.693560004234314
1782969340587314400,1.814314453125,0.18637290596961975,0.46873265504837036,-0.8487299084663391
1782969340597240300,1.824240234375,-0.17396427690982819,0.1552373766899109,-1.1115920543670654
1782969340607167200,1.834167236328125,-0.41740354895591736,0.046788398176431656,-1.4851574897766113
1782969340617093400,1.84409326171875,-0.5736927390098572,0.042403694242239,-1.8660131692886353
1782969340627019300,1.854019287109375,-0.6235649585723877,0.062378738075494766,-2.0797226428985596
1782969340636945200,1.863945068359375,-0.7048619985580444,0.04216469079256058,-1.9519301652908325
1782969340646871300,1.873871337890625,-0.4685403108596802,-0.08567449450492859,-1.7850558757781982
1782969340656798500,1.883798583984375,0.029481779783964157,-0.5574182868003845,-1.5695112943649292
1782969340666724000,1.89372412109375,0.5426670908927917,-1.4832268953323364,-1.185937523841858
1782969340676650200,1.903650146484375,0.9400159120559692,-2.6298975944519043,-0.47465455532073975
1782969340686576400,1.913576416015625,0.7425785064697266,-3.460909128189087,0.7136130332946777
1782969340696502300,1.923502197265625,0.2204591929912567,-3.4186012744903564,2.026000738143921
1782969340706429200,1.93342919921875,-0.1219487413764,-2.8352017402648926,2.9335458278656006
1782969340716355300,1.943355224609375,-0.20873074233531952,-1.5850980281829834,3.031517267227173
1782969340726281200,1.95328125,-0.2384239286184311,-0.1662943810224533,2.041957139968872
1782969340736207400,1.963207275390625,-0.8726966381072998,1.5819528102874756,0.5508055686950684
1782969340746133200,1.97313330078125,-1.4809455871582031,2.549724817276001,-1.0269933938980103
1782969340756059600,1.9830595703125,-1.6445841789245605,3.0311453342437744,-2.065758228302002
1782969340765985800,1.99298583984375,-1.4018194675445557,3.0477194786071777,-2.3387365341186523
1782969340775912000,2.002911865234375,-0.9634901881217957,2.462839126586914,-2.059372663497925
1782969340785837600,2.012837646484375,-0.3451686203479767,1.428470253944397,-1.4048184156417847
1782969340795763700,2.022763671875,0.3914203345775604,0.28049108386039734,-0.4495105743408203
1782969340805691000,2.03269091796875,0.9786470532417297,-0.8200306296348572,0.5713059306144714
1782969340815616800,2.04261669921875,1.0760530233383179,-1.4485669136047363,1.550981044769287
1782969340825542700,2.052542724609375,0.7328393459320068,-1.3902785778045654,2.187504291534424
1782969340835468800,2.06246875,0.20227108895778656,-1.0980626344680786,2.3568613529205322
1782969340845395000,2.07239501953125,-0.07161852717399597,-0.8421860337257385,2.389381170272827
1782969340855321600,2.082321533203125,-0.03896404802799225,-0.6309884190559387,2.502084970474243
1782969340865247700,2.092247802734375,0.1167730763554573,-0.40214934945106506,2.5624501705169678
1782969340875174000,2.102173828125,0.2062782198190689,-0.21841438114643097,2.4539554119110107
1782969340885099800,2.112099853515625,0.28743380308151245,-0.1428796797990799,2.2779650688171387
1782969340895025700,2.122025634765625,0.3932472765445709,-0.569015622138977,2.1513333320617676
1782969340904952800,2.131952880859375,0.37124210596084595,-0.9621445536613464,2.1227996349334717
1782969340914878700,2.141878662109375,0.254009872674942,-1.1656081676483154,2.0163025856018066
1782969340924804600,2.1518046875,0.15659916400909424,-1.0552937984466553,1.6904962062835693
1782969340934730800,2.161730712890625,0.11293810606002808,-0.6884377598762512,1.1918540000915527
1782969340944657000,2.171656982421875,0.12041333317756653,-0.2398410439491272,0.5736167430877686
1782969340954583600,2.18158349609375,0.16550680994987488,0.24981975555419922,-0.10135696828365326
1782969340964509700,2.191509765625,0.2140735387802124,0.7465890049934387,-0.7615290284156799
1782969340974435800,2.201435791015625,0.30393633246421814,1.1964250802993774,-1.3289058208465576
1782969340984361700,2.21136181640625,0.4222390055656433,1.491843342781067,-1.7598791122436523
1782969340994288600,2.22128857421875,0.5222018361091614,1.6710888147354126,-2.034773826599121
1782969341004214800,2.23121484375,0.538814127445221,1.8333193063735962,-2.2343671321868896
1782969341014141000,2.241140869140625,0.4327906668186188,1.9889938831329346,-2.3900792598724365
1782969341024066600,2.251066650390625,0.31396734714508057,2.0714943408966064,-2.4740138053894043
1782969341033992700,2.26099267578125,0.2019420564174652,2.0526483058929443,-2.504009246826172
1782969341043920000,2.270919921875,0.10693884640932083,1.9713761806488037,-2.403608560562134
1782969341053845800,2.280845703125,0.048254821449518204,1.7045611143112183,-2.1226043701171875
1782969341063771600,2.290771728515625,0.15251918137073517,1.1626189947128296,-1.6923190355300903
1782969341073697800,2.30069775390625,0.39490604400634766,0.4752086102962494,-1.2462639808654785
1782969341083623700,2.310623779296875,0.6184384822845459,-0.09908982366323471,-0.9212291836738586
1782969341093550600,2.320550537109375,0.8078599572181702,-0.32306337356567383,-0.8860633969306946
1782969341103476700,2.330476806640625,0.9988349676132202,-0.298988938331604,-1.1086959838867188
1782969341113403000,2.34040283203125,1.1194058656692505,-0.30623188614845276,-1.394029140472412
1782969341123328800,2.350328857421875,1.1480237245559692,-0.43633314967155457,-1.5128508806228638
1782969341133254700,2.360254638671875,1.0687618255615234,-0.6224039196968079,-1.3720674514770508
1782969341143181800,2.370181884765625,0.7802674174308777,-0.7438185214996338,-0.946104109287262
1782969341153107700,2.380107666015625,0.2157697230577469,-0.5293133854866028,-0.37766385078430176
1782969341163033600,2.39003369140625,-0.5809948444366455,0.17872977256774902,0.034701887518167496
1782969341172959700,2.399959716796875,-1.2692203521728516,1.1034038066864014,0.15517880022525787
1782969341182885600,2.4098857421875,-1.6206470727920532,1.9024485349655151,-0.018066221848130226
1782969341192812800,2.419812744140625,-1.6909035444259644,2.3851797580718994,-0.31291964650154114
1782969341202738700,2.42973876953125,-1.5923376083374023,2.4520657062530518,-0.5017985105514526
1782969341212664800,2.439664794921875,-1.4462430477142334,2.0179004669189453,-0.4587494432926178
1782969341222590700,2.4495908203125,-1.2701119184494019,1.3492811918258667,-0.3093391954898834
1782969341232516900,2.459516845703125,-1.0628743171691895,0.5988911986351013,-0.07707423716783524
1782969341242443800,2.46944384765625,-0.841159999370575,-0.09645748138427734,0.14448027312755585
1782969341252369700,2.47936962890625,-0.6312917470932007,-0.6184390187263489,0.3487118184566498
1782969341262295800,2.4892958984375,-0.43318429589271545,-0.9005593657493591,0.5197008848190308
1782969341272221700,2.4992216796875,-0.26997172832489014,-0.925916850566864,0.6706269383430481
1782969341282147600,2.509147705078125,-0.15241846442222595,-0.749065637588501,0.8203839659690857
1782969341292074800,2.51907470703125,-0.09312096983194351,-0.5338555574417114,0.9733388423919678
1782969341302000600,2.529000732421875,-0.10630068928003311,-0.3159591257572174,1.056767225265503
1782969341311926800,2.5389267578125,-0.1366603523492813,-0.14147703349590302,1.0306283235549927
1782969341321852700,2.548852783203125,-0.16044104099273682,-0.007826035842299461,0.9173870086669922
1782969341331778800,2.55877880859375,-0.16308829188346863,0.07470947504043579,0.7612473368644714
1782969341341705700,2.568705810546875,-0.18170619010925293,0.07785867154598236,0.6107049584388733
1782969341351631600,2.578631591796875,-0.2439134120941162,0.07041680812835693,0.5130439400672913
1782969341361557800,2.588557861328125,-0.29304206371307373,0.1646767258644104,0.4257313907146454
1782969341371484000,2.59848388671875,-0.2139703333377838,0.31385424733161926,0.33537328243255615
1782969341381410800,2.608410888671875,-0.12980405986309052,0.4378872215747833,0.2632463574409485
1782969341391336700,2.618336669921875,-0.050393812358379364,0.5817159414291382,0.17031468451023102
1782969341401262800,2.628262939453125,0.04199257493019104,0.6730586290359497,0.05208044871687889
1782969341411188700,2.638188720703125,0.12777483463287354,0.7456310987472534,-0.04544086009263992
1782969341421114600,2.648114501953125,0.22057987749576569,0.7454976439476013,-0.08624368160963058
1782969341431041800,2.658041748046875,0.26459479331970215,0.6055566072463989,-0.06562908738851547
1782969341440967700,2.6679677734375,0.17330724000930786,0.36295971274375916,-0.012947228737175465
1782969341450893600,2.6778935546875,-0.007704445626586676,0.11677254736423492,-0.0302325077354908
1782969341460819700,2.68781982421875,-0.14664769172668457,-0.076294906437397,-0.17164954543113708
1782969341470745900,2.697745849609375,-0.23349159955978394,-0.14350725710391998,-0.42421311140060425
1782969341480672800,2.7076728515625,-0.24869585037231445,-0.003564267884939909,-0.786226212978363
1782969341490598700,2.7175986328125,-0.21625585854053497,0.4342198073863983,-1.088741660118103
1782969341500524800,2.72752490234375,-0.1850992739200592,0.7538252472877502,-1.4167182445526123
1782969341510451000,2.737450927734375,-0.2276286482810974,1.2713558673858643,-1.6745693683624268
1782969341520376600,2.74737646484375,-0.3052251636981964,1.8232909440994263,-1.8224443197250366
1782969341530303700,2.7573037109375,-0.4771570563316345,2.357999801635742,-1.8206406831741333
1782969341540230000,2.76722998046875,-0.6786880493164062,2.588860273361206,-1.7867826223373413
1782969341550155500,2.777155517578125,-0.6406940817832947,2.4863059520721436,-1.8541065454483032
1782969341560081700,2.78708154296875,-0.24254831671714783,1.9751766920089722,-1.9199209213256836
1782969341570007800,2.7970078125,0.5004315376281738,0.7741611003875732,-1.8641756772994995
1782969341579934700,2.806934814453125,1.2531852722167969,-0.9364448189735413,-1.3821927309036255
1782969341589860600,2.816860595703125,1.6703604459762573,-2.4634623527526855,-0.4886517822742462
1782969341599786800,2.826786865234375,1.694381833076477,-3.033010482788086,0.46367010474205017
1782969341609713000,2.836712890625,1.2886210680007935,-2.560027837753296,1.227779746055603
1782969341619638800,2.846638671875,0.5358445644378662,-1.33755362033844,1.5834518671035767
1782969341629565700,2.856565673828125,-0.3378303050994873,0.18567043542861938,1.3911164999008179
1782969341639491800,2.866491943359375,-1.0374113321304321,1.5460034608840942,0.8067811131477356
1782969341649417700,2.876417724609375,-1.4024704694747925,2.401019334793091,0.16505958139896393
1782969341659343600,2.886343505859375,-1.4866966009140015,2.699970245361328,-0.2809927463531494
1782969341669269800,2.896269775390625,-1.3929932117462158,2.509005308151245,-0.46541354060173035
1782969341679197000,2.906197021484375,-1.1707916259765625,1.9736714363098145,-0.4077422320842743
1782969341689122600,2.91612255859375,-0.8757922649383545,1.2172635793685913,-0.17299926280975342
1782969341699048700,2.926048583984375,-0.5385010838508606,0.3252875506877899,0.16205303370952606
1782969341708974800,2.935974853515625,-0.18572817742824554,-0.5188764929771423,0.508490800857544
1782969341718900700,2.945900634765625,0.1602526605129242,-1.155701994895935,0.7972216606140137
1782969341728827600,2.95582763671875,0.42103084921836853,-1.4504799842834473,0.9881381392478943
1782969341738753800,2.96575390625,0.5326590538024902,-1.3569332361221313,1.0649032592773438
1782969341748679700,2.9756796875,0.4725021719932556,-0.9469038248062134,1.0552425384521484
1782969341758605600,2.98560546875,0.278544157743454,-0.41208648681640625,1.0066438913345337
1782969341768531500,2.995531494140625,0.010591333732008934,0.127125546336174,0.9118553996086121
1782969341778458600,3.005458740234375,-0.296237587928772,0.5535144209861755,0.7959762215614319
1782969341788384500,3.015384521484375,-0.5948898792266846,0.7965918779373169,0.7032090425491333
1782969341798310400,3.025310302734375,-0.8477620482444763,0.8155125975608826,0.6250577569007874
1782969341808236500,3.035236572265625,-1.0264935493469238,0.703171968460083,0.5015211701393127
1782969341818163500,3.04516357421875,-1.082521915435791,0.512579619884491,0.30285707116127014
1782969341828089600,3.055089599609375,-1.0109407901763916,0.2965376377105713,0.03415178507566452
1782969341838015500,3.065015380859375,-0.8364741802215576,0.09642241895198822,-0.24514029920101166
1782969341847941400,3.07494140625,-0.6135030388832092,-0.09032072126865387,-0.46868664026260376
1782969341857867500,3.084867431640625,-0.3837824761867523,-0.19247505068778992,-0.6312577128410339
1782969341867794400,3.09479443359375,-0.1770697981119156,-0.21168354153633118,-0.7614970207214355
1782969341877720600,3.104720458984375,-0.016978928819298744,-0.1689499169588089,-0.8679475784301758
1782969341887646500,3.114646484375,0.11822047084569931,-0.09271152317523956,-0.9343420267105103
1782969341897572600,3.124572509765625,0.24160657823085785,-0.06140926107764244,-0.9197095632553101
1782969341907498500,3.13449853515625,0.34173116087913513,-0.10082977265119553,-0.8062843680381775
1782969341917425400,3.14442529296875,0.40171194076538086,-0.1874362975358963,-0.6475280523300171
1782969341927351600,3.1543515625,0.4077707827091217,-0.31434372067451477,-0.4767882227897644
1782969341937277400,3.16427734375,0.407003253698349,-0.3846881687641144,-0.3588107228279114
1782969341947203300,3.174203369140625,0.424429327249527,-0.37139245867729187,-0.3787789046764374
1782969341957129500,3.18412939453125,0.464770644903183,-0.27046823501586914,-0.5667166113853455
1782969341967056600,3.194056640625,0.4946845769882202,-0.1925065666437149,-0.8727673292160034
1782969341976982500,3.203982421875,0.5094379186630249,-0.2502361834049225,-1.2270009517669678
1782969341986908400,3.213908447265625,0.567544162273407,-0.3961193263530731,-1.629978060722351
1782969341996834600,3.22383447265625,0.6787514090538025,-0.6330698728561401,-2.0248520374298096
1782969342006760700,3.2337607421875,0.8149085640907288,-1.0751874446868896,-2.2551803588867188
1782969342016687400,3.243687255859375,0.9727144241333008,-1.775917887687683,-2.0985443592071533
1782969342026613500,3.253613525390625,1.07793390750885,-2.5109565258026123,-1.473404049873352
1782969342036539600,3.26353955078125,1.06820809841156,-2.7956933975219727,-0.5827577114105225
1782969342046465300,3.27346533203125,0.8843405842781067,-2.388921022415161,0.15354511141777039
1782969342056391400,3.283391357421875,0.5298493504524231,-1.3773781061172485,0.6222992539405823
1782969342066318600,3.293318603515625,0.09053456783294678,-0.12504982948303223,0.8053197860717773
1782969342076244500,3.303244384765625,-0.38692864775657654,1.0660395622253418,0.7075229287147522
1782969342086170400,3.31317041015625,-0.7545518279075623,1.9395520687103271,0.4113657474517822
1782969342096096500,3.323096435546875,-0.9269747734069824,2.4042422771453857,0.061637308448553085
1782969342106022700,3.333022705078125,-0.9659318923950195,2.486156702041626,-0.19047081470489502
1782969342115949300,3.34294921875,-0.9300529360771179,2.2227683067321777,-0.2762110233306885
1782969342125875500,3.35287548828125,-0.8027012348175049,1.7725334167480469,-0.17356404662132263
1782969342135801600,3.362801513671875,-0.5760188102722168,1.3004974126815796,0.04349982365965843
1782969342145727500,3.3727275390625,-0.2852882742881775,0.9227313995361328,0.31853222846984863
1782969342155654400,3.382654296875,0.036960069090127945,0.6994490027427673,0.6216593980789185
1782969342165580500,3.39258056640625,0.3228195011615753,0.6050053834915161,0.9078393578529358
1782969342175506700,3.402506591796875,0.5559139847755432,0.5755816698074341,1.1912106275558472
1782969342185432300,3.412432373046875,0.7122611403465271,0.53782719373703,1.4906420707702637
1782969342195358500,3.4223583984375,0.7559385895729065,0.4558582603931427,1.805503249168396
1782969342205285600,3.43228564453125,0.737288773059845,0.33620843291282654,2.1076557636260986
1782969342215211300,3.442211181640625,0.6715734004974365,0.23591457307338715,2.36993408203125
1782969342225137400,3.452137451171875,0.5442723631858826,0.18763896822929382,2.525552988052368
1782969342235063600,3.4620634765625,0.3932167589664459,0.2672829031944275,2.460415840148926
1782969342244989400,3.471989501953125,0.2529183030128479,0.45661991834640503,2.1929738521575928
1782969342254916400,3.481916259765625,0.14221149682998657,0.6000090837478638,1.8857842683792114
1782969342264842500,3.491842529296875,0.07173465937376022,0.4610525071620941,1.7396230697631836
1782969342274768600,3.5017685546875,0.07211016863584518,-0.1642390787601471,1.9819563627243042
1782969342284694500,3.511694580078125,0.09508373588323593,-0.6311222314834595,2.0774712562561035
1782969342294620400,3.521620361328125,0.08515813946723938,-0.4028102457523346,1.524135708808899
1782969342304547600,3.531547607421875,0.06532463431358337,0.2619541883468628,0.5034786462783813
1782969342314473500,3.541473388671875,0.030838031321763992,0.8738567233085632,-0.5053778886795044
1782969342324399400,3.5513994140625,-0.044715046882629395,1.2143778800964355,-1.226272702217102
1782969342334325500,3.561325439453125,-0.17023728787899017,1.3706649541854858,-1.6957712173461914
1782969342344251400,3.57125146484375,-0.31454184651374817,1.446959137916565,-1.984892725944519
1782969342354178300,3.58117822265625,-0.3917634189128876,1.6709014177322388,-2.2093589305877686
1782969342364104400,3.5911044921875,-0.3351900279521942,1.8579299449920654,-2.2097809314727783
1782969342374030600,3.601030517578125,-0.27024510502815247,1.829992651939392,-1.9761303663253784
1782969342383956500,3.61095654296875,-0.28955936431884766,1.4501731395721436,-1.3563028573989868
1782969342393882600,3.620882568359375,-0.31522318720817566,0.8780468702316284,-0.5867981910705566
1782969342403809500,3.6308095703125,-0.22123630344867706,0.5008853077888489,-0.11637324839830399
1782969342413735400,3.6407353515625,-0.17168793082237244,0.2210613638162613,-0.11055024713277817
1782969342423661600,3.65066162109375,-0.058026980608701706,0.011829007416963577,-0.5754203200340271
1782969342433587500,3.66058740234375,0.24543169140815735,-0.19381415843963623,-1.4127607345581055
1782969342443513300,3.670513427734375,0.729619562625885,-0.4562870264053345,-2.324252128601074
1782969342453440500,3.6804404296875,1.383929967880249,-1.1138370037078857,-2.8966426849365234
1782969342463366400,3.690366455078125,2.0007290840148926,-2.3906807899475098,-2.434779644012451
1782969342473292500,3.70029248046875,2.17863130569458,-3.4590251445770264,-0.8999698162078857
1782969342483218400,3.710218505859375,1.810266137123108,-3.67343807220459,0.7125794887542725
1782969342493144600,3.72014453125,1.1519603729248047,-2.925359010696411,1.6462695598602295
1782969342503071500,3.730071533203125,0.39020878076553345,-1.428823709487915,1.6897153854370117
1782969342512997400,3.739997314453125,-0.461277574300766,0.3811556100845337,1.184095025062561
1782969342522923500,3.749923583984375,-1.264424443244934,2.0596840381622314,0.5205960273742676
1782969342532849700,3.759849609375,-1.8514221906661987,3.319485664367676,-0.14666135609149933
1782969342542775300,3.769775390625,-2.1437454223632812,3.9141719341278076,-0.686765193939209
1782969342552702500,3.779702392578125,-2.201359987258911,3.7920939922332764,-0.9861926436424255
1782969342562628600,3.789628662109375,-2.1226553916931152,3.1138453483581543,-1.033868432044983
1782969342572554500,3.799554443359375,-1.9352837800979614,2.131150245666504,-0.897696316242218
1782969342582480400,3.80948046875,-1.6568078994750977,1.0960787534713745,-0.6499847769737244
1782969342592407600,3.819407470703125,-1.3308231830596924,0.22125056385993958,-0.3402508497238159
1782969342602333400,3.82933349609375,-0.9853642582893372,-0.3515234887599945,-0.011012178845703602
1782969342612259300,3.83925927734375,-0.6630109548568726,-0.5996355414390564,0.354306161403656
1782969342622185500,3.849185546875,-0.4583425521850586,-0.6184929013252258,0.8284168243408203
1782969342632111600,3.859111572265625,-0.4088383615016937,-0.4765565097332001,1.377089023590088
1782969342642038500,3.86903857421875,-0.5175714492797852,-0.20100852847099304,1.8485639095306396
1782969342651964400,3.87896435546875,-0.7330478429794312,0.11850634217262268,2.109436273574829
1782969342661890600,3.888890625,-1.0204622745513916,0.45603400468826294,2.0601186752319336
1782969342671816700,3.898816650390625,-1.3008723258972168,0.7428564429283142,1.7765682935714722
1782969342681742300,3.908742431640625,-1.4986978769302368,0.9165940284729004,1.409739375114441
1782969342691669500,3.91866943359375,-1.610476016998291,0.9412024021148682,1.0817431211471558
1782969342701595600,3.928595703125,-1.6374788284301758,0.8421693444252014,0.8039575219154358
1782969342711521300,3.938521240234375,-1.5694332122802734,0.730940580368042,0.5880846381187439
1782969342721447400,3.948447509765625,-1.4253686666488647,0.7001969814300537,0.45273861289024353
1782969342731373600,3.95837353515625,-1.260679841041565,0.7216588258743286,0.41685810685157776
1782969342741300500,3.968300537109375,-1.096407413482666,0.7291361093521118,0.4654019773006439
1782969342751226400,3.978226318359375,-0.9257315397262573,0.7769100069999695,0.5774286389350891
1782969342761152300,3.98815234375,-0.7243180274963379,0.8397932648658752,0.6819037795066833
1782969342771077400,3.998077392578125,-0.5188599228858948,0.9023298621177673,0.7103894352912903
1782969342781004500,4.008004638671875,-0.3393823504447937,0.9007498025894165,0.640349268913269
1782969342790930200,4.01793017578125,-0.17984727025032043,0.74537193775177,0.5123167634010315
1782969342800856300,4.027856201171875,-0.03084326535463333,0.4135415852069855,0.32813286781311035
1782969342810782500,4.037782470703125,0.0986204519867897,-0.04823457822203636,0.054951947182416916
1782969342820708400,4.047708251953125,0.1969592124223709,-0.4694717526435852,-0.312530517578125
1782969342830635300,4.05763525390625,0.30343133211135864,-0.7663436532020569,-0.7193986773490906
1782969342840561400,4.0675615234375,0.4220196306705475,-0.9699569940567017,-1.0843430757522583
1782969342850487600,4.077487548828125,0.5003147125244141,-1.159947156906128,-1.3595961332321167
1782969342860413400,4.087413330078125,0.6192888021469116,-1.4309797286987305,-1.5119500160217285
1782969342870339300,4.09733935546875,0.6176062226295471,-1.5554736852645874,-1.7741755247116089
1782969342880266500,4.1072666015625,0.4765814542770386,-1.6119693517684937,-2.111867666244507
1782969342890192400,4.1171923828125,0.18359191715717316,-1.8664108514785767,-2.453949451446533
1782969342900118300,4.1271181640625,0.004621938336640596,-2.5463013648986816,-2.62275767326355
1782969342910044400,4.13704443359375,0.1208670511841774,-3.47809100151062,-2.527982473373413
1782969342919971600,4.1469716796875,0.5071190595626831,-4.155782222747803,-2.066970109939575
1782969342929897200,4.156897216796875,0.9667015671730042,-4.108724117279053,-1.190994143486023
1782969342939823400,4.1668232421875,1.2374666929244995,-3.333385944366455,0.01578042097389698
1782969342949749500,4.17674951171875,1.1528966426849365,-1.9246848821640015,1.151655673980713
1782969342959675400,4.18667529296875,0.6078624129295349,-0.15795236825942993,1.4743530750274658
1782969342969602300,4.196602294921875,-0.23496387898921967,1.5024640560150146,1.3917242288589478
1782969342979528400,4.206528564453125,-0.9297622442245483,2.73465895652771,0.746982753276825
1782969342989454300,4.216454345703125,-1.2976322174072266,3.334545373916626,-0.12427783012390137
1782969342999380200,4.226380126953125,-1.3735222816467285,3.4002976417541504,-0.762213408946991
1782969343009306400,4.236306396484375,-1.2360796928405762,2.922821044921875,-1.027167558670044
1782969343019233500,4.246233642578125,-1.0309581756591797,2.1149189472198486,-0.9668338298797607
1782969343029159400,4.256159423828125,-0.8015051484107971,1.2354331016540527,-0.71659255027771
1782969343039085300,4.266085205078125,-0.5596137642860413,0.5065599083900452,-0.4435015022754669
1782969343049011500,4.276011474609375,-0.3037241995334625,0.11127353459596634,-0.2929950952529907
1782969343058937300,4.285937255859375,-0.07156974077224731,0.09294363111257553,-0.2927630841732025
1782969343068864300,4.2958642578125,0.06883423775434494,0.30338209867477417,-0.3775152564048767
1782969343078790400,4.305790283203125,0.07923686504364014,0.6115813851356506,-0.4736902117729187
1782969343088716300,4.31571630859375,0.006234030704945326,0.9343698620796204,-0.5477218627929688
1782969343098642400,4.325642333984375,-0.15744127333164215,1.2946536540985107,-0.6133458614349365
1782969343108568300,4.335568359375,-0.2722328305244446,1.689820408821106,-0.6624838709831238
1782969343118495500,4.34549560546875,-0.24391010403633118,1.9117405414581299,-0.6626228094100952
1782969343128421400,4.35542138671875,-0.12730039656162262,1.8809244632720947,-0.5715099573135376
1782969343138347300,4.36534716796875,0.041165541857481,1.604725956916809,-0.3520975708961487
1782969343148273400,4.3752734375,0.20346151292324066,1.2030755281448364,-0.023634470999240875
1782969343158199300,4.38519921875,0.3400043845176697,0.7927581667900085,0.3317422866821289
1782969343168126500,4.39512646484375,0.45346197485923767,0.4889324903488159,0.5931733846664429
1782969343178052400,4.40505224609375,0.533347487449646,0.41062572598457336,0.695737898349762
1782969343187978200,4.414978271484375,0.5815523266792297,0.5421040654182434,0.7004469037055969
1782969343197904400,4.424904296875,0.5921406745910645,0.7548757791519165,0.6753638982772827
1782969343207830500,4.43483056640625,0.5711373686790466,0.8976536989212036,0.6619279980659485
1782969343217757400,4.44475732421875,0.5438814163208008,0.8963019847869873,0.6674672365188599
1782969343227683300,4.454683349609375,0.4957221746444702,0.7624691128730774,0.6830073595046997
1782969343237609500,4.464609375,0.4413951337337494,0.5813270211219788,0.6727162003517151
1782969343247535400,4.474535400390625,0.36561569571495056,0.4294344186782837,0.5772054195404053
1782969343257462300,4.484462158203125,0.3062593340873718,0.32575610280036926,0.3715793192386627
1782969343267388400,4.494388427734375,0.28468719124794006,0.26217180490493774,0.1282595843076706
1782969343277314300,4.504314208984375,0.328154981136322,0.2517329156398773,-0.10192660987377167
1782969343287240200,4.514240234375,0.4497852623462677,0.2994181513786316,-0.32370665669441223
1782969343297166300,4.524166259765625,0.6440874934196472,0.29297971725463867,-0.5178971290588379
1782969343307093500,4.534093505859375,0.8794901371002197,0.09533615410327911,-0.6782199144363403
1782969343317019400,4.544019287109375,1.0696821212768555,-0.42019006609916687,-0.8761295676231384
1782969343326945300,4.5539453125,1.0993537902832031,-1.4331204891204834,-1.0307201147079468
1782969343336871400,4.563871337890625,0.9933633208274841,-2.963268756866455,-1.0745775699615479
1782969343346797600,4.573797607421875,0.8683539628982544,-4.811352729797363,-0.9914619326591492
1782969343356724200,4.58372412109375,0.878354549407959,-6.051425457000732,-0.642067551612854
1782969343366650400,4.593650390625,0.9783411026000977,-5.936783790588379,-0.22031785547733307
1782969343376576500,4.603576416015625,0.7633796334266663,-4.38045597076416,0.21650952100753784
1782969343386502100,4.613502197265625,0.3743586540222168,-1.8981239795684814,0.6211070418357849
1782969343396428300,4.62342822265625,-0.06026614084839821,0.6908912658691406,0.8945651650428772
1782969343406355500,4.63335546875,-0.4462798833847046,2.6036460399627686,1.0122137069702148
1782969343416281300,4.64328125,-0.7556563019752502,3.6066431999206543,0.9840125441551208
1782969343426207200,4.653207275390625,-0.9497618079185486,3.606710910797119,0.8273587822914124
1782969343436133400,4.66313330078125,-1.0549818277359009,2.7863612174987793,0.6685718297958374
1782969343446059500,4.6730595703125,-1.0290766954421997,1.5584640502929688,0.5932517647743225
1782969343455986200,4.682986083984375,-0.9784826040267944,0.3720616400241852,0.657891571521759
1782969343465912300,4.692912353515625,-0.8753789067268372,-0.4080890119075775,0.7379925847053528
1782969343475838500,4.70283837890625,-0.770654559135437,-0.7668261528015137,0.736068844795227
1782969343485764400,4.712764404296875,-0.7082913517951965,-0.7406901717185974,0.6556480526924133
1782969343495690200,4.722690185546875,-0.7075865864753723,-0.44668543338775635,0.524267852306366
1782969343505617400,4.732617431640625,-0.694850504398346,-0.057939302176237106,0.3815689980983734
1782969343515543600,4.74254345703125,-0.6543549299240112,0.2641652524471283,0.2744007408618927
1782969343525469200,4.75246923828125,-0.6626107096672058,0.48907986283302307,0.25235190987586975
1782969343535395300,4.762395263671875,-0.7221617698669434,0.5969851016998291,0.2891526222229004
1782969343545322500,4.772322509765625,-0.8144280314445496,0.6352595090866089,0.30452412366867065
1782969343555248400,4.782248291015625,-0.9268593192100525,0.6665886640548706,0.22527766227722168
1782969343565174300,4.79217431640625,-1.0541142225265503,0.690558671951294,0.03423287346959114
1782969343575100400,4.802100341796875,-1.160918116569519,0.7135514616966248,-0.22899477183818817
1782969343585026300,4.8120263671875,-1.2182163000106812,0.736326277256012,-0.5024580359458923
1782969343594953200,4.821953125,-1.1991430521011353,0.8252080678939819,-0.7162610292434692
1782969343604879400,4.83187939453125,-1.1043912172317505,0.9717852473258972,-0.7795324325561523
1782969343614805500,4.841805419921875,-0.9485064744949341,1.1005486249923706,-0.682729184627533
1782969343624731400,4.8517314453125,-0.8040417432785034,1.2010568380355835,-0.5096442699432373
1782969343634657300,4.8616572265625,-0.7317608594894409,1.2778575420379639,-0.3742615580558777
1782969343644584400,4.87158447265625,-0.7068392634391785,1.287405252456665,-0.3195381164550781
1782969343654510300,4.88151025390625,-0.7112513780593872,1.2928861379623413,-0.33124181628227234
1782969343664436200,4.891436279296875,-0.7372509837150574,1.2403992414474487,-0.3589639961719513
1782969343674362400,4.9013623046875,-0.7216107249259949,1.0538794994354248,-0.34238168597221375
1782969343684288300,4.911288330078125,-0.6493165493011475,0.7423868775367737,-0.27091604471206665
1782969343694215400,4.92121533203125,-0.5294880867004395,0.3303303122520447,-0.17693345248699188
1782969343704141300,4.931141357421875,-0.4043067991733551,-0.1502370834350586,-0.04001528024673462
1782969343714067500,4.9410673828125,-0.2728981375694275,-0.6292822957038879,0.12461990118026733
1782969343723993300,4.950993408203125,-0.13772165775299072,-0.9987021684646606,0.280915230512619
1782969343733919500,4.96091943359375,-0.0056164562702178955,-1.125978946685791,0.36608442664146423
1782969343743846400,4.970846435546875,0.09879010915756226,-1.0020381212234497,0.31085073947906494
1782969343753772300,4.980772216796875,0.1607484370470047,-0.7293147444725037,0.08752789348363876
1782969343763698000,4.990697998046875,0.18123292922973633,-0.4304627776145935,-0.24426841735839844
1782969343773624000,5.0006240234375,0.16851283609867096,-0.24008981883525848,-0.6000411510467529
1782969343783549700,5.0105498046875,0.11518701910972595,-0.2743191719055176,-0.8636112809181213
1782969343793476900,5.020476806640625,0.037554237991571426,-0.6744893789291382,-1.0923229455947876
1782969343803403000,5.030403076171875,-0.08496155589818954,-1.565334439277649,-1.3708070516586304
1782969343813328600,5.04032861328125,-0.22486761212348938,-2.8098764419555664,-1.603880763053894
1782969343823254800,5.0502548828125,-0.3393251895904541,-4.064533233642578,-1.632920742034912
1782969343833182000,5.060181884765625,-0.29860764741897583,-4.984015941619873,-1.397420883178711
1782969343843107800,5.07010791015625,0.06825662404298782,-5.2213664054870605,-0.8859727382659912
1782969343853033700,5.08003369140625,0.5128338932991028,-4.508147239685059,-0.32231438159942627
1782969343862959900,5.0899599609375,0.7147829532623291,-2.787188768386841,0.05081925913691521
1782969343872886000,5.099885986328125,0.6744592785835266,-0.7323895692825317,0.12373322248458862
1782969343882813000,5.10981298828125,0.34861859679222107,1.2988017797470093,-0.017399130389094353
1782969343892738800,5.11973876953125,-0.014751702547073364,2.956501007080078,-0.3613419830799103
1782969343902665000,5.1296650390625,-0.22557099163532257,3.803845167160034,-0.8323057889938354
1782969343912590800,5.1395908203125,-0.4321596622467041,3.9089622497558594,-1.2659106254577637
1782969343922516700,5.149516845703125,-0.6647422909736633,3.511772632598877,-1.5537896156311035
1782969343932444000,5.15944384765625,-0.8068132996559143,2.7152628898620605,-1.7211451530456543
1782969343942370000,5.1693701171875,-0.8543992042541504,1.8704285621643066,-1.720202088356018
1782969343952295700,5.179295654296875,-0.7903432846069336,1.2053793668746948,-1.595641851425171
1782969343962221800,5.189221923828125,-0.6576571464538574,0.78263258934021,-1.3801766633987427
1782969343972148000,5.19914794921875,-0.5184628963470459,0.6387733817100525,-1.1327420473098755
1782969343982075000,5.209074951171875,-0.38106805086135864,0.7014846801757812,-0.8957730531692505
1782969343992000800,5.219000732421875,-0.23463939130306244,0.9370561242103577,-0.6720736622810364
1782969344001927000,5.228927001953125,-0.0712781548500061,1.2494473457336426,-0.4725903272628784
1782969344011853000,5.23885302734375,0.1441868543624878,1.463486671447754,-0.2936212122440338
1782969344021779000,5.248779052734375,0.35462692379951477,1.471688151359558,-0.11103808134794235
1782969344031705900,5.258705810546875,0.5261930227279663,1.2426247596740723,0.10214465856552124
1782969344041632000,5.268632080078125,0.5712733864784241,0.7761331796646118,0.40381982922554016
1782969344051558000,5.278557861328125,0.5842169523239136,0.2583506107330322,0.7351259589195251
1782969344061483800,5.28848388671875,0.6039137244224548,-0.0867156833410263,1.010595679283142
1782969344071410000,5.298409912109375,0.636929452419281,-0.1565038114786148,1.2011089324951172
1782969344081337000,5.308337158203125,0.6740049123764038,0.00551518565043807,1.319923758506775
1782969344091262700,5.3182626953125,0.6786243319511414,0.34949275851249695,1.392655372619629
1782969344101188900,5.32818896484375,0.652588963508606,0.8165073394775391,1.4431686401367188
1782969344111115000,5.338114990234375,0.5922521352767944,1.1967264413833618,1.4782304763793945
1782969344121041000,5.348041015625,0.5312343239784241,1.34279203414917,1.4623481035232544
1782969344130967800,5.3579677734375,0.4973887503147125,1.2864899635314941,1.3751461505889893
1782969344140894000,5.36789404296875,0.4921913146972656,1.1289459466934204,1.22819185256958
1782969344150819800,5.37781982421875,0.49263307452201843,0.8809543251991272,1.027127981185913
1782969344160746000,5.38774609375,0.4861503839492798,0.5433722734451294,0.7670337557792664
1782969344170671900,5.397671875,0.5201247930526733,0.06422102451324463,0.4381837546825409
1782969344180599000,5.40759912109375,0.6365736722946167,-0.440824031829834,0.1611689329147339
1782969344190525000,5.41752490234375,0.8299585580825806,-0.9443084001541138,0.09498754888772964
1782969344200450800,5.427450927734375,1.0715112686157227,-1.524680256843567,0.22872324287891388
1782969344210377000,5.437376953125,1.2287195920944214,-2.092907428741455,0.4100671410560608
1782969344220304000,5.447303955078125,1.1992828845977783,-2.522366523742676,0.41432633996009827
1782969344230229800,5.457229736328125,1.0774717330932617,-2.969144105911255,0.04858478531241417
1782969344240156000,5.467156005859375,0.9057934880256653,-3.645108938217163,-0.6072450280189514
1782969344250081800,5.477081787109375,0.8229073286056519,-4.381068229675293,-0.9514006972312927
1782969344260008000,5.487008056640625,0.9690514802932739,-4.850975513458252,-0.569787323474884
1782969344269934800,5.496934814453125,1.2846559286117554,-4.918253421783447,0.5456268191337585
1782969344279861000,5.506861083984375,1.45646071434021,-4.410812854766846,2.0261411666870117
1782969344289787000,5.516786865234375,1.3302088975906372,-3.103923797607422,3.070967197418213
1782969344299713000,5.526713134765625,0.8598781824111938,-1.079429030418396,3.094757318496704
1782969344309639000,5.536638916015625,0.07657434791326523,1.2944307327270508,2.2198987007141113
1782969344319565800,5.54656591796875,-0.682367742061615,3.3515090942382812,0.9282785654067993
1782969344329492000,5.556491943359375,-1.202546238899231,4.448331832885742,-0.21350941061973572
1782969344339417900,5.56641796875,-1.4990440607070923,4.651895046234131,-0.755814790725708
1782969344349343700,5.57634375,-1.5839619636535645,4.176718235015869,-0.7014889121055603
1782969344359270000,5.586269775390625,-1.5186809301376343,3.255300998687744,-0.33204004168510437
1782969344369196800,5.59619677734375,-1.3492375612258911,2.207366943359375,0.10130640119314194
1782969344379123000,5.606123046875,-1.1450444459915161,1.2458269596099854,0.46995848417282104
1782969344389048800,5.616048828125,-0.9364509582519531,0.5034778118133545,0.6923921704292297
1782969344398975000,5.62597509765625,-0.769321620464325,0.05999387428164482,0.7620100975036621
1782969344408900900,5.63590087890625,-0.6674613356590271,-0.13064755499362946,0.7035540342330933
1782969344418827800,5.645827880859375,-0.6388137340545654,-0.1180121898651123,0.5118221640586853
1782969344428754000,5.65575390625,-0.6519480347633362,0.08064395934343338,0.22357973456382751
1782969344438679800,5.6656796875,-0.7077937126159668,0.37585005164146423,-0.04059572145342827
1782969344448605700,5.675605712890625,-0.7706810235977173,0.6451910734176636,-0.22456622123718262
1782969344458531800,5.68553173828125,-0.7704357504844666,0.7828035354614258,-0.3347627818584442
1782969344468459000,5.695458984375,-0.7088073492050171,0.7939595580101013,-0.3651539981365204
1782969344478385000,5.705385009765625,-0.5983532667160034,0.7038437724113464,-0.3470306694507599
1782969344488310800,5.715310791015625,-0.492867112159729,0.5286159515380859,-0.266476571559906
1782969344498237000,5.72523681640625,-0.40996477007865906,0.3049255907535553,-0.14587610960006714
1782969344508163800,5.735163818359375,-0.34372222423553467,0.10222065448760986,-0.056009721010923386
1782969344518089700,5.74508984375,-0.26542553305625916,-0.08634686470031738,-0.012055845931172371
1782969344528016000,5.755015869140625,-0.1768861711025238,-0.2603459358215332,-0.02004474215209484
1782969344537942000,5.76494189453125,-0.1323075145483017,-0.36687424778938293,-0.08213181048631668
1782969344547867600,5.77486767578125,-0.10950816422700882,-0.36266255378723145,-0.21138329803943634
1782969344557794800,5.784794921875,-0.11389944702386856,-0.298892617225647,-0.38522621989250183
1782969344567721000,5.794720947265625,-0.1269596666097641,-0.2595770061016083,-0.5693277716636658
1782969344577646800,5.804646728515625,-0.14784178137779236,-0.26661229133605957,-0.7551687359809875
1782969344587572700,5.81457275390625,-0.1619233787059784,-0.32454052567481995,-0.9334629774093628
1782969344597499000,5.824498779296875,-0.17142154276371002,-0.4098950922489166,-1.1525920629501343
1782969344607426000,5.834426025390625,-0.18260124325752258,-0.44990217685699463,-1.4487330913543701
1782969344617351700,5.8443515625,-0.16227786242961884,-0.4405140280723572,-1.7486827373504639
1782969344627277800,5.85427783203125,-0.10170697420835495,-0.4134434163570404,-1.9765690565109253
1782969344637204000,5.864203857421875,-0.03071083314716816,-0.42083635926246643,-2.1162540912628174
1782969344647129900,5.8741298828125,-0.018575161695480347,-0.4862023591995239,-2.1189568042755127
1782969344657056800,5.884056884765625,-0.0201051477342844,-0.6726332306861877,-2.005584478378296
1782969344666983000,5.89398291015625,0.006424608174711466,-1.0147722959518433,-1.819606900215149
1782969344676909000,5.903908935546875,0.11524323374032974,-1.5601376295089722,-1.7022086381912231
1782969344686834700,5.913834716796875,0.26550692319869995,-2.3329429626464844,-1.7742679119110107
1782969344696760800,5.9237607421875,0.34347763657569885,-3.414299726486206,-2.0059654712677
1782969344706688000,5.93368798828125,0.2975916266441345,-4.7901458740234375,-2.22691011428833
1782969344716614000,5.94361376953125,0.23653361201286316,-6.211174011230469,-2.27669620513916
1782969344726539800,5.953539794921875,0.3182523846626282,-7.019120693206787,-1.9611992835998535
1782969344736466000,5.9634658203125,0.5889251232147217,-6.673556804656982,-1.3004761934280396
1782969344746391800,5.973391845703125,0.6601773500442505,-4.796657562255859,-0.2930798828601837
1782969344756318700,5.983318603515625,0.35450321435928345,-1.845231294631958,0.781869113445282
1782969344766246100,5.99324609375,0.059860508888959885,0.7444638013839722,1.4489600658416748
1782969344776172000,6.003172119140625,-0.05902672931551933,2.3417654037475586,1.45962655544281
1782969344786098000,6.013097900390625,-0.0992036685347557,2.893075942993164,1.0854226350784302
1782969344796025000,6.023025146484375,-0.16452035307884216,2.6197240352630615,0.7971522212028503
1782969344805951000,6.032950927734375,-0.21153467893600464,1.8284518718719482,0.7509045600891113
1782969344815876900,6.042876953125,-0.28851017355918884,0.8956509828567505,0.9003372192382812
1782969344825803000,6.052802978515625,-0.30994394421577454,0.09436222910881042,1.0814151763916016
1782969344835729000,6.06272900390625,-0.23924686014652252,-0.5120925307273865,1.1746364831924438
1782969344845655800,6.07265576171875,-0.1006627008318901,-0.8927522897720337,1.1173630952835083
1782969344855582000,6.08258203125,0.024341288954019547,-1.0138041973114014,0.9151215553283691
1782969344865508000,6.092508056640625,0.11540060490369797,-0.8944036960601807,0.5983874797821045
1782969344875434000,6.10243408203125,0.166045144200325,-0.6159071326255798,0.2634182572364807
1782969344885360000,6.112360107421875,0.17669355869293213,-0.28924015164375305,0.03076973557472229
1782969344895287000,6.122287109375,0.1037844568490982,-0.04749995470046997,-0.027869077399373055
1782969344905213000,6.132212890625,-0.08546598255634308,0.07969161868095398,0.10767931491136551
1782969344915139000,6.14213916015625,-0.260474294424057,0.22083570063114166,0.31962910294532776
1782969344925065000,6.15206494140625,-0.33074861764907837,0.40234506130218506,0.5362464189529419
1782969344934990800,6.161990966796875,-0.2784976661205292,0.6342297196388245,0.7047052383422852
1782969344944918000,6.17191796875,-0.2153162807226181,0.8448986411094666,0.8381555676460266
1782969344954844000,6.181843994140625,-0.14329561591148376,0.9713934659957886,0.9236411452293396
1782969344964770000,6.19177001953125,-0.05440874770283699,1.0150996446609497,0.9170560240745544
1782969344974696000,6.201696044921875,0.054830923676490784,1.0133715867996216,0.863052487373352
1782969344984622000,6.2116220703125,0.17992715537548065,0.9876536726951599,0.7791914343833923
1782969344994549000,6.221549072265625,0.2805655896663666,0.9435946345329285,0.700177788734436
1782969345004475000,6.231474853515625,0.37458574771881104,0.900642991065979,0.6247620582580566
1782969345014401000,6.241401123046875,0.4647505283355713,0.8131405711174011,0.5548684597015381
1782969345024327000,6.251326904296875,0.5363925099372864,0.6600824594497681,0.5156872868537903
1782969345034252800,6.261252685546875,0.5974960923194885,0.45319506525993347,0.5221308469772339
1782969345044180000,6.271179931640625,0.6222878098487854,0.18391463160514832,0.6056098937988281
1782969345054106000,6.281106201171875,0.6324424147605896,-0.10835451632738113,0.7792969942092896
1782969345064032000,6.291031982421875,0.6568984985351562,-0.35298559069633484,0.9557644128799438
1782969345073958000,6.3009580078125,0.7002859115600586,-0.5601140260696411,0.9928659796714783
1782969345083884000,6.310884033203125,0.7461948394775391,-0.6423912048339844,0.910563051700592
1782969345093811000,6.32081103515625,0.7929415702819824,-0.5849342942237854,0.7678956985473633
1782969345103736800,6.33073681640625,0.8515934348106384,-0.46186307072639465,0.5309481620788574
1782969345113663000,6.3406630859375,0.8781107664108276,-0.42501184344291687,0.27872440218925476
1782969345123589000,6.350589111328125,0.9728489518165588,-0.7377533316612244,0.04493016004562378
1782969345133516000,6.36051611328125,1.235607385635376,-1.613370656967163,-0.10533551126718521
1782969345143442000,6.37044189453125,1.6414669752120972,-2.953352689743042,-0.08559881895780563
1782969345153368000,6.3803681640625,2.0674664974212646,-4.410079002380371,0.18617835640907288
1782969345163294000,6.3902939453125,2.3370156288146973,-5.304304599761963,0.7609429359436035
1782969345173219800,6.4002197265625,2.2714426517486572,-4.880080699920654,1.426186203956604
1782969345183147000,6.41014697265625,1.6370381116867065,-2.98874831199646,1.9725314378738403
1782969345193073200,6.4200732421875,0.668820858001709,-0.47123050689697266,2.067042350769043
1782969345202998800,6.429998779296875,-0.18354760110378265,1.7939934730529785,1.5284632444381714
1782969345212925000,6.439925048828125,-0.7174980640411377,3.4461004734039307,0.6070241928100586
1782969345222851000,6.44985107421875,-0.8701569437980652,4.199761867523193,-0.29043450951576233
1782969345232778000,6.459778076171875,-0.8842586278915405,4.043310165405273,-0.7465692758560181
1782969345242704000,6.469703857421875,-0.7844449877738953,3.2475953102111816,-0.7038266062736511
1782969345252630000,6.479630126953125,-0.5757889747619629,1.9272414445877075,-0.364061564207077
1782969345262556200,6.48955615234375,-0.2895011901855469,0.3075876832008362,0.07893390208482742
1782969345272481800,6.499481689453125,-0.027459466829895973,-1.217612624168396,0.5798521041870117
1782969345282409000,6.509408935546875,0.1787475049495697,-2.3258068561553955,1.0574610233306885
1782969345292335000,6.519335205078125,0.33392804861068726,-2.9516570568084717,1.4025603532791138
1782969345302261000,6.529260986328125,0.4040836691856384,-3.174130439758301,1.5939968824386597
1782969345312187000,6.539186767578125,0.36566516757011414,-3.0476341247558594,1.6463820934295654
1782969345322113000,6.549113037109375,0.2680846154689789,-2.6534481048583984,1.625529170036316
1782969345332040200,6.559040283203125,0.13954418897628784,-2.163379192352295,1.5678902864456177
1782969345341965800,6.5689658203125,0.00816271547228098,-1.7615066766738892,1.554502010345459
1782969345351892000,6.57889208984375,-0.15964412689208984,-1.5113716125488281,1.6100456714630127
1782969345361818000,6.588818115234375,-0.36412015557289124,-1.358422875404358,1.7426655292510986
1782969345371744000,6.598743896484375,-0.5743473768234253,-1.2712682485580444,1.9041529893875122
1782969345381671000,6.6086708984375,-0.7175020575523376,-1.2205826044082642,1.9950000047683716
1782969345391597000,6.61859716796875,-0.8152395486831665,-1.110966682434082,1.9368352890014648
1782969345401523000,6.62852294921875,-0.8271313309669495,-0.8493692278862,1.7317348718643188
1782969345411448800,6.63844873046875,-0.7021989822387695,-0.4894525706768036,1.410914421081543
1782969345421375000,6.648375,-0.4953242838382721,-0.10897805541753769,0.956585705280304
1782969345431302100,6.65830224609375,-0.2714288830757141,0.29340800642967224,0.458282470703125
1782969345441228000,6.66822802734375,-0.08898771554231644,0.6451606750488281,0.009888817556202412
1782969345451154000,6.67815380859375,-0.011133668944239616,0.9032385945320129,-0.27842527627944946
1782969345461080000,6.688080078125,-0.024448692798614502,1.0276676416397095,-0.3629503548145294
1782969345471007000,6.698007080078125,-0.14141499996185303,1.0711748600006104,-0.27481329441070557
1782969345480932900,6.707932861328125,-0.2602405250072479,0.8602843284606934,-0.13681994378566742
1782969345490859000,6.71785888671875,-0.23710325360298157,0.3506418764591217,-0.10256984084844589
1782969345500785000,6.727784912109375,-0.02791816182434559,-0.23101304471492767,-0.23440593481063843
1782969345510711000,6.7377109375,0.23336990177631378,-0.7337883114814758,-0.44283902645111084
1782969345520638000,6.747637939453125,0.4536522626876831,-1.0683919191360474,-0.5786242485046387
1782969345530564000,6.757564208984375,0.6375576257705688,-1.1785788536071777,-0.5568597912788391
1782969345540490000,6.767489990234375,0.7596009373664856,-1.1114994287490845,-0.444100558757782
1782969345550416000,6.777415771484375,0.8678030371665955,-0.9199821949005127,-0.3809919059276581
1782969345560342000,6.787342041015625,0.9733765721321106,-0.7668277621269226,-0.4362555146217346
1782969345570269000,6.79726904296875,1.0140324831008911,-0.6950960755348206,-0.5837938189506531
1782969345580195000,6.807195068359375,0.9994181990623474,-0.6201285719871521,-0.856116771697998
1782969345590121000,6.817120849609375,1.0286903381347656,-0.4397566318511963,-1.3679143190383911
1782969345600046800,6.827046875,1.2854230403900146,-0.41378042101860046,-1.994714379310608
1782969345609973000,6.836972900390625,1.7084782123565674,-0.836077094078064,-2.390615224838257
1782969345619900000,6.84689990234375,2.0939431190490723,-1.6112234592437744,-2.2771334648132324
1782969345629826000,6.856825927734375,2.2823195457458496,-2.3652760982513428,-1.6790965795516968
1782969345639752000,6.866751953125,2.138516664505005,-2.688847780227661,-0.771990954875946
1782969345649678000,6.876677978515625,1.5296151638031006,-2.271343469619751,0.1067240759730339
1782969345659604000,6.88660400390625,0.3987308740615845,-1.0312384366989136,0.6554384827613831
1782969345669531000,6.89653076171875,-0.7306914329528809,0.6426025629043579,0.9546512365341187
1782969345679457000,6.90645703125,-1.4470598697662354,2.1868550777435303,0.805894136428833
1782969345689383000,6.9163828125,-1.6113725900650024,3.0574584007263184,0.3571818470954895
1782969345699308800,6.926308837890625,-1.4345134496688843,3.1317663192749023,-0.07137145102024078
1782969345709235000,6.93623486328125,-1.1678082942962646,2.4764623641967773,-0.31104689836502075
1782969345719162000,6.946162109375,-0.9029752016067505,1.3163102865219116,-0.331028550863266
1782969345729088000,6.956087890625,-0.6698988080024719,0.03302460536360741,-0.16243022680282593
1782969345739014000,6.966013916015625,-0.4241708219051361,-0.9104673862457275,0.06613597273826599
1782969345748940000,6.97593994140625,-0.1776856929063797,-1.3918426036834717,0.26634204387664795
1782969345758867000,6.985866943359375,0.032638270407915115,-1.4617985486984253,0.3853548765182495
1782969345768792600,6.99579248046875,0.17641673982143402,-1.193289041519165,0.42208439111709595
1782969345778718700,7.00571875,0.25454431772232056,-0.7195689678192139,0.3904288113117218
1782969345788644900,7.015644775390625,0.2400018572807312,-0.19519515335559845,0.31485840678215027
1782969345798570800,7.02557080078125,0.15386688709259033,0.25540465116500854,0.18360164761543274
1782969345808497700,7.03549755859375,0.04640142619609833,0.5589874386787415,0.014223536476492882
1782969345818423800,7.045423828125,-0.04931514337658882,0.7173219919204712,-0.17606666684150696
1782969345828350000,7.055349853515625,-0.11848169565200806,0.7670437097549438,-0.2889695167541504
1782969345838275600,7.065275634765625,-0.1240081638097763,0.7106713056564331,-0.2822911739349365
1782969345848201700,7.07520166015625,-0.09421298652887344,0.5473870635032654,-0.15363921225070953
1782969345858129000,7.08512890625,-0.046772558242082596,0.36525243520736694,0.028559843078255653
1782969345868054500,7.095054443359375,0.008754614740610123,0.24381791055202484,0.1873079389333725
1782969345877980700,7.104980712890625,0.06344431638717651,0.20286794006824493,0.3156385123729706
1782969345887906800,7.11490673828125,0.10376191884279251,0.20608024299144745,0.4020974934101105
1782969345897832700,7.124832763671875,0.12343659996986389,0.1798146516084671,0.45488008856773376
1782969345907759600,7.134759521484375,0.16213099658489227,0.09762656688690186,0.47128888964653015
1782969345917685800,7.144685791015625,0.2092132270336151,-0.02319050207734108,0.46456772089004517
1782969345927612000,7.15461181640625,0.23469780385494232,-0.14378535747528076,0.4343414008617401
1782969345937537800,7.164537841796875,0.21589575707912445,-0.19966572523117065,0.3540942072868347
1782969345947463700,7.174463623046875,0.16311803460121155,-0.2665789723396301,0.24221640825271606
1782969345957390800,7.184390869140625,0.13816067576408386,-0.3137792646884918,0.1250474900007248
1782969345967316700,7.194316650390625,0.16388042271137238,-0.27432534098625183,-0.021933162584900856
1782969345977242600,7.20424267578125,0.23309673368930817,-0.15626917779445648,-0.1737367808818817
1782969345987168800,7.214168701171875,0.3062223494052887,-0.011879783123731613,-0.31908145546913147
1782969345997094700,7.2240947265625,0.40574294328689575,0.14688371121883392,-0.4637097418308258
1782969346007021600,7.234021484375,0.576905369758606,0.25549113750457764,-0.6023868918418884
1782969346016947700,7.24394775390625,0.8236217498779297,0.3009999692440033,-0.6250022053718567
1782969346026873900,7.253873779296875,1.0820382833480835,0.2230077087879181,-0.4746321141719818
1782969346036799700,7.2637998046875,1.2946021556854248,-0.050202030688524246,-0.23410837352275848
1782969346046726700,7.2737265625,1.398876667022705,-0.4959089457988739,0.024884838610887527
1782969346056652800,7.28365283203125,1.4848285913467407,-1.0751549005508423,0.28719592094421387
1782969346066578700,7.29357861328125,1.4866424798965454,-1.6246331930160522,0.5341599583625793
1782969346076504800,7.3035048828125,1.2599416971206665,-1.8421204090118408,0.7960494756698608
1782969346086430700,7.3134306640625,0.8132254481315613,-1.5970301628112793,0.9458368420600891
1782969346096358000,7.32335791015625,0.14784422516822815,-0.8765042424201965,0.810540497303009
1782969346106283800,7.33328369140625,-0.5876803994178772,0.24744217097759247,0.3576287031173706
1782969346116209700,7.343209716796875,-1.2687307596206665,1.4999547004699707,-0.2798316180706024
1782969346126135800,7.3531357421875,-1.697962760925293,2.547194480895996,-0.8960106372833252
1782969346136061700,7.363061767578125,-1.7150169610977173,2.9849629402160645,-1.3423967361450195
1782969346145988600,7.372988525390625,-1.459273338317871,2.7545695304870605,-1.4569613933563232
1782969346155914800,7.382914794921875,-1.0859121084213257,2.030461311340332,-1.2301015853881836
1782969346165840600,7.392840576171875,-0.6802374720573425,0.9890221953392029,-0.7151810526847839
1782969346175766800,7.402766845703125,-0.3020331561565399,-0.1208919882774353,-0.04947357624769211
1782969346185692700,7.412692626953125,0.01839306391775608,-1.0895040035247803,0.6112803816795349
1782969346195619800,7.422619873046875,0.25626176595687866,-1.769348382949829,1.1040847301483154
1782969346205545700,7.432545654296875,0.38226017355918884,-2.008098602294922,1.3345707654953003
1782969346215471900,7.442471923828125,0.3807283639907837,-1.7791050672531128,1.2905316352844238
1782969346225397800,7.452397705078125,0.30016428232192993,-1.2153878211975098,1.013231635093689
1782969346235323600,7.46232373046875,0.17947107553482056,-0.5376635193824768,0.5760742425918579
1782969346245250800,7.472250732421875,0.018810033798217773,0.14466926455497742,0.10509607940912247
1782969346255176700,7.4821767578125,-0.16770800948143005,0.7610213160514832,-0.2991080582141876
1782969346265102600,7.4921025390625,-0.34033647179603577,1.2094134092330933,-0.5973309874534607
1782969346275028700,7.50202880859375,-0.48648402094841003,1.4285424947738647,-0.7858663201332092
1782969346284955000,7.511954833984375,-0.622816801071167,1.4068105220794678,-0.8457746505737305
1782969346294881800,7.5218818359375,-0.7204444408416748,1.186025857925415,-0.7835586071014404
1782969346304807700,7.5318076171875,-0.7806302905082703,0.8444070219993591,-0.6671425104141235
1782969346314733800,7.54173388671875,-0.7809409499168396,0.4652385413646698,-0.5707315802574158
1782969346324659700,7.55165966796875,-0.7243597507476807,0.15980754792690277,-0.541333794593811
1782969346334585600,7.561585693359375,-0.6082156300544739,-0.009968465194106102,-0.6007462739944458
1782969346344512800,7.5715126953125,-0.4502582550048828,-0.05886836349964142,-0.7466437816619873
1782969346354438700,7.581438720703125,-0.2833649218082428,-0.07023546099662781,-0.9358893036842346
1782969346364364500,7.591364501953125,-0.16010208427906036,-0.06465081125497818,-1.0927796363830566
1782969346374290700,7.601290771484375,-0.05840211734175682,-0.08806080371141434,-1.158642292022705
1782969346384217900,7.6112177734375,0.004098812583833933,-0.16695454716682434,-1.0988959074020386
1782969346394143700,7.621143798828125,0.040993690490722656,-0.30396130681037903,-0.9018237590789795
1782969346404069600,7.631069580078125,0.082099050283432,-0.4748430550098419,-0.602181613445282
1782969346413995800,7.640995849609375,0.141461580991745,-0.6358378529548645,-0.31689897179603577
1782969346423922000,7.650921875,0.1902720034122467,-0.7896889448165894,-0.06129968911409378
1782969346433848600,7.6608486328125,0.27073416113853455,-0.9119950532913208,0.14159071445465088
1782969346443774700,7.670774658203125,0.4220792055130005,-0.9628704786300659,0.22082561254501343
1782969346453700900,7.680700927734375,0.5909544229507446,-0.9408006072044373,0.16615480184555054
1782969346463626500,7.69062646484375,0.7036314606666565,-0.904721200466156,-0.020215610042214394
1782969346473552600,7.700552734375,0.7181732654571533,-0.8179517388343811,-0.2555335462093353
1782969346483479800,7.710479736328125,0.6590744853019714,-0.6676117777824402,-0.5617249011993408
1782969346493405700,7.72040576171875,0.6016111373901367,-0.5722236037254333,-0.9346732497215271
1782969346503331600,7.73033154296875,0.5907635688781738,-0.6601963043212891,-1.1701189279556274
1782969346513257700,7.7402578125,0.6127529144287109,-0.9230964779853821,-1.0837234258651733
1782969346523183900,7.750183837890625,0.6422796845436096,-1.168768048286438,-0.6805357336997986
1782969346533110500,7.760110595703125,0.580961287021637,-1.2586740255355835,-0.20111367106437683
1782969346543036700,7.77003662109375,0.410897433757782,-1.1058677434921265,0.1339857578277588
1782969346552962800,7.779962890625,0.09356757253408432,-0.6510218977928162,0.2285577803850174
1782969346562888700,7.789888671875,-0.42607027292251587,0.11852933466434479,0.17930154502391815
1782969346572814600,7.799814697265625,-1.0055968761444092,1.1177488565444946,0.12336000800132751
1782969346582741800,7.80974169921875,-1.3566724061965942,2.056225299835205,0.0730196088552475
1782969346592668000,7.81966796875,-1.3778856992721558,2.537052631378174,0.0017381864599883556
1782969346602593500,7.829593505859375,-1.2183722257614136,2.505387544631958,0.006932681426405907
1782969346612519700,7.839519775390625,-1.0594524145126343,2.101079225540161,0.12692472338676453
1782969346622445800,7.84944580078125,-0.9107260704040527,1.4276018142700195,0.29983285069465637
1782969346632372700,7.859372802734375,-0.7539164423942566,0.6723408699035645,0.4382166862487793
1782969346642298600,7.869298583984375,-0.5912492275238037,0.07414667308330536,0.4789997935295105
1782969346652224800,7.879224853515625,-0.4124796390533447,-0.27843284606933594,0.4271250367164612
1782969346662150700,7.889150634765625,-0.23123212158679962,-0.39102011919021606,0.3094034790992737
1782969346672077600,7.89907763671875,-0.060746148228645325,-0.3024291694164276,0.16925285756587982
1782969346682003700,7.909003662109375,0.06718757748603821,-0.04418324679136276,0.03851721063256264
1782969346691929900,7.918929931640625,0.1517069786787033,0.296847403049469,-0.04582579433917999
1782969346701855700,7.928855712890625,0.16841831803321838,0.6036920547485352,-0.06427057832479477
1782969346711781600,7.93878173828125,0.13804657757282257,0.8159365653991699,-0.0417059101164341
1782969346721708800,7.948708740234375,0.0930253192782402,0.9070430397987366,0.025694701820611954
1782969346731634700,7.958634765625,0.028606997802853584,0.9103305339813232,0.13883931934833527
1782969346741560600,7.968560546875,-0.00773662980645895,0.843463659286499,0.29779914021492004
1782969346751486700,7.97848681640625,0.012805387377738953,0.6825881004333496,0.43195560574531555
1782969346761412600,7.98841259765625,0.09315349161624908,0.48079028725624084,0.5089480876922607
1782969346771339800,7.99833984375,0.20235766470432281,0.32191458344459534,0.5498033761978149
1782969346781266000,8.008265869140626,0.3061676621437073,0.22920195758342743,0.5450379252433777
1782969346791191800,8.01819189453125,0.41047006845474243,0.17965756356716156,0.48946964740753174
1782969346801118000,8.028117919921876,0.5258347392082214,0.12833872437477112,0.4019278287887573
1782969346811044000,8.038044189453124,0.6068302392959595,0.0802251547574997,0.33217158913612366
1782969346820970800,8.047970703125,0.616127073764801,-0.015986867249011993,0.32627642154693604
1782969346830897000,8.05789697265625,0.5853953957557678,-0.12528178095817566,0.3695121109485626
1782969346840823000,8.067822998046875,0.5387376546859741,-0.17065033316612244,0.3942462205886841
1782969346850748700,8.077748779296876,0.54087895154953,-0.1282002180814743,0.3836742639541626
1782969346860674800,8.0876748046875,0.5863580107688904,-0.035533394664525986,0.3115449547767639
1782969346870602000,8.09760205078125,0.6459587216377258,0.080702044069767,0.16926167905330658
1782969346880528000,8.10752783203125,0.7207352519035339,0.22037258744239807,-0.017877059057354927
1782969346890453800,8.117453857421875,0.8001986742019653,0.41759544610977173,-0.18093004822731018
1782969346900380000,8.1273798828125,0.8988772630691528,0.5967199206352234,-0.26553815603256226
1782969346910306000,8.13730615234375,1.0531238317489624,0.7432079911231995,-0.27652567625045776
1782969346920232700,8.147232666015626,1.2592277526855469,0.8412389755249023,-0.25836077332496643
1782969346930158800,8.157158935546875,1.458800196647644,0.8178530335426331,-0.1528214067220688
1782969346940085000,8.1670849609375,1.662615418434143,0.5665283799171448,0.028843199834227562
1782969346950011000,8.177010986328124,1.877562403678894,0.01594756916165352,0.22797906398773193
1782969346959936800,8.186936767578125,2.044262409210205,-0.7553496360778809,0.4468299448490143
1782969346969864000,8.196864013671876,2.193258047103882,-1.6067298650741577,0.5879753828048706
1782969346979790000,8.2067900390625,2.180784225463867,-2.2871034145355225,0.6359437108039856
1782969346989715700,8.2167158203125,1.7925692796707153,-2.6002860069274902,0.6704639196395874
1782969346999641900,8.226641845703124,1.0558009147644043,-2.387669086456299,0.7024242877960205
1782969347009569000,8.236569091796875,0.23299162089824677,-1.5708155632019043,0.5903105139732361
1782969347019494700,8.24649462890625,-0.5609686374664307,-0.12077685445547104,0.2870030701160431
1782969347029420800,8.2564208984375,-1.1234585046768188,1.5751371383666992,-0.23342987895011902
1782969347039347000,8.266346923828126,-1.3628019094467163,2.9790198802948,-0.7779922485351562
1782969347049272800,8.27627294921875,-1.3501423597335815,3.6691126823425293,-1.1285932064056396
1782969347059199700,8.28619970703125,-1.2325432300567627,3.63844633102417,-1.1614681482315063
1782969347069126000,8.2961259765625,-1.0695008039474487,3.008594274520874,-0.9119763374328613
1782969347079052000,8.306052001953125,-0.9041563272476196,1.983929991722107,-0.4942323565483093
1782969347088978000,8.31597802734375,-0.733883261680603,0.8167514801025391,-0.028111083433032036
1782969347098903800,8.32590380859375,-0.5690644979476929,-0.24129843711853027,0.4089970290660858
1782969347108831000,8.3358310546875,-0.43020889163017273,-1.0048036575317383,0.767634928226471
1782969347118756900,8.3457568359375,-0.3523329794406891,-1.3666197061538696,1.0158445835113525
1782969347128682800,8.355682861328125,-0.36520278453826904,-1.3013889789581299,1.0797696113586426
1782969347138609000,8.36560888671875,-0.4842010736465454,-0.8660992980003357,0.9697188138961792
1782969347148534800,8.37553466796875,-0.6721634268760681,-0.20115633308887482,0.6955223083496094
1782969347158461700,8.385461669921876,-0.891979455947876,0.5013927817344666,0.3196727931499481
1782969347168387800,8.395387939453125,-1.123867392539978,1.1626386642456055,-0.09354937076568604
1782969347178315800,8.405315673828126,-1.3331420421600342,1.7076473236083984,-0.46119582653045654
1782969347188242000,8.415241943359375,-1.4715098142623901,2.045252799987793,-0.7363084554672241
1782969347198167800,8.425167724609375,-1.5300061702728271,2.0962276458740234,-0.9055947065353394
1782969347208094000,8.435093994140624,-1.4822235107421875,1.8703718185424805,-0.9605387449264526
1782969347218019800,8.445019775390625,-1.3875632286071777,1.4216006994247437,-0.8809006810188293
1782969347227946800,8.45494677734375,-1.185729742050171,0.8613418340682983,-0.7234703302383423
1782969347237873000,8.464872802734375,-0.9690706729888916,0.29190388321876526,-0.5151381492614746
1782969347247799000,8.474799072265625,-0.7574132680892944,-0.15656568109989166,-0.2866903245449066
1782969347257724700,8.484724609375,-0.5390723943710327,-0.43871480226516724,-0.06832736730575562
1782969347267650800,8.49465087890625,-0.31115609407424927,-0.604498565196991,0.10057861357927322
1782969347277578000,8.504577880859374,-0.07851086556911469,-0.6575729250907898,0.22888091206550598
1782969347287504000,8.51450390625,0.12097083032131195,-0.6159594058990479,0.3052061200141907
1782969347297429800,8.5244296875,0.27370497584342957,-0.5496360659599304,0.345380961894989
1782969347307356000,8.53435595703125,0.357343465089798,-0.5011182427406311,0.3584989607334137
1782969347317282800,8.54428271484375,0.3583940863609314,-0.4870745837688446,0.3570137023925781
1782969347327208700,8.554208740234374,0.2797667980194092,-0.5154660940170288,0.35116124153137207
1782969347337134800,8.564134765625,0.16264283657073975,-0.5802362561225891,0.3040611147880554
1782969347347061000,8.57406103515625,0.04862993210554123,-0.6553305983543396,0.14885017275810242
1782969347356987000,8.58398681640625,-0.028657929971814156,-0.6355377435684204,-0.13805004954338074
1782969347366913800,8.593913818359376,-0.03866361081600189,-0.5034540891647339,-0.5460115075111389
1782969347376840000,8.60383984375,0.03603965416550636,-0.3088308274745941,-1.0152082443237305
1782969347386766000,8.61376611328125,0.1962805539369583,-0.15591955184936523,-1.4620201587677002
1782969347396691700,8.623691650390626,0.3778916299343109,-0.22146819531917572,-1.7355999946594238
1782969347406617900,8.633617919921875,0.5661323070526123,-0.6275526285171509,-1.7369986772537231
1782969347416545000,8.643544921875,0.7689772844314575,-1.374328851699829,-1.5410352945327759
1782969347426470700,8.653470703125,0.9454191327095032,-2.2744429111480713,-1.165350079536438
1782969347436396800,8.663396728515625,1.0354204177856445,-2.8953397274017334,-0.643467366695404
1782969347446323000,8.673322998046874,0.9260526895523071,-2.8640260696411133,-0.2119014710187912
1782969347456248800,8.683248779296875,0.5701776742935181,-2.073620080947876,-0.057124942541122437
1782969347466175700,8.69317578125,0.03823280334472656,-0.8578715920448303,-0.15123295783996582
1782969347476102000,8.703101806640625,-0.5941646099090576,0.39867278933525085,-0.3498789370059967
1782969347486028000,8.713028076171875,-1.225137710571289,1.5172959566116333,-0.4776570498943329
1782969347495954000,8.722953857421874,-1.7177778482437134,2.419137477874756,-0.4708113968372345
1782969347505879800,8.7328798828125,-1.9456167221069336,2.9358885288238525,-0.4521547853946686
1782969347515807000,8.742806884765624,-1.8942731618881226,3.0519418716430664,-0.4740310609340668
1782969347525732900,8.75273291015625,-1.7009280920028687,2.87542724609375,-0.4543306231498718
1782969347535658800,8.76265869140625,-1.4726043939590454,2.501800775527954,-0.32026922702789307
1782969347545585000,8.7725849609375,-1.2597386837005615,2.0152273178100586,-0.0604376494884491
1782969347555510800,8.7825107421875,-1.0870492458343506,1.5486735105514526,0.2852523624897003
1782969347565437700,8.792437744140624,-0.9373489022254944,1.1565272808074951,0.6391202211380005
1782969347575363800,8.80236376953125,-0.8051522970199585,0.8600232005119324,0.9415062069892883
1782969347585290000,8.8122900390625,-0.6826386451721191,0.6803430914878845,1.1567437648773193
1782969347595216000,8.8222158203125,-0.5717941522598267,0.5962780117988586,1.2848833799362183
1782969347605142800,8.832142822265626,-0.4977544844150543,0.5218995213508606,1.3343405723571777
1782969347615069000,8.84206884765625,-0.43523624539375305,0.39728623628616333,1.3697401285171509
1782969347624994800,8.851994873046875,-0.3414251506328583,0.22914934158325195,1.4128069877624512
1782969347634921000,8.8619208984375,-0.21065115928649902,0.10797736793756485,1.4651809930801392
1782969347644846800,8.871846923828125,-0.06831382215023041,0.11703305691480637,1.5083116292953491
1782969347654774000,8.88177392578125,0.061856698244810104,0.2368212342262268,1.5133005380630493
1782969347664700000,8.891699951171875,0.20985417068004608,0.3967726528644562,1.418267846107483
1782969347674625800,8.901625732421875,0.3534558117389679,0.463357537984848,1.1626524925231934
1782969347684552000,8.911552001953124,0.4953036606311798,0.39882609248161316,0.8193180561065674
1782969347694477800,8.921477783203125,0.6140718460083008,0.25406065583229065,0.5069353580474854
1782969347704404700,8.93140478515625,0.6918675303459167,0.05274954438209534,0.32383012771606445
1782969347714331000,8.941330810546875,0.7355383038520813,-0.10882523655891418,0.30124998092651367
1782969347724256800,8.9512568359375,0.7943224310874939,-0.1903964728116989,0.38368189334869385
1782969347734183000,8.961182861328124,0.8892896771430969,-0.2215740978717804,0.4891377389431
1782969347744108800,8.97110888671875,1.0091825723648071,-0.18812794983386993,0.5263868570327759
1782969347754036000,8.981035888671874,1.1335676908493042,-0.09697168320417404,0.44165629148483276
1782969347763961600,8.990961669921875,1.2514607906341553,-0.002692685229703784,0.2834317684173584
1782969347773887700,9.0008876953125,1.337538719177246,0.06009267270565033,0.0641726404428482
1782969347783813600,9.010813720703124,1.3901262283325195,0.059806060045957565,-0.20554232597351074
1782969347793739500,9.020739501953125,1.3892979621887207,0.026037439703941345,-0.48669835925102234
1782969347803666700,9.030666748046874,1.3486533164978027,0.008931929245591164,-0.7447038292884827
1782969347813592600,9.040592529296875,1.3118804693222046,0.012602297589182854,-0.9651669263839722
1782969347823518500,9.0505185546875,1.3471248149871826,0.018077092245221138,-1.1538728475570679
1782969347833444600,9.060444580078125,1.4747639894485474,-0.06242414191365242,-1.3850717544555664
1782969347843370800,9.070370849609375,1.644219160079956,-0.3087492883205414,-1.7362531423568726
1782969347853297700,9.080297607421874,1.7344608306884766,-0.8594244122505188,-2.0880186557769775
1782969347863223600,9.0902236328125,1.7015050649642944,-1.807419776916504,-2.24422550201416
1782969347873149700,9.100149658203126,1.7291367053985596,-3.072937488555908,-1.8666460514068604
1782969347883075800,9.110075927734375,1.8079235553741455,-3.9841644763946533,-0.8605873584747314
1782969347893002500,9.12000244140625,1.7480738162994385,-3.8699073791503906,0.45245009660720825
1782969347902928600,9.1299287109375,1.4362257719039917,-2.676452875137329,1.345091462135315
1782969347912854800,9.139854736328125,0.7806721329689026,-0.9133251905441284,1.3677312135696411
1782969347922780400,9.149780517578124,0.021835973486304283,0.8662201762199402,0.6795961856842041
1782969347932706600,9.15970654296875,-0.7552611231803894,2.40492844581604,-0.12400443106889725
1782969347942633700,9.1696337890625,-1.3640257120132446,3.5369815826416016,-0.6392202377319336
1782969347952559600,9.1795595703125,-1.7145096063613892,4.108788967132568,-0.7717120051383972
1782969347962485500,9.189485595703125,-1.799862027168274,4.203593730926514,-0.6105269193649292
1782969347972411600,9.19941162109375,-1.6633691787719727,3.9566993713378906,-0.31802693009376526
1782969347982337800,9.209337890625,-1.4205892086029053,3.460679292678833,-0.005948892794549465
1782969347992264400,9.219264404296876,-1.1761908531188965,2.879082441329956,0.2928207814693451
1782969348002190600,9.229190673828125,-0.9879007339477539,2.3430957794189453,0.5719825625419617
1782969348012116700,9.23911669921875,-0.8635263442993164,1.929540753364563,0.7909774780273438
1782969348022042600,9.249042724609374,-0.8052226901054382,1.671897530555725,0.9184641242027283
1782969348031968500,9.258968505859375,-0.8207145929336548,1.5726518630981445,0.969131350517273
1782969348041895700,9.268895751953124,-0.8869110345840454,1.5982592105865479,0.991580069065094
1782969348051821800,9.27882177734375,-0.9806774854660034,1.7105308771133423,0.9783012866973877
1782969348061747500,9.28874755859375,-1.0666053295135498,1.817947268486023,0.927818775177002
1782969348071673600,9.298673583984375,-1.1265029907226562,1.8834182024002075,0.8383479714393616
1782969348081599700,9.308599853515625,-1.1564301252365112,1.904828667640686,0.7173999547958374
1782969348091526400,9.3185263671875,-1.1498700380325317,1.8989102840423584,0.5927429795265198
1782969348101452500,9.32845263671875,-1.1205055713653564,1.8655376434326172,0.4809471070766449
1782969348111378700,9.338378662109376,-1.0739021301269531,1.785123586654663,0.3735641837120056
1782969348121304600,9.3483046875,-1.0286253690719604,1.6793358325958252,0.25037023425102234
1782969348131230700,9.358230712890625,-0.9940117001533508,1.5620862245559692,0.12757958471775055
1782969348141157600,9.36815771484375,-0.9682341814041138,1.4410316944122314,0.03944234177470207
1782969348151083800,9.378083740234375,-0.942061722278595,1.3183739185333252,-0.009307089261710644
1782969348161009700,9.388009765625,-0.9153081178665161,1.1874390840530396,-0.029423542320728302
1782969348170935600,9.397935546875,-0.8758035898208618,1.0343140363693237,-0.010687671601772308
1782969348180862700,9.40786279296875,-0.8364337086677551,0.8952986001968384,0.04185124859213829
1782969348190788600,9.41778857421875,-0.814929723739624,0.8201385736465454,0.10036329925060272
1782969348200714500,9.427714599609375,-0.8014876842498779,0.7984791398048401,0.13134349882602692
1782969348210640600,9.437640625,-0.7957546710968018,0.8244537711143494,0.14389550685882568
1782969348220566500,9.44756640625,-0.7700647115707397,0.8637866973876953,0.15977849066257477
1782969348230493400,9.457493408203124,-0.7099803686141968,0.9047155380249023,0.16764308512210846
1782969348240419600,9.467419677734375,-0.6022462248802185,0.8858917951583862,0.12734262645244598
1782969348250345700,9.477345703125,-0.4543752670288086,0.7433562278747559,0.03901650011539459
1782969348260271600,9.487271728515625,-0.2458767592906952,0.5166366696357727,-0.09060683846473694
1782969348270197500,9.497197509765625,0.008286019787192345,0.2518084943294525,-0.2913607060909271
1782969348280124700,9.507124755859374,0.29016542434692383,-0.07368525117635727,-0.6388769149780273
1782969348290050600,9.517050537109375,0.5590893030166626,-0.5480414032936096,-1.2048332691192627
1782969348299976700,9.526976806640626,0.7838414907455444,-1.2323825359344482,-1.9780219793319702
1782969348309902600,9.536902587890625,0.9970394968986511,-2.2984507083892822,-2.819418430328369
1782969348319828500,9.546828369140625,1.303096055984497,-3.9715769290924072,-3.4859538078308105
1782969348329755600,9.556755615234374,1.791541337966919,-6.121470928192139,-3.588221549987793
1782969348339681500,9.566681640625,2.3995113372802734,-8.121316909790039,-2.9575376510620117
1782969348349607700,9.576607666015626,2.745974540710449,-9.447315216064453,-1.9217091798782349
1782969348359533600,9.586533447265625,2.290574073791504,-9.437342643737793,-0.9923908710479736
1782969348369459700,9.596459716796875,0.9838095307350159,-7.4701619148254395,-0.4855194687843323
1782969348379386600,9.60638671875,-0.28183531761169434,-4.084555149078369,-0.5781700611114502
1782969348389312500,9.6163125,-0.9312082529067993,-0.2861936390399933,-1.1716601848602295
1782969348399238700,9.62623876953125,-0.9224430918693542,3.1148431301116943,-1.9880523681640625
1782969348409164500,9.63616455078125,-0.5547545552253723,5.4610514640808105,-2.6215264797210693
1782969348419091700,9.646091796875,-0.2684492766857147,6.486497402191162,-2.801861524581909
1782969348429017600,9.656017578125,-0.2525278329849243,6.493293762207031,-2.5131399631500244
1782969348438943700,9.66594384765625,-0.4521513283252716,5.794349193572998,-1.9186134338378906
1782969348448869600,9.67586962890625,-0.7145203351974487,4.698830604553223,-1.1825244426727295
1782969348458795500,9.68579541015625,-0.8917587995529175,3.5077545642852783,-0.4463343918323517
1782969348468722700,9.69572265625,-0.9205459952354431,2.4249727725982666,0.16078215837478638
1782969348478648600,9.705648681640625,-0.866484522819519,1.557923674583435,0.5949591398239136
1782969348488574500,9.715574462890626,-0.7972947955131531,0.9808576703071594,0.8730176687240601
1782969348498500600,9.72550048828125,-0.7093402743339539,0.6649543046951294,1.0058189630508423
1782969348508426800,9.7354267578125,-0.601135790348053,0.5648519396781921,1.0338972806930542
1782969348518353700,9.745353759765624,-0.47904837131500244,0.6634107828140259,0.9993494749069214
1782969348528279600,9.755279541015625,-0.3797833025455475,0.9207251071929932,0.9082515835762024
1782969348538205700,9.765205810546876,-0.3208765387535095,1.2766541242599487,0.8153172135353088
1782969348548131600,9.775131591796875,-0.2698916494846344,1.6110036373138428,0.7501797676086426
1782969348558057500,9.785057373046875,-0.17481446266174316,1.8181792497634888,0.7357118725776672
1782969348567984600,9.794984619140624,-0.06344480067491531,1.9041002988815308,0.7924044728279114
1782969348577910800,9.804910888671875,0.05359373614192009,1.870047688484192,0.9435340762138367
1782969348587836400,9.81483642578125,0.186695858836174,1.7334957122802734,1.150164246559143
1782969348597762600,9.824762451171875,0.3219670355319977,1.550041675567627,1.3663185834884644
1782969348607688700,9.834688720703125,0.4230300188064575,1.33949613571167,1.5215317010879517
1782969348617615600,9.84461572265625,0.480657696723938,1.1128650903701782,1.58843994140625
1782969348627541500,9.85454150390625,0.5307949185371399,0.8888424038887024,1.580066442489624
1782969348637467600,9.864467529296874,0.5873867869377136,0.6663042306900024,1.5279980897903442
1782969348647393800,9.874393798828125,0.5318633317947388,0.6044642925262451,1.5383026599884033
1782969348657319400,9.8843193359375,0.5111031532287598,0.8416116237640381,1.4372016191482544
1782969348667246600,9.89424658203125,0.6972314715385437,1.6825215816497803,1.3703045845031738
1782969348677172700,9.9041728515625,0.2572890818119049,1.5588252544403076,1.249593734741211
1782969348687098600,9.9140986328125,0.061154723167419434,1.6882532835006714,1.1597352027893066
1782969348697024500,9.9240244140625,-0.14275291562080383,1.6364831924438477,1.0738377571105957
1782969348706950700,9.93395068359375,-0.18295812606811523,1.2624211311340332,0.7916916012763977
1782969348716877800,9.9438779296875,-0.12151674181222916,0.7345957159996033,0.35527700185775757
1782969348726803500,9.953803466796876,0.09714209288358688,-0.08879959583282471,-0.3806318938732147
1782969348736729600,9.9637294921875,0.4144243896007538,-1.0943665504455566,-1.483744740486145
1782969348746655700,9.97365576171875,0.6136735677719116,-2.1678643226623535,-2.554551124572754
1782969348756581600,9.98358154296875,0.5000007152557373,-2.9776265621185303,-3.0681991577148438
1782969348766508000,9.993508056640625,0.2428419291973114,-3.1123361587524414,-2.5591933727264404
1782969348776434000,10.003433837890626,0.01572953164577484,-2.7074337005615234,-1.5595635175704956
1782969348786360000,10.013360107421875,-0.046346623450517654,-1.3507204055786133,-0.03078814595937729
1782969348796286000,10.023285888671875,0.07310345768928528,-0.09913767874240875,1.2274913787841797
1782969348806212900,10.033212890625,0.1989857703447342,0.3911398649215698,1.8271777629852295
1782969348816139000,10.043138916015625,0.19362382590770721,0.6110532283782959,1.8989107608795166
1782969348826065200,10.053065185546876,0.2197989672422409,0.8499637842178345,1.5853219032287598
1782969348835990800,10.06299072265625,0.24116303026676178,1.0930771827697754,1.1617132425308228
1782969348845917000,10.0729169921875,0.21160459518432617,1.2248594760894775,0.8269551396369934
1782969348855844000,10.082843994140624,0.155690535902977,1.220450758934021,0.6221979260444641
1782969348865770000,10.09277001953125,0.09163405001163483,1.085495948791504,0.534276008605957
1782969348875695900,10.10269580078125,0.04085735231637955,0.8333512544631958,0.5403603315353394
1782969348885622000,10.1126220703125,0.033921681344509125,0.5622294545173645,0.6103513836860657
1782969348895548000,10.1225478515625,0.06442321836948395,0.2884546220302582,0.681907594203949
1782969348905474800,10.132474853515625,0.08542890101671219,0.040040023624897,0.7316221594810486
1782969348915401000,10.14240087890625,0.08718695491552353,-0.1346951723098755,0.7306597232818604
1782969348925327000,10.1523271484375,0.027959583327174187,-0.2035277634859085,0.6378227472305298
1782969348935253000,10.1622529296875,-0.04931635409593582,-0.17877042293548584,0.4714510440826416
1782969348945179000,10.172178955078126,-0.12132210284471512,-0.07267754524946213,0.2334296703338623
1782969348955106000,10.18210595703125,-0.20037853717803955,0.09281094372272491,-0.029878942295908928
1782969348965032200,10.1920322265625,-0.25870975852012634,0.2628697454929352,-0.2665332853794098
1782969348974957800,10.201957763671874,-0.3240876793861389,0.3928868770599365,-0.4297887980937958
1782969348984884000,10.211884033203125,-0.3683832585811615,0.4686250388622284,-0.42888811230659485
1782969348994810000,10.22181005859375,-0.39632028341293335,0.5047672986984253,-0.29843878746032715
1782969349004737000,10.231737060546875,-0.4165789484977722,0.5534221529960632,-0.10720385611057281
1782969349014663000,10.241662841796876,-0.4402185380458832,0.6294171214103699,0.078340545296669
1782969349024589000,10.251589111328125,-0.4875117540359497,0.6520039439201355,0.23170506954193115
1782969349034515000,10.261514892578125,-0.5310131907463074,0.6274749040603638,0.3275741934776306
1782969349044441000,10.271441162109374,-0.5501405000686646,0.5550110936164856,0.3663617968559265
1782969349054368000,10.281367919921875,-0.5185472965240479,0.4276027977466583,0.3755608797073364
1782969349064294100,10.291294189453126,-0.4694751501083374,0.25428029894828796,0.3886803984642029
1782969349074220000,10.301219970703125,-0.43128928542137146,0.07850052416324615,0.45687928795814514
1782969349084146000,10.31114599609375,-0.3914784789085388,-0.020492104813456535,0.5507652759552002
1782969349094072000,10.321072021484374,-0.3554938733577728,-0.031217901036143303,0.6191580295562744
1782969349103999000,10.3309990234375,-0.32980555295944214,-0.00504249008372426,0.6207061409950256
1782969349113924900,10.3409248046875,-0.31551122665405273,0.004908260889351368,0.6035686135292053
1782969349123851000,10.35085107421875,-0.3236381411552429,-0.0425945408642292,0.6211364269256592
1782969349133777000,10.36077685546875,-0.34001806378364563,-0.14814473688602448,0.6095348596572876
1782969349143704000,10.3707041015625,-0.3407331109046936,-0.2933133840560913,0.49670469760894775
1782969349153630000,10.3806298828125,-0.35860952734947205,-0.45357492566108704,0.3323333263397217
1782969349163556000,10.39055615234375,-0.3896079361438751,-0.6436788439750671,0.17211993038654327
1782969349173482000,10.40048193359375,-0.40906772017478943,-0.7755187153816223,0.0004480938659980893
1782969349183408000,10.410408203125,-0.4013890326023102,-0.8363572955131531,-0.2003318816423416
1782969349193335000,10.4203349609375,-0.3523233234882355,-0.8033264875411987,-0.41670680046081543
1782969349203261000,10.430260986328125,-0.28229576349258423,-0.7202710509300232,-0.7038509845733643
1782969349213187000,10.44018701171875,-0.16409283876419067,-0.5246815085411072,-0.9973002076148987
1782969349223113000,10.450113037109375,-0.04620002582669258,-0.3780422806739807,-1.2022819519042969
1782969349233038800,10.460038818359376,0.0023514889180660248,-0.4029928147792816,-1.214858055114746
1782969349242966000,10.469966064453125,-0.0391131266951561,-0.5262215733528137,-0.9750676155090332
1782969349252892000,10.479891845703126,-0.10706303268671036,-0.6565022468566895,-0.5577399730682373
1782969349262818000,10.489818115234375,-0.17351582646369934,-0.7199576497077942,-0.12775558233261108
1782969349272744000,10.499743896484375,-0.22720910608768463,-0.6693297624588013,0.18185952305793762
1782969349282670000,10.509670166015624,-0.20937684178352356,-0.5097123980522156,0.3421868681907654
1782969349292597000,10.519596923828125,-0.13984204828739166,-0.33365944027900696,0.3801306486129761
1782969349302523000,10.52952294921875,-0.05479425564408302,-0.19789521396160126,0.31561559438705444
1782969349312449000,10.539448974609375,0.03330905735492706,-0.09545030444860458,0.18148310482501984
1782969349322375200,10.549375244140625,0.10930714756250381,-0.006252257619053125,-0.010175545699894428
1782969349332300800,10.55930078125,0.14571921527385712,0.04494115337729454,-0.2003827691078186
1782969349342228000,10.56922802734375,0.13668391108512878,0.009106725454330444,-0.33820241689682007
1782969349352154000,10.579154052734374,0.08531704545021057,-0.10793283581733704,-0.3755932152271271
1782969349362080000,10.589080078125,0.013956043869256973,-0.23534271121025085,-0.2969149351119995
1782969349372006000,10.599005859375,-0.03603914752602577,-0.3084242641925812,-0.16976723074913025
1782969349381932000,10.60893212890625,-0.08312756568193436,-0.3124248683452606,-0.049813661724328995
1782969349391859000,10.61885888671875,-0.09617658704519272,-0.2652668058872223,0.027725733816623688
1782969349401784800,10.628784912109374,-0.08951149135828018,-0.20754730701446533,0.10592599958181381
1782969349411711000,10.6387109375,-0.08370202779769897,-0.177012100815773,0.19983090460300446
1782969349421637000,10.64863720703125,-0.06673875451087952,-0.1809794157743454,0.3011218309402466
1782969349431563000,10.65856298828125,-0.030797168612480164,-0.20107772946357727,0.39207154512405396
1782969349441490000,10.668489990234375,-0.0014731006231158972,-0.21655762195587158,0.47858938574790955
1782969349451416000,10.678416015625,0.030708497390151024,-0.2680838704109192,0.6651704907417297
1782969349461342200,10.68834228515625,0.07603709399700165,-0.2687099874019623,0.5847914814949036
1782969349471267800,10.698267822265626,0.11325010657310486,-0.12917742133140564,0.49302375316619873
1782969349481194000,10.708194091796875,0.1140008494257927,-0.012572512961924076,0.3265545964241028
1782969349491121200,10.71812109375,0.11148635298013687,0.12077376246452332,0.22960788011550903
1782969349501046800,10.728046875,0.11408959329128265,0.22131608426570892,0.21976137161254883
1782969349510973000,10.737972900390625,0.1008649468421936,0.2557537853717804,0.26322251558303833
1782969349520899000,10.747899169921874,0.09826570004224777,0.2512514591217041,0.317974716424942
1782969349530825000,10.757824951171875,0.12688101828098297,0.22045135498046875,0.39312997460365295
1782969349540752000,10.767751953125,0.16036280989646912,0.19586238265037537,0.45344844460487366
