time,seconds_elapsed,z,y,x
1782951246067507700,0.0515078125,0.005243497900664806,-0.21987590193748474,0.21166378259658813
1782951246077433600,0.06143359375,0.034090857952833176,-0.21085311472415924,0.24485263228416443
1782951246087360500,0.071360595703125,0.08255133777856827,-0.2054399698972702,0.227402001619339
1782951246097287700,0.08128759765625,0.10417034476995468,-0.19839298725128174,0.17834657430648804
1782951246107214600,0.091214599609375,0.10046801716089249,-0.18535999953746796,0.1342558115720749
1782951246117140500,0.101140380859375,0.08242376893758774,-0.17854097485542297,0.11434654891490936
1782951246127067600,0.111067626953125,0.04951269179582596,-0.19091083109378815,0.0984077975153923
1782951246136994600,0.12099462890625,0.01690601371228695,-0.19909605383872986,0.07225049287080765
1782951246146921700,0.130921630859375,-0.003900199430063367,-0.1653255820274353,0.010464891791343689
1782951246156847600,0.14084765625,-0.005176652688533068,-0.08677803725004196,-0.06846294552087784
1782951246166774800,0.15077490234375,0.006076534744352102,0.029438849538564682,-0.1446296125650406
1782951246176701400,0.160701416015625,0.031980570405721664,0.11586827784776688,-0.1928139328956604
1782951246186628600,0.170628662109375,0.0465531200170517,0.17759528756141663,-0.18896779417991638
1782951246196554800,0.1805546875,0.04351099207997322,0.21205073595046997,-0.11548265069723129
1782951246206481700,0.190481689453125,0.03260241821408272,0.27371010184288025,-0.020439760759472847
1782951246216408800,0.200408935546875,0.032757945358753204,0.21681353449821472,0.07384493201971054
1782951246226335500,0.21033544921875,0.029088908806443214,0.15006352961063385,0.12835051119327545
1782951246236261600,0.22026171875,0.042749859392642975,0.06896335631608963,0.1534191220998764
1782951246246188500,0.2301884765625,0.06510709971189499,-0.015019429847598076,0.19166770577430725
1782951246256115700,0.24011572265625,0.09420666098594666,-0.03257498890161514,0.22273853421211243
1782951246266042600,0.250042724609375,0.12723757326602936,-0.013249225914478302,0.2455674260854721
1782951246275968500,0.259968505859375,0.14744271337985992,0.011318168602883816,0.23306281864643097
1782951246285895700,0.269895751953125,0.1631593555212021,0.0418957844376564,0.17297284305095673
1782951246295822600,0.279822509765625,0.19438226521015167,0.07963810116052628,0.10175511986017227
1782951246305749800,0.289749755859375,0.20892472565174103,0.12035277485847473,0.036504216492176056
1782951246315675600,0.299675537109375,0.20729966461658478,0.1325596421957016,-0.017475929111242294
1782951246325602600,0.3096025390625,0.17784643173217773,0.12058473378419876,-0.07532192021608353
1782951246335529500,0.319529541015625,0.13791632652282715,0.11788615584373474,-0.12701253592967987
1782951246345456600,0.32945654296875,0.14409218728542328,0.07326808571815491,-0.1526864767074585
1782951246355382800,0.3393828125,0.16783507168293,0.02713095396757126,-0.1459558755159378
1782951246365309700,0.349309814453125,0.1589217334985733,0.0010245180455967784,-0.09881392866373062
1782951246375236900,0.35923681640625,0.13074763119220734,-0.014851383864879608,-0.023007581010460854
1782951246385163500,0.36916357421875,0.0972762182354927,-0.07474055141210556,0.06946908682584763
1782951246395089700,0.379089599609375,0.058153316378593445,-0.09365298599004745,0.1520065814256668
1782951246405016600,0.3890166015625,0.021934326738119125,-0.07094421237707138,0.20416618883609772
1782951246414943700,0.39894384765625,-0.02016465738415718,-0.03251000493764877,0.21210266649723053
1782951246424870700,0.40887060546875,-0.04993560165166855,0.0029822078067809343,0.18570461869239807
1782951246434796500,0.418796630859375,-0.057439856231212616,0.03797214850783348,0.14319923520088196
1782951246444723700,0.4287236328125,-0.06855296343564987,0.07335463911294937,0.10277138650417328
1782951246454650600,0.438650634765625,-0.07430192828178406,0.08716659247875214,0.06797079741954803
1782951246464577800,0.448577880859375,-0.06697770208120346,0.07324705272912979,0.04657016322016716
1782951246474503400,0.45850341796875,-0.054134342819452286,0.04496880620718002,0.04402977600693703
1782951246484430600,0.4684306640625,-0.03172384202480316,0.011833756230771542,0.05740177258849144
1782951246494357500,0.478357421875,-0.007366303354501724,-0.023266706615686417,0.0812719538807869
1782951246504283600,0.48828369140625,0.010869159363210201,-0.04572727531194687,0.10207763314247131
1782951246514210800,0.4982109375,-0.0014325142838060856,-0.04743622615933418,0.10431016236543655
1782951246524137700,0.5081376953125,-0.06432439386844635,-0.03995966538786888,0.08798018842935562
1782951246534064600,0.518064697265625,-0.11916393786668777,-0.005803294479846954,0.0685657411813736
1782951246543990500,0.527990478515625,-0.15615178644657135,0.02804601565003395,0.06884830445051193
1782951246553917700,0.537917724609375,-0.1488640457391739,0.0342935249209404,0.05483288690447807
1782951246563844600,0.5478447265625,-0.12031442672014236,0.028991438448429108,0.06138665974140167
1782951246573771800,0.557771728515625,-0.0934671014547348,0.02401904948055744,0.08415882289409637
1782951246583697700,0.56769775390625,-0.09287641197443008,0.009166333824396133,0.10007759928703308
1782951246593624600,0.57762451171875,-0.038550589233636856,-0.08889365196228027,0.09701602905988693
1782951246603551700,0.5875517578125,-0.005918875336647034,-0.15777817368507385,0.08851628005504608
1782951246613478700,0.597478759765625,-0.021617144346237183,-0.08413857966661453,0.0855250209569931
1782951246623404800,0.60740478515625,-0.03874180465936661,0.021252557635307312,0.08430875837802887
1782951246633331500,0.61733154296875,-0.022845927625894547,0.008547415025532246,0.08891096711158752
1782951246643258600,0.627258544921875,0.007113036699593067,-0.03600300848484039,0.09316855669021606
1782951246653185500,0.637185546875,0.009815346449613571,-0.03490046039223671,0.10050050914287567
1782951246663111700,0.647111572265625,0.005738845560699701,-0.0035683694295585155,0.10080836713314056
1782951246673038800,0.657038818359375,0.016815464943647385,0.032513733953237534,0.08430901914834976
1782951246682965500,0.666965576171875,0.020772390067577362,0.05573996156454086,0.05829473212361336
1782951246692892700,0.676892578125,0.013226589187979698,0.05873681604862213,0.030731547623872757
1782951246702818600,0.686818603515625,0.0014879080699756742,0.06404556334018707,0.0022652847692370415
1782951246712745700,0.696745849609375,-0.009363940916955471,0.08123147487640381,-0.022365760058164597
1782951246722672600,0.706672607421875,-0.003620833856984973,0.08776074647903442,-0.020562799647450447
1782951246732599800,0.716599853515625,0.013846307061612606,0.07937072217464447,-0.010903247632086277
1782951246742525700,0.726525634765625,0.019335081800818443,0.06295526027679443,-0.0062368568032979965
1782951246752452900,0.736452880859375,0.013085441663861275,0.0356336273252964,0.004724713973701
1782951246762379800,0.7463798828125,-0.012576245702803135,0.012151737697422504,0.013950969092547894
1782951246772307000,0.756306884765625,-0.013130982406437397,0.00657507823780179,0.02665264904499054
1782951246782233000,0.766233154296875,-0.008188953623175621,0.015856461599469185,0.04079163819551468
1782951246792160000,0.776159912109375,-0.011548797599971294,0.026570091024041176,0.044488903135061264
1782951246802087200,0.786087158203125,-0.021527130156755447,0.04486494138836861,0.03682459518313408
1782951246812013800,0.796013916015625,-0.0149800144135952,0.08209593594074249,0.013601296581327915
1782951246821940000,0.80593994140625,-0.007928763516247272,0.10446568578481674,-0.01817847043275833
1782951246831867000,0.815866943359375,-0.006963633466511965,0.10260707139968872,-0.05776955559849739
1782951246841794000,0.8257939453125,-0.010585266165435314,0.08969393372535706,-0.09869541972875595
1782951246851721000,0.835720947265625,0.0014857775531709194,0.08601104468107224,-0.12856356799602509
1782951246861646800,0.845646728515625,0.0170932337641716,0.0876382365822792,-0.14566931128501892
1782951246871574000,0.855573974609375,0.02304673008620739,0.0766202062368393,-0.14765895903110504
1782951246881501000,0.8655009765625,0.017356885597109795,0.06843258440494537,-0.13316790759563446
1782951246891427000,0.875427001953125,0.005087170284241438,0.06985471397638321,-0.11288554221391678
1782951246901354000,0.88535400390625,-0.011504855938255787,0.08491116017103195,-0.10210400074720383
1782951246911281000,0.895281005859375,-0.032828252762556076,0.09809407591819763,-0.10822553932666779
1782951246921207800,0.905207763671875,-0.029810359701514244,0.11376331746578217,-0.11722835898399353
1782951246931134000,0.915134033203125,0.0004961469094268978,0.13056546449661255,-0.11235050857067108
1782951246941061000,0.92506103515625,0.0056986319832503796,0.1259874850511551,-0.10268323868513107
1782951246950988000,0.934988037109375,-0.005514075048267841,0.11046791821718216,-0.0889623612165451
1782951246960915000,0.9449150390625,-0.0072901370003819466,0.09589723497629166,-0.06860356032848358
1782951246970840800,0.9548408203125,-0.008972189389169216,0.08856502175331116,-0.06426207721233368
1782951246980768000,0.96476806640625,-0.010041449218988419,0.0797978937625885,-0.08398038893938065
1782951246990695000,0.97469482421875,-0.009591640904545784,0.08409517258405685,-0.12219089269638062
1782951247000622000,0.9846220703125,-0.011268367059528828,0.09985868632793427,-0.14839452505111694
1782951247010548000,0.9945478515625,-0.011084342375397682,0.11013635993003845,-0.16032522916793823
1782951247020475000,1.004474853515625,-0.00890960544347763,0.11961588263511658,-0.14436383545398712
1782951247030402000,1.014402099609375,-0.008055529557168484,0.11260590702295303,-0.10345448553562164
1782951247040329000,1.024328857421875,-0.010824152268469334,0.1174672394990921,-0.05856158211827278
1782951247050255000,1.034255126953125,-0.007150853984057903,0.11188045889139175,-0.018744392320513725
1782951247060181800,1.044181640625,-0.009593505412340164,0.10230293869972229,0.00040666470886208117
1782951247070109000,1.05410888671875,-0.01065264455974102,0.08481555432081223,-0.0025957829784601927
1782951247080035800,1.064035888671875,-0.016336895525455475,0.06881528347730637,-0.021630194038152695
1782951247089962000,1.0739619140625,-0.018805379047989845,0.06615984439849854,-0.04350673034787178
1782951247099889200,1.08388916015625,-0.012191418558359146,0.062057510018348694,-0.05904947221279144
1782951247109816000,1.093816162109375,-0.01067767757922411,0.06802698969841003,-0.05880126357078552
1782951247119743000,1.103742919921875,-0.008229168131947517,0.06992528587579727,-0.05097929388284683
1782951247129668900,1.1136689453125,-0.0004647216119337827,0.06780381500720978,-0.03803446888923645
1782951247139596000,1.123595947265625,0.011491806246340275,0.053769223392009735,-0.020246149972081184
1782951247149523000,1.13352294921875,0.02058144100010395,0.03265594691038132,0.004384362138807774
1782951247159448800,1.14344873046875,0.02040806971490383,0.014521151781082153,0.017839450389146805
1782951247169376000,1.1533759765625,0.010319216176867485,0.008757805451750755,0.024335166439414024
1782951247179303000,1.163302978515625,0.006453638430684805,0.009545568376779556,0.032821062952280045
1782951247189230000,1.17322998046875,-0.008297078311443329,0.019580092281103134,0.03678491339087486
1782951247199156000,1.183156005859375,-0.015396798960864544,0.028267856687307358,0.03531032055616379
1782951247209083100,1.193083251953125,-0.01581811159849167,0.023077622056007385,0.021448301151394844
1782951247219009800,1.203009765625,-0.01095597818493843,0.014220480807125568,-0.00447011599317193
1782951247228937000,1.21293701171875,-0.008476309478282928,0.001645300886593759,-0.029147498309612274
1782951247238863000,1.222863037109375,-0.0012887036427855492,0.001463406952098012,-0.04465268924832344
1782951247248790000,1.2327900390625,0.003512975759804249,0.023493874818086624,-0.0407535545527935
1782951247258717200,1.24271728515625,0.009722935035824776,0.041550107300281525,-0.030830083414912224
1782951247268643800,1.252643798828125,0.014729144982993603,0.04848524555563927,-0.008551144041121006
1782951247278570000,1.262570068359375,0.015933692455291748,0.05054812878370285,0.02906707115471363
1782951247288497000,1.272496826171875,0.01414537988603115,0.05353193357586861,0.07004353404045105
1782951247298424000,1.282424072265625,0.012078233994543552,0.04717976227402687,0.09814707189798355
1782951247308351000,1.29235107421875,0.006442452780902386,0.028858013451099396,0.09516645967960358
1782951247318276900,1.30227685546875,0.005850166082382202,0.01341460831463337,0.0701223611831665
1782951247328204000,1.3122041015625,0.0029116340447217226,0.012111790478229523,0.029264144599437714
1782951247338131000,1.322130859375,0.0031406658235937357,0.022371085360646248,-0.01218822319060564
1782951247348058000,1.33205810546875,0.0044205812737345695,0.03814738616347313,-0.03374331444501877
1782951247357984000,1.34198388671875,0.011079016141593456,0.05765237659215927,-0.033911626785993576
1782951247367911000,1.351910888671875,0.017286844551563263,0.07698825746774673,-0.007315170951187611
1782951247377837800,1.361837890625,0.02340678870677948,0.08497267961502075,0.024645958095788956
1782951247387764000,1.371763916015625,0.022581208497285843,0.07208697497844696,0.051849614828825
1782951247397691100,1.381691162109375,0.02251569554209709,0.052917011082172394,0.07028401643037796
1782951247407618000,1.3916181640625,0.021315408870577812,0.042326152324676514,0.08273030072450638
1782951247417545000,1.401544921875,0.015443138778209686,0.03936152160167694,0.0796373039484024
1782951247427470800,1.411470947265625,0.012537362985312939,0.02895069122314453,0.06207908317446709
1782951247437398000,1.42139794921875,0.011714979074895382,0.024947160854935646,0.04438743740320206
1782951247447325000,1.431324951171875,0.008840896189212799,0.0243130624294281,0.02858397364616394
1782951247457252000,1.441252197265625,0.006698382552713156,0.01894759200513363,0.012229768559336662
1782951247467178000,1.451177978515625,0.002663427498191595,0.014158429577946663,0.000871652620844543
1782951247477105000,1.46110498046875,0.0016708672046661377,0.006352704484015703,-0.010776481591165066
1782951247487032000,1.471031982421875,0.0029225528705865145,0.006445382256060839,-0.01979980431497097
1782951247496959000,1.480958984375,-0.00003941478280466981,0.011118697002530098,-0.023918915539979935
1782951247506885000,1.490885009765625,0.0028716865926980972,0.033553965389728546,-0.0156133146956563
1782951247516811800,1.500811767578125,0.004926581867039204,0.047979775816202164,-0.004472779110074043
1782951247526739000,1.510739013671875,0.0020634171087294817,0.04843970388174057,0.004863198380917311
1782951247536665900,1.520665771484375,0.00016218650853261352,0.031216243281960487,0.016232233494520187
1782951247546592000,1.530592041015625,-0.00549276964738965,0.01155625469982624,0.019722837954759598
1782951247556519000,1.540518798828125,-0.009788980707526207,-0.00004660531703848392,0.02202833630144596
1782951247566446000,1.550446044921875,-0.01607244275510311,0.0019214707426726818,0.020359067246317863
1782951247576372700,1.560372802734375,-0.009138370864093304,0.003353186184540391,0.015452193096280098
1782951247586299000,1.570298828125,-0.007589476183056831,0.002019208623096347,0.0178181454539299
1782951247596226000,1.58022607421875,-0.009832923300564289,-0.009298959746956825,0.01679149642586708
1782951247606153000,1.590153076171875,-0.003882622579112649,-0.019839750602841377,0.008771120570600033
1782951247616078800,1.600078857421875,-0.0013648699969053268,-0.01846529357135296,-0.004938033409416676
1782951247626005800,1.610005859375,-0.0033955303952097893,0.009327721782028675,-0.017909225076436996
1782951247635933000,1.619932861328125,-0.00729466462507844,0.03593669459223747,-0.018331335857510567
1782951247645859800,1.62985986328125,-0.0146476523950696,0.05308292433619499,-0.012937636114656925
1782951247655786000,1.639785888671875,-0.012532036751508713,0.045529935508966446,-0.010469418950378895
1782951247665713200,1.649713134765625,-0.0006894923863001168,0.02527020312845707,0.0008394283941015601
1782951247675639800,1.659639892578125,0.009494967758655548,0.004456267226487398,0.0127584058791399
1782951247685567000,1.66956689453125,0.02154683694243431,-0.013652961701154709,0.028059065341949463
1782951247695492900,1.679492919921875,0.02598472870886326,-0.017179518938064575,0.038420092314481735
1782951247705420000,1.689419921875,0.024532506242394447,-0.021922342479228973,0.03779744729399681
1782951247715347000,1.699346923828125,0.025501364842057228,-0.017522800713777542,0.03008093684911728
1782951247725273900,1.70927392578125,0.02287176065146923,-0.009642506949603558,0.01775822415947914
1782951247735200000,1.719199951171875,0.0224967859685421,-0.0016562198288738728,0.009229717776179314
1782951247745127000,1.729126953125,0.021092502400279045,0.003184075467288494,0.015595205128192902
1782951247755053600,1.739053466796875,0.01649375632405281,0.0029936593491584063,0.03196272626519203
1782951247764980500,1.74898046875,0.014147510752081871,0.000030892668291926384,0.05284404009580612
1782951247774906600,1.75890673828125,0.012239355593919754,-0.005022721830755472,0.07761942595243454
1782951247784833800,1.768833740234375,0.0067726848646998405,-0.008298410102725029,0.08116036653518677
1782951247794760700,1.7787607421875,0.0034525219816714525,-0.005539374891668558,0.0651683509349823
1782951247804687600,1.7886875,0.0034194989129900932,-0.003135872073471546,0.03473987057805061
1782951247814613500,1.798613525390625,0.004367051646113396,0.002810966456308961,-0.002514823107048869
1782951247824540700,1.808540771484375,0.013323795050382614,0.0008295746520161629,-0.02575037069618702
1782951247834467600,1.818467529296875,0.015517973341047764,-0.004738296382129192,-0.033974479883909225
1782951247844394800,1.828394775390625,0.013333115726709366,-0.0027899276465177536,-0.02527153491973877
1782951247854320600,1.838320556640625,0.008831041865050793,-0.003409645054489374,-0.011550928466022015
1782951247864247600,1.84824755859375,-0.0010074737947434187,-0.004296211525797844,0.0044203149154782295
1782951247874174700,1.8581748046875,-0.006880542729049921,-0.001916144392453134,0.016717461869120598
1782951247884100600,1.8681005859375,-0.015394402667880058,0.0018410432385280728,0.01980406418442726
1782951247894027500,1.878027587890625,-0.010782340541481972,0.0004410194815136492,0.013570403680205345
1782951247903954400,1.887954345703125,0.01002200786024332,-0.003787015099078417,0.0038242992013692856
1782951247913881600,1.897881591796875,0.022308234125375748,0.001085770782083273,0.009887784719467163
1782951247923807700,1.907807861328125,0.02516207844018936,0.00866113230586052,0.020325778052210808
1782951247933734700,1.917734619140625,0.021650167182087898,0.009034507907927036,0.02015267312526703
1782951247943661600,1.92766162109375,0.023488814011216164,0.0057066213339567184,-0.0003201119543518871
1782951247953588500,1.93758837890625,0.01743997633457184,0.006012352649122477,-0.016169914975762367
1782951247963514600,1.9475146484375,0.012289157137274742,0.03484080359339714,-0.02371997758746147
1782951247973441500,1.957441650390625,0.008189752697944641,0.0322096012532711,-0.028622323647141457
1782951247983368700,1.96736865234375,0.00945289060473442,0.00034194986801594496,-0.019028285518288612
1782951247993295600,1.977295654296875,0.01588761992752552,-0.03646879643201828,-0.00675377668812871
1782951248003221500,1.987221435546875,0.028063058853149414,-0.07361270487308502,-0.002088983543217182
1782951248013148700,1.997148681640625,0.034568894654512405,-0.08784916251897812,-0.0021872541401535273
1782951248023075600,2.00707568359375,0.02797277830541134,-0.07493709027767181,-0.011266502551734447
1782951248033002500,2.01700244140625,0.020363328978419304,-0.0397719144821167,-0.01840723678469658
1782951248042928600,2.0269287109375,0.020482372492551804,0.018665296956896782,-0.01942642778158188
1782951248052855600,2.03685546875,0.011353588663041592,0.05012761428952217,-0.01575685851275921
1782951248062782500,2.046782470703125,0.00013768543431069702,0.048280980437994,-0.0044144559651613235
1782951248072708600,2.05670849609375,-0.005241633392870426,0.031376298516988754,0.001853826455771923
1782951248082635500,2.066635498046875,-0.008349276147782803,0.012811935506761074,0.006010221783071756
1782951248092562700,2.076562744140625,-0.006419816054403782,0.0016058861510828137,0.008921323344111443
1782951248102489300,2.0864892578125,-0.0001752359967213124,-0.004421912599354982,0.010538660921156406
1782951248112415500,2.09641552734375,0.005291967187076807,-0.004293548408895731,0.003995540551841259
1782951248122342700,2.1063427734375,0.008926915936172009,-0.0038397456519305706,-0.006968161091208458
1782951248132269600,2.11626953125,0.013361078687012196,-0.013850834220647812,-0.021742846816778183
1782951248142196700,2.12619677734375,0.021212344989180565,-0.017973408102989197,-0.0322391614317894
1782951248152122600,2.13612255859375,0.02816931903362274,-0.010500311851501465,-0.024937307462096214
1782951248162049500,2.146049560546875,0.025050757452845573,-0.008654474280774593,-0.01955718919634819
1782951248171976400,2.1559765625,0.02370373159646988,0.0038948729634284973,-0.0038748993538320065
1782951248181903600,2.165903564453125,0.02002936787903309,0.02479775808751583,0.007049920037388802
1782951248191829800,2.175829833984375,0.01601225510239601,0.03622698038816452,0.020911939442157745
1782951248201756400,2.18575634765625,0.01335921511054039,0.03056216984987259,0.03086017817258835
1782951248211683600,2.19568359375,0.009737848304212093,0.0139568280428648,0.029518477618694305
1782951248221610500,2.205610595703125,0.013112606480717659,-0.02081526629626751,0.018573418259620667
1782951248231536600,2.21553662109375,0.01948794722557068,-0.04748496040701866,0.0008636631537228823
1782951248241463600,2.225463623046875,0.025601500645279884,-0.05800631269812584,-0.02082938142120838
1782951248251390700,2.235390625,0.03483494743704796,-0.048276450484991074,-0.03184821084141731
1782951248261316600,2.245316650390625,0.033778201788663864,-0.021767346188426018,-0.033598173409700394
1782951248271243500,2.255243408203125,0.02965456433594227,0.003885552054271102,-0.03008120320737362
1782951248281170700,2.265170654296875,0.022398250177502632,0.024353010579943657,-0.01787673495709896
1782951248291097600,2.27509765625,0.016758473590016365,0.0314474031329155,-0.002064482541754842
1782951248301023500,2.2850234375,0.016088156029582024,0.028856148943305016,0.023095998913049698
1782951248310950400,2.294950439453125,0.014494254253804684,0.02172739990055561,0.043287552893161774
1782951248320877600,2.304877685546875,0.007187339011579752,0.004993427079170942,0.044743504375219345
1782951248330804500,2.314804443359375,0.0013342436868697405,-0.012601546011865139,0.02713068760931492
1782951248340730600,2.324730712890625,-0.0001257012045243755,-0.01810443587601185,-0.007674165070056915
1782951248350657800,2.33465771484375,0.00016484966909047216,-0.017139306291937828,-0.03953702375292778
1782951248360584400,2.34458447265625,0.009760751388967037,-0.012354936450719833,-0.06469537317752838
1782951248370511600,2.35451171875,0.018442390486598015,-0.0040914141573011875,-0.08423525094985962
1782951248380437500,2.3644375,0.020609671249985695,0.012791695073246956,-0.08909578621387482
1782951248390364700,2.37436474609375,0.023025158792734146,0.020860806107521057,-0.06953327357769012
1782951248400291600,2.38429150390625,0.019512448459863663,0.015853265300393105,-0.03458087891340256
1782951248410218500,2.394218505859375,0.011317103169858456,-0.007419033907353878,0.0022272015921771526
1782951248420144600,2.40414453125,0.006554571911692619,-0.014215420931577682,0.028267856687307358
1782951248430071600,2.414071533203125,0.014460698701441288,-0.008281365968286991,0.03829439356923103
1782951248439998700,2.423998779296875,0.017115337774157524,0.014402374625205994,0.04225610941648483
1782951248449924600,2.433924560546875,0.01732812449336052,0.04554058611392975,0.04253014922142029
1782951248459851500,2.4438515625,0.022128738462924957,0.06635744869709015,0.025713352486491203
1782951248469778400,2.4537783203125,0.025043567642569542,0.07359112799167633,-0.0070890686474740505
1782951248479705600,2.46370556640625,0.017960624769330025,0.09166254103183746,-0.048468198627233505
1782951248489631700,2.4736318359375,0.02690112218260765,0.10343371331691742,-0.07201586663722992
1782951248499558700,2.48355859375,0.043672114610672,0.12178449332714081,-0.07708492875099182
1782951248509485600,2.493485595703125,0.04674353823065758,0.13827452063560486,-0.050091929733753204
1782951248519412500,2.50341259765625,0.05228397622704506,0.14669384062290192,0.00017070861940737814
1782951248529338600,2.513338623046875,0.006896255537867546,0.060389574617147446,0.0211793202906847
1782951248539265500,2.523265625,-0.031992021948099136,-0.023974042385816574,0.039075762033462524
1782951248549192700,2.533192626953125,0.018743593245744705,0.06076215207576752,0.07258924841880798
1782951248559119600,2.54311962890625,0.02298041619360447,-0.06077173724770546,0.039986830204725266
1782951248569045500,2.55304541015625,0.021152690052986145,-0.08698602765798569,0.032996032387018204
1782951248578972700,2.56297265625,0.028296886011958122,0.011691543273627758,0.040218524634838104
1782951248588899600,2.572899658203125,0.029987193644046783,0.03996046632528305,0.03458673879504204
1782951248598826800,2.58282666015625,0.02869822457432747,0.04817871376872063,0.029626069590449333
1782951248608752400,2.59275244140625,0.024038756266236305,0.03771275654435158,0.047333694994449615
1782951248618679600,2.602679443359375,0.02912539429962635,-0.0008591357618570328,0.07830572128295898
1782951248628606500,2.6126064453125,0.039021968841552734,-0.03573189675807953,0.10451468825340271
1782951248638532600,2.62253271484375,0.04832359030842781,-0.05567364767193794,0.11081147193908691
1782951248648459800,2.632459716796875,0.039323437958955765,-0.0745709091424942,0.08378730714321136
1782951248658386700,2.64238671875,0.0329105444252491,-0.07509981095790863,0.04387424886226654
1782951248668313600,2.652313720703125,0.029818082228302956,-0.033297501504421234,0.015304387547075748
1782951248678239500,2.662239501953125,0.029880667105317116,0.003973436541855335,-0.00041252365917898715
1782951248688166700,2.672166748046875,0.03293078392744064,0.018278073519468307,0.012479572556912899
1782951248698093600,2.682093505859375,0.03056376799941063,0.018184063956141472,0.04658907279372215
1782951248708020700,2.692020751953125,0.022221149876713753,0.010063819587230682,0.08506695926189423
1782951248717946600,2.701946533203125,0.012284895405173302,0.004245345015078783,0.1138506680727005
1782951248727873500,2.71187353515625,0.0009390306076966226,0.003207511268556118,0.11228632926940918
1782951248737800700,2.72180078125,-0.004291151650249958,0.005432049743831158,0.08713250607252121
1782951248747727600,2.7317275390625,-0.004800347611308098,0.017789382487535477,0.05549068748950958
1782951248757653500,2.741653564453125,-0.003078347770497203,0.023997478187084198,0.0268276184797287
1782951248767580400,2.751580322265625,-0.009749033488333225,0.01745062880218029,0.012115252204239368
1782951248777507600,2.761507568359375,-0.011491273529827595,-0.010912834666669369,0.0050099384970963
1782951248787433700,2.771433837890625,-0.011189271695911884,-0.02129330486059189,0.013322729617357254
1782951248797360600,2.781360595703125,-0.0137240681797266,-0.01612384244799614,0.010574880056083202
1782951248807287800,2.791287841796875,-0.008667523972690105,-0.016988836228847504,0.004512193612754345
1782951248817214500,2.80121435546875,-0.00669412175193429,-0.00890987180173397,0.007791876792907715
1782951248827140600,2.811140625,-0.007754592224955559,0.008984706364572048,0.018073808401823044
1782951248837067500,2.821067626953125,-0.009430785663425922,0.01816435717046261,0.024510668590664864
1782951248846994700,2.83099462890625,-0.011206315830349922,0.016982711851596832,0.02522439695894718
1782951248856921600,2.840921630859375,-0.007959389127790928,0.007880293764173985,0.008651278913021088
1782951248866847500,2.850847412109375,0.004205930046737194,-0.01028379611670971,-0.021383319050073624
1782951248876774700,2.860774658203125,0.011240670457482338,-0.0181137565523386,-0.06546316295862198
1782951248886701600,2.87070166015625,0.02822524681687355,-0.03260082006454468,-0.11892132461071014
1782951248896628700,2.880628662109375,0.039624907076358795,-0.07201720029115677,-0.17311185598373413
1782951248906554600,2.8905546875,0.037216875702142715,-0.09475793689489365,-0.2114773541688919
1782951248916481500,2.9004814453125,0.03045058436691761,-0.0951470211148262,-0.20421358942985535
1782951248926408400,2.910408447265625,0.016396816819906235,-0.06443305313587189,-0.1366012543439865
1782951248936335600,2.920335693359375,-0.005887450184673071,-0.0015819176333025098,-0.021620340645313263
1782951248946261800,2.93026171875,-0.018129469826817513,0.06408018618822098,0.08877194672822952
1782951248956188700,2.940188720703125,-0.012593822553753853,0.10217563807964325,0.15349528193473816
1782951248966115600,2.950115478515625,0.007497331127524376,0.1144714504480362,0.16762255132198334
1782951248976041500,2.96004150390625,0.02532479725778103,0.11122878640890121,0.14240428805351257
1782951248985968600,2.96996875,0.03459925577044487,0.09575102478265762,0.10927296429872513
1782951248995895600,2.9798955078125,0.04062545672059059,0.045338984578847885,0.0798325166106224
1782951249005822700,2.98982275390625,0.03940945863723755,-0.000559530162718147,0.07306888699531555
1782951249015748600,2.99974853515625,0.02984311617910862,-0.025411084294319153,0.07246354967355728
1782951249025675500,3.009675537109375,0.023863520473241806,-0.030786674469709396,0.06514465063810349
1782951249035602700,3.019602783203125,0.017242636531591415,-0.033008016645908356,0.044011667370796204
1782951249045529600,3.029529541015625,0.01569667086005211,-0.018569422885775566,0.015469237230718136
1782951249055455700,3.039455810546875,0.01146597322076559,0.015393869951367378,-0.0035396073944866657
1782951249065382400,3.04938232421875,0.008946090936660767,0.048105478286743164,-0.008326905779540539
1782951249075309600,3.0593095703125,0.005507949739694595,0.0521036796271801,-0.006364688742905855
1782951249085236500,3.069236572265625,0.003153981640934944,0.012857741676270962,-0.0018461032304912806
1782951249095162600,3.07916259765625,0.004935103934258223,-0.009605756029486656,0.013378123752772808
1782951249105089800,3.08908984375,0.005142830312252045,-0.0015544871566817164,0.023798540234565735
1782951249115016700,3.0990166015625,0.010028932243585587,0.009331982582807541,0.020425112918019295
1782951249124942600,3.108942626953125,0.004577174782752991,-0.001838912721723318,0.0157075896859169
1782951249134869500,3.118869384765625,0.008256065659224987,-0.0011440940434113145,0.017976870760321617
1782951249144796700,3.128796630859375,0.007472297176718712,0.022215289995074272,0.03942996263504028
1782951249154723600,3.1387236328125,0.008069378323853016,0.04211842641234398,0.06077253818511963
1782951249164649500,3.1486494140625,0.004847219679504633,0.03502456098794937,0.07418768107891083
1782951249174576600,3.15857666015625,0.00563950976356864,0.0189001876860857,0.06328310072422028
1782951249184503600,3.168503662109375,0.0018402442801743746,0.006235259119421244,0.03393746167421341
1782951249194430500,3.178430419921875,-0.003727093804627657,0.010555172339081764,0.00606508320197463
1782951249204356600,3.188356689453125,-0.006996390409767628,0.027822310104966164,-0.009310677647590637
1782951249214283800,3.19828369140625,-0.014675348997116089,0.02883324585855007,-0.013848704285919666
1782951249224210400,3.20821044921875,-0.015616243705153465,0.010435597039759159,-0.02268773503601551
1782951249234137600,3.2181376953125,-0.007156446576118469,-0.0037982002831995487,-0.040222253650426865
1782951249244063500,3.2280634765625,0.0008173241512849927,-0.0394776351749897,-0.056956492364406586
1782951249253990700,3.23799072265625,0.009270995855331421,-0.05781695991754532,-0.03729517385363579
1782951249263917600,3.24791748046875,0.005570534151047468,-0.027155987918376923,0.01901976391673088
1782951249273843500,3.257843505859375,-0.006009423173964024,-0.0029939257074147463,0.06357631087303162
1782951249283770600,3.2677705078125,-0.005154281854629517,0.008009457029402256,0.08689921349287033
1782951249293697500,3.277697509765625,0.0007507451227866113,0.005845105741173029,0.10469844937324524
1782951249303624700,3.287624755859375,0.008786567486822605,0.02887638844549656,0.11907339096069336
1782951249313550600,3.297550537109375,0.009498963132500648,0.06385248154401779,0.1290149688720703
1782951249323477500,3.3074775390625,0.01703118160367012,0.07461485266685486,0.12113840878009796
1782951249333404400,3.317404296875,0.015483885072171688,0.07256314903497696,0.09872604161500931
1782951249343331600,3.32733154296875,0.009260077029466629,0.06368470191955566,0.06658009439706802
1782951249353257700,3.3372578125,0.006045641843229532,0.03377660736441612,0.031625036150217056
1782951249363184600,3.3471845703125,0.004477039910852909,0.012826316058635712,0.012988769449293613
1782951249373111600,3.357111572265625,0.001187237212434411,0.011402057483792305,0.006806773599237204
1782951249383038500,3.36703857421875,0.00021598236344289035,0.0003462109307292849,0.0024852619972079992
1782951249392964600,3.376964599609375,0.0021859225817024708,-0.020373448729515076,-0.005080245900899172
1782951249402891500,3.3868916015625,0.006102900020778179,-0.024175111204385757,-0.010937868617475033
1782951249412818700,3.396818603515625,0.003984355367720127,-0.01955346204340458,-0.014330470003187656
1782951249422745600,3.40674560546875,0.003900465788319707,-0.004168113227933645,-0.009692042134702206
1782951249432671500,3.41667138671875,-0.002223206916823983,0.00797137338668108,-0.002013349672779441
1782951249442598700,3.4265986328125,0.0012093414552509785,0.01895371824502945,-0.004559331573545933
1782951249452525600,3.436525634765625,0.0007651261985301971,0.026039589196443558,-0.006385195069015026
1782951249462451700,3.44645166015625,0.0021960425656288862,0.015594406053423882,-0.00842917151749134
1782951249472378400,3.45637841796875,0.0031470574904233217,0.0022011026740074158,-0.003419232554733753
1782951249482305500,3.466305419921875,0.003041330026462674,0.009045160375535488,0.012753346003592014
1782951249492232400,3.476232421875,0.0014048174489289522,0.014781076461076736,0.031796012073755264
1782951249502158600,3.48615869140625,-0.00384374032728374,0.012337093241512775,0.04127766564488411
1782951249512085800,3.496085693359375,-0.012026835232973099,-0.001264735241420567,0.03067721799015999
1782951249522012400,3.506012451171875,-0.019391007721424103,-0.002825613832101226,0.01372433453798294
1782951249531939600,3.515939697265625,-0.018665030598640442,0.020248280838131905,-0.00006178533658385277
1782951249541865500,3.525865478515625,-0.018129203468561172,0.02634745091199875,-0.013422864489257336
1782951249551792600,3.535792724609375,-0.010809238068759441,0.0037491980474442244,-0.020367056131362915
1782951249561719600,3.545719482421875,-0.0016564861871302128,-0.026077672839164734,-0.02557087317109108
1782951249571646700,3.555646728515625,0.01323990523815155,-0.025593776255846024,-0.011838017031550407
1782951249581572600,3.565572509765625,0.012811669148504734,-0.004141481593251228,0.010596184991300106
1782951249591499500,3.57549951171875,0.012063587084412575,0.019396068528294563,0.02738022617995739
1782951249601426700,3.5854267578125,0.012754145078361034,0.026524817571043968,0.034679949283599854
1782951249611352600,3.5953525390625,0.012438559904694557,0.029253492131829262,0.022012092173099518
1782951249621279500,3.605279541015625,0.01588975079357624,0.016349146142601967,0.021936457604169846
1782951249631206400,3.615206298828125,0.01950019784271717,0.022053902968764305,0.03776681795716286
1782951249641133600,3.625133544921875,0.007451524492353201,0.01649215817451477,0.05836956575512886
1782951249651059700,3.635059814453125,0.00794687308371067,-0.01221858337521553,0.06018371134996414
1782951249660986600,3.644986572265625,0.015673235058784485,-0.025379657745361328,0.052734583616256714
1782951249670913800,3.654913818359375,0.018028801307082176,-0.020490627735853195,0.035241611301898956
1782951249680840400,3.66484033203125,0.020710071548819542,-0.014642059803009033,0.016933443024754524
1782951249690766600,3.6747666015625,0.018696188926696777,-0.0011536814272403717,0.014012754894793034
1782951249700693500,3.684693603515625,0.010424145497381687,0.018191253766417503,0.01575952209532261
1782951249710620700,3.69462060546875,0.0054909056052565575,0.01974228024482727,0.012741095386445522
1782951249720547600,3.704547607421875,0.006329535041004419,0.007327421568334103,0.011664113029837608
1782951249730473500,3.714473388671875,0.008142082020640373,0.00869255792349577,0.02610643580555916
1782951249740400600,3.724400634765625,0.004801679402589798,0.024531975388526917,0.050465039908885956
1782951249750327600,3.73432763671875,-0.0027225494850426912,0.028847094625234604,0.0656604990363121
1782951249760253000,3.7442529296875,-0.0027060380671173334,0.018122544512152672,0.05525020509958267
1782951249770179800,3.754179931640625,0.007054180838167667,0.01070697233080864,0.028552016243338585
1782951249780106800,3.764106689453125,0.016332900151610374,0.00040719733806326985,0.0012311793398112059
1782951249790034000,3.774033935546875,0.022052571177482605,0.0017776599852368236,-0.004189152270555496
1782951249799959800,3.783959716796875,0.019689282402396202,0.0032373385038226843,0.0021638183388859034
1782951249809887000,3.793886962890625,0.012316587381064892,0.006129798013716936,0.011505655013024807
1782951249819813600,3.803813720703125,0.008452873677015305,0.012368785217404366,0.02178812026977539
1782951249829740800,3.81374072265625,0.007963118143379688,0.02442411705851555,0.02118677832186222
1782951249839667000,3.8236669921875,0.013637781143188477,0.024326644837856293,0.019631225615739822
1782951249849593900,3.83359375,0.01961071975529194,0.02400599978864193,0.024206535890698433
1782951249859521000,3.84352099609375,0.016280436888337135,0.0220941174775362,0.023501597344875336
1782951249869446700,3.85344677734375,0.012566391378641129,0.015299860388040543,0.024705613031983376
1782951249879373800,3.863373779296875,0.012377840466797352,0.011321097612380981,0.009617473930120468
1782951249889300700,3.87330078125,0.010129866190254688,0.006880542729049921,-0.005681854207068682
1782951249899228000,3.883227783203125,0.006696518510580063,0.003778226673603058,-0.02659912034869194
1782951249909154000,3.893154052734375,0.005145493429154158,-0.011627893894910812,-0.03401336073875427
1782951249919080700,3.903080810546875,0.007131412625312805,-0.018150774762034416,-0.025139974430203438
1782951249929007900,3.9130078125,-0.00006231796578504145,-0.009807889349758625,0.006539125461131334
1782951249938934800,3.922934814453125,-0.00999004952609539,-0.0002884203568100929,0.033968351781368256
1782951249948861000,3.93286083984375,-0.010002300143241882,0.011173824779689312,0.0494205467402935
1782951249958787800,3.942787841796875,-0.009824933484196663,0.02695758081972599,0.0417700819671154
1782951249968715000,3.952715087890625,-0.005869606975466013,0.017597103491425514,0.041549306362867355
1782951249978641700,3.9626416015625,-0.0017158746486529708,0.020679445937275887,0.037165746092796326
1782951249988567800,3.97256787109375,-0.005301554687321186,0.019647471606731415,0.030831681564450264
1782951249998495000,3.982494873046875,-0.006847519893199205,0.009047024883329868,0.014025271870195866
1782951250008422000,3.992421875,-0.005375856999307871,0.009367669001221657,0.0025904567446559668
1782951250018349000,4.00234912109375,-0.006388657260686159,0.015750467777252197,-0.011395932175219059
1782951250028274000,4.01227392578125,-0.007069627288728952,0.007601993158459663,-0.018801916390657425
1782951250038199800,4.02219970703125,-0.008805209770798683,-0.003457049373537302,-0.022788137197494507
1782951250048127000,4.032126953125,-0.008097607642412186,-0.017719874158501625,-0.026704048737883568
1782951250058053600,4.0420537109375,-0.011394867673516273,-0.016395218670368195,-0.020364128053188324
1782951250067979800,4.051979736328125,-0.010557569563388824,-0.024104803800582886,-0.020358534529805183
1782951250077907000,4.061906982421875,-0.008413191884756088,-0.020136160776019096,-0.015166436322033405
1782951250087833900,4.071833740234375,-0.008842759765684605,0.008582303300499916,-0.003634682158008218
1782951250097761000,4.081760986328125,-0.010441189631819725,0.0312948040664196,0.011064635589718819
1782951250107686700,4.091686767578125,-0.0121277691796422,0.039804935455322266,0.01625700108706951
1782951250117613800,4.10161376953125,-0.005474393721669912,0.029324065893888474,0.013280118815600872
1782951250127540700,4.111540771484375,0.0014628743520006537,0.02414022386074066,0.00839747954159975
1782951250137468000,4.121468017578125,0.004408863373100758,0.019218968227505684,0.009216934442520142
1782951250147394000,4.13139404296875,0.004681038204580545,0.010814297944307327,0.0028003137558698654
1782951250157320700,4.14132080078125,0.003334543900564313,-0.004224838688969612,-0.01261193212121725
1782951250167248000,4.151247802734375,-0.0019707391038537025,-0.013772803358733654,-0.02383316121995449
1782951250177174800,4.1611748046875,-0.011650264263153076,0.0006109291571192443,-0.01002094242721796
1782951250187101000,4.171100830078125,-0.017835190519690514,0.009349026717245579,0.004647482186555862
1782951250197027800,4.18102783203125,-0.020252007991075516,0.001785116852261126,0.009578324854373932
1782951250206955000,4.190955078125,-0.013512613251805305,0.0000021305288555595325,0.012234029360115528
1782951250216881000,4.200880859375,-0.00788348913192749,0.010819357819855213,0.017042633146047592
1782951250226807800,4.210807861328125,-0.007681888062506914,0.01673956587910652,0.01781787909567356
1782951250236735000,4.22073486328125,-0.007282147649675608,0.010237989947199821,0.0141373910009861
1782951250246662000,4.230661865234375,-0.004809668753296137,0.009704292751848698,-0.00173744629137218
1782951250256587800,4.240587890625,-0.005936185829341412,0.010647584684193134,-0.020968131721019745
1782951250266514700,4.2505146484375,-0.012863866984844208,0.010469951666891575,-0.03177177906036377
1782951250276441900,4.26044189453125,-0.011449195444583893,0.0071007865481078625,-0.038840074092149734
1782951250286368800,4.27036865234375,-0.013520335778594017,0.00034461304312571883,-0.041071802377700806
1782951250296295000,4.280294921875,-0.01932522840797901,-0.00395665830001235,-0.03964488208293915
1782951250306221800,4.290221923828125,-0.015900669619441032,-0.007154049351811409,-0.018079401925206184
1782951250316148700,4.300148681640625,-0.017227189615368843,-0.002261023735627532,0.003970507066696882
1782951250326076000,4.310075927734375,-0.010032660327851772,-0.010896056890487671,0.022107964381575584
1782951250336001800,4.320001708984375,-0.0060024987906217575,-0.019705262035131454,0.019953735172748566
1782951250345929000,4.329928955078125,-0.0004106594424229115,-0.004893292207270861,0.018979815766215324
1782951250355856000,4.33985595703125,0.000025300030756625347,0.017053551971912384,0.017643708735704422
1782951250365781800,4.34978173828125,-0.0020780644845217466,0.024967135861516,0.007735684048384428
1782951250375709000,4.359708984375,0.0008306399104185402,0.016095878556370735,0.001621066126972437
1782951250385635800,4.3696357421875,0.002427737694233656,0.01061962079256773,0.0019797938875854015
1782951250395563000,4.37956298828125,0.000720118754543364,0.0007076018955558538,0.004771319217979908
1782951250405488600,4.389488525390625,0.0037979339249432087,-0.0070304786786437035,0.004133225884288549
1782951250415415800,4.399415771484375,-0.000278300343779847,-0.005018460564315319,-0.0005685848882421851
1782951250425342700,4.4093427734375,0.006794256623834372,0.003431216813623905,-0.0005155879771336913
1782951250435270000,4.419269775390625,0.005004345905035734,0.013377324678003788,0.00959776621311903
1782951250445196000,4.429196044921875,0.0012452941155061126,0.014869493432343006,0.02586568519473076
1782951250455123000,4.439123046875,0.005981726106256247,0.006558300461620092,0.03542882949113846
1782951250465049900,4.4490498046875,0.013236709870398045,0.003757453989237547,0.03295741602778435
1782951250474976800,4.458976806640625,0.01991991139948368,0.0051811798475682735,0.023608123883605003
1782951250484903000,4.46890283203125,0.019175559282302856,0.015334481373429298,0.01667351834475994
1782951250494829800,4.478829833984375,0.012122176587581635,0.017705494537949562,0.00848349928855896
1782951250504757000,4.488757080078125,-0.0013760552974417806,0.00993359088897705,-0.006873618811368942
1782951250514683000,4.498682861328125,-0.005798234138637781,-0.00216488353908062,-0.012743491679430008
1782951250524609800,4.50860986328125,-0.007995341904461384,-0.007976965978741646,-0.012385829351842403
1782951250534537000,4.518536865234375,-0.0010721886064857244,-0.013284645974636078,-0.010142115876078606
1782951250544464000,4.5284638671875,0.01306227222084999,-0.009243299253284931,0.0033816818613559008
1782951250554390000,4.53839013671875,0.01612410880625248,0.006244047544896603,0.02773602306842804
1782951250564316700,4.548316650390625,0.016021311283111572,0.020709805190563202,0.04693981260061264
1782951250574243800,4.558243896484375,0.01745622232556343,0.02052844502031803,0.045629002153873444
1782951250584170800,4.568170654296875,0.02111966535449028,0.014948323369026184,0.03369830921292305
1782951250594097000,4.578096923828125,0.016508668661117554,0.013587181456387043,0.01768924854695797
1782951250604023800,4.58802392578125,0.014903315342962742,0.015207448974251747,0.003707919269800186
1782951250613950700,4.59795068359375,0.008066981099545956,0.008666724897921085,0.0009480853332206607
1782951250623878000,4.6078779296875,0.006734601687639952,0.002630936913192272,0.0024319987278431654
1782951250633803800,4.6178037109375,0.004120975267142057,-0.0030120352748781443,0.004219246096909046
1782951250643731000,4.62773095703125,0.002103897277265787,-0.004279699642211199,0.009826531633734703
1782951250653657900,4.637657958984375,-0.0012519520241767168,0.005739644635468721,0.017796840518712997
1782951250663583700,4.647583740234375,-0.0076334187760949135,0.005181978922337294,0.01504206657409668
1782951250673511000,4.657510986328125,-0.008567921817302704,-0.005184908397495747,0.011350658722221851
1782951250683437800,4.667437744140625,-0.0060019660741090775,-0.005963882897049189,0.004424575716257095
1782951250693364700,4.67736474609375,-0.00580648984760046,-0.006019276566803455,-0.00726350536569953
1782951250703291000,4.687290771484375,-0.006295712664723396,-0.001981125446036458,-0.014030065387487411
1782951250713217800,4.6972177734375,-0.0046940878964960575,-0.005992112215608358,-0.011236408725380898
1782951250723144700,4.707144775390625,-0.0027348001021891832,0.0011800467036664486,0.002103364560753107
1782951250733072000,4.71707177734375,-0.003064233111217618,0.008656871505081654,0.01805729791522026
1782951250742997800,4.726997802734375,0.0008317052270285785,0.00797403696924448,0.028752285987138748
1782951250752925000,4.736925048828125,0.002016811864450574,0.005587844643741846,0.021571604534983635
1782951250762852600,4.7468525390625,0.005655488930642605,0.010871290229260921,0.010248376056551933
1782951250772779800,4.75677978515625,0.004051733296364546,0.007926632650196552,-0.006679208017885685
1782951250782705700,4.76670556640625,0.003051982494071126,-0.0004713795206043869,-0.014733139425516129
1782951250792632600,4.776632568359375,0.0017813884187489748,-0.005622199270874262,-0.014359764754772186
1782951250802559500,4.7865595703125,-0.002645584288984537,-0.0025329324416816235,-0.008987369947135448
1782951250812485600,4.796485595703125,-0.007394266780465841,-0.0032115059439092875,-0.005151086021214724
1782951250822412500,4.80641259765625,-0.007212639320641756,-0.002144909929484129,-0.008083492517471313
1782951250832339500,4.81633935546875,-0.006362824235111475,0.0035894084721803665,-0.013819143176078796
1782951250842266600,4.8262666015625,-0.00926487147808075,0.01107582077383995,-0.013817545026540756
1782951250852192800,4.83619287109375,-0.010840663686394691,0.011057178489863873,-0.016704145818948746
1782951250862119700,4.84611962890625,-0.01588016375899315,0.006195045076310635,-0.012117116712033749
1782951250872046600,4.856046630859375,-0.01056103128939867,0.0059870523400604725,-0.004210724029690027
1782951250881973500,4.865973388671875,-0.0049249837175011635,0.012652944773435593,0.010734669864177704
1782951250891899600,4.875899658203125,0.006646184716373682,0.010282997973263264,0.023445937782526016
1782951250901826600,4.88582666015625,0.010965033434331417,0.007964183576405048,0.020966533571481705
1782951250911753700,4.895753662109375,0.012172776274383068,0.0011981561547145247,0.015205584466457367
1782951250921680600,4.9056806640625,0.011440407484769821,-0.0015512913232669234,0.011212174780666828
1782951250931606500,4.9156064453125,0.006215019151568413,-0.000313986703986302,0.005936984904110432
1782951250941533400,4.925533447265625,0.004845621529966593,0.0017238641157746315,0.009107211604714394
1782951250951460600,4.935460693359375,-0.00432976707816124,0.01353498362004757,0.013349360786378384
1782951250961386800,4.94538671875,-0.01443859376013279,0.01230726670473814,0.011739480309188366
1782951250971313400,4.9553134765625,-0.010814564302563667,0.003510046284645796,0.013952300883829594
1782951250981240600,4.965240478515625,-0.005571865476667881,0.008616391569375992,0.005050152540206909
1782951250991167500,4.97516748046875,-0.0011896340874955058,-0.005089567042887211,-0.0008977515972219408
1782951251001093600,4.98509375,-0.007252053823322058,-0.01685328222811222,-0.00815060455352068
1782951251011020500,4.9950205078125,-0.012769058346748352,-0.016638631001114845,-0.009645969606935978
1782951251020947700,5.00494775390625,-0.03356967866420746,-0.005225388333201408,-0.009074188768863678
1782951251030874400,5.014874267578125,-0.05122243985533714,-0.010906975716352463,-0.008470715954899788
1782951251040800500,5.024800537109375,-0.06408950686454773,-0.013214072212576866,-0.016874853521585464
1782951251050727700,5.034727783203125,-0.066647469997406,-0.014243383891880512,-0.02846493013203144
1782951251060654600,5.044654541015625,-0.06189985200762749,-0.012538162060081959,-0.03038720041513443
1782951251070581800,5.054581787109375,-0.05594289302825928,-0.023857662454247475,-0.03431003540754318
1782951251080507400,5.06450732421875,-0.046003177762031555,-0.03311054781079292,-0.03316887095570564
1782951251090434600,5.0744345703125,-0.039375901222229004,-0.03924087807536125,-0.02551974169909954
1782951251100361500,5.084361572265625,-0.036731913685798645,-0.03044978529214859,-0.017971809953451157
1782951251110287600,5.09428759765625,-0.040107205510139465,-0.018992066383361816,-0.008974586613476276
1782951251120214800,5.10421484375,-0.04477332904934883,-0.007843009196221828,0.0005342300864867866
1782951251130141400,5.114141357421875,-0.04791692644357681,-0.0008886968716979027,0.002002164488658309
1782951251140068600,5.124068603515625,-0.045402370393276215,0.0049766493029892445,0.0010556770721450448
1782951251149994500,5.133994384765625,-0.041481662541627884,0.006368417292833328,-0.004314587451517582
1782951251159921700,5.143921630859375,-0.033784061670303345,-0.011356517672538757,-0.005901831202208996
1782951251169848600,5.1538486328125,-0.02570136822760105,-0.024644093587994576,-0.007045126520097256
1782951251179775500,5.163775390625,-0.02064082957804203,-0.019518041983246803,-0.011918178759515285
1782951251189701600,5.17370166015625,-0.01685541309416294,-0.020710337907075882,-0.01576005481183529
1782951251199628500,5.183628662109375,-0.005674397107213736,-0.010607636533677578,-0.01528494618833065
1782951251209555700,5.1935556640625,0.004194212146103382,-0.007510113995522261,-0.00860467366874218
1782951251219481600,5.203481689453125,0.011144530028104782,-0.000824248360004276,-0.006117813754826784
1782951251229408500,5.213408447265625,0.017076721414923668,0.0011313108261674643,0.00697801448404789
1782951251239335400,5.22333544921875,0.02238679863512516,0.005709550809115171,0.022337796166539192
1782951251249262600,5.2332626953125,0.025069134309887886,0.011062238365411758,0.03760143741965294
1782951251259188700,5.243188720703125,0.01774916984140873,0.021438978612422943,0.04114610329270363
1782951251269115600,5.25311572265625,0.011844408698379993,0.029525401070713997,0.040403082966804504
1782951251279042600,5.26304248046875,0.011364241130650043,0.029675336554646492,0.024344220757484436
1782951251288969500,5.272969482421875,0.010151970200240612,0.012763998471200466,0.005756955128163099
1782951251298895600,5.2828955078125,0.015397864393889904,-0.011343734338879585,-0.007555121555924416
1782951251308822500,5.292822509765625,0.01381141971796751,-0.024220651015639305,-0.01242045033723116
1782951251318749700,5.302749755859375,0.012722719460725784,-0.029954170808196068,-0.004789695143699646
1782951251328676600,5.312676513671875,0.013686250895261765,-0.016517722979187965,0.007790012285113335
1782951251338602500,5.3226025390625,0.0073042516596615314,-0.003564641112461686,0.010421481914818287
1782951251348529700,5.33252978515625,0.0041396175511181355,0.003367034485563636,0.0065404572524130344
1782951251358456600,5.34245654296875,0.002049835165962577,-0.00039654469583183527,0.00005246427463134751
1782951251368382700,5.3523828125,0.000020772657080669887,0.0001054611784638837,0.0016932378057390451
1782951251378309400,5.362309326171875,-0.005317533854395151,0.0032826124224811792,0.0035214978270232677
1782951251388236500,5.372236572265625,-0.005017928313463926,-0.005691175349056721,0.009402289986610413
1782951251398163500,5.38216357421875,-0.0062887887470424175,0.0012809804175049067,0.024536767974495888
1782951251408089600,5.392089599609375,-0.006994526367634535,0.01655394211411476,0.03762514144182205
1782951251418016800,5.402016845703125,0.0000476705827168189,0.01956438086926937,0.0391753651201725
1782951251427943700,5.411943603515625,0.005513542331755161,0.015623967163264751,0.028364796191453934
1782951251437870600,5.42187060546875,0.010915231890976429,-0.0010402307379990816,0.020662933588027954
1782951251447796500,5.43179638671875,0.007686149328947067,-0.005036836490035057,0.015680160373449326
1782951251457723600,5.4417236328125,0.00800120085477829,-0.003960919566452503,0.008266451768577099
1782951251467650600,5.451650634765625,0.009978597983717918,0.00045833003241568804,0.002567287301644683
1782951251477576400,5.461576416015625,0.009489375166594982,0.0037563887890428305,0.0005374259199015796
1782951251487503600,5.471503662109375,0.011739213950932026,0.011634285561740398,0.005908222869038582
1782951251497430500,5.481430419921875,0.0065377941355109215,0.00800466351211071,0.011768242344260216
1782951251507357700,5.491357666015625,0.007892011664807796,0.0030506509356200695,0.015060442499816418
1782951251517283600,5.50128369140625,0.008228901773691177,-0.0030751521699130535,0.00746217742562294
1782951251527210500,5.51121044921875,0.012374377809464931,-0.0007358313887380064,-0.0007653924985788763
1782951251537137400,5.521137451171875,0.015112906694412231,0.00971334706991911,-0.008898686617612839
1782951251547064600,5.531064697265625,0.01363378670066595,0.009126652963459492,-0.011258513666689396
1782951251556990700,5.54099072265625,0.005644037388265133,0.004837632179260254,-0.005020325072109699
1782951251566917600,5.550917724609375,-0.0041212416253983974,-0.0054735951125621796,-0.0016434367280453444
1782951251576844800,5.5608447265625,-0.015929430723190308,-0.011712050065398216,0.003865312086418271
1782951251586770400,5.5707705078125,-0.017601097002625465,-0.0009270463488064706,0.0199822299182415
1782951251596697600,5.580697509765625,-0.019217103719711304,0.015458318404853344,0.024706145748496056
1782951251606624500,5.59062451171875,-0.016581373289227486,0.017704961821436882,0.020666396245360374
1782951251616551700,5.6005517578125,-0.013643108308315277,0.006935137789696455,0.0070523167960345745
1782951251626477600,5.6104775390625,-0.015297196805477142,-0.001365668955259025,-0.0007249124464578927
1782951251636404500,5.620404541015625,-0.016287360340356827,0.003916178364306688,-0.0007033408619463444
1782951251646331600,5.63033154296875,-0.008442220278084278,0.0026288062799721956,-0.002148372121155262
1782951251656258600,5.640258544921875,-0.0033835461363196373,-0.006555637344717979,-0.0037550569977611303
1782951251666184700,5.650184814453125,-0.0007590008899569511,-0.006323942448943853,0.005547364708036184
1782951251676111600,5.660111572265625,0.0018210695125162601,0.010124007239937782,0.01708045043051243
1782951251686038500,5.67003857421875,0.0018495653057470918,0.01756328158080578,0.019512714818120003
1782951251695965400,5.67996533203125,0.0006295712664723396,0.012924054637551308,0.008835037238895893
1782951251705891600,5.6898916015625,0.005592904519289732,0.004791026934981346,0.012087289243936539
1782951251715818800,5.69981884765625,0.0051508196629583836,0.013109410181641579,0.022550050169229507
1782951251725745700,5.70974560546875,0.003486344125121832,0.01990845985710621,0.032754749059677124
1782951251735671600,5.719671630859375,0.007097324356436729,0.0013321131700649858,0.037209153175354004
1782951251745598500,5.729598388671875,0.013877999037504196,-0.003983023576438427,0.04316584765911102
1782951251755525600,5.739525634765625,0.01347772590816021,-0.008777245879173279,0.045413289219141006
1782951251765452000,5.7494521484375,0.009743707254529,-0.011722968891263008,0.04568253457546234
1782951251775378000,5.7593779296875,0.007407848723232746,-0.018096178770065308,0.030825823545455933
1782951251785305000,5.76930517578125,-0.0028487835079431534,-0.010818559676408768,0.0014543522847816348
1782951251795232000,5.77923193359375,-0.006717024836689234,0.0025217472575604916,-0.02732749469578266
1782951251805159000,5.789158935546875,-0.01660294458270073,0.018034128472208977,-0.030553648248314857
1782951251815085000,5.7990849609375,-0.02924363873898983,0.03525625914335251,-0.002977946773171425
1782951251825012000,5.809011962890625,-0.03504160791635513,0.04100282862782478,0.015561383217573166
1782951251834939000,5.81893896484375,-0.027776237577199936,0.022348714992403984,0.020601149648427963
1782951251844866000,5.828865966796875,-0.015854064375162125,-0.005016330163925886,0.02197267673909664
1782951251854792000,5.8387919921875,-0.003133208956569433,-0.02070634439587593,0.016987239941954613
1782951251864718800,5.84871875,0.0020543625578284264,-0.031789086759090424,0.0008298410102725029
1782951251874646000,5.85864599609375,0.0062520368956029415,-0.02815547212958336,-0.018259696662425995
1782951251884572000,5.868572021484375,0.005524461157619953,-0.007248325273394585,-0.03844645991921425
1782951251894499000,5.8784990234375,0.001272990950383246,0.022273346781730652,-0.04453311488032341
1782951251904426000,5.888426025390625,-0.0030330740846693516,0.043480098247528076,-0.043593548238277435
1782951251914353000,5.898352783203125,-0.003608583239838481,0.041433461010456085,-0.026760773733258247
1782951251924279000,5.908279052734375,-0.002966495230793953,0.027938157320022583,-0.013501694425940514
1782951251934206000,5.9182060546875,0.0010940266074612737,0.015165370889008045,-0.002986735198646784
1782951251944133000,5.928133056640625,0.000592020689509809,-0.0021877868566662073,0.008809470571577549
1782951251954060000,5.93806005859375,0.005637645721435547,-0.0092347776517272,0.016117185354232788
1782951251963986000,5.94798583984375,0.008718123659491539,-0.007122890558093786,0.01847727783024311
1782951251973912800,5.957912841796875,0.011566640809178352,-0.0009595369338057935,0.017479125410318375
1782951251983840000,5.967840087890625,0.014963769353926182,0.0051289820112288,0.012718192301690578
1782951251993766100,5.97776611328125,0.014604242518544197,-0.0005576659459620714,0.0038224351592361927
1782951252003692800,5.98769287109375,0.013912886381149292,-0.00043888893560506403,0.004228300880640745
1782951252013620000,5.997619873046875,0.010387926362454891,0.006206497084349394,0.004352670628577471
1782951252023547000,6.007546875,0.01593955233693123,0.0009395632077939808,0.008435296826064587
1782951252033473000,6.01747314453125,0.01926610618829727,0.01025716494768858,0.013512346893548965
1782951252043400000,6.02739990234375,0.01787780039012432,0.023455258458852768,0.015251124277710915
1782951252053326800,6.037326904296875,0.005928196478635073,0.02858850173652172,0.012546684592962265
1782951252063253800,6.047253662109375,0.0029353362042456865,0.025404958054423332,0.014335529878735542
1782951252073180000,6.057179931640625,0.0026112294290214777,0.015309713780879974,0.0021441110875457525
1782951252083107000,6.067107177734375,0.007184942252933979,-0.013114736415445805,-0.011811119504272938
1782951252093034000,6.077033935546875,0.014718492515385151,-0.02665611170232296,-0.014994395896792412
1782951252102959900,6.0869599609375,0.01372433453798294,-0.02918558195233345,-0.006228601094335318
1782951252112886800,6.09688671875,0.014628477394580841,-0.023069100454449654,0.004492486361414194
1782951252122814000,6.10681396484375,0.010512296110391617,-0.007513842545449734,0.01396029070019722
1782951252132740900,6.116740966796875,0.00697881355881691,0.016747821122407913,0.02076386846601963
1782951252142667000,6.1266669921875,0.0003904194163624197,0.02683054842054844,0.016537165269255638
1782951252152594000,6.136593994140625,-0.012284895405173302,0.025790851563215256,0.009183377958834171
1782951252162520800,6.146520751953125,-0.01227477565407753,0.014731542207300663,0.0048797097988426685
1782951252172448000,6.156447998046875,-0.012554673478007317,0.006485862657427788,0.0007621967233717442
1782951252182374000,6.166373779296875,-0.00965582299977541,0.0005251753609627485,0.00070520507870242
1782951252192301000,6.176301025390625,-0.0004881574132014066,-0.0065018413588404655,0.004807271994650364
1782951252202228000,6.18622802734375,0.0057710702531039715,-0.015278022736310959,0.002778209513053298
1782951252212153900,6.19615380859375,-0.0006226470577530563,-0.019892748445272446,0.0037984666414558887
1782951252222081000,6.2060810546875,-0.006659234408289194,-0.0242555383592844,-0.001460743835195899
1782951252232008000,6.216008056640625,-0.008667257614433765,-0.01992097683250904,-0.005252286326140165
1782951252241935000,6.22593505859375,-0.01458959560841322,-0.0041273669339716434,-0.00881932396441698
1782951252251860700,6.23586083984375,-0.02087225764989853,0.010802580043673515,-0.008683236315846443
1782951252261788000,6.245787841796875,-0.02611202746629715,0.007472030818462372,0.0008876316132955253
1782951252271714800,6.25571484375,-0.02586701698601246,0.005273591727018356,0.018099375069141388
1782951252281642000,6.26564208984375,-0.023913588374853134,0.010246246121823788,0.03630394488573074
1782951252291568000,6.275568115234375,-0.01739070750772953,0.007694138679653406,0.03286553919315338
1782951252301495000,6.2854951171875,-0.0057196710258722305,0.0019651465117931366,0.026581009849905968
1782951252311422000,6.295421875,-0.0037521275226026773,-0.00003861583536490798,0.009946906939148903
1782951252321348900,6.305348876953125,-0.006368949543684721,-0.005900765769183636,-0.008598282001912594
1782951252331275000,6.31527490234375,-0.007439806591719389,-0.006427273154258728,-0.02695119008421898
1782951252341202000,6.325201904296875,-0.012883308343589306,-0.009678459726274014,-0.04002677649259567
1782951252351129000,6.335129150390625,-0.015988552942872047,-0.006049104034900665,-0.0375569611787796
1782951252361055000,6.345054931640625,-0.020434968173503876,-0.002831206424161792,-0.02094629406929016
1782951252370982000,6.35498193359375,-0.0202229805290699,-0.0027060380671173334,-0.003777693957090378
1782951252380909000,6.364908935546875,-0.012169314548373222,-0.01224654633551836,0.016590960323810577
1782951252390836000,6.3748359375,-0.0037444045301526785,-0.0014527543680742383,0.03305062651634216
1782951252400762000,6.38476220703125,-0.005274923052638769,0.0030631679110229015,0.033538252115249634
1782951252410688800,6.394688720703125,-0.002615756820887327,0.008194279856979847,0.02924550324678421
1782951252420616000,6.404615966796875,-0.0015100123127922416,0.006345513742417097,0.013881993480026722
1782951252430542800,6.41454296875,-0.0014125406742095947,0.0019140138756483793,-0.006385727785527706
1782951252440469000,6.424468994140625,0.0026442527305334806,-0.003323891432955861,-0.025313345715403557
1782951252450396200,6.434396240234375,0.013574930839240551,0.0027260116767138243,-0.03741102293133736
1782951252460322800,6.44432275390625,0.015220497734844685,0.006146309431642294,-0.03735402971506119
1782951252470249000,6.4542490234375,0.013277189806103706,0.00381391285918653,-0.031679365783929825
1782951252480175900,6.46417578125,0.014094780199229717,-0.000028495824153651483,-0.021214473992586136
1782951252490103000,6.47410302734375,0.014822089113295078,0.00447011599317193,-0.0029233519453555346
1782951252500030000,6.484030029296875,0.012600746937096119,0.0008740494376979768,0.0031337416730821133
1782951252509955800,6.493955810546875,0.01613556034862995,-0.005244030617177486,0.005049619823694229
1782951252519883000,6.503883056640625,0.01793692260980606,-0.007135673891752958,0.01125318743288517
1782951252529810000,6.513809814453125,0.02033190242946148,-0.009759685955941677,0.016392022371292114
1782951252539737000,6.523737060546875,0.017706027254462242,-0.005902896635234356,0.021379323676228523
1782951252549663000,6.5336630859375,0.005528456065803766,0.0015393070643767715,0.01902003027498722
1782951252559590000,6.54358984375,-0.009505354799330235,0.0054914383217692375,0.0113386744633317
1782951252569516800,6.553516845703125,-0.010296313092112541,0.014104633592069149,-0.00455640209838748
1782951252579443000,6.56344287109375,-0.0111607750877738,0.02209358476102352,-0.01595446467399597
1782951252589370000,6.5733701171875,-0.003725496120750904,0.01248143706470728,-0.0167922955006361
1782951252599297000,6.583297119140625,0.004408863373100758,-0.005164934787899256,-0.0015299860388040543
1782951252609224200,6.59322412109375,0.018670890480279922,-0.01726074516773224,0.024440893903374672
1782951252619149800,6.60314990234375,0.022757509723305702,-0.023364977911114693,0.03225061297416687
1782951252629077000,6.613076904296875,0.02617274783551693,-0.02533917874097824,0.023433420807123184
1782951252639004000,6.62300390625,0.02563904970884323,-0.01587616838514805,-0.0011534150689840317
1782951252648931000,6.63293115234375,0.015369102358818054,0.0024735440965741873,-0.022400913760066032
1782951252658857000,6.64285693359375,0.008553540334105492,0.020412864163517952,-0.035043470561504364
1782951252668783900,6.652783935546875,0.005334311630576849,0.02798529528081417,-0.02791711874306202
1782951252678711000,6.6627109375,0.0017670074012130499,0.027959195896983147,-0.0052083441987633705
1782951252688637000,6.672636962890625,0.0018487664638087153,0.019453592598438263,0.014110226184129715
1782951252698564000,6.682564208984375,0.0068174260668456554,-0.004346811678260565,0.020955348387360573
1782951252708490800,6.69249072265625,0.012832175008952618,-0.012301673181355,0.024393223226070404
1782951252718418000,6.70241796875,0.015022625215351582,-0.010773285292088985,0.025187378749251366
1782951252728344000,6.712343994140625,0.016396284103393555,-0.0059479037299752235,0.027218570932745934
1782951252738271000,6.72227099609375,0.011457717977464199,-0.006429936271160841,0.02455035038292408
1782951252748198100,6.7321982421875,0.005048288032412529,-0.007937817834317684,0.015517973341047764
1782951252758125600,6.74212548828125,-0.0025683525018393993,0.0008785768295638263,0.009222793392837048
1782951252768051700,6.7520517578125,-0.0035896748304367065,0.019046928733587265,0.006347111891955137
1782951252777978600,6.761978515625,-0.007655789144337177,0.03220241144299507,0.012824186123907566
1782951252787905800,6.77190576171875,-0.004978246986865997,0.04277303069829941,0.020722055807709694
1782951252797832400,6.78183251953125,-0.003745469730347395,0.030051110312342644,0.021208615973591805
1782951252807758600,6.791758544921875,-0.0008298410102725029,0.001592037733644247,0.01823812536895275
1782951252817685500,6.801685546875,-0.0006958839949220419,-0.021861355751752853,0.011342668905854225
1782951252827612700,6.81161279296875,-0.00407463638111949,-0.03550339862704277,-0.001442900625988841
1782951252837538600,6.82153857421875,-0.003231213428080082,-0.03280375152826309,-0.0073077138513326645
1782951252847465500,6.831465576171875,-0.002124137245118618,-0.01565486006438732,-0.00475534051656723
1782951252857392600,6.841392578125,-0.005363872740417719,0.007178284227848053,0.0017009610310196877
1782951252867319600,6.851319580078125,-0.005628324579447508,0.020327642560005188,0.007864846847951412
1782951252877245700,6.86124560546875,-0.0013377057621255517,0.020543090999126434,0.006162820849567652
1782951252887172600,6.871172607421875,0.0052086105570197105,0.0036397422663867474,0.005598230753093958
1782951252897099500,6.881099609375,0.0022501046769320965,-0.003781156148761511,0.01438133604824543
1782951252907026400,6.8910263671875,0.002243446884676814,-0.003719370812177658,0.020485833287239075
1782951252916952600,6.90095263671875,-0.005465871654450893,-0.004125502891838551,0.02508378215134144
1782951252926879700,6.910879638671875,-0.00875274557620287,-0.00247567449696362,0.01876569725573063
1782951252936806700,6.920806640625,-0.011345332488417625,0.00279072648845613,0.0067543089389801025
1782951252946732500,6.930732666015625,-0.011659053154289722,0.011728028766810894,0.00026791400159709156
1782951252956659500,6.940659423828125,-0.010971956886351109,0.011177552863955498,-0.007327953819185495
1782951252966586600,6.950586669921875,-0.002293247962370515,0.009593771770596504,-0.014185859821736813
1782951252976513500,6.960513427734375,-0.0009859022684395313,0.007423028815537691,-0.004589958116412163
1782951252986439700,6.970439697265625,-0.0015451660146936774,0.006214220076799393,0.009843842126429081
1782951252996366600,6.98036669921875,0.0005187837523408234,0.001955292886123061,0.01829804666340351
1782951253006293500,6.99029345703125,-0.0014199974248185754,0.006326072849333286,0.01932096667587757
1782951253016220700,7.000220703125,-0.007797469384968281,0.020318854600191116,0.026810042560100555
1782951253026146600,7.010146484375,-0.010506702587008476,0.028017252683639526,0.033183518797159195
1782951253036073700,7.02007373046875,-0.009194829501211643,0.023934626951813698,0.028680913150310516
1782951253046000400,7.03000048828125,-0.004132160916924477,0.01691187173128128,0.015732889994978905
1782951253055926500,7.039926513671875,-0.002121740486472845,0.0076150428503751755,0.006836334243416786
1782951253065853700,7.049853759765625,-0.007468569092452526,0.0016439693281427026,-0.004277302883565426
1782951253075780600,7.059780517578125,-0.01116263959556818,0.0024791366886347532,-0.011460913345217705
1782951253085707800,7.069707763671875,-0.013220996595919132,0.009514409117400646,-0.02244645357131958
1782951253095633400,7.07963330078125,-0.015504390932619572,0.019093800336122513,-0.020983312278985977
1782951253105560600,7.089560546875,-0.020848557353019714,0.02496766857802868,-0.01543648075312376
1782951253115487500,7.099487548828125,-0.022535135969519615,0.009053150191903114,-0.004024568945169449
1782951253125414700,7.10941455078125,-0.02202381007373333,0.0023763386998325586,0.014027135446667671
1782951253135340800,7.1193408203125,-0.02388695627450943,0.003534547286108136,0.03458434343338013
1782951253145267500,7.129267333984375,-0.024106401950120926,0.004143878817558289,0.04753556102514267
1782951253155194600,7.139194580078125,-0.022291989997029305,0.006373743526637554,0.03436383232474327
1782951253165120500,7.14912060546875,-0.013855627737939358,0.008744755759835243,0.013022058643400669
1782951253175047700,7.159047607421875,-0.009635848924517632,0.009973804466426373,-0.008351673372089863
1782951253184974600,7.168974609375,-0.010381801053881645,0.003072488820180297,-0.02178598940372467
1782951253194901800,7.17890185546875,-0.011517639271914959,-0.0034677020739763975,-0.02732935920357704
1782951253204827600,7.18882763671875,-0.013973605819046497,-0.003300189273431897,-0.024539431557059288
1782951253214754600,7.198754638671875,-0.014039652422070503,-0.013379188254475594,-0.017889784649014473
1782951253224681700,7.208681640625,-0.011796205304563046,-0.012673184275627136,-0.0001715075777610764
1782951253234608600,7.218608642578125,-0.013159478083252907,-0.007936486043035984,0.014285461977124214
1782951253244534500,7.228534423828125,-0.018305504694581032,0.00911333691328764,0.029451100155711174
1782951253254461400,7.23846142578125,-0.020532704889774323,0.013947773724794388,0.03232811391353607
1782951253264388600,7.248388671875,-0.02562600187957287,0.009630256332457066,0.01654009521007538
1782951253274314800,7.258314697265625,-0.028319256380200386,0.006856841035187244,0.0018197379540652037
1782951253284241700,7.26824169921875,-0.026609506458044052,0.013052418828010559,-0.008085357025265694
1782951253294168600,7.27816845703125,-0.02239159122109413,0.015663381665945053,-0.01444045826792717
1782951253304095500,7.288095458984375,-0.014917963184416294,0.011716843582689762,-0.014250308275222778
1782951253314021600,7.298021728515625,-0.004294347018003464,0.0015646071406081319,-0.006611297372728586
1782951253323948500,7.307948486328125,0.004382231738418341,0.004819256253540516,0.0054786549881100655
1782951253333875700,7.317875732421875,0.012284096330404282,-0.0031614385079592466,0.0178208090364933
1782951253343802600,7.327802734375,0.01227717287838459,-0.010747186839580536,0.006903978530317545
1782951253353728500,7.337728515625,0.00891067087650299,-0.007027283310890198,-0.009133044630289078
1782951253363655700,7.34765576171875,0.00427304208278656,0.0035489285364747047,-0.018864234909415245
1782951253373582600,7.35758251953125,0.0014346449170261621,0.007984423078596592,-0.021883195266127586
1782951253383508700,7.3675087890625,0.00333241350017488,0.010884605348110199,-0.013844176195561886
1782951253393435400,7.377435302734375,0.004255997482687235,0.00830906257033348,0.008673649281263351
1782951253403362600,7.387362548828125,0.0008026767172850668,0.007318899035453796,0.022725818678736687
1782951253413289500,7.39728955078125,0.0026341325137764215,-0.0004468784318305552,0.021092236042022705
1782951253423215600,7.407215576171875,0.009327189065515995,-0.002900448627769947,0.007954861968755722
1782951253433142800,7.417142822265625,0.01607324182987213,0.0003933488915208727,-0.013133645057678223
1782951253443069700,7.427069580078125,0.017057014629244804,0.0026908579748123884,-0.027899540960788727
1782951253452995600,7.43699560546875,0.017426660284399986,-0.0021459751296788454,-0.03159414604306221
1782951253462922500,7.446922607421875,0.01299276389181614,-0.0005736448802053928,-0.03285754844546318
1782951253472849700,7.456849609375,0.009870474226772785,0.005060538649559021,-0.01944613642990589
1782951253482776600,7.466776611328125,0.010776747949421406,0.010881143622100353,-0.009436378255486488
1782951253492702500,7.476702392578125,0.009372462518513203,0.015750734135508537,0.009298160672187805
1782951253502629600,7.486629638671875,0.010405503213405609,0.028796227648854256,0.025529328733682632
1782951253512556500,7.496556640625,0.005562544334679842,0.0335017666220665,0.03710848465561867
1782951253522483700,7.506483642578125,0.005840312223881483,0.020958278328180313,0.04189258813858032
1782951253532409600,7.51640966796875,0.008502674289047718,0.015844743698835373,0.04634326323866844
1782951253542336800,7.526336669921875,0.008492288179695606,0.007382815238088369,0.033608295023441315
1782951253552263400,7.536263427734375,0.014307833276689053,-0.004210191313177347,0.008346613496541977
1782951253562190600,7.546190673828125,0.018623219802975655,-0.013652961701154709,-0.018998458981513977
1782951253572116700,7.55611669921875,0.015295333229005337,-0.009975402615964413,-0.031793881207704544
1782951253582043600,7.566043701171875,0.007384679280221462,-0.007131678983569145,-0.029697975143790245
1782951253591970600,7.575970458984375,0.009044361300766468,0.00324852392077446,-0.009498696774244308
1782951253601896400,7.585896484375,0.005437375977635384,0.019476495683193207,0.019345201551914215
1782951253611823600,7.59582373046875,0.00884888507425785,0.020018715411424637,0.03343891724944115
1782951253621750500,7.60575048828125,0.00980442762374878,0.0059662796556949615,0.029618611559271812
1782951253631677700,7.615677734375,0.0006982808117754757,0.004777977243065834,0.019942814484238625
1782951253641603600,7.625603515625,-0.007391603663563728,0.005746036302298307,0.006202235817909241
1782951253651530500,7.635530517578125,-0.017305754125118256,0.004667189903557301,-0.007000118959695101
1782951253661457700,7.645457763671875,-0.01426255889236927,0.002356364857405424,-0.012724583968520164
1782951253671384600,7.655384521484375,-0.009941314347088337,0.0016327840276062489,-0.007894940674304962
1782951253681310700,7.665310791015625,-0.008459530770778656,0.0049348375760018826,0.011892878450453281
1782951253691237600,7.675237548828125,-0.008824383839964867,-0.004456799943000078,0.01865517720580101
1782951253701164500,7.68516455078125,-0.010349310003221035,-0.010611099191009998,0.00618199585005641
1782951253711091500,7.695091552734375,-0.011446799151599407,-0.00845766719430685,0.0025238776579499245
1782951253721017600,7.705017578125,-0.008158859796822071,0.0023584954906255007,0.0073561836034059525
1782951253730944500,7.714944580078125,-0.01185373030602932,0.017676198855042458,0.018212825059890747
1782951253740871700,7.72487158203125,-0.011796738021075726,0.009889914654195309,0.025287512689828873
1782951253750797600,7.734797607421875,-0.010465956293046474,0.006827812176197767,0.02466539852321148
1782951253760724000,7.744723876953125,-0.00788641907274723,0.0059785302728414536,0.02250770665705204
1782951253770651000,7.75465087890625,-0.00592633243650198,0.00833542738109827,0.012329104356467724
1782951253780577800,7.764577880859375,-0.004223773255944252,0.001047687605023384,-0.008252071216702461
1782951253790504000,7.77450390625,-0.004963599611073732,-0.011653726920485497,-0.027573304250836372
1782951253800431000,7.78443115234375,-0.0086603332310915,-0.015224493108689785,-0.03322559595108032
1782951253810358000,7.79435791015625,-0.015480955131351948,-0.012468653731048107,-0.031439416110515594
1782951253820284000,7.804283935546875,-0.015126488171517849,-0.01085877325385809,-0.020063722506165504
1782951253830210800,7.8142109375,-0.02190982550382614,-0.007105313707143068,-0.018806444481015205
1782951253840138000,7.824137939453125,-0.022884011268615723,-0.005828327964991331,-0.010909106582403183
1782951253850065000,7.83406494140625,-0.021527929231524467,-0.0028272117488086224,-0.004455734975636005
1782951253859991000,7.843990966796875,-0.022115422412753105,0.005846970248967409,0.003486344125121832
1782951253869918000,7.85391796875,-0.016402941197156906,0.0035276231355965137,0.011949603445827961
1782951253879844900,7.863844970703125,-0.014269216917455196,0.0004814995336346328,0.013070528395473957
1782951253889772000,7.87377197265625,-0.015372831374406815,-0.0006154565489850938,0.012977051548659801
1782951253899698000,7.883697998046875,-0.020549483597278595,0.007423028815537691,0.0075934710912406445
1782951253909625000,7.893625,-0.0240736436098814,0.010727212764322758,-0.001957956003025174
1782951253919551700,7.9035517578125,-0.01835663616657257,0.019936423748731613,-0.01625060848891735
1782951253929479000,7.91347900390625,-0.012927250005304813,0.016265522688627243,-0.026545057073235512
1782951253939405000,7.923405029296875,-0.00475534051656723,0.017646105960011482,-0.031064974144101143
1782951253949332000,7.93333203125,-0.000520647969096899,0.012036423198878765,-0.025499766692519188
1782951253959259100,7.943259033203125,0.0030740867368876934,0.004487426485866308,-0.011538145132362843
1782951253969184800,7.953184814453125,0.0035888757556676865,0.000056459015468135476,0.007753793615847826
1782951253979112000,7.96311181640625,-0.0037768951151520014,-0.0019896477460861206,0.01906397193670273
1782951253989038800,7.973038818359375,-0.00341550400480628,0.0012152004055678844,0.02442544884979725
1782951253998966000,7.982966064453125,-0.0015217302134260535,0.011957859620451927,0.020719127729535103
1782951254008892200,7.99289208984375,-0.0009717874927446246,0.011328554712235928,0.008176437579095364
1782951254018818800,8.00281884765625,0.00634897593408823,0.014242852106690407,-0.006409962195903063
1782951254028746000,8.01274609375,0.015487879514694214,0.00821052584797144,-0.015044462867081165
1782951254038672000,8.022671875,0.016712134703993797,-0.006086121778935194,-0.01500957552343607
1782951254048599000,8.03259912109375,0.01757366769015789,-0.011501393280923367,-0.020430972799658775
1782951254058526000,8.04252587890625,0.01894652657210827,-0.0009813748765736818,-0.01973588764667511
1782951254068453000,8.052453125,0.01137116551399231,0.011593006551265717,-0.024463796988129616
1782951254078379000,8.06237890625,0.007577492389827967,0.010270747356116772,-0.0228738896548748
1782951254088306000,8.072305908203125,0.003064499469473958,0.012977850623428822,-0.010261692106723785
1782951254098233000,8.082233154296874,-0.0022415826097130775,0.013402890413999557,0.010890730656683445
1782951254108160000,8.092159912109375,-0.007685616612434387,0.010624680668115616,0.022528745234012604
1782951254118086000,8.1020859375,-0.010493653826415539,0.008231298066675663,0.01931457594037056
1782951254128012800,8.1120126953125,-0.013964817859232426,0.003594202222302556,0.0037465349305421114
1782951254137940000,8.12193994140625,-0.006400108803063631,0.004447212442755699,-0.01900431700050831
1782951254147866000,8.1318662109375,0.0008157262345775962,0.01302259135991335,-0.036063726991415024
1782951254157793000,8.14179296875,0.002954510971903801,0.009125054813921452,-0.0408739298582077
1782951254167720200,8.15172021484375,0.014480938203632832,-0.0028306739404797554,-0.021399032324552536
1782951254177646800,8.161646728515626,0.016952352598309517,-0.007995341904461384,-0.002513757674023509
1782951254187573000,8.171572998046875,0.019052520394325256,-0.011345598846673965,0.015388810075819492
1782951254197500000,8.1815,0.02369867078959942,-0.009427856653928757,0.015860188752412796
1782951254207427000,8.191427001953125,0.02225683629512787,0.008459264412522316,0.02082485519349575
1782951254217354000,8.20135400390625,0.010056895203888416,0.03611432760953903,0.027065705507993698
1782951254227280000,8.21127978515625,0.005928729195147753,0.037334054708480835,0.027724571526050568
1782951254237207000,8.22120703125,0.010915498249232769,0.016657007858157158,0.020918065682053566
1782951254247134000,8.231134033203125,0.01296293642371893,-0.010313090868294239,0.006666957400739193
1782951254257060000,8.24106005859375,0.02057851105928421,-0.02171541564166546,-0.0015654060989618301
1782951254266986800,8.25098681640625,0.019458120688796043,-0.024870729073882103,-0.013623666949570179
1782951254276914000,8.260913818359375,0.018101239576935768,-0.018560368567705154,-0.021916484460234642
1782951254286840800,8.2708408203125,0.011433749459683895,-0.006422745529562235,-0.021503427997231483
1782951254296767000,8.28076708984375,0.0011238539591431618,-0.000913197931367904,-0.01816888339817524
1782951254306694100,8.290694091796874,-0.005555354058742523,0.0031398669816553593,-0.002698314841836691
1782951254316621000,8.30062109375,-0.003622964257374406,0.0023212111555039883,0.017183780670166016
1782951254326547000,8.310546875,-0.00039281626231968403,0.0016729978378862143,0.03760836273431778
1782951254336473900,8.320473876953125,0.0008314388687722385,0.006567355245351791,0.04807964339852333
1782951254346401000,8.330401123046874,0.0025446503423154354,0.0114971324801445,0.03729144483804703
1782951254356328000,8.340327880859375,-0.002252501668408513,0.01997264288365841,0.02159956842660904
1782951254366253800,8.35025390625,-0.001975266495719552,0.021942051127552986,-0.0005390237784013152
1782951254376181000,8.360180908203125,-0.0065710837952792645,0.017839716747403145,-0.015619972720742226
1782951254386108000,8.37010791015625,-0.0019371833186596632,0.0027079021092504263,-0.01967516727745533
1782951254396035000,8.38003515625,0.0038306908681988716,-0.016410399228334427,-0.017115870490670204
1782951254405963000,8.389962890625,0.007739412598311901,-0.023721840232610703,-0.007302387617528439
1782951254415890000,8.399889892578125,0.008581237867474556,-0.017964620143175125,0.006354302167892456
1782951254425816000,8.409816162109376,0.012340822257101536,-0.01191205345094204,0.014306235127151012
1782951254435743000,8.419742919921875,0.009109875187277794,-0.009957825765013695,0.014134727418422699
1782951254445670000,8.429669921875,0.004899151157587767,-0.009453688748180866,0.0052168662659823895
1782951254455596800,8.4395966796875,-0.00378967821598053,0.00006524744821945205,-0.0035582494456321
1782951254465523000,8.44952294921875,-0.011950935237109661,0.01113467663526535,-0.006669886875897646
1782951254475450000,8.4594501953125,-0.013449495658278465,0.014426076784729958,-0.007962052710354328
1782951254485377000,8.469376953125,-0.00752023421227932,0.004037884995341301,-0.0068025123327970505
1782951254495304000,8.479303955078125,-0.00256382510997355,0.004771319217979908,0.00458756135776639
1782951254505229800,8.489229736328125,-0.0011001517996191978,0.007592672016471624,0.013714480213820934
1782951254515157000,8.499156982421875,-0.0003014698449987918,0.0073593794368207455,0.018266888335347176
1782951254525084000,8.509083984375,-0.0010628675809130073,-0.007222492713481188,0.007892544381320477
1782951254535009800,8.519009765625,-0.004321245010942221,-0.01119486428797245,-0.009368468075990677
1782951254544937000,8.52893701171875,-0.0021406488958746195,-0.001457548001781106,-0.01859525591135025
1782951254554863900,8.53886376953125,-0.00900015328079462,0.008963135071098804,-0.01635686866939068
1782951254564791000,8.548791015625,-0.008050736039876938,0.012225773185491562,-0.008386294357478619
1782951254574717000,8.558717041015624,-0.002350772265344858,0.006837399676442146,-0.0038802255876362324
1782951254584644000,8.56864404296875,-0.003891144646331668,0.007097057998180389,-0.00003861583536490798
1782951254594570800,8.57857080078125,-0.005660815164446831,-0.006392118986696005,-0.002590989461168647
1782951254604497000,8.588496826171875,-0.0019856528379023075,-0.00896553136408329,-0.004562261048704386
1782951254614424000,8.598424072265624,-0.003982757218182087,-0.0010990865994244814,0.003436276689171791
1782951254624351000,8.60835107421875,-0.008231564424932003,0.012250008061528206,0.006024869158864021
1782951254634278100,8.618278076171874,-0.008058459497988224,0.015400261618196964,0.002168079372495413
1782951254644203800,8.628203857421875,-0.00392842898145318,0.018968364223837852,-0.006076268386095762
1782951254654131000,8.638130859375,0.0010016148444265127,0.009355951100587845,-0.012395949102938175
1782951254664057900,8.648057861328125,0.0054642739705741405,0.0012650014832615852,-0.006262423470616341
1782951254673985000,8.657985107421876,0.009150355122983456,-0.0031473238486796618,0.0033688987605273724
1782951254683911000,8.667910888671875,0.010386860929429531,-0.00253453035838902,0.015235145576298237
1782951254693837800,8.677837890625,0.008988169021904469,-0.00054142065346241,0.022424083203077316
1782951254703765000,8.687764892578125,-0.000355532014509663,0.011292335577309132,0.02321823686361313
1782951254713691000,8.69769091796875,-0.006930610164999962,0.015692410990595818,0.014522483572363853
1782951254723618000,8.7076181640625,-0.012781308963894844,0.0172604788094759,0.003549194661900401
1782951254733545000,8.717544921875,-0.01925092563033104,0.016889501363039017,-0.01666259951889515
1782951254743471900,8.727471923828125,-0.02057238668203354,0.006792924832552671,-0.0255703404545784
1782951254753398000,8.73739794921875,-0.01600772887468338,0.0004468784318305552,-0.031080687418580055
1782951254763325700,8.74732568359375,-0.009815612807869911,-0.0033358754590153694,-0.03170520067214966
1782951254773252600,8.757252685546876,-0.008844624273478985,-0.009277653880417347,-0.029513683170080185
1782951254783178800,8.7671787109375,-0.0043923514895141125,-0.01943202130496502,-0.019836554303765297
1782951254793105700,8.777105712890625,-0.007843808270990849,-0.003964648116379976,-0.00017177389236167073
1782951254803032600,8.787032470703124,-0.011831359006464481,0.013705425895750523,0.015380021184682846
1782951254812959700,8.796959716796875,-0.011065701022744179,0.01582716591656208,0.01714250072836876
1782951254822885600,8.8068857421875,-0.011917912401258945,0.015328622423112392,0.009434248320758343
1782951254832812800,8.816812744140625,-0.01804850809276104,0.019882895052433014,0.003572896821424365
1782951254842739700,8.82673974609375,-0.018543856218457222,0.019687684252858162,-0.004609665367752314
1782951254852666600,8.83666650390625,-0.012203935533761978,0.01028432883322239,-0.012314722873270512
1782951254862592800,8.8465927734375,-0.004433364141732454,0.005677859298884869,-0.00860201008617878
1782951254872519700,8.856519775390625,0.004002731293439865,0.0007326356135308743,-0.0028242822736501694
1782951254882446800,8.86644677734375,0.0068235513754189014,0.00307568465359509,-0.001621332485228777
1782951254892372700,8.876372802734375,0.012808472849428654,0.001091629732400179,-0.0007683219737373292
1782951254902299600,8.886299560546876,0.008129299618303776,0.005874666851013899,-0.0036538569256663322
1782951254912226600,8.8962265625,0.00936021190136671,0.008194546215236187,-0.0026812704745680094
1782951254922153700,8.90615380859375,0.005969741847366095,0.007607053499668837,0.0031318773981183767
1782951254932079900,8.916079833984375,0.007901598699390888,0.0072943982668221,0.012734171003103256
1782951254942006800,8.9260068359375,0.0031276163645088673,0.01708604209125042,0.015195731073617935
1782951254951933700,8.93593359375,0.004562527406960726,0.031259384006261826,0.018137991428375244
1782951254961859600,8.945859619140625,-0.003944407682865858,0.044796232134103775,0.019781960174441338
1782951254971786800,8.955786865234375,-0.004163586068898439,0.03942596912384033,0.01534486748278141
1782951254981713700,8.965713623046875,0.005658418405801058,0.026363430544734,0.005797701422125101
1782951254991640800,8.975640869140625,0.00720411678776145,0.001166198286227882,-0.006554838269948959
1782951255001566700,8.985566650390625,0.0116776954382658,-0.01944560371339321,-0.013410613872110844
1782951255011493600,8.99549365234375,0.011518171988427639,-0.02509576641023159,-0.017610419541597366
1782951255021420800,9.0054208984375,0.01098394114524126,-0.016571253538131714,-0.023963123559951782
1782951255031347700,9.01534765625,0.010637197643518448,-0.0007768440991640091,-0.0259849950671196
1782951255041273900,9.02527392578125,0.008225971832871437,0.014445518143475056,-0.017910823225975037
1782951255051200500,9.035200439453124,0.003626959165558219,0.02689233422279358,0.000009853695701167453
1782951255061127700,9.045127685546875,0.0006133259739726782,0.0254539605230093,0.010640926659107208
1782951255071053800,9.0550537109375,-0.007131146267056465,0.024106135591864586,0.03243090957403183
1782951255080980700,9.064980712890625,-0.016649816185235977,0.03346981108188629,0.04499730095267296
1782951255090908000,9.074907958984374,-0.016940901055932045,0.02544810250401497,0.036559343338012695
1782951255100834600,9.08483447265625,-0.012593289837241173,0.013110475614666939,0.014007695019245148
1782951255110760700,9.0947607421875,-0.012110725045204163,0.0032525185961276293,-0.006007025949656963
1782951255120687600,9.1046875,-0.008947421796619892,-0.00848589651286602,-0.015724634751677513
1782951255130614800,9.11461474609375,-0.010864365845918655,-0.007352188695222139,-0.023842748254537582
1782951255140540700,9.124540771484375,-0.012820190750062466,-0.00264851376414299,-0.018257034942507744
1782951255150467600,9.134467529296876,-0.015535017475485802,0.008236091583967209,-0.011716843582689762
1782951255160394800,9.144394775390625,-0.023683758452534676,0.012528308667242527,-0.005587311927229166
1782951255170321700,9.15432177734375,-0.02749127894639969,0.008809736929833889,0.0031494542490690947
1782951255180247800,9.164247802734375,-0.026998594403266907,0.004510595928877592,0.010482202284038067
1782951255190174700,9.1741748046875,-0.02863697148859501,-0.000362988852430135,0.018116420134902
1782951255200101600,9.1841015625,-0.018861837685108185,-0.003425357863306999,0.009935189038515091
1782951255210028500,9.194028564453125,-0.011211375705897808,-0.0038418760523200035,-0.006055229343473911
1782951255219954700,9.20395458984375,-0.0015329155139625072,-0.002031991956755519,-0.025860093533992767
1782951255229881900,9.2138818359375,0.00259418529458344,-0.00361737166531384,-0.043829772621393204
1782951255239808800,9.223808837890624,0.0018282600212842226,-0.006792126223444939,-0.05277985706925392
1782951255249734700,9.233734619140625,0.003084206720814109,-0.01067741122096777,-0.05409839004278183
1782951255259661600,9.24366162109375,-0.0011265170760452747,-0.0041366880759596825,-0.05115426331758499
1782951255269588700,9.253588623046875,-0.01053360104560852,0.016264989972114563,-0.060800231993198395
1782951255279515600,9.263515625,-0.015305186621844769,0.012029232457280159,-0.0778157040476799
1782951255289441800,9.27344189453125,-0.0147445909678936,0.00974557176232338,-0.06698302924633026
1782951255299368700,9.28336865234375,-0.01576697826385498,0.016021311283111572,-0.021732991561293602
1782951255309295600,9.293295654296875,-0.011454788036644459,0.02515675127506256,0.044856153428554535
1782951255319221800,9.3032216796875,-0.012567989528179169,0.019543340429663658,0.09537658840417862
1782951255329148700,9.313148681640625,-0.006371080409735441,0.010074738413095474,0.10357353091239929
1782951255339075800,9.323075927734376,-0.002713228575885296,0.0041212416253983974,0.07121159881353378
1782951255349002500,9.33300244140625,0.0003246393462177366,0.00284958234988153,0.02383342757821083
1782951255358928600,9.3429287109375,-0.0016074840677902102,0.010201770812273026,-0.011034275405108929
1782951255368855800,9.352855712890625,-0.0075876121409237385,0.013737383298575878,-0.031625568866729736
1782951255378782700,9.36278271484375,-0.011665444821119308,0.015921441838145256,-0.03641127049922943
1782951255388710000,9.3727099609375,-0.011498730629682541,0.010607103817164898,-0.036015525460243225
1782951255398635500,9.382635498046875,-0.005194229539483786,0.011868377216160297,-0.022895196452736855
1782951255408562700,9.392562744140625,-0.0032919333316385746,0.01685035228729248,-0.017423199489712715
1782951255418489600,9.402489501953125,-0.0010641991393640637,0.010664362460374832,-0.019027752801775932
1782951255428415700,9.412415771484374,-0.0007661914569325745,-0.010654241777956486,-0.023679230362176895
1782951255438343000,9.422343017578125,0.00017683389887679368,-0.028672657907009125,-0.01565193012356758
1782951255448269600,9.43226953125,0.0025100293569266796,-0.021375596523284912,-0.006280266214162111
1782951255458196700,9.44219677734375,-0.002216282533481717,-0.0008591357618570328,0.008109858259558678
1782951255468122600,9.45212255859375,-0.003493002150207758,0.0044440170750021935,0.011712050065398216
1782951255478049800,9.4620498046875,-0.009095760062336922,0.009618538431823254,0.012937636114656925
1782951255487976700,9.471976806640624,-0.011937885545194149,0.013607688248157501,0.006312224548310041
1782951255497902600,9.481902587890625,-0.013858557678759098,0.015355254523456097,0.0025710156187415123
1782951255507829800,9.491829833984376,-0.01315308641642332,0.010129333473742008,-0.0004820321628358215
1782951255517756700,9.501756591796875,-0.00809041690081358,-0.0037888791412115097,-0.0035987296141684055
1782951255527683800,9.511683837890626,0.006991064175963402,-0.0163589995354414,-0.003910319413989782
1782951255537609700,9.521609619140625,0.017584320157766342,-0.013862552121281624,-0.0007155913626775146
1782951255547536600,9.53153662109375,0.025106951594352722,-0.001531850197352469,-0.0020477045327425003
1782951255557463600,9.541463623046875,0.026157833635807037,0.021886389702558517,-0.0113400062546134
1782951255567389700,9.5513896484375,0.033733196556568146,0.012471050955355167,-0.028925657272338867
1782951255577316900,9.56131689453125,0.03399711474776268,0.002837598090991378,-0.0346197634935379
1782951255587243800,9.571243896484376,0.03224156051874161,-0.014520352706313133,-0.00860067829489708
1782951255597171000,9.5811708984375,0.023664848878979683,-0.008446215651929379,0.03537263721227646
1782951255607096600,9.5910966796875,0.019420836120843887,-0.024758609011769295,0.07146646082401276
1782951255617023700,9.601023681640624,0.025542378425598145,-0.03678438067436218,0.0824301615357399
1782951255626950700,9.61095068359375,0.046131011098623276,-0.018570754677057266,0.06419416517019272
1782951255636877800,9.6208779296875,0.05192657932639122,-0.008551676757633686,0.020024042576551437
1782951255646803700,9.6308037109375,0.05582491680979729,-0.002086320426315069,-0.014306235127151012
1782951255656730600,9.640730712890624,0.04881467670202255,-0.00507065886631608,-0.03941824659705162
1782951255666657800,9.65065771484375,0.03923448920249939,-0.011818310245871544,-0.043409526348114014
1782951255676583700,9.660583740234374,0.023665115237236023,-0.014913169667124748,-0.043966926634311676
1782951255686510800,9.6705107421875,0.010876083746552467,-0.02845720760524273,-0.03999615088105202
1782951255696437500,9.6804375,0.014486797153949738,-0.02521773800253868,-0.03761741518974304
1782951255706364700,9.69036474609375,0.012647352181375027,0.00011158645065734163,-0.02375646121799946
1782951255716290800,9.700290771484376,0.0067665595561265945,0.01793292723596096,0.006588660646229982
1782951255726217700,9.7102177734375,0.0010724549647420645,0.030221285298466682,0.03611566126346588
1782951255736145000,9.720144775390626,-0.004312456585466862,0.02684359811246395,0.05041923001408577
1782951255746070500,9.730070556640625,-0.0015720640076324344,0.01281406544148922,0.045460425317287445
1782951255755997700,9.739997802734376,0.0029763488564640284,0.00043649208964779973,0.026163427159190178
1782951255765924900,9.7499248046875,0.005313272587954998,-0.013801566325128078,-0.004235491156578064
1782951255775851800,9.759851806640626,0.006701578386127949,-0.01275494322180748,-0.020023509860038757
1782951255785778000,9.76977783203125,0.004965996369719505,-0.005022455472499132,-0.022428609430789948
1782951255795704800,9.779704833984376,0.005124188028275967,0.0009659285424277186,-0.010042247362434864
1782951255805632000,9.789632080078125,0.007786284200847149,0.00908830389380455,-0.0006285060080699623
1782951255815558000,9.799557861328125,0.0056983656249940395,0.012298211455345154,0.008587629534304142
1782951255825484800,9.80948486328125,0.0041153826750814915,0.018702847883105278,0.015237808227539062
1782951255835411700,9.81941162109375,0.008547415025532246,0.022767363116145134,0.021882662549614906
1782951255845339000,9.8293388671875,0.003198456484824419,0.01383831724524498,0.02328348532319069
1782951255855265000,9.83926513671875,-0.0115546565502882,0.009623865596950054,0.018747055903077126
1782951255865192000,9.84919189453125,-0.016404272988438606,-0.001166198286227882,0.004042944870889187
1782951255875118800,9.859118896484375,-0.02406725287437439,-0.005554288625717163,-0.012383964844048023
1782951255885045800,9.869045654296874,-0.030940072610974312,-0.00043223105603829026,-0.01908261515200138
1782951255894971000,9.878970947265625,-0.046424757689237595,0.003754258155822754,-0.03296647220849991
1782951255904896800,9.888896728515626,-0.06515742838382721,-0.013682256452739239,-0.039629433304071426
1782951255914823700,9.89882373046875,-0.06130170822143555,-0.0037433390971273184,-0.04223533719778061
1782951255924750800,9.908750732421876,-0.0714707225561142,0.014586132951080799,-0.04826340451836586
1782951255934677000,9.918677001953125,-0.08682171255350113,0.014165620319545269,-0.06620698422193527
1782951255944604000,9.92860400390625,-0.08687923848628998,-0.011115767993032932,-0.08758897334337234
1782951255954531000,9.938531005859375,-0.07868842035531998,-0.028932582587003708,-0.09481599181890488
1782951255964457700,9.948457763671875,-0.08177928626537323,-0.023150326684117317,-0.0854073092341423
1782951255974383900,9.9583837890625,-0.06738036870956421,-0.005264270585030317,-0.0697638988494873
1782951255984310800,9.968310791015625,-0.04693474993109703,0.01483620423823595,-0.04598773270845413
1782951255994238000,9.978238037109374,-0.03434865176677704,0.02221156284213066,-0.011240404099225998
1782951256004163800,9.988163818359375,-0.03020903468132019,0.009377256035804749,0.020868530496954918
1782951256014090800,9.9980908203125,-0.024711204692721367,-0.0032208270858973265,0.035826973617076874
1782951256024018000,10.008017822265625,-0.010982343927025795,-0.014578410424292088,0.025851836428046227
1782951256033944800,10.01794482421875,0.005629656370729208,-0.008656871505081654,0.005917544011026621
1782951256043871000,10.02787109375,0.024227574467658997,0.009105348028242588,-0.011855061165988445
1782951256053797600,10.037797607421876,0.033835992217063904,0.004310326185077429,-0.00720411678776145
1782951256063724800,10.047724853515625,0.037825144827365875,-0.013925403356552124,0.003498861100524664
1782951256073651700,10.057651611328126,0.03376542031764984,-0.015356319025158882,0.02666276879608631
1782951256083577900,10.067577880859375,0.0154367471113801,-0.00012783173588104546,0.04014795273542404
1782951256093505000,10.077505126953126,-0.003811782458797097,0.002972087822854519,0.04276184365153313
1782951256103432000,10.087431884765625,-0.013043363578617573,-0.0022501046769320965,0.028664933517575264
1782951256113357800,10.09735791015625,-0.013647901825606823,-0.002781405346468091,0.0026908579748123884
1782951256123284700,10.10728466796875,-0.008303469978272915,0.0006402239087037742,-0.021792380139231682
1782951256133212000,10.1172119140625,-0.005332447588443756,0.00944889523088932,-0.030592264607548714
1782951256143138800,10.127138916015625,-0.019530823454260826,0.015547534450888634,-0.024513598531484604
1782951256153064700,10.137064697265625,-0.02327842451632023,0.013969611376523972,-0.014395717531442642
1782951256162991900,10.146991943359374,-0.035222169011831284,0.01732093282043934,-0.01515871286392212
1782951256172918800,10.156918701171875,-0.03754524514079094,0.031091073527932167,-0.026733078062534332
1782951256182845000,10.166844970703124,-0.044197287410497665,0.04796406254172325,-0.041423872113227844
1782951256192771800,10.176771728515625,-0.057562362402677536,0.045950181782245636,-0.053517285734415054
1782951256202699000,10.186698974609374,-0.06203993409872055,0.020953752100467682,-0.04579837992787361
1782951256212625700,10.196625732421875,-0.05572051927447319,-0.005820604972541332,-0.04073011875152588
1782951256222551800,10.2065517578125,-0.03520992025732994,-0.009468602947890759,-0.0434260368347168
1782951256232479000,10.21647900390625,-0.014150706119835377,0.010477407835423946,-0.04447345808148384
1782951256242406000,10.226406005859374,0.0038008634001016617,0.028327245265245438,-0.032527584582567215
1782951256252331800,10.236331787109375,0.0034048515371978283,0.018160628154873848,-0.019518574699759483
1782951256262258700,10.2462587890625,0.0038421424105763435,0.00689039658755064,-0.02028103731572628
1782951256272187000,10.256186767578125,0.01423246506601572,0.01642477884888649,-0.030584007501602173
1782951256282112800,10.26611279296875,0.017128653824329376,0.02869529463350773,-0.04072719067335129
1782951256292040000,10.2760400390625,0.0175773948431015,0.008610266260802746,-0.04397731274366379
1782951256301966800,10.285966796875,0.010439857840538025,-0.021574001759290695,-0.0519886314868927
1782951256311894000,10.29589404296875,0.006675745826214552,-0.022048044949769974,-0.06149239093065262
1782951256321820000,10.30581982421875,0.008324774913489819,-0.01016874797642231,-0.06584186106920242
1782951256331746800,10.315746826171875,7.989483492565341e-7,0.001413339632563293,-0.06073445454239845
1782951256341673700,10.325673828125,0.010311493650078773,0.02503238245844841,-0.041182588785886765
1782951256351601000,10.335600830078125,-0.03130172938108444,0.0481606051325798,-0.03817135468125343
1782951256361526800,10.34552685546875,-0.050387538969516754,0.048591505736112595,-0.042580217123031616
1782951256371453700,10.35545361328125,-0.06279520690441132,0.06122048199176788,-0.03152383863925934
1782951256381380900,10.365380859375,-0.0564986951649189,0.046597860753536224,-0.012258796952664852
1782951256391306800,10.375306640625,-0.0503542497754097,0.019565977156162262,0.01624714583158493
1782951256401234000,10.38523388671875,-0.04542846605181694,0.005149488337337971,0.03176219016313553
1782951256411160800,10.395160888671874,-0.04727856442332268,0.011018296703696251,0.022358834743499756
1782951256421087700,10.405087646484375,-0.037697844207286835,0.041678737848997116,0.0005052016349509358
1782951256431014000,10.415013916015624,-0.021927403286099434,0.061886269599199295,-0.04181269556283951
1782951256440940800,10.42494091796875,0.0019678096286952496,0.056227851659059525,-0.08634474128484726
1782951256450868000,10.434867919921874,0.033608026802539825,0.030767234042286873,-0.10567742586135864
1782951256460793900,10.4447939453125,0.05447469279170036,0.035763856023550034,-0.07695869356393814
1782951256470720800,10.454720703125,0.05579828470945358,0.05041923001408577,0.010463027283549309
1782951256480647700,10.464647705078125,0.045592520385980606,0.021857628598809242,0.06961449980735779
1782951256490574800,10.474574951171874,0.054545801132917404,0.03564028441905975,0.12822987139225006
1782951256500501000,10.4845009765625,0.06993541121482849,0.051837366074323654,0.17723150551319122
1782951256510428000,10.494427978515626,0.06482134014368057,0.02021552249789238,0.1692044734954834
1782951256520354800,10.504354736328125,0.05350849777460098,0.003915379289537668,0.09725331515073776
1782951256530280700,10.51428076171875,0.049801379442214966,0.0454455129802227,0.01236558984965086
1782951256540207900,10.524207763671875,0.03397820517420769,0.07096951454877853,-0.07104940712451935
1782951256550134800,10.534134765625,0.01672811433672905,0.054783619940280914,-0.12548309564590454
1782951256560062000,10.54406201171875,0.0079761678352952,0.02460840716958046,-0.1648390144109726
1782951256569987800,10.55398779296875,-0.017466608434915543,0.04620078578591347,-0.20121459662914276
1782951256579914800,10.563914794921875,-0.04119617119431496,0.11010546237230301,-0.21014603972434998
1782951256589842000,10.573842041015626,-0.04944531247019768,0.14117470383644104,-0.17241305112838745
1782951256599768800,10.583768798828125,-0.047808799892663956,0.0704861506819725,-0.10651285946369171
1782951256609695000,10.593695068359375,-0.030658576637506485,-0.07906605303287506,-0.042090196162462234
