time,seconds_elapsed,z,y,x
1782968782052247600,0.06124755859375,-0.21402502799630163,-4.931051795837283,5.246678418698907
1782968782062174500,0.071174560546875,0.12615619040727616,-4.911821025666594,4.881556528045237
1782968782072100600,0.0811005859375,-0.22760990123450756,-4.841758478403091,4.624481755134463
1782968782082026500,0.091026611328125,-1.3650900830864905,-4.5957893291354175,4.1461408970579505
1782968782091953400,0.100953369140625,-2.6062691243439913,-4.012468631932139,3.593247194561362
1782968782101879600,0.110879638671875,-3.7137656713426113,-3.476076274642348,3.108453799344599
1782968782111806700,0.120806640625,-4.699864036116003,-3.0570760788068174,2.6444623691380023
1782968782121732400,0.130732421875,-5.115621012246608,-2.5543077586993572,2.224182070364058
1782968782131658500,0.140658447265625,-4.76973486019969,-2.0528512518428266,2.0996093497559425
1782968782141585700,0.150585693359375,-3.9816421165138483,-1.712180788617581,2.1834943784058094
1782968782151511600,0.160511474609375,-3.0815859584242102,-1.519629487413168,2.185637089522928
1782968782161437400,0.1704375,-2.3039134864658117,-1.347604987539351,1.9872735949084162
1782968782171364600,0.180364501953125,-1.6775795769661663,-1.1689967253610491,1.6295558430314063
1782968782181290800,0.190290771484375,-1.1924521274894475,-1.0169593669831751,1.241256782668829
1782968782191217400,0.200217529296875,-1.1599737532109022,-0.9712491706877946,1.0304258014734833
1782968782201143600,0.2101435546875,-1.6152409019529819,-0.8327123682655394,0.7774371288325637
1782968782211069700,0.220069580078125,-2.297105560016632,-0.5068363001987338,0.4110966561693698
1782968782220996600,0.22999658203125,-2.917822214156389,-0.04235430999621749,0.011889613627642393
1782968782230922500,0.239922607421875,-3.246680659034848,0.4702842467404902,-0.33229864846020934
1782968782240848600,0.2498486328125,-3.133435388126969,0.8880303508616983,-0.6249065070450306
1782968782250775600,0.259775634765625,-2.803977223789692,1.1190880544625221,-0.7805563568316399
1782968782260701400,0.269701416015625,-2.39050865085721,1.3017458842925727,-0.8977437894940375
1782968782270627600,0.279627685546875,-1.7071879487663506,1.5389515891291201,-0.9962591087818146
1782968782280554500,0.289554443359375,-0.8633703952491283,1.6233695556119083,-1.0416863964825869
1782968782290480600,0.299480712890625,0.003686579558253288,1.6491935865677891,-1.105607372251153
1782968782300407300,0.3094072265625,0.7357751119494438,1.7903876255005597,-1.1414283349558711
1782968782310333400,0.31933349609375,1.336383044040203,2.0321227904602885,-0.982309786145389
1782968782320259600,0.329259521484375,1.6268232031971215,2.398298574081063,-0.45190644013732667
1782968782330186500,0.3391865234375,1.5481278521448374,2.9330899259150027,0.04871025489419698
1782968782340112400,0.3491123046875,1.4907932690292596,3.5167511071190236,0.33348215915635226
1782968782350038500,0.35903857421875,1.5956477282106876,3.8767777204602956,0.2631993932709098
1782968782359965400,0.36896533203125,1.8192063082277774,3.95325247285366,0.02262275069653988
1782968782369891600,0.3788916015625,2.049355957072973,3.8862262245461343,-0.15820596401020884
1782968782379817500,0.3888173828125,2.116915581604838,3.9359173071712252,-0.33827743060886856
1782968782389744600,0.39874462890625,1.9973364315003155,4.140674448345601,-0.5053216578520834
1782968782399670500,0.40867041015625,1.9237427875012159,4.450436270827055,-0.5380567833706736
1782968782409597700,0.41859765625,1.8895038332909344,4.776236497178673,-0.4349610044248402
1782968782419523600,0.428523681640625,1.8927900153547523,5.225296607974172,-0.5061966871209442
1782968782429449500,0.438449462890625,1.8260604119062422,5.40961798710227,-0.3039100277133286
1782968782439376600,0.448376708984375,1.6601421199530362,5.659656577765941,-0.1544657545685768
1782968782449302500,0.458302490234375,1.4919792639434337,5.838847608268261,-0.16392273422181605
1782968782459228400,0.468228515625,1.4394213937103748,5.860595914217829,-0.11741028163284063
1782968782469155600,0.478155517578125,1.450001239913702,5.814408163538575,0.012714666274935007
1782968782479081700,0.488081787109375,1.4574720141857862,5.792643490976094,0.14976006109565496
1782968782489008400,0.49800830078125,1.2392559642404317,5.88429886136651,0.16841799981445074
1782968782498934500,0.5079345703125,0.9628794017493725,6.000180325996875,-0.02897226585373282
1782968782508860700,0.517860595703125,0.8105711174756288,5.943050910064578,-0.3811490424774587
1782968782518787600,0.52778759765625,0.6495990497529506,5.8596904898107045,-0.7384821789510547
1782968782528713500,0.53771337890625,0.5394646043419837,5.8475534772932525,-1.0782231062412262
1782968782538639600,0.5476396484375,0.5236334134817123,5.796881859198212,-1.3308765555784106
1782968782548566500,0.55756640625,0.5498100572675466,5.666301422607899,-1.5791443371772764
1782968782558492400,0.567492431640625,0.6417120958954096,5.497945089852809,-1.7814048392303288
1782968782568418600,0.57741845703125,0.6726900024831295,5.413937603867054,-2.0223297107204794
1782968782578345500,0.587345458984375,0.7191554010599851,5.233343720829486,-2.4460982900016006
1782968782588271600,0.597271728515625,0.7906406746029854,4.925494746232032,-2.8260382489502427
1782968782598198500,0.607198486328125,0.5642758049935103,4.666919213369488,-2.8502614205807446
1782968782608124400,0.61712451171875,0.3863964416116476,4.685266478703916,-2.8329116418510676
1782968782618050600,0.627050537109375,0.46272038735747334,4.566189140641689,-2.46261001047194
1782968782627977700,0.636977783203125,0.6563391716629267,4.383151371583343,-2.3916660041987896
1782968782637903400,0.6469033203125,0.8427870414257049,4.110710102714598,-2.54091227055341
1782968782647829500,0.65682958984375,0.4425052823245525,3.652750646148622,-2.734195831555128
1782968782657756700,0.666756591796875,-0.4615992743730545,3.3100556913584467,-3.002610913647711
1782968782667682300,0.676682373046875,-1.6090332794845104,3.0855434638783334,-3.0100907480090853
1782968782677609500,0.686609375,-2.5844424924612044,2.8686358661830424,-2.685602773299813
1782968782687535600,0.69653564453125,-3.2218373096793886,2.848966412334144,-2.272684089335054
1782968782697461500,0.70646142578125,-3.6045471717327833,2.6792349918335674,-2.0184492160253225
1782968782707388700,0.716388671875,-3.8049043243825436,2.2253049369141458,-2.0147280035451054
1782968782717314600,0.726314453125,-4.064125753933191,1.8359737570248542,-2.1372259637057778
1782968782727240400,0.736240478515625,-4.538125075674056,1.2547995703309773,-2.366879791858047
1782968782737167600,0.746167724609375,-4.9059535949379205,0.728876000085473,-2.5527257502049205
1782968782747093500,0.756093505859375,-4.865865914699435,0.1743424214273691,-2.6801950690373775
1782968782757019400,0.766019287109375,-4.52868212454617,-0.43411900064274667,-2.7837819925010203
1782968782766946600,0.775946533203125,-3.9273172366082667,-0.6278482595853507,-2.6120716731429097
1782968782776872700,0.785872802734375,-3.2679408892065283,-0.534134787621349,-2.22606671506688
1782968782786799400,0.79579931640625,-2.5687878272116182,-0.29867183479890225,-2.2928394270047545
1782968782796725500,0.8057255859375,-1.8551245938271284,-0.844543821965158,-1.856741235243529
1782968782806651600,0.815651611328125,-0.9872270765423774,-1.3130970071293413,-1.285396514777094
1782968782816578600,0.82557861328125,-0.4740542667984962,-1.6600361753605306,-0.4897476566232741
1782968782826504400,0.83550439453125,-0.24034195703566072,-1.647522000093758,0.542547080527246
1782968782836430600,0.8454306640625,-0.07993512198030948,-1.297318569369614,1.7642928147792816
1782968782846357500,0.855357421875,-0.12068448099792004,-1.1355173573464155,2.8364307558879256
1782968782856283400,0.865283447265625,-0.28528350704610345,-1.3728297374278307,3.468122100767493
1782968782866209500,0.87520947265625,-0.25789690294861795,-1.8146278943963348,3.7684956249177453
1782968782876136400,0.885136474609375,-0.06898819603025913,-2.4162299520909785,3.918308585244417
1782968782886062600,0.8950625,0.3460042254686355,-3.4507790440395474,3.934155265934765
1782968782895989500,0.904989501953125,1.1248901648700236,-5.060652573740482,3.1758935968890785
1782968782905915400,0.914915283203125,2.948807719528675,-5.509952338510751,0.40896234755441546
1782968782915841500,0.924841552734375,3.521054649531841,-4.18173506526947,-0.039829175432771445
1782968782925768700,0.934768798828125,3.357330068230629,-3.5256869855076074,1.3556371950864792
1782968782935694300,0.9446943359375,3.4118957711547613,-3.5866868131324647,2.882239736382663
1782968782945620500,0.954620361328125,3.3343384842216968,-3.9141485429555174,4.560292191557586
1782968782955547600,0.964547607421875,3.0911534127146005,-4.118334898504615,6.023251404982805
1782968782965473500,0.9744736328125,2.8453023368686434,-4.174056785726547,7.159583585843444
1782968782975399400,0.9843994140625,3.1970085733711717,-3.706576344360411,7.505867797297239
1782968782985326600,0.99432666015625,3.0574264996796843,-3.2247569965183733,7.587779772308468
1782968782995252700,1.004252685546875,1.637273870062828,-3.816806066839397,7.264768299892545
1782968783005179600,1.0141796875,0.33611820674836634,-4.200860621500015,6.272019829580187
1782968783015105500,1.02410546875,-0.6596785452187061,-4.40479037193954,5.054719676560163
1782968783025031700,1.03403173828125,-1.1364216127097606,-4.347736359331011,3.5994022100597616
1782968783034958600,1.04395849609375,-1.5072347007423639,-4.224847354026139,2.7861124812752007
1782968783044884500,1.053884521484375,-1.964257753241062,-5.334940054997801,3.7347707577094433
1782968783054810600,1.063810546875,-1.2591215251833199,-5.689226371121406,3.6029631174117323
1782968783064737500,1.073737548828125,-0.4913584528207779,-5.555117760404944,3.5141435549691318
1782968783074663700,1.08366357421875,-0.110412093308568,-5.620564338305592,3.6212954774379726
1782968783084590300,1.09359033203125,-0.011598083335161208,-5.6421589149981735,3.8673257092431186
1782968783094516500,1.1035166015625,-0.053360418787598604,-5.448569356787204,3.8616912104874848
1782968783104442600,1.113442626953125,0.043299628022313116,-5.111702377498149,3.7109506139218804
1782968783114369500,1.12336962890625,0.18160802851617336,-4.725131748363375,4.046023695531487
1782968783124295400,1.13329541015625,0.42088732475638385,-4.477782542914152,4.304334147717058
1782968783134221600,1.1432216796875,0.39146892257034777,-4.843218614083528,4.341334091073274
1782968783144148500,1.1531484375,0.12361176662147044,-4.484485547684133,3.821338157311082
1782968783154074400,1.163074462890625,-1.129617193391919,-4.038789944885671,3.386136768259108
1782968783164000500,1.17300048828125,-2.9005121829152105,-4.029912810947001,3.2201910037770864
1782968783173927400,1.182927490234375,-3.4970845758795734,-3.349392260968685,2.7650124101012943
1782968783183853600,1.192853515625,-3.8114223279744386,-2.5392443373411893,1.8161919288426636
1782968783193780500,1.202780517578125,-3.5532846020072695,-2.1164768979266286,1.3096847144678234
1782968783203706600,1.21270654296875,-2.5942443400293587,-1.086624585492164,2.1272101811259985
1782968783213632500,1.222632568359375,-1.2605138563245535,-0.8689264219410717,1.8871106545440852
1782968783223559700,1.2325595703125,-1.3189222061514854,-2.264628793173283,0.057405456394702195
1782968783233485600,1.242485595703125,-2.491492990607023,-2.301389520946145,-0.21077859342098235
1782968783243411500,1.252411376953125,-3.5743875957906246,-1.467484728025645,-0.07871084088236092
1782968783253338600,1.262338623046875,-3.767281572952866,-0.7905766694560646,-0.07196589666679501
1782968783263264500,1.272264404296875,-3.1952889099717137,-0.2656485399886966,-0.3015599574558437
1782968783273190400,1.2821904296875,-2.40020703805089,0.28095746054053305,-0.9983790235452353
1782968783283117600,1.29211767578125,-1.9879478409081697,0.5736882148526609,-1.5934861662626265
1782968783293043700,1.302043701171875,-1.6192717649042605,0.5886515368372202,-1.807705547787249
1782968783302970400,1.311970458984375,-0.8289812189131974,0.702902916047722,-1.9098625845782458
1782968783312896500,1.321896484375,-0.04520341581702232,1.3679701685674488,-1.847805941376835
1782968783322822700,1.33182275390625,-0.433587816375494,1.4655414850033819,-1.9490119610533116
1782968783332749600,1.34174951171875,-2.5938176390498877,1.65808825616315,-0.8281108658194541
1782968783342675500,1.351675537109375,-4.024946420711279,2.743914677014947,0.5412981033794582
1782968783352601600,1.3616015625,-4.11519192430377,4.400815038567782,0.3544076044157147
1782968783362528500,1.371528564453125,-3.7596108921945093,4.9312464416265485,0.17941826338693498
1782968783372454700,1.38145458984375,-2.280801490947604,4.276107877925038,0.5973454231634736
1782968783382380500,1.391380615234375,-0.516218753311038,4.261571110789477,0.18711276341229677
1782968783392307500,1.401307373046875,0.7999918557941913,4.177915214720368,-0.28673940494284034
1782968783402233600,1.411233642578125,1.5879554201424122,3.9205288916423915,-0.43322789702191944
1782968783412160500,1.421160400390625,2.0686551163047553,3.8405858786165714,-0.4845762453347444
1782968783422086400,1.43108642578125,2.0810265220999717,3.8631799877405166,-0.4170252425007522
1782968783432012500,1.441012451171875,1.3898065911918878,4.071592436552048,-0.1778783404685557
1782968783441939700,1.450939697265625,0.3607131343007087,4.485146641941368,0.08331599659025668
1782968783451865300,1.460865234375,-0.31769641487300393,4.962547588819265,0.20199878237694502
1782968783461791500,1.47079150390625,-0.4273006989300251,5.304872833514214,0.2389253682360053
1782968783471718700,1.48071875,-0.040354222220182416,5.430074499675631,0.20520283911526202
1782968783481644500,1.49064453125,0.456743651035428,5.410827947413921,0.19325623460337518
1782968783491570400,1.5005703125,1.0122498741179704,5.363939939510822,0.1987503019750118
1782968783501497600,1.51049755859375,1.37290572527349,5.346154107451438,0.19303280111104248
1782968783511423500,1.520423583984375,1.3009855674445627,5.304453146797418,0.09981821857988833
1782968783521350700,1.5303505859375,0.8552274208039045,5.393771598672867,-0.025247838503122327
1782968783531276500,1.540276611328125,0.19401099849343298,5.545289024829864,-0.15045900314524768
1782968783541202400,1.550202392578125,-0.31255729841887947,5.709115897461771,-0.3771012283913791
1782968783551129600,1.560129638671875,-0.6544353838682174,5.845173888680338,-0.5496183340877294
1782968783561055500,1.570055419921875,-0.8109142318248749,5.889511043056845,-0.5608462689362466
1782968783570981400,1.5799814453125,-0.8273650158882141,5.8502007769316435,-0.6293183321379124
1782968783580908500,1.589908447265625,-0.804121502944827,5.735372620746493,-0.8082603563152253
1782968783590834700,1.599834716796875,-0.9038906216859817,5.556583741304278,-0.9119226831026375
1782968783600760600,1.609760498046875,-0.9482593402445316,5.410953035098314,-0.9170296508528292
1782968783610687500,1.6196875,-0.8602151460886001,5.310668952572345,-0.889445624487102
1782968783620613600,1.629613525390625,-0.6502373476564883,5.244131072303652,-0.8477706750571727
1782968783630540500,1.63954052734375,-0.3985129958629608,5.123678061974048,-0.7825373015157878
1782968783640466400,1.649466552734375,-0.2517658528476953,4.883538934034108,-0.839509188798815
1782968783650392600,1.659392578125,-0.11942016015052795,4.559233037893474,-1.0276664928279817
1782968783660319500,1.669319580078125,0.018706454035639763,4.238594432088733,-1.274296151831001
1782968783670245600,1.67924560546875,0.17328677489459512,3.909239435864985,-1.4588938636824489
1782968783680171500,1.689171630859375,0.19227847561240194,3.5926907297223805,-1.6143009907543657
1782968783690098400,1.699098388671875,-0.10892448509931564,3.2809698821276423,-1.7358591858468948
1782968783700023800,1.70902392578125,-0.3011287264317274,3.079671649235487,-1.7865506776861846
1782968783709949700,1.71894970703125,-0.1432166308015585,3.089587186311185,-2.0320630230970678
1782968783719876900,1.728876953125,-0.12009469841122626,2.5525223365873098,-1.5511908929772673
1782968783729802800,1.738802734375,-0.04312076432406902,2.10657042094022,-1.3027658749900757
1782968783739730000,1.74872998046875,0.12847031256854533,2.000541949543357,-1.4511030636757611
1782968783749655800,1.75865576171875,-0.10698328790366649,1.5425073819145558,-1.2135701727114616
1782968783759581700,1.768581787109375,-0.4875269118338823,0.9345578548893332,-0.9885551102757454
1782968783769508900,1.7785087890625,-0.7773059767335653,0.5640165695354342,-1.0842758304089306
1782968783779434800,1.788434814453125,-1.0775450608491897,0.216515968029201,-1.3320369776599108
1782968783789360600,1.798360595703125,-1.4178367538899181,-0.24084026194661853,-1.609837873865664
1782968783799287800,1.808287841796875,-1.7348177139699459,-0.8492923316664993,-1.6000573613464832
1782968783809214000,1.8182138671875,-2.019706084218621,-1.1728953402347861,-1.6615286058753729
1782968783819139800,1.828139892578125,-2.2130068886160847,-1.382020905751735,-1.691589251487702
1782968783829066800,1.838066650390625,-2.219963283625245,-1.624345707167685,-1.772658492064476
1782968783838993000,1.847992919921875,-2.148339478394389,-2.0086103974476455,-1.677436661364138
1782968783848919800,1.857919921875,-1.9921429545104503,-2.2565550845719873,-1.5859407193191348
1782968783858845700,1.867845703125,-1.8049983346551655,-2.3936356968365606,-1.4797629025794565
1782968783868771800,1.877771728515625,-1.5403092873483895,-2.462605918818712,-1.0881950496792792
1782968783878698800,1.88769873046875,-1.2424328407108782,-2.6769407434165475,-0.6537104305945336
1782968783888624600,1.897624755859375,-0.9455810609459876,-2.6805086650311947,-0.15738836401700973
1782968783898550800,1.90755078125,-0.8456143738061189,-2.3849162376776336,0.4045692271620035
1782968783908477700,1.917477783203125,-0.8696288711220026,-2.26199639884308,0.8611687935516238
1782968783918403800,1.92740380859375,-0.875161370807886,-2.4745208130180836,1.04721948069036
1782968783928329700,1.937329833984375,-0.45881636565625666,-2.6529204008817673,1.116894489941001
1782968783938256600,1.947256591796875,0.34484511856138705,-2.591995099797845,1.4646329918563366
1782968783948182800,1.957182861328125,1.081361988788843,-3.3575510175049303,1.079207002712041
1782968783958110000,1.96710986328125,1.6206605889141559,-4.8743689546287055,0.27224019333869215
1782968783968035600,1.97703564453125,2.0350597206950187,-6.796677325412631,-0.7990721106007694
1782968783977961700,1.986961669921875,2.269161906558275,-7.469579509341716,-2.4766280144304034
1782968783987889000,1.996888916015625,2.655468331798911,-6.762551183927059,-2.2129259323343633
1782968783997814800,2.006814697265625,2.854216295686364,-5.0233594926565885,-0.22872999130561947
1782968784007740700,2.01674072265625,2.4541642536878583,-3.2563761236190794,2.1532640753149983
1782968784017667800,2.026667724609375,1.830805560606718,-2.0958057196892796,4.135956479912996
1782968784027593700,2.03659375,1.2109212656378745,-1.618488651702553,5.4028287653535605
1782968784037519600,2.04651953125,0.7176870820730924,-1.5858973185688257,5.964883387166261
1782968784047446800,2.05644677734375,0.6762520788788795,-1.566852280228585,6.013302842420339
1782968784057373000,2.066373046875,1.0825701955348253,-1.571606927409768,5.807719479554891
1782968784067298800,2.076298828125,1.6311591865748165,-1.703192449389398,5.405354484438896
1782968784077225700,2.086225830078125,1.9778186610817907,-2.0186834631726143,4.84192857427299
1782968784087151900,2.09615185546875,2.136779973503947,-2.38587850683853,4.327102736625075
1782968784097078800,2.106078857421875,2.3171458930045365,-2.5980180133491753,4.0172894762173295
1782968784107005000,2.1160048828125,2.462503627488017,-2.614986391545832,3.9095340348973866
1782968784116930800,2.125930908203125,2.2637959956109523,-2.547988200289011,3.8560704479962586
1782968784126857700,2.135857666015625,1.5378770917654037,-2.5296926651418206,3.89528894418478
1782968784136784000,2.145783935546875,0.5384650719106197,-2.432486821017414,3.926572263459861
1782968784146709800,2.155709716796875,-0.3257628169506788,-2.2560180550858377,3.769839440742135
1782968784156636700,2.16563671875,-0.8388695757210254,-2.188830478736758,3.6089556358247994
1782968784166562800,2.175562744140625,-1.1117062736481427,-2.3366880672119557,3.2938276101350783
1782968784176489000,2.185489013671875,-1.156824349269271,-2.5988883664429188,2.8986750306159257
1782968784186415600,2.19541552734375,-1.004141970986128,-2.8601632213920354,2.3917677110075948
1782968784196341800,2.205341796875,-0.699274642547965,-3.0500445727348326,1.841722237548977
1782968784206268700,2.2152685546875,-0.439742247352004,-3.2462913674563167,1.354537855542451
1782968784216194800,2.22519482421875,-0.05708265418112277,-3.3326696742266413,0.9907793621964752
1782968784226120700,2.23512060546875,0.2708750424653292,-3.370645476877689,0.8041666572608053
1782968784236048000,2.2450478515625,0.08359189092218876,-3.221885824996233,1.0135049887456
1782968784245973800,2.254973876953125,-0.4954787476211786,-2.825002476161718,1.3674892531827092
1782968784255899600,2.264899658203125,-0.7206114450871944,-2.466774728935957,1.6141702039815484
1782968784265826800,2.274826904296875,-0.9076549426555633,-1.9487121013239026,1.4116666869528591
1782968784275752700,2.284752685546875,-1.3388310217142105,-1.764298221606761,1.1109111777476965
1782968784285678800,2.294678955078125,-1.5321090297579765,-1.9319483057886362,0.9426056983970105
1782968784295605800,2.304605712890625,-1.2300117505550383,-2.1046619569703937,0.6856603970848023
1782968784305531600,2.31453173828125,-0.7670821043610573,-2.221089511176199,0.41723172485828397
1782968784315457800,2.324457763671875,-0.48198564431965346,-2.325272500836849,0.12045037998110056
1782968784325385000,2.334385009765625,-0.5156307242900133,-2.3379924278087914,-0.22034619384184478
1782968784335310600,2.344310546875,-1.1851859358787535,-2.1478835513204335,-0.442874554028362
1782968784345237800,2.35423779296875,-2.0993261489003894,-1.7629332168638705,-0.6179213243328034
1782968784355164000,2.364163818359375,-2.672891175764799,-1.4774508262448012,-0.8417448388963937
1782968784365089800,2.37408984375,-2.7349691540151833,-1.207131664096564,-1.0056918307766318
1782968784375016700,2.3840166015625,-2.771031816521287,-0.622183657952398,-1.2616127574771643
1782968784384942800,2.39394287109375,-2.587220140480995,-0.2962000378578901,-1.2076609486676753
1782968784394868700,2.40386865234375,-2.1800772634387013,-0.1722664919361472,-0.9662276892639696
1782968784404796000,2.4137958984375,-1.839558191382885,0.03306976430043578,-0.8426528936520218
1782968784414721800,2.4237216796875,-1.7372002251923084,0.3370537340328097,-0.5093146730110049
1782968784424648000,2.43364794921875,-1.7600567846447228,0.7712212499924004,-0.018883418037742374
1782968784434574800,2.443574951171875,-1.535215179079771,1.234022155240178,0.3849995804257691
1782968784444500700,2.453500732421875,-1.0023375519126654,1.5716804310373962,0.5414351737625896
1782968784454427600,2.463427734375,-0.25889409729242324,1.6621012911967932,0.39437852640673515
1782968784464353800,2.473353759765625,0.4985229376226663,1.56228760266155,0.15254355433434247
1782968784474280000,2.483280029296875,0.9869570274293422,1.4950360211655496,-0.20842881542444228
1782968784484206600,2.49320654296875,1.185856382486224,1.401873899473995,-0.5933902557969093
1782968784494132700,2.5031328125,1.0077508091330527,1.3533217577509582,-0.7667442507088184
1782968784504059000,2.513058837890625,0.46721243807971474,1.5154012021936476,-0.6538540768489242
1782968784513985800,2.52298583984375,-0.2625344996213913,1.945334587714821,-0.33580753336399793
1782968784523911700,2.53291162109375,-0.8497972124487161,2.550737498997152,-0.02127425869703293
1782968784533837800,2.542837890625,-0.977127122810483,3.062166679944098,0.12875818959921598
1782968784543764700,2.5527646484375,-0.7279401805400848,3.294349003660679,0.2350388821914792
1782968784553690600,2.562690673828125,-0.1836456718236208,3.359345499706268,0.24539397972822188
1782968784563617800,2.57261767578125,0.4997819977730512,3.394493385455012,0.20807181868031618
1782968784573543700,2.582543701171875,1.1910825927019117,3.4166029259324073,0.22097338582947848
1782968784583469800,2.5924697265625,1.7785533953219652,3.4870965580895543,0.12706833681613205
1782968784593396700,2.602396728515625,2.0523393567979333,3.535670327122509,-0.13269260643869638
1782968784603322600,2.612322509765625,1.8547160130262375,3.5612612799748775,-0.43387393984049555
1782968784613248800,2.622248779296875,1.280507427561283,3.6952559089228507,-0.4668002040170133
1782968784623176000,2.632176025390625,0.6503834781289101,4.077832792246341,-0.2578575938515365
1782968784633101800,2.642101806640625,0.2455161448031664,4.490260331693292,-0.1379511114887893
1782968784643027700,2.65202783203125,-0.00327039997279644,4.70842114432007,-0.12521847116574644
1782968784652955000,2.661954833984375,-0.27616964174211023,4.794932722081244,-0.22069909893274306
1782968784662880800,2.671880859375,-0.5887567507773638,4.789095101968944,-0.34690818857103584
1782968784672806700,2.681806640625,-0.7832429655671119,4.7385248984217645,-0.5281327707275748
1782968784682733800,2.69173388671875,-0.8793196595311165,4.659069376651942,-0.6837286983698606
1782968784692660000,2.701659912109375,-0.9883049349069595,4.622821128445864,-0.75154624318555
1782968784702587100,2.711587158203125,-1.2102490654647349,4.605389808912575,-0.8571892223961651
1782968784712513000,2.721512939453125,-1.364809512579441,4.52583871781379,-0.9188669492825865
1782968784722439200,2.731439208984375,-1.2870809607326983,4.46977663885206,-0.9078665395796298
1782968784732366000,2.741365966796875,-0.8997761721044778,4.354271898579597,-1.0190754823543131
1782968784742292200,2.751292236328125,-0.5068938756048679,4.200498510189354,-1.11582335357815
1782968784752218000,2.761218017578125,-0.41360359748899933,4.109850271014869,-1.2223786253280937
1782968784762145000,2.77114501953125,-0.5209896209746598,4.084090683597326,-1.3265090080186723
1782968784772071200,2.7810712890625,-0.6093184772908687,4.046659363086522,-1.4081297449983656
1782968784781997000,2.7909970703125,-0.5397247165828943,3.9516973523661494,-1.6010830511324106
1782968784791924000,2.800924072265625,-0.43300504805147644,3.775599903964996,-1.946063778772205
1782968784801850000,2.81085009765625,-0.3736778298139572,3.4784985333532092,-2.312069174262136
1782968784811777000,2.820777099609375,-0.3592044833034277,3.2564743232965467,-2.5940713215500115
1782968784821703000,2.830702880859375,-0.3100093675017357,3.1797575788408516,-2.7150208832249043
1782968784831629000,2.840629150390625,-0.23355331980884073,3.2168867015346883,-2.543957337337732
1782968784841556000,2.850555908203125,-0.0028267478585243225,3.3377222814410925,-2.237328259924054
1782968784851482000,2.860482177734375,0.3419219245910644,3.3812659473523494,-1.9466528307065367
1782968784861408000,2.870407958984375,0.5749298854768276,3.2943244537413117,-1.6607384784109889
1782968784871335000,2.8803349609375,0.4761684824734926,3.066653469969332,-1.5011292234741151
1782968784881261000,2.890260986328125,0.14176877008080482,2.8988971489340067,-1.4182108478993176
1782968784891187000,2.90018701171875,-0.2912204958796501,2.7616291974037885,-1.2364321389913557
1782968784901114000,2.910114013671875,-0.656004825142026,2.6313433598458764,-1.0568947792693972
1782968784911040000,2.9200400390625,-0.8809650886505842,2.4695257812097666,-0.8410320144519209
1782968784920967200,2.92996728515625,-1.018227779483795,2.0754633350148795,-0.7226065644271671
1782968784930893000,2.93989306640625,-1.0917723236441612,1.7511998167112468,-0.852810276659578
1782968784940819000,2.94981884765625,-1.3195973289340734,1.6685472524657845,-1.0689097728423773
1782968784950746000,2.95974609375,-1.229755145445466,1.2818573808655143,-0.8085515943467616
1782968784960672300,2.96967236328125,-0.8839321217626332,0.7931815912574529,-0.4611563529111445
1782968784970598000,2.979597900390625,-0.5577595549672841,0.43846740511059756,-0.3782530287750065
1782968784980525000,2.989525146484375,-0.35743922719657417,0.1290757311157882,-0.4569678151801228
1782968784990451200,2.999451171875,-0.3665717972010374,0.3249422943480313,-0.7574670115366577
1782968785000377000,3.009377197265625,-0.5489169078201055,-0.414524657856673,-0.19809578358903526
1782968785010304000,3.019303955078125,-1.0127695140779018,-1.1117574193134903,0.16854367202073334
1782968785020230100,3.029230224609375,-1.103242396685481,-0.9805926069639622,0.019179770635813474
1782968785030156000,3.039156005859375,-1.0343681824237108,-1.0469690130606293,0.07922039783969521
1782968785040083200,3.049083251953125,-0.911667100906372,-1.4685771994374692,0.5688078954651952
1782968785050009000,3.059009033203125,-0.730118109101057,-1.8206204128094017,1.1732589128501714
1782968785059936000,3.06893603515625,-0.49873161193728444,-2.105851897407323,1.7886273378297686
1782968785069862100,3.078862060546875,-0.2754541869491339,-2.275887415421009,2.0781972900234162
1782968785079788000,3.0887880859375,-0.1285240885823965,-2.2880609605565665,2.229240376666933
1782968785089715000,3.09871484375,0.032203064468503,-2.0855340626522896,2.3552444452524184
1782968785099641000,3.10864111328125,0.2930284220844507,-2.389233662485331,2.6202918044775725
1782968785109567200,3.118567138671875,0.36355332616269587,-3.3120985953629014,3.1161580901116133
1782968785119494000,3.128493896484375,0.3880903860479593,-3.607401392120123,2.8457991804748772
1782968785129420000,3.138419921875,0.5437725306689739,-3.3575530633315442,2.367338203150034
1782968785139346200,3.14834619140625,0.6756295630663633,-3.5570167742729186,2.4616601624011993
1782968785149273000,3.158273193359375,0.9113064509004354,-3.777940329611301,2.584610834765434
1782968785159199000,3.168198974609375,1.163239477008581,-3.8806712207674976,2.499127723269164
1782968785169125000,3.178125,1.2659464027673006,-4.124788020166754,2.4345757561206818
1782968785179052000,3.188052001953125,1.336951783838868,-4.420303875152767,2.2352708890028294
1782968785188978000,3.19797802734375,1.5211124194473027,-4.747712998005747,1.859932140239328
1782968785198905000,3.207905029296875,1.6893629537403583,-5.322706011846662,1.3593442329108714
1782968785208831000,3.2178310546875,1.7284177837997674,-5.956483807611465,1.0226594783209264
1782968785218757000,3.227757080078125,1.7428934683978556,-5.953666996625065,1.0825256257407367
1782968785228684300,3.237684326171875,1.5457792431920765,-5.435329935985803,1.3711378388181328
1782968785238610000,3.24760986328125,1.0706284133285284,-5.039618553540111,1.7118140011318026
1782968785248536000,3.2575361328125,0.46927053965330123,-4.86745990589261,2.110103271241486
1782968785258463200,3.267463134765625,-0.1787175677716732,-4.808034487977624,2.4948756187826393
1782968785268388900,3.277388916015625,-0.8248685228973627,-4.731244386024773,2.7638468734532595
1782968785278315000,3.28731494140625,-1.3408768483281135,-4.615091410976648,2.9280852494955063
1782968785288242200,3.2972421875,-1.510237389689684,-4.507970175907015,3.0107255387812852
1782968785298168000,3.30716796875,-1.3154805412650108,-4.608576037733257,3.083813571345806
1782968785308095000,3.317094970703125,-1.0004887091755867,-4.632961998710036,3.243717717576027
1782968785318021000,3.327021240234375,-0.6308727219730615,-4.457314339902997,3.393070659175515
1782968785327947300,3.336947265625,-0.2851069814354181,-4.228580987596511,3.4463235259354112
1782968785337874200,3.346874267578125,-0.16144962210655212,-3.9727757962301373,3.456087964102626
1782968785347800000,3.356800048828125,-0.4506137699782848,-3.7580291759610174,3.5189331273332236
1782968785357726200,3.366726318359375,-1.0971136846721172,-3.4645050793141126,3.4983795841261744
1782968785367653000,3.376653076171875,-1.6929659466683864,-3.069380556845665,3.355490577843785
1782968785377579000,3.3865791015625,-2.1245400851339102,-2.7632410165145993,3.187152073006332
1782968785387505200,3.396505126953125,-2.210559495463967,-2.4788944980576635,3.031712797230482
1782968785397432000,3.40643212890625,-1.8964912079602478,-2.2430412307433785,2.892825720065832
1782968785407358200,3.416358154296875,-1.4070686916381119,-2.1467929796047507,2.55067583193779
1782968785417284000,3.4262841796875,-1.0305337188273667,-2.22783781639263,2.1919316596224903
1782968785427211000,3.4362109375,-0.8168757705777883,-2.198136505611986,1.8688770787172018
1782968785437137200,3.44613720703125,-0.8972335018843411,-1.9770006226971744,1.4660617094852029
1782968785447064000,3.45606396484375,-1.2605553573787212,-1.7379140725500881,0.9099448071584105
1782968785456990000,3.465989990234375,-1.7346201455712318,-1.4363856792762875,0.36953780739977954
1782968785466916000,3.475916015625,-2.076169145196676,-1.0360277861990035,0.004860007251799106
1782968785476843000,3.485843017578125,-2.3527970521003008,-0.5229843019232153,-0.2919435494571924
1782968785486769000,3.495768798828125,-2.6795389432162047,0.08102218656465411,-0.4445816502071917
1782968785496695000,3.505695068359375,-2.9922634148955343,0.7827543052673339,-0.3694401922442019
1782968785506622000,3.5156220703125,-2.9679934815138576,1.541841319221258,-0.3659874214418232
1782968785516548000,3.525548095703125,-2.4745693283349275,2.0534062553770838,-0.44549408887699243
1782968785526474000,3.535473876953125,-1.51671623031497,1.728174038171768,0.015149784467369316
1782968785536401200,3.545401123046875,-0.5424374826729297,1.7199826945401726,-0.15663111590892076
1782968785546327000,3.5553271484375,0.12100012281835079,1.7211686894543468,-0.2959210747860372
1782968785556254200,3.565254150390625,0.44295594870150085,1.6537722926601766,-0.28521526411548254
1782968785566180000,3.57518017578125,0.5031178641974926,1.7504659494787453,-0.17836349363699555
1782968785576106000,3.58510595703125,0.16183657559752462,2.1380901793196796,-0.028162849166989325
1782968785586033200,3.595033203125,-0.4783639466911554,2.681268251226842,0.12889175285100937
1782968785595959300,3.604959228515625,-1.0345733496069907,3.191448601156473,0.37191023561954495
1782968785605885000,3.614885009765625,-1.37592653439939,3.5749803009867667,0.5963236789003015
1782968785615812000,3.62481201171875,-1.3481255042821167,3.910225524292886,0.6855126591771841
1782968785625738200,3.63473828125,-0.9420628236919641,4.1892368192017075,0.6458882125362754
1782968785635664000,3.644663818359375,-0.23194588461220264,4.2517932286188005,0.52157677321285
1782968785645591000,3.654591064453125,0.6342763929367065,4.13161319001168,0.33720044902712104
1782968785655517200,3.66451708984375,1.3090145601212977,4.076462672936916,0.12095131524056195
1782968785665443000,3.674443115234375,1.6206646805673837,4.078364707165957,0.03976590093821287
1782968785675370000,3.684369873046875,1.6829525021761655,4.155537963217497,-0.002385433831810951
1782968785685296000,3.694296142578125,1.4997697716891765,4.358384886856377,-0.09903846637904644
1782968785695223000,3.70422314453125,1.2621715604037045,4.51132854642421,-0.2444502691373229
1782968785705149400,3.7141494140625,1.139790796881914,4.656571130095422,-0.3753849259927869
1782968785715075600,3.72407568359375,1.1427946548730135,4.942424838244914,-0.3500511627718806
1782968785725002500,3.73400244140625,1.1683043591827154,5.109783392134308,-0.2347100886285305
1782968785734928600,3.7439287109375,0.8905465714663267,4.6879769067063926,-0.6665428780302405
1782968785744854500,3.7538544921875,0.577114828300476,4.47241429387927,-0.6306409590438008
1782968785754781400,3.763781494140625,0.08206453522443771,4.881227149960399,-0.7955679018720984
1782968785764707600,3.77370751953125,-0.7359393626004457,5.194252065891027,-1.026141329087317
1782968785774633700,3.7836337890625,-1.545282399585843,5.180859500354528,-1.0052370727464557
1782968785784560400,3.793560302734375,-1.9256769704341887,5.099146847307682,-0.99383363520056
1782968785794486500,3.803486572265625,-1.96539932449162,5.0896413523375985,-1.1895260109096766
1782968785804413400,3.813413330078125,-1.5152134245365858,4.885564302381873,-1.1582038209289311
1782968785814339600,3.823339599609375,-0.8316244268983602,4.745934005634487,-1.1078230024740099
1782968785824265500,3.833265380859375,-0.4264776921093464,4.667675000172853,-1.0604375664427876
1782968785834192600,3.843192626953125,-0.2498503746151924,4.552315513589978,-0.929384836165607
1782968785844118500,3.853118408203125,-0.16505436860024927,4.624167282357812,-0.8999524054542183
1782968785854044400,3.86304443359375,-0.0030851065337657926,4.6357875775247805,-1.0408701116636394
1782968785863971600,3.8729716796875,0.18117255970835686,3.875991246257722,-0.8420458676695823
1782968785873897500,3.8828974609375,0.2859925320982933,3.544558859238028,-0.8950538197576999
1782968785883823600,3.89282373046875,0.4377870216310024,3.4868615802899,-1.2646771134838461
1782968785893750500,3.90275048828125,0.5044838918536901,3.3346593867391348,-1.5640889529950917
1782968785903676400,3.912676513671875,0.33834289706051346,2.9991949677243825,-1.6918365042470394
1782968785913602600,3.9226025390625,0.059411389389634126,2.672118730087578,-1.9027968839757143
1782968785923529700,3.93252978515625,-0.09428805698156356,2.400390870185196,-2.0609277369230985
1782968785933455400,3.942455322265625,-0.3055938891470432,2.194205449773371,-1.9988696324169635
1782968785943382500,3.952382568359375,-0.6663257281482219,2.141803062362969,-1.787371200288832
1782968785953308700,3.96230859375,-1.1554127289056777,2.205695688819885,-1.5540603109337388
1782968785963234300,3.972234375,-1.5691268010318278,2.1424077502578496,-1.3046823761358857
1782968785973161500,3.982161376953125,-1.7297189295262096,1.7805571363598107,-1.0448892841771245
1782968785983087600,3.992087646484375,-1.4062451002955436,1.069258001758158,-0.6992236430130898
1782968785993013500,4.002013427734375,-1.1483838531821966,1.3558093367829918,-1.7337457008242607
1782968786002940400,4.0119404296875,-1.1491975076526402,0.9640250646531582,-1.7729928385853766
1782968786012866600,4.021866455078125,-1.0571025768011808,0.17998656479418276,-1.3829274992026388
1782968786022792700,4.031792724609375,-1.0427636703252792,-0.18142858029603956,-1.5375120578452943
1782968786032719600,4.0417197265625,-1.184187572491169,-0.40118206894174213,-1.7103126566581428
1782968786042645500,4.0516455078125,-1.2393155854731797,-0.6275327638953924,-1.6573282315760849
1782968786052571600,4.061571533203125,-1.0750532440334557,-0.633254210282117,-1.5184595668509602
1782968786062498600,4.07149853515625,-0.8091752792030572,-0.8480211426869034,-1.172343843831867
1782968786072424400,4.081424560546875,-0.5174953491181135,-1.1421147097848354,-0.4337447605028748
1782968786082351400,4.091351318359375,-0.11193594187498092,-1.0400037040926515,-0.2018988291338086
1782968786092277500,4.101277587890625,-0.24291034621894358,-1.3307616970270872,0.38895401713997124
1782968786102203600,4.11120361328125,-0.5138718979239464,-1.6044167255997657,0.6979591760352254
1782968786112130600,4.121130615234375,-0.8372972118377685,-1.8305780354611574,0.9978357104487716
1782968786122056400,4.131056396484375,-0.9718073890924454,-1.9320383221596478,1.0824028761439024
1782968786131982600,4.140982666015625,-0.9213619809687137,-2.30941792910099,1.657065927378088
1782968786141909500,4.150909423828125,-0.34628362693190573,-2.482561203871667,1.7860498885571956
1782968786151835400,4.16083544921875,0.32745909947454926,-2.755309931254387,2.208905298516154
1782968786161761500,4.170761474609375,0.7968868755161762,-3.1764377867683766,2.7144202869832514
1782968786171688400,4.1806884765625,1.1378431699454783,-3.359293769519031,2.7430869940191505
1782968786181614600,4.190614501953125,1.2197142284244298,-3.679929160453379,2.8825895727336404
1782968786191540500,4.20054052734375,1.1920616668671369,-4.053329342369735,2.9158111665949225
1782968786201467400,4.21046728515625,1.1024854408383369,-4.441760212418437,2.767961907556653
1782968786211393500,4.2203935546875,0.9391273547619581,-4.841139761982858,2.432553310382366
1782968786221320700,4.23032080078125,0.7848977470368147,-5.126548064452409,1.9965011497199534
1782968786231246600,4.24024658203125,0.5752244845092296,-5.2483776238322255,1.8338826299645006
1782968786241172500,4.25017236328125,0.16880290747880936,-5.1346086213111874,1.9577523168697952
1782968786251099600,4.260099609375,-0.20706161872446535,-4.721867193609476,2.3322972849071024
1782968786261025500,4.270025634765625,-0.30062545308470723,-4.165840161523223,2.932229217432439
1782968786270951400,4.279951416015625,-0.2602034263253212,-3.7705224545702336,3.807358731797337
1782968786280878600,4.289878662109375,-0.16361995188295841,-3.545111816945672,4.315708066907525
1782968786290804700,4.2998046875,0.06133329736292362,-3.4096605594485996,4.322663292872906
1782968786300730400,4.30973046875,0.4188292231827974,-3.3093761846616863,3.9374610294818875
1782968786310657500,4.319657470703125,0.598379734647274,-3.3585561028942466,3.607563304683566
1782968786320583700,4.329583740234375,0.6727484546720981,-3.423680901494622,3.1637191749706863
1782968786330509300,4.33950927734375,0.5668301656514406,-3.3581364161774516,2.742181569612026
1782968786340436500,4.3494365234375,0.27631927934587003,-3.336174467477202,2.5426310571700332
1782968786350362600,4.359362548828125,0.08106617183685302,-3.0252444779992103,2.5886370215415955
1782968786360289500,4.36928955078125,-0.09326105202138424,-2.5384458804398773,2.7002909316048025
1782968786370215400,4.37921533203125,-0.40228374657332894,-2.203221699921787,2.6845427428528663
1782968786380141600,4.3891416015625,-0.9533540330350398,-2.043532073225081,2.6461048756480214
1782968786390068500,4.399068359375,-1.5891881768077611,-1.8442014871440826,2.52098445802927
1782968786399994600,4.40899462890625,-1.8569050475031137,-1.6604435871176422,2.460176061323285
1782968786409920500,4.41892041015625,-1.5343623616427182,-1.5909627852648496,2.3937302432522176
1782968786419847400,4.428847412109375,-0.7994131791234016,-1.638512179686129,2.230688968040049
1782968786429773600,4.438773681640625,-0.025059622454643247,-1.7093553559333086,2.0114872680582105
1782968786439699500,4.448699462890625,0.5905109009683132,-1.751264698641002,1.7645973506838082
1782968786449626400,4.45862646484375,1.054824694997072,-1.7370630086787044,1.6149895575404167
1782968786459552500,4.468552490234375,1.3136995030671357,-1.7735267993316053,1.4548046946726738
1782968786469479700,4.478479736328125,1.3362386671334505,-1.8286647491857408,1.3259240477375684
1782968786479405600,4.488405517578125,0.9307178383350372,-1.792705254793167,1.3979535111598669
1782968786489331500,4.49833154296875,0.09556348374485969,-1.5532703295998274,1.5714695647656918
1782968786499258600,4.508258544921875,-0.6992050844430923,-1.2863153831876815,1.472674990145117
1782968786509184500,4.5181845703125,-1.3423644565373658,-1.1561420660935342,1.0673407699599862
1782968786519110400,4.5281103515625,-1.9076684355348348,-1.1677215908586978,0.5956636075563728
1782968786529037600,4.53803759765625,-2.3335201047003267,-1.1674763839259743,0.09622297056689857
1782968786538963500,4.54796337890625,-2.590386495557427,-1.104355910885334,-0.31366891292259097
1782968786548889600,4.5578896484375,-2.459224459686875,-1.0153674216166138,-0.5544982150837778
1782968786558816500,4.56781640625,-2.1198639100164174,-0.9391388990692794,-0.7238122869551181
1782968786568742400,4.577742431640625,-1.6983932324141262,-0.8323974570974707,-0.7551015975795686
1782968786578668500,4.58766845703125,-1.2498077533930538,-0.594893938358128,-0.6920702641271055
1782968786588595700,4.597595703125,-0.8136538859218359,-0.31723055092692376,-0.48675563520044085
1782968786598521300,4.607521240234375,-0.5982125613868237,-0.03788637080192566,-0.053029579398036
1782968786608448500,4.617448486328125,-0.9175222566753626,0.29343510318920013,0.603795622216165
1782968786618374700,4.627374755859375,-1.5298334860414267,0.8670704188108443,0.7763071749545634
1782968786628300500,4.637300537109375,-2.196010745629668,1.3905235072895883,1.0182410773567854
1782968786638227500,4.6472275390625,-2.722250542217493,1.618761769555509,1.0714053890503943
1782968786648153600,4.657153564453125,-2.659053204548359,1.8179747206062078,0.8744207815736532
1782968786658079700,4.667079833984375,-2.094285816645622,1.9762122487984597,0.6599671529017388
1782968786668006400,4.67700634765625,-1.428341196769476,2.010980049188435,0.3970629431851208
1782968786677932500,4.6869326171875,-0.7877548900336027,1.997767078002542,0.15782470960766076
1782968786687858700,4.696858642578125,-0.21231354790329932,1.9979830588407814,-0.07638181341290473
1782968786697785600,4.70678564453125,0.24900281787514686,2.0045551307074723,-0.290837487911433
1782968786707711700,4.716711669921875,0.5705524010449647,2.0078860286958515,-0.39509529637396335
1782968786717637600,4.7266376953125,0.7387427295833826,2.0877486699618397,-0.40264702692776916
1782968786727564500,4.736564453125,0.621132833725214,2.357056463110447,-0.2584466457858682
1782968786737490700,4.74649072265625,0.3579746492475271,2.7331656117245555,-0.06722235540151596
1782968786747417600,4.75641748046875,0.130074825155735,3.1156554012864826,0.06650470865145325
1782968786757343700,4.76634375,-0.07001520099043845,3.349522609350085,0.03795344468876719
1782968786767269600,4.77626953125,-0.13549626568257808,3.540389464598894,0.007361322548240423
1782968786777196500,4.786196533203125,0.14963818828165532,3.7407314196795225,0.03697042500078678
1782968786787122700,4.796122802734375,0.5858662900328636,3.842838041457534,0.05079378316998481
1782968786797048600,4.806048583984375,1.0085212089836597,3.8550428585141896,0.007662497451901435
1782968786806975500,4.8159755859375,1.3039251280277966,3.891433730061352,-0.07146744562536478
1782968786816901600,4.825901611328125,1.453757377576828,3.931223888657987,-0.11512743139266968
1782968786826827800,4.835827880859375,1.458240660470724,4.031418247073889,-0.10284794166460633
1782968786836754700,4.845754638671875,1.2686018857121466,4.174852612279356,-0.10267097766250372
1782968786846680600,4.8556806640625,0.8600935655355453,4.294681645491719,-0.15905001361891627
1782968786856606700,4.865606689453125,0.35502807440161704,4.369722273428738,-0.3359646236218512
1782968786866533600,4.87553369140625,-0.1095318033427,4.433293997368216,-0.6132964410111308
1782968786876459500,4.88545947265625,-0.40778117494583127,4.442765297807753,-0.8842172223143279
1782968786886386700,4.89538671875,-0.5139689285576343,4.360660430572927,-1.0868962420403956
1782968786896312800,4.905312744140625,-0.43283202957212924,4.2408685145005585,-1.2131843882642686
1782968786906238500,4.915238525390625,-0.24688509506881234,4.13465445740372,-1.216182401036471
1782968786916165600,4.92516552734375,-0.09405892440080642,4.014719333468378,-1.1583480517052114
1782968786926091800,4.935091796875,0.0826747760772705,3.8880949410274623,-1.1551730749309062
1782968786936017700,4.945017578125,0.299131999656558,3.7461987451747056,-1.196112841954082
1782968786945944600,4.954944580078125,0.5978682779937983,3.6234240138992666,-1.2614907385326921
1782968786955870700,4.96487060546875,0.9346516706526279,3.4444042483106254,-1.3519460854835808
1782968786965796600,4.974796630859375,1.2943874843537806,3.1552982603669166,-1.5090309365093708
1782968786975723800,4.984723876953125,1.4884662873864174,2.839564962260425,-1.5317551017537712
1782968786985649700,4.994649658203125,1.6219687489032744,2.737357218195498,-1.871767539461702
1782968786995575600,5.004575439453125,1.7123264806985854,2.6649083603173493,-1.9959923234149812
1782968787005502700,5.014502685546875,1.5310855319291352,2.510833066371083,-1.8159065360300242
1782968787015428600,5.0244287109375,1.286404668906331,2.393714461161196,-1.7137841321609912
1782968787025355500,5.03435546875,0.8452876260697841,2.3229478572815654,-1.546737274569273
1782968787035281700,5.04428173828125,0.25731705723404885,2.2287428024083376,-1.4395666473999618
1782968787045207800,5.054207763671875,-0.4839630818724632,2.1117828948915003,-1.5104767514035105
1782968787055134500,5.064134521484375,-1.1541688663244247,1.7972841070160268,-1.560886795952916
1782968787065060600,5.074060546875,-1.655500431627035,1.7782887530364095,-1.8225123640358447
1782968787074986800,5.08398681640625,-2.172435224252939,1.6908295191615819,-2.0168692533574997
1782968787084913700,5.09391357421875,-2.557952544942498,1.3094992748983203,-1.8584077071510254
1782968787094839600,5.103839599609375,-2.6934160773992537,1.070873035739362,-2.067765473988652
1782968787104765700,5.113765625,-2.720879838386178,0.8263098077468574,-2.5512773049622774
1782968787114692600,5.123692626953125,-2.76619548240602,0.16027736345678567,-2.2151422932095826
1782968787124618800,5.13361865234375,-2.4244360549002884,-0.03537774898186326,-2.2912933666065336
1782968787134544600,5.143544677734375,-2.0240794769972563,-0.10452712692320346,-2.0297293194524944
1782968787144471600,5.153471435546875,-1.6846084526896477,-0.23427885760441422,-1.3538780764594673
1782968787154397700,5.163397705078125,-1.319030927222967,-0.1901476010635495,-0.8560704474993049
1782968787164324900,5.173324951171875,-1.0409054752379656,-0.5628744137629866,-0.13894348352700472
1782968787174249700,5.183249755859375,-0.6286684899270534,-0.8282387299828231,0.10746361876651644
1782968787184176600,5.1931767578125,-0.14368366379141806,-1.133542111750692,0.10357771724388003
1782968787194102800,5.203102783203125,0.36766368409097194,-1.4836281997054814,0.07904299544617534
1782968787204028700,5.213028564453125,0.7107786178588866,-2.0671834363169967,0.3687668230272829
1782968787213955600,5.22295556640625,0.8417068449735641,-2.3516943515554067,0.38041502911448477
1782968787223881700,5.2328818359375,0.7571592607617378,-2.569256906028092,0.3145129625312984
1782968787233807600,5.2428076171875,0.8176029158085584,-2.679557063394785,0.5164705361150205
1782968787243734500,5.252734619140625,0.7434656664520501,-2.5803783117622134,0.8039775644294918
1782968787253660700,5.26266064453125,0.6076560970366001,-2.6559219207853078,1.4552153213001786
1782968787263586800,5.2725869140625,0.49446577118635177,-2.5417004983216525,1.6392203279554842
1782968787273513500,5.282513427734375,0.32155250577926636,-2.561106040537357,1.8247975523635744
1782968787283439600,5.292439697265625,0.08898585892021656,-2.6793969043970107,2.0387565293863417
1782968787293365800,5.30236572265625,-0.052176177439093585,-2.7454019929632545,2.047500684595108
1782968787303292700,5.312292724609375,-0.029575054052472113,-2.7806612301319835,2.028985369217396
1782968787313218600,5.322218505859375,0.07147241406142711,-2.7677351130634547,2.0933692863225937
1782968787323144700,5.332144775390625,0.11646014130115509,-2.7412387358039614,2.124199016611278
1782968787333071600,5.342071533203125,0.1402145263761282,-2.790379198808968,2.1451506192252037
1782968787342997500,5.35199755859375,0.2865063268393278,-2.7616245212286707,2.0493430975914
1782968787352924700,5.361924560546875,0.2733732890218496,-2.711733239856362,1.953316818640381
1782968787362850600,5.3718505859375,0.16650573645234107,-2.7510391220673918,1.8267419644296168
1782968787372776700,5.381776611328125,0.15983225003778934,-2.784963603501022,1.6979510416045784
1782968787382703600,5.39170361328125,0.2735655967235565,-2.7914506274327633,1.6363779441364108
1782968787392629500,5.40162939453125,0.4260539137393236,-2.7977558650568124,1.659879377363622
1782968787402555600,5.4115556640625,0.6964549089521169,-2.7941534566506743,1.6447024126283822
1782968787412482800,5.42148291015625,0.9821662860214709,-2.805531759755313,1.590053561465442
1782968787422408700,5.43140869140625,1.10749654699862,-2.8209172526746986,1.6228500617824493
1782968787432334600,5.44133447265625,1.1941752980202436,-2.772579338224232,1.787472030314803
1782968787442261800,5.45126171875,1.2788000391215084,-2.68742677385658,1.959672617407888
1782968787452187600,5.461187744140625,1.2316881593346596,-2.633582663205266,2.1513136718995867
1782968787462113500,5.471113525390625,1.0357961694002151,-2.5487919178873297,2.3244404339268803
1782968787472040700,5.481040771484375,0.6554436841279268,-2.453285425026715,2.4614725308746097
1782968787481966800,5.490966796875,0.27088907099068166,-2.364308918456733,2.4855355435073374
1782968787491893800,5.500893798828125,-0.004239537265896797,-2.3235019840329882,2.344297519302368
1782968787501819600,5.510819580078125,-0.1847732145488262,-2.303650451615453,2.258046053782105
1782968787511745800,5.520745849609375,-0.36206513343155383,-2.2279724025577305,2.1580298284120856
1782968787521672700,5.530672607421875,-0.5448796151280403,-2.102024594204128,2.0108888637736437
1782968787531598600,5.5405986328125,-0.5836912840813399,-1.9340712892919778,1.9285873049229383
1782968787541524700,5.550524658203125,-0.4229308132827282,-1.8645362730339168,1.8581810587882994
1782968787551451600,5.56045166015625,-0.17663316271305082,-1.8405086239755153,1.6827821140453219
1782968787561378800,5.57037890625,0.013749708411097525,-1.8353005339384079,1.5034201108902692
1782968787571304400,5.580304443359375,0.14340250876247881,-1.8210960674971342,1.3727020193949342
1782968787581231600,5.590231689453125,0.10134849688708782,-1.7682513431467115,1.3129885783188044
1782968787591157800,5.60015771484375,-0.21625439448356626,-1.6234057959690689,1.356906630500406
1782968787601083600,5.610083740234375,-0.7059101350396871,-1.361791918323934,1.4715239204138517
1782968787611010600,5.620010498046875,-1.09863753323853,-1.0511487829633057,1.4977232144229113
1782968787620936700,5.629936767578125,-1.369447693774104,-0.8549116328530013,1.447865981450677
1782968787630862600,5.639862548828125,-1.5561708733469246,-0.8501800742864608,1.2388861080147324
1782968787640789800,5.649789794921875,-1.674786731377244,-0.8635115572854876,0.9200168499700725
1782968787650715600,5.659715576171875,-1.78268479603827,-0.8273438269697129,0.5901715860113501
1782968787660641800,5.669641845703125,-1.9552502709209918,-0.7337542736463248,0.2754961263947189
1782968787670568700,5.679568603515625,-2.20076232407093,-0.6093162853337823,0.00032967034578323365
1782968787680494600,5.68949462890625,-2.466933134368062,-0.49623263472840184,-0.20488193659782408
1782968787690420700,5.699420654296875,-2.671501767233014,-0.36974019810408354,-0.18957243152409792
1782968787700348000,5.709347900390625,-2.7365380107671022,-0.14567249952107666,-0.012160685653984546
1782968787710274000,5.719274169921875,-2.6181150449603794,0.16347323688864707,0.2888996517166495
1782968787720201000,5.729200927734375,-2.3496084851920602,0.4502241861388087,0.575729219160974
1782968787730126800,5.739126953125,-2.055560656931996,0.6819565741308034,0.787900582114607
1782968787740053000,5.749052978515625,-1.7886352288752794,0.8828501717448234,0.8845122597381472
1782968787749980000,5.75897998046875,-1.4804653517603874,1.0873920627333222,0.8809918305270373
1782968787759905800,5.76890576171875,-1.132051142540574,1.2491605415306986,0.875883255341649
1782968787769832000,5.77883203125,-0.7700403696447611,1.3920390264190732,0.8723894218765199
1782968787779758800,5.7887587890625,-0.4887205055326223,1.5611729194179176,0.7630262530989944
1782968787789685000,5.79868505859375,-0.16328268275260924,1.714597786631435,0.6238029297173023
1782968787799611000,5.80861083984375,0.16456804638803005,1.8346771413430571,0.45989626984745263
1782968787809537800,5.818537841796875,0.4972106859803199,1.9531398546382783,0.2386271159417927
1782968787819464000,5.8284638671875,0.8406196342587471,2.0473497318170963,0.05343728341609239
1782968787829389800,5.838389892578125,1.0813169806033371,2.171947002344578,-0.024335838224738834
1782968787839316700,5.848316650390625,1.094253034543991,2.28286076156497,0.02103650441840291
1782968787849243000,5.858242919921875,1.0776648878365755,2.402768997493386,0.10117197127640247
1782968787859170000,5.868170166015625,1.153679621502757,2.5341844236031172,0.10772811492159962
1782968787869095700,5.878095703125,1.2017530397981404,2.6472774265587327,0.10890183487609029
1782968787879021800,5.888021728515625,1.1074474471598863,2.748491191150248,0.016153554682433603
1782968787888949000,5.897948974609375,0.9902788653284311,2.840428008830547,-0.09331292833909392
1782968787898875000,5.907875,0.9943991601288318,3.00302300157994,-0.16618571071773766
1782968787908800800,5.91780078125,1.0596043304890395,3.204415927018225,-0.19923823162242768
1782968787918728000,5.92772802734375,1.1182535033345222,3.3509023732706904,-0.32239114856049417
1782968787928654000,5.937654052734375,1.135514434736967,3.4434625835463404,-0.5233437828853726
1782968787938579700,5.947579833984375,1.0675924066334963,3.5133228862360117,-0.708869130975753
1782968787948507000,5.9575068359375,0.9552397006511688,3.557447859166562,-0.8478045773267745
1782968787958433000,5.96743310546875,0.8207201710462569,3.602617080453038,-1.0433340175591408
1782968787968359000,5.97735888671875,0.7264455580681562,3.6748365134894847,-1.2022045829579233
1782968787978285800,5.987285888671875,0.7082236726790666,3.708752811616659,-1.3353503399915991
1782968787988212000,5.9972119140625,0.7259697572499513,3.6788907573163505,-1.4721610492736101
1782968787998139000,6.007138916015625,0.680962156265974,3.7456504636421797,-1.563299263922125
1782968788008065000,6.01706494140625,0.5430494770914316,3.820809749522805,-1.6413877351224422
1782968788017991000,6.026990966796875,0.39765199511945243,3.826566997875273,-1.7188121894560753
1782968788027917800,6.036917724609375,0.3359942881077528,3.7709307431101795,-1.8044851244360207
1782968788037844000,6.046843994140625,0.2832949635773897,3.7105566461682318,-1.8446881016172467
1782968788047769900,6.056769775390625,0.2824596817970276,3.5911426234975456,-1.8473457765191792
1782968788057696800,6.06669677734375,0.3784831842690706,3.477484387874603,-1.8597331105358899
1782968788067623000,6.076622802734375,0.5937801318973303,3.335474210253358,-1.856869537798315
1782968788077549000,6.086549072265625,0.8662363060742616,3.294838248482346,-1.8119322255715726
1782968788087476000,6.09647607421875,1.0643629231929779,3.2322374154016376,-1.778742195892334
1782968788097401900,6.10640185546875,1.1592851864248515,3.161769502207637,-1.8181595756538211
1782968788107328000,6.116327880859375,1.0874977150648832,3.119589525865018,-1.805527034704387
1782968788117255000,6.1262548828125,0.9113526281297206,3.102239162613451,-1.7616855548903345
1782968788127180800,6.136180908203125,0.6467705483287572,3.1347119839340447,-1.6764722002461552
1782968788137107000,6.14610693359375,0.4268512015968561,3.156502375459671,-1.5573637363933026
1782968788147033900,6.156033935546875,0.3449620229393244,3.145063866600394,-1.4096331352986395
1782968788156960000,6.1659599609375,0.35192250960171223,3.230513368088007,-1.308653471723944
1782968788166887000,6.175886962890625,0.36482641483843326,3.2056574515119194,-1.3025488712385296
1782968788176812800,6.185812744140625,0.3333966728299856,2.9894118248566985,-1.4219849596105516
1782968788186739000,6.195739013671875,0.2278653373003006,2.6920880436658856,-1.6522613035753368
1782968788196666000,6.205666015625,0.1346586458146572,2.378891862821579,-1.8665479051172733
1782968788206591700,6.215591796875,-0.03394260161221027,2.1434270103029904,-2.0123948844224215
1782968788216518000,6.225517822265625,-0.29961013856232166,1.9258327455177902,-2.0402438453346488
1782968788226445000,6.235445068359375,-0.6065478435337543,1.7272849803775547,-1.9864727999195455
1782968788236370700,6.24537060546875,-0.944151904925704,1.510812413098663,-1.8619661302849648
1782968788246296800,6.255296875,-1.3772691811800002,1.293255703844875,-1.6565519865065812
1782968788256224000,6.26522412109375,-1.788251782515645,1.1439644293047486,-1.2467903052680194
1782968788266150000,6.27514990234375,-2.123829891037941,1.0148623947039246,-0.8041001678958535
1782968788276075800,6.28507568359375,-2.239609064337611,0.7946719759456813,-0.46477118240743875
1782968788286003000,6.2950029296875,-2.066055747461319,0.4592623558580875,-0.1500999605745077
1782968788295928800,6.3049287109375,-1.7542027979195116,0.045061815389245745,0.2356606673516333
1782968788305856000,6.31485595703125,-1.4487076929718254,-0.3725795131832361,0.5664044875852763
1782968788315782000,6.324781982421875,-1.08655254316926,-0.7755031650952995,0.8312211067944765
1782968788325708000,6.3347080078125,-0.724838122871518,-1.18292222873047,1.0606871572896837
1782968788335635000,6.344635009765625,-0.43619478400349615,-1.5630040803678333,1.3203591070868075
1782968788345560800,6.354560791015625,-0.2757715823352337,-1.9691447946302592,1.5555407587498427
1782968788355487000,6.364487060546875,-0.1927823334813118,-2.330397881026566,1.7294345596268772
1782968788365414000,6.374413818359375,-0.12151157947182654,-2.6397692428857087,1.8754988349445163
1782968788375340000,6.384340087890625,-0.11267127041220665,-2.9948271279036995,1.9516127912014722
1782968788385266000,6.394265869140625,-0.2425830139607191,-3.28673677509129,2.0279747308701275
1782968788395192800,6.40419287109375,-0.3848883751362562,-3.498035300733149,2.136332083605975
1782968788405119000,6.414118896484375,-0.5468050302326679,-3.7278061793938275,2.2654364562943576
1782968788415044900,6.424044921875,-0.8009773597002029,-3.9691368552058934,2.321483776078373
1782968788424971800,6.4339716796875,-1.0229267509549855,-4.1867549392580985,2.4491285976082087
1782968788434898000,6.44389794921875,-1.0848854867398738,-4.299368342003226,2.6611218275159594
1782968788444824000,6.453823974609375,-0.9074749099135399,-4.3927275937020775,2.82803000728935
1782968788454751000,6.4637509765625,-0.5649257933348417,-4.5433667757198215,2.9946932723909616
1782968788464676900,6.4736767578125,-0.20070611221790313,-4.722562190136313,3.0825667861551045
1782968788474603000,6.48360302734375,0.07221534138321876,-4.893835287120938,3.0501123772740364
1782968788484530000,6.493530029296875,0.30521687252819535,-5.075640884035826,3.0081741007328033
1782968788494455800,6.503455810546875,0.6226607739448548,-5.054554256865382,3.1467487509474155
1782968788504383000,6.513383056640625,0.8176052538961172,-4.936788878184557,3.2934938481360674
1782968788514308900,6.523308837890625,0.6824369049936533,-4.95317594936192,3.31877734247446
1782968788524235000,6.533235107421875,0.3090904990911484,-4.982096338897943,3.3101293411165473
1782968788534162000,6.543161865234375,-0.004457563930749893,-4.883934070831537,3.2004560834765434
1782968788544087800,6.553087890625,-0.41645781787633895,-4.822341245749593,3.06493234526515
1782968788554014000,6.563013916015625,-0.8428963470190763,-4.839236558710039,3.023103374317288
1782968788563941000,6.572941162109375,-1.1215087057381867,-4.640539155966043,3.0377456476539373
1782968788573866800,6.58286669921875,-1.21564829415977,-4.282558661499619,3.1023411616832015
1782968788583793000,6.59279296875,-1.2818863146990538,-4.038369965907931,3.0679183753386137
1782968788593720000,6.602719970703125,-1.2802321177512406,-3.9438849250495434,2.8748049102067945
1782968788603645700,6.612645751953125,-1.2276917831748724,-3.8646798709094523,2.486293668398261
1782968788613571800,6.62257177734375,-1.278638711079955,-3.8016792248561977,2.155309025146067
1782968788623499000,6.6324990234375,-1.5384066685974598,-3.601683014473319,2.056314982430637
1782968788633425000,6.6424248046875,-1.8265823899537323,-3.203964968380332,2.0831769781321285
1782968788643350800,6.652350830078125,-1.9568354942858217,-2.723942440827191,2.1356866253092885
1782968788653278000,6.66227783203125,-1.954513188818097,-2.256861666303128,2.206114644884318
1782968788663203800,6.672203857421875,-1.868655691051483,-1.8355787663578986,2.151218102570623
1782968788673131000,6.682131103515625,-1.770851150381565,-1.5036539196461438,1.9011665062949061
1782968788683057000,6.692056884765625,-1.5256208367824553,-1.2853741568148136,1.5688945997111499
1782968788692983000,6.701983154296875,-1.2032955930650233,-1.1217508439309893,1.2877196970276534
1782968788702910000,6.711909912109375,-0.8981517857730388,-1.0205107758544385,0.9988686336930841
1782968788712835800,6.7218359375,-0.7360890002042054,-0.8916239914394914,0.7833467912677675
1782968788722762000,6.731761962890625,-0.7351005736887455,-0.7081954694978893,0.6441436338912695
1782968788732689000,6.74168896484375,-0.9054238226026297,-0.5075703135617077,0.4871759064391255
1782968788742615000,6.751614990234375,-1.252343993872404,-0.23483751440048217,0.37772403646484015
1782968788752541000,6.761541015625,-1.65892280729115,0.1366338914103806,0.33215354090109467
1782968788762467800,6.7714677734375,-1.98673495798707,0.505453905929625,0.3608667904924601
1782968788772394000,6.78139404296875,-2.1047627869963645,0.7694631542786955,0.3327848245419562
1782968788782319900,6.79131982421875,-2.1224767228633166,0.9743056356489658,0.24201368964016437
1782968788792246800,6.801246826171875,-2.056581232151389,1.104011481361836,0.12818228940740226
1782968788802173000,6.8111728515625,-1.801603431519866,1.231152152761817,-0.11294789539650082
1782968788812099000,6.82109912109375,-1.4863509026676416,1.3407649123862384,-0.3621776538953185
1782968788822026000,6.83102587890625,-1.187982873120904,1.4754494232945143,-0.4797779051423072
1782968788831952000,6.840951904296875,-0.9596540099620818,1.7203410064585505,-0.3618124738447368
1782968788841878800,6.850878662109375,-0.9438467844992875,2.1550405834682285,0.009701017542183398
1782968788851805000,6.860804931640625,-1.0133411764860152,2.739925022856891,0.43829087949991224
1782968788861730800,6.870730712890625,-0.9236515532106161,3.2719691218093034,0.7844521952264011
1782968788871657700,6.88065771484375,-0.6214315244108438,3.5874928688183423,0.9989739206984639
1782968788881583900,6.890583984375,-0.11991583471298217,3.678428985023498,0.9697324825145304
1782968788891510000,6.900510009765625,0.43686055443584915,3.6726334504872558,0.9888383111312985
1782968788901437000,6.91043701171875,0.9275281023830175,3.7054756896421313,0.9777513921886682
1782968788911362800,6.92036279296875,1.3336656017750501,3.693788174457848,0.7946924342118203
1782968788921289000,6.9302890625,1.5631465575784445,3.6588705903336405,0.5190063382029533
1782968788931216100,6.940216064453125,1.5396365026533603,3.670724986517429,0.1993584970012307
1782968788941141800,6.950141845703125,1.3112193766891955,3.8103833403155205,-0.02544511464089155
1782968788951068000,6.96006787109375,1.0007616808980704,4.091908663871884,0.023304157089442012
1782968788960995000,6.9699951171875,0.7334615743100643,4.471372968132794,0.2550859371811151
1782968788970920700,6.979920654296875,0.6413958695530891,4.880431615668535,0.43771790191754695
1782968788980846800,6.989846923828125,0.6328560047447681,5.204645449611545,0.5627000801093877
1782968788990774000,6.99977392578125,0.7166384498029947,5.459063862794637,0.7672280887030064
1782968789000700000,7.009699951171875,0.8740881886184215,5.705901611590385,0.9931398077175021
1782968789010626800,7.019626708984375,1.0219014995604754,5.939081421911716,1.0650132037952542
1782968789020553000,7.029552978515625,1.1368483136892318,6.052051383009553,0.9893747560955584
1782968789030478800,7.039478759765625,1.234628304439783,6.092610772413015,0.7964207193091511
1782968789040406000,7.049406005859375,1.3630518552571533,5.9949102766394615,0.4843526657119393
1782968789050332000,7.059331787109375,1.4434125091731547,5.857804822194576,0.10551526117771863
1782968789060257800,7.0692578125,1.3511457288861275,5.677648161530494,-0.2895005402192473
1782968789070185000,7.07918505859375,1.1413351037144661,5.546072284162044,-0.5339110618680716
1782968789080110800,7.08911083984375,0.9300193346768617,5.430811581778526,-0.7147790856719016
1782968789090037000,7.099037109375,0.6197697286784648,5.29754935875833,-0.9507435582756996
1782968789099964000,7.1089638671875,0.17037819397151469,5.062153041431308,-1.2339169413000344
1782968789109890000,7.11889013671875,-0.2661030057579279,4.786872165222466,-1.4468269937917588
1782968789119816000,7.12881591796875,-0.6385387265563011,4.575160382604599,-1.5916330857418477
1782968789129742800,7.138742919921875,-0.9422077851206063,4.460739930437505,-1.6531310721471906
1782968789139669000,7.1486689453125,-1.029561658924818,4.353342216514051,-1.774857901804894
1782968789149595100,7.15859521484375,-0.8437778060287237,4.017259665600955,-1.9168771395154296
1782968789159521800,7.168521728515625,-0.47790685057342047,3.6233980026751755,-2.020122263804078
1782968789169448000,7.178447998046875,-0.022272037562727928,3.2965190411761403,-2.0427511519804598
1782968789179374000,7.1883740234375,0.3734165485292673,2.9751018522143364,-1.9994658447444438
1782968789189301000,7.198301025390625,0.5565227066487074,2.666819162374735,-1.887602091322839
1782968789199227000,7.208226806640625,0.5023159001648426,2.4288664385631678,-1.7111173971697686
1782968789209153800,7.21815380859375,0.24360534274578094,2.2725927577897904,-1.4729722195260226
1782968789219080000,7.228079833984375,-0.0663058250784874,2.1937826943166554,-1.2507644695959985
1782968789229005800,7.238005859375,-0.18068448393046854,2.0053147169031202,-1.1356553045123814
1782968789238932700,7.2479326171875,-0.17581658563315866,1.6224613547258078,-1.2062252167761325
1782968789248859000,7.25785888671875,-0.2439122167378664,1.1753721056118607,-1.3514574251838027
1782968789258785000,7.267784912109375,-0.4411866009414196,0.8343624735601246,-1.6024487865276633
1782968789268711700,7.277711669921875,-0.8309148173242807,0.3804442552089691,-1.654243417303264
1782968789278637800,7.287637939453125,-1.1502098995655774,-0.2598809163726866,-1.47696801116392
1782968789288564000,7.29756396484375,-1.4259043250113725,-0.412691304949671,-1.6231079820662735
1782968789298491000,7.307490966796875,-1.5848200447261334,-0.6106064712747931,-1.431743552558869
1782968789308416800,7.317416748046875,-1.6605150449186563,-0.9234723972514272,-1.080637327776104
1782968789318343000,7.327343017578125,-1.7486480864018201,-1.179296439448744,-0.8731646440327167
1782968789328270000,7.33727001953125,-1.928270494058728,-1.4309344281330705,-0.8083068258054554
1782968789338195700,7.34719580078125,-2.2502426865547895,-1.6259350221857427,-0.8560529118426143
1782968789348121900,7.357121826171875,-2.4680928257972,-1.8204542624622582,-0.906275470995903
1782968789358049000,7.367049072265625,-2.469848145031929,-2.025504979755729,-0.8725263461291789
1782968789367975000,7.376974853515625,-2.2641624908357856,-2.1208535055756568,-0.6171820502728224
1782968789377900800,7.38690087890625,-1.8847563465029,-2.1403226145468652,-0.22260814742445945
1782968789387828000,7.396827880859375,-1.4688129078894854,-2.2310496180459856,0.161581285662204
1782968789397753900,7.40675390625,-1.0227326896876097,-2.3984955579578875,0.6078580493494868
1782968789407681000,7.416680908203125,-0.6373299352884292,-2.4930744145795702,0.9701005851745604
1782968789417607000,7.42660693359375,-0.27383798392415043,-2.5911335145324466,1.1847139344528317
1782968789427532800,7.43653271484375,0.039598435416817665,-2.898457880733907,1.154161413670331
1782968789437460000,7.4464599609375,0.3438122683823108,-3.3819705884903666,0.7710523231662809
1782968789447385900,7.4563857421875,0.6790192055046558,-3.679559742619097,0.4231713440403342
1782968789457311700,7.466311767578125,0.9219856658250093,-4.051148783460259,0.13212269759625195
1782968789467239000,7.476239013671875,0.7948498167306184,-4.358918847602606,0.1464442145459354
1782968789477165000,7.4861650390625,0.7035556808680296,-4.260822045987844,0.371023369782418
1782968789487091000,7.496091064453125,0.5290864181905984,-3.743927293111384,0.9191061648659408
1782968789497017900,7.506017822265625,0.3164601510763168,-3.1124107202768325,1.8743558023892342
1782968789506944000,7.515944091796875,0.13706278434693814,-2.68406022003293,2.835225179490447
1782968789516870100,7.5258701171875,0.07247428458034992,-2.417059096391499,3.6579490915745496
1782968789526796800,7.535796875,0.22101824788451194,-2.419394699732214,4.054830102321505
1782968789536723000,7.545722900390625,0.5193921226501464,-2.577855515286326,4.1169928362458945
1782968789546649000,7.555649169921875,0.9420563939511776,-2.7646090899974105,4.043562566114962
1782968789556576000,7.565575927734375,1.3727397210568189,-2.945351441594958,3.8775270775228736
1782968789566502000,7.575501953125,1.7142133173584937,-3.2001778510570524,3.829297591882944
1782968789576428000,7.585427978515625,1.7743845852047204,-3.252850579841435,3.755364925187826
1782968789586355000,7.59535498046875,1.5092694214403628,-3.2820456946656105,3.6533313686460254
1782968789596280800,7.60528076171875,1.2168565009057521,-3.4193832043007015,3.452245317199826
1782968789606207700,7.615207763671875,0.9056418492674827,-3.4918908066287635,3.398452352213859
1782968789616134000,7.6251337890625,0.4157300881236791,-3.532384437319636,3.2999086836144325
1782968789626060000,7.63506005859375,-0.15903145504891872,-3.6237691740751266,3.1694249853968617
1782968789635986700,7.644986572265625,-0.727887573570013,-3.7943282775714993,2.992425035198033
1782968789645912800,7.654912841796875,-1.2291647783368824,-3.9465050444200633,2.7773867385059594
1782968789655839000,7.6648388671875,-1.5190303524762392,-3.9361502391442653,2.639695885388553
1782968789665766000,7.674765869140625,-1.5766747321933507,-3.9083389798939225,2.4632225894123314
1782968789675691800,7.68469189453125,-1.3819845192641018,-4.009178650476038,2.1505001635596157
1782968789685618000,7.694617919921875,-1.0213953036040067,-4.0892417827501895,1.919223556511104
1782968789695544800,7.704544921875,-0.8785568584650755,-4.132780772486329,1.680127069491893
1782968789705470700,7.714470703125,-1.0934265205919742,-4.022858216260373,1.5543021568655966
1782968789715396900,7.72439697265625,-1.291940091201663,-3.805315827792883,1.5201814222075045
1782968789725324000,7.734323974609375,-1.1986270167320967,-3.627721711093187,1.4932023759976027
1782968789735250000,7.74425,-1.1456979750990868,-3.454734795928001,1.5264837372221052
1782968789745175800,7.75417578125,-1.2227952433049678,-3.103761842136085,1.6810013681083917
1782968789755103000,7.76410302734375,-1.2803531137824058,-2.6846286675706503,1.7855952766574918
1782968789765028900,7.77402880859375,-1.2743670251101256,-2.2274691292107103,1.93106450869143
1782968789774954800,7.783954833984375,-1.2653092739075422,-1.820762305498123,2.0822426198914648
1782968789784882000,7.7938818359375,-1.276264967685938,-1.460814310351014,2.145711029586941
1782968789794807800,7.803807861328125,-1.3236965809464454,-1.300196462893486,2.0488082600623367
1782968789804734000,7.81373388671875,-1.2765905463784932,-1.2821597248129546,1.68567608192116
1782968789814660900,7.823660888671875,-1.068788338419795,-1.196567161592841,1.3695683975443242
1782968789824586800,7.833586669921875,-0.8340203821241855,-0.9876796426154673,1.0232383011221886
1782968789834514000,7.843513916015625,-0.7332762808710336,-0.7871917031928897,0.5216538570370525
1782968789844440000,7.853440185546875,-0.8294049972832203,-0.6772967656262219,0.04011836763769388
1782968789854366000,7.863365966796875,-1.0355921712607146,-0.6028598026707768,-0.4572451708167791
1782968789864292900,7.87329296875,-1.2051596333712338,-0.390106986567378,-0.8498138713225721
1782968789874219000,7.883218994140625,-1.333417764493823,-0.05115341026261449,-0.9573157762728631
1782968789884145000,7.893144775390625,-1.4431933134645223,0.33969621136561035,-0.8200430024370551
1782968789894071800,7.90307177734375,-1.493875452953577,0.7619421111240983,-0.6689502314329147
1782968789903998000,7.912998046875,-1.444642927750945,1.118011511272192,-0.5602458188250661
1782968789913924000,7.922924072265625,-1.3296324007362126,1.397283941335231,-0.32125951418206095
1782968789923851000,7.93285107421875,-1.2188041278421877,1.6929823132812976,-0.03330868762284517
1782968789933777000,7.94277685546875,-1.02827103459239,1.9604408253014087,0.19765300825759768
1782968789943703000,7.952703125,-0.6436912870138883,2.1962762646980583,0.3587424187496304
1782968789953630000,7.9626298828125,-0.16730536239743232,2.4416443793326614,0.49566959401816124
1782968789963555800,7.972555908203125,0.1621001949697733,2.580362237410247,0.5716854967281222
1782968789973482000,7.98248193359375,0.29111762002706526,2.7124019328981634,0.7374108964577317
1782968789983409000,7.992408935546875,0.2802045963466167,2.9846517708480356,1.005627387238294
1782968789993335000,8.0023349609375,0.2580021168887615,3.308265008549392,1.1549575324840844
1782968790003261000,8.012260986328124,0.14659925897717474,3.5105990142300723,1.119517385790497
1782968790013187800,8.022187744140625,-0.08936462910473346,3.617151217240095,0.9782781925417482
1782968790023114000,8.032114013671874,-0.19667349570095538,3.619021395026147,0.7224439212113618
1782968790033040000,8.042039794921875,-0.12016425651609897,3.530507829792797,0.41529827257767316
1782968790042966800,8.051966796875,-0.01442658475935459,3.4587457851350307,0.04497472162768244
1782968790052893000,8.061892822265625,0.06023790334165096,3.450210596501827,-0.28156244069635866
1782968790062819800,8.07181982421875,0.13651041116118431,3.563461128106713,-0.3404654421724379
1782968790072745700,8.081745849609375,0.20495441731214523,3.7592186780065298,-0.18748685742169618
1782968790082671900,8.091671875,0.3729670511960983,3.987246512392163,-0.020551351249963042
1782968790092599000,8.10159912109375,0.6464011304944753,4.207987112379074,0.1602450686223805
1782968790102525000,8.11152490234375,0.9323311187505722,4.432469821503759,0.3550482404068112
1782968790112450800,8.121450927734376,1.218869009771943,4.68305815500468,0.43443303502798075
1782968790122378000,8.1313779296875,1.4556196643173693,4.82383879083097,0.4347083448380232
1782968790132304000,8.141303955078126,1.4371815058290958,4.841835635292529,0.408510950525105
1782968790142229800,8.151229736328125,1.06745504398942,4.840697278912365,0.3625425416849553
1782968790152157000,8.161156982421875,0.4473690889686346,4.9118227792322635,0.2920199756942689
1782968790162082800,8.171082763671874,-0.21951485758423803,5.055435131353139,0.25041107723787426
1782968790172009000,8.181009033203125,-0.6406430053591727,5.143738853228092,0.1862960402019322
1782968790181935900,8.190935791015624,-0.7427718389689922,5.1952235412716865,0.056362523213028905
1782968790191861800,8.20086181640625,-0.5447340691775083,5.201375634160637,-0.11758636885210871
1782968790201788000,8.210787841796876,-0.18002338967323303,5.100785846686363,-0.25507249317765235
1782968790211715000,8.220715087890625,0.11349836888611316,5.0165901446521275,-0.3221554401084781
1782968790221640700,8.230640625,0.2781131770253181,4.971613523328304,-0.43962388166934246
1782968790231566800,8.24056689453125,0.32962942925095556,4.8642441587165,-0.49931701060980554
1782968790241494000,8.250493896484375,0.20185411320924757,4.768660216705501,-0.5952594106696546
1782968790251420000,8.260419921875,-0.08428104223012924,4.642134900724888,-0.8262289975956082
1782968790261345800,8.270345703125,-0.5516349346071482,4.416181534525752,-1.1749021500125527
1782968790271273000,8.28027294921875,-0.9470078788787126,4.159584023737907,-1.4741701971389352
1782968790281199000,8.29019921875,-1.1958563829749822,3.8954198770880697,-1.7543284701257944
1782968790291126000,8.3001259765625,-1.3703192159116266,3.7010710249423977,-1.8909720061473547
1782968790301052000,8.310052001953125,-1.3964894299566746,3.5014006855130195,-1.8745659380085766
1782968790310978000,8.31997802734375,-1.1665063698500393,3.303770327478647,-1.7666572058230638
1782968790320905000,8.329905029296874,-0.6961059493839741,3.1255241766110062,-1.6231395462483167
1782968790330830800,8.339830810546875,-0.14105389980971814,2.891725649869442,-1.4877354888938366
1782968790340757000,8.349757080078126,0.29155016622543334,2.6241888119161128,-1.3708359332621096
1782968790350684000,8.359683837890625,0.4052057714998722,2.36839940264076,-1.2650761958040295
1782968790360610000,8.369610107421876,0.18594868806898593,2.1410487368643283,-1.1369938596397637
1782968790370536000,8.379535888671874,-0.19233049806058405,1.8912693816587327,-1.049643785227835
1782968790380462800,8.389462890625,-0.6182277599334717,1.5597450785718858,-1.1487757751092313
1782968790390389000,8.399388916015624,-1.1205331387042998,1.1750722458824514,-1.3636211795777082
1782968790400315000,8.40931494140625,-1.4102005599230527,0.628290596525371,-1.7534928960844873
1782968790410241800,8.41924169921875,-1.493174026685953,-0.017468436673283575,-2.0154218310281635
1782968790420168000,8.42916796875,-1.3725316312640905,-0.5505566378511488,-2.0385963703885674
1782968790430094000,8.439093994140626,-1.1169734003961085,-0.9641612582534551,-2.046778800061345
1782968790440020700,8.449020751953125,-0.9440057744532823,-1.4115531435757875,-2.1133302704639734
1782968790449947000,8.45894677734375,-0.9764110834956169,-1.9482137964129447,-2.269177104127407
1782968790459873000,8.468873046875,-1.06088969412446,-2.448996349530667,-2.3693052654393014
1782968790469800000,8.478800048828125,-0.9873831438869237,-2.7333427218571305,-2.1565458734646437
1782968790479725800,8.488725830078126,-0.7685475007385015,-2.7634321551725267,-1.6023445955008266
1782968790489652000,8.49865185546875,-0.4957528883874416,-2.732971842718124,-0.8539366503410041
1782968790499579000,8.508578857421876,-0.25468320159912106,-2.84210091047883,-0.10072758850976825
1782968790509504800,8.5185048828125,0.10074117864370345,-2.9360554977223274,0.4756285303778946
1782968790519431000,8.528430908203125,0.5404670593827963,-2.9791198556840417,1.0239772829212248
1782968790529357800,8.53835791015625,0.8711457054257392,-3.290285992005467,1.4077277400687336
1782968790539284000,8.548283935546875,1.1823919212460516,-3.66488619736135,1.5083374012872577
1782968790549211000,8.5582109375,1.5310551367908716,-4.411791775134206,1.1026153508283196
1782968790559136800,8.56813671875,1.843584378159046,-5.707812413647771,-0.15749927704557776
1782968790569063000,8.57806298828125,1.9259324064999819,-7.074027701371908,-1.9051906472444533
1782968790578990000,8.587989990234375,1.947170424839854,-7.728197712302207,-3.1096745733112097
1782968790588915700,8.597915771484375,2.0059341639757156,-7.555636329072714,-3.072809946772456
1782968790598841900,8.607841796875,2.0864842029839754,-6.511073500370979,-1.9136150689795612
1782968790608769000,8.61776904296875,1.9810306088656187,-5.101190335834026,0.16932956170141697
1782968790618695000,8.62769482421875,1.5180372497856616,-3.687219025200605,2.791632706001401
1782968790628620800,8.637620849609375,0.9426759871542453,-2.8431898747593163,4.811681904569268
1782968790638548000,8.6475478515625,0.558671993637085,-2.86999283374995,5.671772547495364
1782968790648473900,8.657473876953125,0.3826140004634857,-3.1409578925862904,5.769013609063625
1782968790658399700,8.667399658203125,0.4317132546752691,-3.317485841359198,5.550629801335931
1782968790668327000,8.677326904296875,0.5203595063775778,-3.397572646769881,5.199601025703549
1782968790678253000,8.687253173828125,0.46337914352715015,-3.5793133617550135,4.9464995403379195
1782968790688179000,8.697178955078124,0.3956014923304319,-3.8753035562545057,4.864580843324959
1782968790698105900,8.70710595703125,0.17378186493515968,-3.715880471539497,4.676917460292578
1782968790708031700,8.71703173828125,-0.12604279316067696,-3.3542966918841004,4.316181529638171
1782968790717957600,8.72695751953125,-0.3313578604787588,-3.281844911396503,3.845929869993031
1782968790727884800,8.736884765625,-0.7341343590050935,-3.2948589990094304,3.407518871244788
1782968790737810700,8.746810791015625,-1.4694371772676706,-3.1433564781606194,3.230902951927483
1782968790747736600,8.756736572265625,-2.2746651801496744,-2.771431921754777,3.1883757695823904
1782968790757663700,8.766663818359374,-2.6836212440937754,-2.4522128273591397,2.95804842608273
1782968790767589600,8.776589599609375,-2.419914778083563,-2.5295775143295525,2.5522528719961644
1782968790777515800,8.786515869140626,-1.6633774486124515,-2.811905386440456,2.1490949729368087
1782968790787442700,8.796442626953125,-0.8857511538833379,-2.9329332740485667,1.802609247561544
1782968790797368800,8.806368896484376,-0.35064416022896766,-2.8743890228822826,1.4619266555070876
1782968790807294700,8.816294677734374,-0.1498041924983263,-2.767142700128257,1.2759588243462145
1782968790817221600,8.8262216796875,-0.1746475418537855,-2.5693746871888634,1.0919792443931102
1782968790827147800,8.836147705078124,-0.18467150774002075,-2.2861457745850084,0.8383547580666839
1782968790837073700,8.84607373046875,-0.2207932069569826,-2.01587600453645,0.7033819317363202
1782968790847000600,8.85600048828125,-0.8036100462913512,-1.5472931548863649,0.8630877058502286
1782968790856926700,8.8659267578125,-1.583473890814185,-0.8136958253674209,1.1213592142648994
1782968790866852900,8.875852783203126,-1.9680390253454445,-0.24491920182332394,1.1710533656299114
1782968790876779500,8.885779541015625,-1.9403367794275284,0.013939531894773245,1.095376631746441
1782968790886705700,8.89570556640625,-1.560347866770625,0.11711524420902132,0.8566760852422565
1782968790896631800,8.9056318359375,-0.8936948063641786,0.23481793291717767,0.6924144013896584
1782968790906558700,8.915558837890625,-0.2952724016189575,0.37570816659778355,0.5597175571672618
1782968790916484600,8.925484619140626,0.02971592382788658,0.5155461147464812,0.30844109527170654
1782968790926411500,8.93541162109375,0.1575987918972969,0.6636236295826733,-0.08336772677749395
1782968790936337700,8.945337646484376,0.1972521723717451,0.7416817056447267,-0.35485476366132496
1782968790946263600,8.955263671875,-0.03038870852291584,0.8147710533834993,-0.5004115278482437
1782968790956190500,8.9651904296875,-0.599739332562685,0.9648055475063622,-0.6389930461950599
1782968790966116600,8.97511669921875,-1.2714561060994862,1.205434504789859,-0.7435393162101507
1782968790976042800,8.985042724609375,-1.8616846829950808,1.49053622552827,-0.718415396347642
1782968790985969700,8.9949697265625,-2.1973194901406763,1.8324286317639051,-0.5173091788962483
1782968790995895600,9.0048955078125,-2.309856905040145,2.146070364418626,-0.3113116822719574
1782968791005821700,9.01482177734375,-2.212705859842896,2.3644953809395433,-0.15873802506029605
1782968791015748900,9.024748779296875,-1.9831904172480106,2.477003277483582,-0.042943069669604296
1782968791025674500,9.034674560546875,-1.589331969192624,2.5284268829897045,0.14662629311457276
1782968791035600600,9.0446005859375,-0.9598428105324506,2.620674666315317,0.39748803672939537
1782968791045527800,9.05452783203125,-0.19547756391465662,2.804586880120635,0.6516375698432326
1782968791055453400,9.064453369140624,0.4634861110329628,2.9641283305183053,0.785340083976835
1782968791065379600,9.074379638671875,0.9081815968781709,3.0363106464147567,0.761241269378364
1782968791075306800,9.084306640625,1.1237684673637152,3.038016865810752,0.667330813537538
1782968791085232600,9.094232666015625,1.1186515627413987,3.092274525699019,0.5926875143550336
1782968791095158500,9.104158447265625,0.7762620206385851,3.317196795284748,0.49638314911499615
1782968791105085700,9.114085693359375,0.26039748759269715,3.5235476353913544,0.4440525117665529
1782968791115011600,9.124011474609375,-0.06876900032162665,3.6975405127286907,0.4110352083057165
1782968791124937500,9.1339375,-0.10808686523139475,3.888007262744009,0.3152880385570228
1782968791134864600,9.14386474609375,-0.010692074406147003,3.980692268443107,0.12525514991432427
1782968791144790500,9.15379052734375,0.27804244987666604,4.062039303047955,-0.005456657970696687
1782968791154716700,9.163716552734375,0.7030524075210094,4.21640539663434,-0.19007219773977993
1782968791164643800,9.173643798828126,1.2261579977363348,4.326368284870684,-0.5066387318000197
1782968791174568700,9.183568603515624,1.6881126614183186,4.3125960723668335,-0.7934922646418213
1782968791184495600,9.19349560546875,1.7871505432754753,4.243430766203999,-1.0462585267037152
1782968791194421800,9.203421875,1.2901070305556057,4.183296030975878,-1.2207698749572038
1782968791204347600,9.21334765625,0.14724515566527843,4.170188127599657,-1.1437366118982433
1782968791214274600,9.223274658203126,-1.176404663529992,4.303033294251561,-0.861039614214003
1782968791224200700,9.23320068359375,-2.0521949798911807,4.2721202695935965,-0.38168694874644277
1782968791234126600,9.243126708984375,-2.516585346287489,4.5488966450572015,-0.21091887867450712
1782968791244053500,9.253053466796874,-2.8556173946559427,4.922094582399725,-0.25243688397705555
1782968791253979600,9.262979736328125,-2.286902145910263,4.752960251009464,-0.13548545202761889
1782968791263905800,9.27290576171875,-0.9431699081510305,4.572301778303086,-0.1950872494228184
1782968791273832400,9.28283251953125,0.37205110539495945,4.547067383803427,-0.39569837683364745
1782968791283758600,9.292758544921876,1.4964409195274113,4.379329767468572,-0.56051820602566
1782968791293684700,9.302684814453125,2.3732512265861034,4.071401882416009,-0.6387922629259526
1782968791303611600,9.312611572265626,2.897568530678749,3.775254451528191,-0.7354420806027948
1782968791313537500,9.32253759765625,2.9305805734425783,3.5560602042004463,-0.9192787449538707
1782968791323463700,9.332463623046875,2.333263499590754,3.4451498059809205,-1.0882622696965931
1782968791333390600,9.342390625,1.1355699643164872,3.404646530678868,-1.148235676883161
1782968791343316500,9.35231640625,0.00448211385011673,3.4263024821698664,-1.0059072270929812
1782968791353243600,9.36224365234375,-0.6510854889184237,3.470045470045507,-0.8823902991481125
1782968791363169800,9.372169677734375,-0.9216969120115042,3.4017408723652363,-0.8306548512138425
1782968791373095700,9.382095703125,-0.9089438134223222,3.2021354148656127,-0.7557979092806577
1782968791383021600,9.392021484375,-0.570247865140438,2.94692409773916,-0.645671793306619
1782968791392948700,9.40194873046875,-0.17428104662895202,2.6534075998768207,-0.5790734150223433
1782968791402874600,9.41187451171875,0.25367490133941173,2.29729494510889,-0.5597821468360722
1782968791412801800,9.4218017578125,0.7191244213998317,1.8629332217514514,-0.587213905249536
1782968791422727700,9.431727783203126,1.2100520815879106,1.3390341430708765,-0.6912025413818657
1782968791432653600,9.441653564453125,1.541839565655589,0.8269656413070857,-0.7955687786549329
1782968791442580700,9.451580810546876,1.5780705704659224,0.2976194031365216,-0.7593757677674293
1782968791452506600,9.461506591796875,1.5220143367230892,-0.3426150214217603,-0.6059338032886386
1782968791462432500,9.4714326171875,1.1643465614676476,-0.6595541881866752,-0.5581168439723551
1782968791472359700,9.481359619140624,0.5349959344953298,-0.939301980676502,-0.42949645540863274
1782968791482285800,9.491285888671875,-0.17856091590523718,-1.3269786713570355,-0.2136621860332787
1782968791492211500,9.50121142578125,-0.795846426552534,-1.7290094660826025,-0.16255078828148542
1782968791502138600,9.511138671875,-1.3858125531196595,-2.025688958020508,-0.19261530635133384
1782968791512064800,9.521064697265626,-2.0502894385308026,-2.324610822057724,-0.1554229822281748
1782968791521990700,9.53099072265625,-2.615607446053624,-2.6239713697731495,0.021756123929843305
1782968791531917600,9.54091748046875,-2.971304798018932,-2.861872071136534,0.2066393016591668
1782968791541843700,9.55084375,-3.01308466912806,-3.0949837846577166,0.3793087483730167
1782968791551769900,9.560769775390625,-2.6680396440804004,-3.3966973252400754,0.44584903979450463
1782968791561696800,9.57069677734375,-2.221330480325222,-3.5048134165659546,0.6919093744769692
1782968791571622700,9.58062255859375,-1.9479507615625857,-3.627117607720196,0.994845954048261
1782968791581548800,9.590548828125,-1.6162772592633963,-3.920107743620872,1.0273187753688544
1782968791591475700,9.600475830078125,-1.327990478748083,-4.478808963352441,0.6539620672680437
1782968791601401600,9.610401611328125,-1.212211305448413,-5.477476886841655,-0.4136189411886036
1782968791611327700,9.62032763671875,-1.137657291984558,-6.4928475233286616,-1.9660538428775964
1782968791621254700,9.630254638671875,-0.8839543335944413,-7.050149982178211,-3.0455367399215696
1782968791631180800,9.640180908203124,-0.3952560398936271,-6.582043810129165,-2.8282398506477473
1782968791641106700,9.650106689453125,-0.2423310850262642,-5.441165802532434,-1.6719430323839186
1782968791651033600,9.66003369140625,-0.06905716961324214,-4.354780432623625,0.5337669041570275
1782968791660959700,9.669959716796875,0.25828911713659763,-3.4333576613783836,2.582031631927192
1782968791670885600,9.6798857421875,0.47194531182050703,-2.967506574779749,3.9150641964957114
1782968791680812500,9.6898125,0.6414326944321393,-2.8372952637627717,4.464913416729868
1782968791690738700,9.69973876953125,0.7926286335498094,-2.854945194482803,4.440759218682349
1782968791700664800,9.709664794921874,0.8713608094811439,-3.049072512832284,4.222290947541595
1782968791710591000,9.719591064453125,0.9632108256608247,-3.1908582340478895,4.098923511070013
1782968791720516900,9.729516845703126,1.2065437812060118,-3.239242617988586,3.9798923502370713
1782968791730443000,9.739443115234375,1.562850789502263,-3.2901305091828106,3.8519127437949177
1782968791740370000,9.749369873046875,1.7879899167090654,-3.4045039073377845,3.697503395588696
1782968791750296000,9.759296142578124,1.8356997623890636,-3.5538363906711337,3.4750238429799674
1782968791760222000,9.769221923828125,1.7133534856587647,-3.7229382810965177,3.3452415710300207
1782968791770149000,9.779149169921874,1.3263871352046728,-3.7903456376761198,3.3671681561559437
1782968791780075000,9.789074951171875,0.7439385446608067,-3.688045246891677,3.5535946908697484
1782968791790001000,9.7990009765625,0.055957449543476104,-3.5421696260139344,3.6784777926012873
1782968791799928000,9.808927978515625,-0.6709516343832016,-3.4286090055465697,3.6833261094152925
1782968791809854000,9.81885400390625,-1.3344482765853405,-3.260914643831551,3.672953768482804
1782968791819780000,9.828780029296874,-1.7474550772249697,-2.9667350058853623,3.5928359834119674
1782968791829707300,9.838707275390625,-1.8242600844860075,-2.7048393886893987,3.3772844765007495
1782968791839633000,9.8486328125,-1.6004945837199687,-2.515525023579597,3.0829756592169404
1782968791849560000,9.85856005859375,-1.123695986649394,-2.336477785462141,2.721411168783903
1782968791859486200,9.868486328125,-0.5675555573165416,-2.113343714467436,2.3537147514671086
1782968791869411800,9.878411865234375,-0.11505787328779697,-1.8419430406928061,1.964385617404431
1782968791879339000,9.888339111328126,0.11181962201893329,-1.495534179946035,1.5911901642799378
1782968791889265200,9.89826513671875,0.24340426721572875,-1.152493626588583,1.3733818183526396
1782968791899191000,9.90819091796875,0.372615169018507,-0.7729853370554745,1.1968353110097347
1782968791909118000,9.918117919921874,0.2917003883510828,-0.3764882110595703,1.11984069946073
1782968791919044000,9.928044189453125,-0.3753074768424034,0.19370909293740987,1.2748162301823496
1782968791928970000,9.937969970703126,-1.2466560113638638,0.9000503128707409,1.419922035731375
1782968791938897200,9.947897216796875,-1.7201216646194457,1.400918790706247,1.3087591240555048
1782968791948823000,9.957822998046876,-1.6807254737764596,1.880288991830498,1.0356927090257406
1782968791958749000,9.9677490234375,-1.5546154605984688,2.1043996527723965,0.5734038449533283
1782968791968676000,9.977676025390625,-0.8911889610230922,1.7916444936938583,-0.17182810051888225
1782968791978602000,9.98760205078125,-0.31849311820864673,1.6197935968212782,-1.0195587358266114
1782968791988528000,9.997528076171875,-0.17507190474569798,1.3171324001252651,-1.48471248781085
1782968791998455000,10.007455078125,-0.3214537215799093,1.058997012245655,-1.4984499212622642
1782968792008381200,10.017381103515625,-0.7215384968042373,1.2345736516430974,-1.375920250789076
1782968792018307000,10.02730712890625,-1.2639081749379635,1.6782690205350517,-0.9966372944444417
1782968792028234000,10.03723388671875,-1.7524638452976942,2.200105905988812,-0.5103418241016566
1782968792038160100,10.04716015625,-2.038886000984907,2.5945842395082113,-0.204353382679075
1782968792048086000,10.0570859375,-2.094507934963703,2.814793801358342,-0.07806655162945389
1782968792058013000,10.067012939453125,-2.069912422889471,2.8993761646226046,0.01784165389984846
1782968792067939000,10.07693896484375,-2.2668705807507035,2.616112472966313,0.5817904188960791
1782968792077865200,10.086865234375,-1.4890017094373702,2.453439446544647,-0.1502991364084184
1782968792087791900,10.0967919921875,-0.9634282678037881,2.873700163835287,-0.456774484565109
1782968792097718000,10.106718017578125,-0.6305290231019258,2.9025577172681687,-0.008741963251680135
1782968792107644200,10.11664404296875,-0.3910626798570156,2.5686533871769903,0.4534409562282264
1782968792117571000,10.126571044921874,-0.25023615906238555,2.427844109778106,0.6027630642980337
1782968792127497000,10.1364970703125,-0.1740986757993698,2.6139260688379404,0.5279521534636616
1782968792137423000,10.146423095703126,0.006346154156327247,2.832613535687327,0.20083938320875167
1782968792147350000,10.15635009765625,0.2687017900794744,2.8026579578846693,0.017056787132471798
1782968792157276000,10.16627587890625,0.7006856783896684,2.6310528524667025,0.12066796825453638
1782968792167202000,10.1762021484375,1.3960603908896445,2.5332982884183526,0.34685353577435013
1782968792177129000,10.18612890625,2.1262007118225097,2.7895497622475025,0.4726742106169462
1782968792187055000,10.19605517578125,2.0758499962449073,2.8831191495656965,0.5533908383637667
1782968792196981000,10.20598095703125,1.4637544554561375,2.9441604782447217,0.3905234584137797
1782968792206908000,10.215907958984374,0.8378402326732873,2.9216560932308435,0.06359422803223133
1782968792216834000,10.225833984375,0.2564467041403055,2.920664159584045,-0.5361898204550146
1782968792226760000,10.235760009765626,-0.4150041119366884,2.8397701294437048,-1.2292534795336425
1782968792236686800,10.245686767578125,-0.767516988646984,2.526466104310751,-1.7044919876806437
1782968792246613000,10.255613037109375,-0.7318278356283903,2.3836660914860666,-1.6009170469157397
1782968792256539100,10.2655390625,-0.1412245802015066,2.7569688043773173,-1.328120827129483
1782968792266466000,10.275466064453125,0.22673779457509516,2.7667183372363446,-0.7400199099123478
1782968792276392000,10.285391845703124,0.5258300467431545,2.6589193490356204,-0.2371243101634085
1782968792286318000,10.295318115234375,0.8812252008914947,2.7109289377361536,-0.15615721478685735
1782968792296245000,10.305244873046876,0.7000543947488069,2.3065702845849096,0.20979981151670216
1782968792306171000,10.3151708984375,0.5348977348178625,2.4415455951333045,0.07345145904943347
1782968792316097000,10.325096923828125,0.4515338074326515,2.7630776426464316,-0.41268823620975015
1782968792326024000,10.33502392578125,0.45595337744057174,2.785882471911609,-0.8001293645687401
1782968792335950000,10.3449501953125,0.343463308814168,2.4839672712773084,-0.9923590326033532
1782968792345876000,10.3548759765625,0.1962760208159685,2.180297482060641,-1.1274964018456637
1782968792355803100,10.36480322265625,0.19894085611104964,2.0125402842424807,-1.1933278874106705
1782968792365729000,10.37472900390625,0.2918921115309,1.8948628761060535,-1.2769300074659287
1782968792375655000,10.384655029296875,0.41345922058224677,1.7752808033920824,-1.3984662829875945
1782968792385582000,10.39458203125,0.34961481718122955,1.6571292018726467,-1.5956022816337645
1782968792395508000,10.404508056640625,0.0962859528005123,1.5418800437964497,-1.6550898049995302
1782968792405435100,10.41443505859375,0.10732932486236095,1.4201006071686744,-2.022429663963616
1782968792415361000,10.424361083984374,-0.0641489393055439,1.3700355766646564,-2.134228097064048
1782968792425287000,10.434286865234375,-0.30523440818488595,1.2032212126545607,-1.843712242322415
1782968792435214000,10.444214111328124,-0.47054479737281796,0.8267223340705037,-1.3462591258883476
1782968792445140200,10.45414013671875,-0.5686696560382842,0.3450089308209717,-0.9383556397370993
1782968792455065900,10.46406591796875,-0.7236901218801737,0.2487600951604545,-0.4060660415910184
1782968792464993000,10.473992919921875,-0.6829232272058725,0.489061427924782,0.12767974671274424
1782968792474919200,10.483919189453125,-0.5618950473368167,0.47593102045580743,0.25709917669966814
1782968792484844800,10.4938447265625,-0.6129238083064555,0.2872591910332441,0.07900259037055074
1782968792494772000,10.50377197265625,-0.560346648851037,0.25345687467455863,-0.08650719384700059
1782968792504698000,10.513697998046876,-0.41250528085827826,0.22785803077667952,-0.11310418193675577
1782968792514624000,10.5236240234375,-0.24102467860281465,0.0622546499915421,-0.13854089407548306
1782968792524551000,10.533551025390626,-0.07197568740844726,-0.29384558368623254,-0.2879746458262205
1782968792534477000,10.54347705078125,-0.16894962247312068,-0.6972785002946853,-0.4737117369711399
1782968792544403200,10.5534033203125,-0.46165012777745723,-0.9627689271122216,-0.5586609607864171
1782968792554330000,10.563330078125,-0.6321937414437532,-1.0423648802660406,-0.6449294505067169
1782968792564256000,10.573256103515625,-0.7032090593874454,-1.0671239123389125,-0.6833627146016806
1782968792574182100,10.58318212890625,-0.6341805313467979,-0.9866685658767819,-0.6235903098799288
1782968792584109000,10.593109130859375,-0.6390718105196952,-0.8384969430163502,-0.4100288077421486
1782968792594035000,10.603034912109376,-0.7388140412539244,-0.748848236273229,-0.17942045534402132
1782968792603961000,10.612961181640625,-0.8296347143858671,-0.7000519105307758,0.014391367315500973
1782968792613888000,10.622887939453125,-0.8130600116819143,-0.6636554860256612,0.18214951498173176
1782968792623814100,10.632814208984374,-0.7051981873780488,-0.6478937802050262,0.3354970791753381
1782968792633740000,10.642739990234375,-0.5064209973961115,-0.5917722261410207,0.5026715817347168
1782968792643667000,10.6526669921875,-0.3041179713755846,-0.5484739863581956,0.585789133143425
1782968792653593000,10.662593017578125,-0.034821722534298896,-0.5401544863022864,0.4568208809901029
1782968792663519200,10.672519287109376,0.3784703247874975,-0.7944835407014936,0.46649968670047814
1782968792673446000,10.68244580078125,0.7255494860112667,-1.2644248922884465,0.7008608157608658
1782968792683372000,10.6923720703125,1.0530272901862858,-1.5522101530224084,0.7152635812532157
1782968792693298200,10.702298095703124,1.334870301389694,-1.6266028384447098,0.765105178264901
1782968792703225000,10.71222509765625,1.4127426456212997,-1.6109620555900037,0.9860049874015152
1782968792713151500,10.7221513671875,1.474056069239974,-1.5621376727968452,1.119326758589223
1782968792723077400,10.732077392578125,1.5200053349882363,-1.4785326301321386,1.176726223634556
1782968792733004300,10.74200439453125,1.4031991567283868,-1.4612930337786674,1.2818896756999194
1782968792742930400,10.751930419921875,1.2536305265516041,-1.5643740535467863,1.3667809587828814
1782968792752856600,10.761856689453126,1.072633907932043,-1.6568892556369303,1.4276444466769695
1782968792762783200,10.771783203125,0.828329477006197,-1.7271023172870277,1.4456065120860933
1782968792772709400,10.78170947265625,0.48041035782694813,-1.7935075110867618,1.4386100773274897
1782968792782635500,10.791635498046874,0.1623486167728901,-1.7888823355041443,1.365684980239719
1782968792792562400,10.8015625,-0.005031564426422119,-1.7391157034248113,1.2766010677725077
1782968792802488300,10.81148828125,0.2793272289901972,-1.7906563594393432,1.1211376804687083
1782968792812414500,10.82141455078125,0.7997083626776933,-1.9919985776036977,1.0930973617028443
1782968792822341400,10.83134130859375,1.1241793862521647,-2.218316100940108,1.2576001608349383
1782968792832267300,10.841267333984375,1.0745517242521048,-2.316470916352421,1.4578431855857372
1782968792842193400,10.851193359375,0.8080500745654106,-2.2580985146217047,1.583811744466424
1782968792852120300,10.861120361328124,0.3953595002681017,-2.1220498757533726,1.7123939929768441
1782968792862046500,10.87104638671875,-0.06030629240274429,-2.012367411893606,1.7991859951145945
1782968792871972400,10.880972412109376,-0.43869946030080315,-1.94931357434839,1.8413216939240693
1782968792881899300,10.890899169921875,-0.7139537407636642,-1.9235152623556553,1.8415727460756897
1782968792891825400,10.900825439453126,-0.9517606263637542,-1.8447364708036182,2.0081015711426735
1782968792901751600,10.91075146484375,-1.1569219644248485,-1.7427749565847217,2.178940368363261
1782968792911678200,10.92067822265625,-1.455831261241436,-1.6420543823376297,2.161993325215578
1782968792921604400,10.930604248046874,-1.7758014662653208,-1.6335145175293087,1.779640898297727
1782968792931530500,10.940530517578125,-2.300050381296873,-1.6376282364584505,1.3770578765168786
1782968792941457400,10.95045751953125,-2.35734930857718,-1.5616380527116358,1.0142821105979383
1782968792951383300,10.96038330078125,-2.07377494353652,-1.5787188052415846,0.7380122233517468
1782968792961309400,10.970309326171876,-1.6510142261236904,-1.6357301477521657,0.5271165794223547
1782968792971236400,10.980236328125,-1.1535381672054528,-1.5794301683813332,0.5089230433449149
1782968792981162200,10.990162353515625,-0.723102092859149,-1.5062614717960356,0.6304025471780449
1782968792991088400,11.00008837890625,-0.509618332132697,-1.3588663862660526,0.840150701572746
1782968793001015600,11.010015625,-0.3559714927315712,-1.1849958931993692,0.980264324857667
1782968793010941400,11.01994140625,-0.31096506079137326,-1.022421943238005,0.9636295625295489
1782968793020867300,11.029867431640625,-0.377428706780076,-0.8841161000274121,0.7407491009697318
1782968793030794500,11.03979443359375,-0.5817138465285301,-0.8415485856719315,0.4366469847504049
