time,seconds_elapsed,z,y,x
1782968818952572200,0.078572265625,-0.9658055183291435,3.9685596398398277,-1.8213024037241934
1782968818962498000,0.088498046875,-0.9028905047327279,4.112234243541955,-1.7927309737563133
1782968818972424000,0.098423828125,-0.416526791459322,4.177293575690687,-1.7409999097362159
1782968818982350000,0.10835009765625,0.3804056767642498,4.138342206005752,-1.6253464086428284
1782968818992277200,0.11827734375,1.3141764729291199,4.022940341585874,-1.5596452714592217
1782968819002203000,0.128202880859375,2.061314105892181,3.919381182911992,-1.4819151121772824
1782968819012129000,0.13812890625,2.548957922104001,3.8269147883996366,-1.3382584825232624
1782968819022056200,0.14805615234375,2.771758961752057,3.694207568913698,-1.19813813723661
1782968819031981800,0.15798193359375,2.8654262564867734,3.545529165574908,-1.1051224382784217
1782968819041908000,0.167907958984375,2.8369378286272284,3.4143405339583754,-1.0472703340947627
1782968819051835100,0.177835205078125,2.653267022362351,3.2021769159197806,-1.1108597398214042
1782968819061761000,0.187760986328125,2.231343340295553,2.9779490583389996,-1.3030021679639816
1782968819071687000,0.19768701171875,1.6421552123636007,2.7597306703060864,-1.4116595265597105
1782968819081614000,0.207614013671875,0.8981669833421707,2.6235212879180905,-1.371605017938465
1782968819091540200,0.217540283203125,0.24899405004680156,2.5738842735677956,-1.3312848441183567
1782968819101466000,0.227466064453125,-0.22750760990381239,2.5217367377012967,-1.2433933563061057
1782968819111393000,0.23739306640625,-0.6043915422827005,2.4484867925733327,-1.1536156163558364
1782968819121319200,0.247319091796875,-0.8664309518635273,2.279925292634964,-1.0458788797363638
1782968819131245000,0.2572451171875,-0.9729992292255163,1.962720314540714,-0.8749690631061792
1782968819141172200,0.267172119140625,-0.9823831436425446,1.5299249637171626,-0.6437877331256866
1782968819151098000,0.27709814453125,-0.9795435363024473,1.043325395861268,-0.3937928354732692
1782968819161024000,0.28702392578125,-1.064892500025034,0.5884088141225278,-0.118837245696038
1782968819170951200,0.296951171875,-1.3490268370360134,0.24235052037909627,0.09609992870911956
1782968819180877000,0.306876953125,-1.6098253066450356,-0.04570668916404247,0.2677361599177122
1782968819190803000,0.316802978515625,-1.7254694553881882,-0.3879438171841204,0.2890006278730929
1782968819200730000,0.326730224609375,-1.6107137799173592,-0.8122634544767439,0.3086149905338883
1782968819210656300,0.33665625,-1.3017308328539132,-1.238069384804368,0.4154897034965455
1782968819220582000,0.346581787109375,-1.0949205585420132,-1.7098269189678132,0.5831485555067658
1782968819230508000,0.356508056640625,-1.1657114200800656,-2.120801921518892,0.6354428794328123
1782968819240435200,0.366435302734375,-1.3907646225690842,-2.513597270387411,0.7046314203407615
1782968819250361000,0.376361083984375,-1.71308285202384,-2.8492858535468577,0.8891394811473786
1782968819260287000,0.386286865234375,-1.850531420817971,-3.0023841191545126,1.2247529532440007
1782968819270214100,0.396214111328125,-1.8418880956351755,-3.2550480898857113,1.7368769845873115
1782968819280140300,0.406140380859375,-1.5904998439282179,-3.389795875288546,2.0778134052723645
1782968819290066000,0.41606591796875,-1.136040504437685,-3.560745439407229,2.074499750679731
1782968819299993000,0.4259931640625,-0.7177887888818979,-3.951731839157641,1.8775807557851074
1782968819309919200,0.435919189453125,-0.2365700372815132,-4.5837204134181135,1.6501567325115203
1782968819319844900,0.445844970703125,0.27352409566938873,-5.586941470167041,1.2487497687727211
1782968819329772000,0.45577197265625,0.7420283271253109,-6.3844128675729035,0.7364722273681312
1782968819339698200,0.4656982421875,1.393950266867876,-6.845946090972423,0.23368483723402023
1782968819349624000,0.4756240234375,2.020858761385083,-6.814646697345376,0.1372887751225382
1782968819359551000,0.485551025390625,2.2462521556138992,-6.245888193979859,0.6867856017224491
1782968819369477000,0.49547705078125,1.8599580053329468,-5.280561983600259,1.688924854584038
1782968819379403000,0.505403076171875,0.8274965333133936,-4.46915149269104,2.876012532430887
1782968819389330200,0.515330078125,-0.44503918471634385,-4.169400484353304,3.7800598059833046
1782968819399256000,0.525256103515625,-1.5663585053622722,-4.018487453830242,4.29288950137794
1782968819409182000,0.535181884765625,-2.226867656186223,-3.774490773679316,4.365240451839566
1782968819419109000,0.545109130859375,-2.457548050907254,-3.3459114331156012,4.296119277079403
1782968819429035000,0.555034912109375,-2.591422268345952,-3.137705905053019,4.032591967028379
1782968819438961200,0.564961181640625,-2.4604215605169535,-3.1813422176837918,3.4644103867679834
1782968819448887000,0.574886962890625,-1.6283751088142393,-3.183013365766406,2.8418203399717807
1782968819458814200,0.584814208984375,-0.7629238156378269,-3.247527631253004,2.2728033318005503
1782968819468740000,0.594739990234375,-0.07497837635576725,-3.240037860019505,1.7738848189890384
1782968819478666000,0.604666015625,0.3848398598194122,-3.2137305755913257,1.452242589099705
1782968819488593200,0.61459326171875,0.4990460847139358,-3.142238872307539,1.2538918078362942
1782968819498519300,0.624519287109375,0.254524796167016,-2.993192804700136,1.2984711004056035
1782968819508445000,0.63444482421875,-0.2762280939310789,-2.585058870793879,1.4061834332361816
1782968819518372000,0.6443720703125,-0.9296452406674623,-1.9453209975808858,1.488995718088001
1782968819528298200,0.65429833984375,-1.4199749349623918,-1.2647085315354167,1.5683222066506743
1782968819538223900,0.664223876953125,-1.5869307532697916,-0.8195940896257757,1.682348983325064
1782968819548151000,0.674151123046875,-1.4193003967016935,-0.5398329261977225,1.7657221169300377
1782968819558077200,0.6840771484375,-1.0715139639914035,-0.3004246698155999,1.7268655859217046
1782968819568003000,0.694003173828125,-0.6622679771900176,-0.1019255661226809,1.5575772330135107
1782968819577930000,0.703929931640625,-0.33249592459797855,0.06821005126461387,1.259705170290172
1782968819587856100,0.713856201171875,0.026040450185537335,0.1524694661848247,0.9284720321696251
1782968819597782000,0.723781982421875,0.44083413424193857,0.24760990221202372,0.7025779218770564
1782968819607709200,0.733709228515625,0.8350082241177559,0.26957462739124893,0.5560207850085571
1782968819617635000,0.743635009765625,1.0643564934521912,0.2834200512617826,0.48461803864985703
1782968819627561200,0.753561279296875,0.9507979188114404,0.32000717603340745,0.45215727309323844
1782968819637488000,0.763488037109375,0.420402171587944,0.4665492979958653,0.39930706885010003
1782968819647414000,0.7734140625,-0.30885669033527374,0.6980769571959972,0.3075846976380795
1782968819657340200,0.783340087890625,-0.8944640371710062,0.9504717555969953,0.06409326359555124
1782968819667266000,0.79326611328125,-1.3033937976300716,1.0870469025574623,-0.22553134139478206
1782968819677193200,0.803193115234375,-1.5084481681853532,1.171190436013043,-0.38748087584748864
1782968819687119000,0.813119140625,-1.4136948317795992,1.3055886773258447,-0.4138325108740479
1782968819697045000,0.823044921875,-1.033711179819703,1.4937290302202104,-0.34513613739721477
1782968819706972200,0.83297216796875,-0.5101870719313621,1.6604285356789827,-0.17284429182410238
1782968819716898000,0.84289794921875,-0.005511456897854805,1.8311872534006832,-0.02023322521150112
1782968819726824000,0.852823974609375,0.40743104633390903,1.9428145677179096,0.04823014322705567
1782968819736750600,0.86275048828125,0.6488204665958881,1.9517580448910592,-0.004483429024368524
1782968819746676700,0.8726767578125,0.677010203769803,1.9054728251866995,-0.0884386003009975
1782968819756603000,0.882602783203125,0.43505788892805575,1.936158763090521,-0.04736351646035909
1782968819766529800,0.89252978515625,-0.01637888787090778,2.1081755180492996,0.1892158731713891
1782968819776455700,0.90245556640625,-0.4093196365594864,2.430782355187088,0.47474707136824723
1782968819786381800,0.9123818359375,-0.5741922188520431,2.836955364283919,0.5653638924911618
1782968819796308700,0.922308837890625,-0.486969862473011,3.080539079719782,0.4834289749957621
1782968819806234600,0.932234619140625,-0.3273299201369285,3.1777564681515096,0.46407647814154623
1782968819816160800,0.942160888671875,-0.10169628741145133,3.232564163137972,0.39936172164678574
1782968819826087700,0.952087646484375,0.21250819369256496,3.2370100366309282,0.21019553283602
1782968819836013800,0.962013916015625,0.4317132546752691,3.243732330623269,-0.048705140327662225
1782968819845939700,0.971939697265625,0.5435200172126293,3.2732936484113333,-0.43518005400300025
1782968819855866600,0.98186669921875,0.5758604443252087,3.241851631443202,-0.7609194900780916
1782968819865792800,0.991792724609375,0.518762592574954,3.282660611693561,-0.9842430922955274
1782968819875718700,1.00171875,0.4553764543354511,3.3475837502419945,-1.1786221934489904
1782968819885644800,1.011644775390625,0.3284907806098461,3.362277169243991,-1.260513417933136
1782968819895571700,1.02157177734375,0.018053543084859847,3.32513752515614,-1.2229476573877036
1782968819905497900,1.031497802734375,-0.4577034359782934,3.3567484689503906,-1.091842612401396
1782968819915423700,1.041423828125,-1.0164818125993014,3.4566496896386143,-0.9613064533442258
1782968819925350700,1.0513505859375,-1.4083400267481803,3.6269343601077795,-0.7392379657544195
1782968819935276800,1.06127685546875,-1.4865081390559673,3.795384216365218,-0.4269266049206257
1782968819945202700,1.07120263671875,-1.2107178520202635,3.955313497036695,-0.11688172771409153
1782968819955129600,1.081129638671875,-0.631651305130124,4.064311631894111,0.08740501946955918
1782968819965055700,1.0910556640625,0.14087094445824622,4.040495579759776,0.0803996707521379
1782968819974982000,1.10098193359375,0.7354746676981448,3.8983240740969776,-0.09010448768660426
1782968819984908500,1.110908447265625,1.073044242298603,3.569251986467838,-0.5166057068020105
1782968819994834700,1.120834716796875,1.0807552550673485,3.199190301324427,-1.1257101029507814
1782968820004760800,1.1307607421875,0.8462871585011482,2.872899953368306,-1.7130334599241612
1782968820014687700,1.140687744140625,0.39529929451346396,2.6561498843222857,-2.1497030218325555
1782968820024613600,1.150613525390625,-0.20759645625352857,2.605747438557446,-2.483952950491011
1782968820034539800,1.160539794921875,-0.7735241201072931,2.6747815195560456,-2.5998431829497215
1782968820044465700,1.170465576171875,-1.173066459017992,2.8009137445658445,-2.484600308483839
1782968820054392600,1.180392578125,-1.2974632385373115,2.8442002208456394,-2.2851170160591603
1782968820064318700,1.190318603515625,-0.845336141386628,2.7979478804975746,-2.0022937616467473
1782968820074244900,1.200244873046875,-0.029544658914208412,2.6001918502569197,-1.5683933721907435
1782968820084171800,1.210171875,0.7929787621617317,2.3200588578417896,-1.1466422702118755
1782968820094097700,1.22009765625,1.4412240592181682,2.0558841897979376,-0.8777676808487623
1782968820104023800,1.23002392578125,1.785909018781781,1.7567837543234228,-0.6037300096340477
1782968820113950700,1.23995068359375,1.740634291294217,1.4992678135164081,-0.35895905717499554
1782968820123876600,1.249876708984375,1.4211620989203453,1.2322301572568715,-0.22090390078984198
1782968820133802800,1.259802734375,1.0026853424370288,0.9432023491159081,-0.2850580277271569
1782968820143729700,1.269729736328125,0.6514841328471899,0.5962108661755919,-0.4082825485967099
1782968820153655800,1.27965576171875,0.35617256826162336,0.20804054675921796,-0.49656193974800406
1782968820163581700,1.289581787109375,0.05947159514427185,-0.19799305386692284,-0.5837544124454259
1782968820173508600,1.299508544921875,-0.17518471747040748,-0.5358307778842747,-0.675508859296143
1782968820183434800,1.309434814453125,-0.2805599856555462,-0.8015536982834338,-0.7410583861146122
1782968820193361000,1.31936083984375,-0.29587621273100373,-1.060417984959483,-0.7633210713271051
1782968820203287600,1.32928759765625,-0.2857049473285675,-1.3452160465762018,-0.7728343112122267
1782968820213213700,1.339213623046875,-0.22126608516573903,-1.6005933679193258,-0.6822253080695867
1782968820223139800,1.349139892578125,-0.21983283749222754,-1.8735373256132006,-0.4230802316907793
1782968820233065700,1.359065673828125,-0.2553887195199728,-2.132199952237308,-0.052879832196421915
1782968820242992600,1.36899267578125,-0.3661731532722711,-2.3223113129436967,0.4650490860333666
1782968820252918800,1.378918701171875,-0.48896951185762877,-2.4727748461335897,1.0269622170161454
1782968820262845000,1.388844970703125,-0.6088859310925007,-2.71673616271019,1.4722193553321063
1782968820272771600,1.398771484375,-0.7077244909852742,-2.913161821129918,1.7162579749286173
1782968820282697700,1.40869775390625,-0.6159340960383415,-3.076992785415053,1.72928930593729
1782968820292624000,1.418623779296875,-0.38645021762549875,-3.285657163161039,1.6019059118226169
1782968820302550800,1.42855078125,-0.14981003771722315,-3.524228603392839,1.511247735776007
1782968820312476700,1.4384765625,0.006456044271588325,-3.90060341720581,1.434169172270596
1782968820322402800,1.44840283203125,0.07173661795556545,-4.351398973491787,1.3068559207826853
1782968820332329700,1.458329833984375,0.14563830499053002,-4.669823702639341,1.171277091383189
1782968820342255600,1.468255615234375,0.24826164411902427,-4.826530514132976,1.0931583711750805
1782968820352181800,1.478181640625,0.40553310375809665,-4.856096800357103,1.0933825353197753
1782968820362108700,1.488108642578125,0.500019313660264,-4.723549155347049,1.319651981730759
1782968820372034800,1.498034912109375,0.38779754058122634,-4.584876597715914,1.5907918126121163
1782968820381960700,1.507960693359375,0.15369535471796988,-4.3867017575412985,2.0020529386281964
1782968820391886600,1.517886474609375,-0.18273557124137876,-4.149784514257312,2.3632538564458487
1782968820401813800,1.527813720703125,-0.4601204339921474,-4.025433327445388,2.5773911126449702
1782968820411739600,1.53773974609375,-0.8869476701915263,-3.8807542228758334,2.9004551920309662
1782968820421665800,1.547665771484375,-1.0895318512409924,-3.816550630773604,2.880173451502621
1782968820431592700,1.5575927734375,-1.072414127701521,-3.7296050455093384,2.7116081521719693
1782968820441518800,1.567518798828125,-0.9070826957255601,-3.6196500483185052,2.4054024147368964
1782968820451444700,1.57744482421875,-0.6184317580729722,-3.511912727177143,2.0931705488801002
1782968820461371600,1.58737158203125,-0.2813373997688293,-3.464057920068502,1.854992491880059
1782968820471297800,1.5972978515625,0.04131576072871685,-3.4459275123551487,1.6097352902740238
1782968820481223700,1.6072236328125,0.26968963207304475,-3.526485150147974,1.3605842960998416
1782968820491150600,1.617150634765625,0.4011094420969486,-3.566518177589774,1.2466865526326
1782968820501076700,1.62707666015625,0.30215105521678925,-3.3941701448500154,1.4666037074074147
1782968820511003000,1.6370029296875,-0.12231003637313842,-3.0025676590278745,1.8742643247134982
1782968820520929500,1.646929443359375,-0.6376520068496465,-2.4259962899543344,2.1191040315598246
1782968820530855700,1.656855712890625,-0.9819774854511022,-1.9353122292637823,2.1103093152076005
1782968820540781800,1.66678173828125,-1.113399049040675,-1.5705518653988837,2.0630556888625025
1782968820550707500,1.67670751953125,-1.0439105022728443,-1.326750123298168,1.9439782046698033
1782968820560634600,1.686634521484375,-0.8865911118388176,-1.1570955674260854,1.7502045220635831
1782968820570560800,1.696560791015625,-0.6336532926023006,-0.9012901568640023,1.4438956165149808
1782968820580486700,1.706486572265625,-0.35897476620078084,-0.6605635113596916,1.1017383487980812
1782968820590413600,1.71641357421875,-0.10566051486730575,-0.5082680865675211,0.8465938863627612
1782968820600339700,1.726339599609375,0.1225198797315359,-0.33237156756594777,0.7365387897983193
1782968820610265900,1.736265869140625,0.20853286032080648,-0.12190583948642014,0.7168847527142613
1782968820620192800,1.74619287109375,0.17408640083968638,0.1577588047645986,0.7346269648276269
1782968820630118700,1.75611865234375,0.017436287969350813,0.5256853775754571,0.7546002239286899
1782968820640044800,1.766044921875,-0.16669453702270984,0.9206320592589676,0.6853461435038596
1782968820649971700,1.7759716796875,-0.19195114335417746,1.1960298398457467,0.5033466314520687
1782968820659897900,1.78589794921875,-0.15746902803778648,1.338488784147799,0.2562522775467485
1782968820669823700,1.79582373046875,-0.14081424583494662,1.3196541736878453,0.014717530529946088
1782968820679750700,1.805750732421875,-0.27289631915986534,1.213767887240648,-0.3384984529484063
1782968820689676800,1.8156767578125,-0.5894049855530261,1.1483695323958991,-0.7022113535869866
1782968820699602700,1.825602783203125,-0.9611381110399961,1.2468798832476138,-0.9748700645986944
1782968820709529600,1.835529541015625,-1.2841203573614357,1.4327508299052714,-1.054364018682763
1782968820719455700,1.845455810546875,-1.4448469258904457,1.669404892208427,-0.9045468936376273
1782968820729382000,1.8553818359375,-1.4141601112037896,1.9634283166795967,-0.5782913247339427
1782968820739308300,1.865308349609375,-1.2821166163235902,2.196910763209313,-0.1318374509140849
1782968820749235500,1.8752353515625,-1.071729652568698,2.4147061035245656,0.2198838370271027
1782968820759161600,1.88516162109375,-0.7732412115126848,2.646221487765014,0.4385571292206645
1782968820769087500,1.89508740234375,-0.29234803860485553,2.81621477407217,0.5546272482909261
1782968820779014400,1.905014404296875,0.07469196062982082,2.9433646516919136,0.7060379992030561
1782968820788940500,1.9149404296875,-0.027575989189743993,3.0539202451243996,0.8441979311369359
1782968820798866400,1.924866455078125,-0.21447569437325,3.1556559877634047,0.9468269693538546
1782968820808793600,1.934793701171875,-0.23624679667651652,3.3169121331244704,1.0053719511725008
1782968820818719500,1.944719482421875,-0.020638298881053924,3.524816340152919,0.7834289896585047
1782968820828645400,1.954645263671875,0.29585575446486473,3.639150283080339,0.4059687186963856
1782968820838572500,1.964572509765625,0.5196346992343663,3.6281539650306103,-0.09078983960226178
1782968820848498400,1.97449853515625,0.6446247684717178,3.495071482491493,-0.7131633210383356
1782968820858424300,1.98442431640625,0.7121388002961874,3.3512247370928523,-1.3362958041481674
1782968820868351500,1.9943515625,0.6489993302941321,3.2252333818584678,-1.7635526639364658
1782968820878277600,2.004277587890625,0.35440438954532144,3.1705086889803407,-1.9318135734930633
1782968820888203300,2.014203369140625,-0.08086392726302147,3.286130625891685,-1.69781294830814
1782968820898129400,2.02412939453125,-0.6138660575926304,3.466412081979215,-1.278355217963457
1782968820908056600,2.034056640625,-1.1180202791005371,3.737847388675809,-0.8786987511537968
1782968820917982500,2.043982421875,-1.3467828575015068,4.091355706164241,-0.5601375361450016
1782968820927908400,2.053908447265625,-1.2383259899139403,4.331079239040613,-0.284271699655056
1782968820937835500,2.06383544921875,-0.8269377303868531,4.40062974512875,-0.12635332041457295
1782968820947761400,2.073761474609375,-0.30056349376440045,4.375454679600894,0.011500760440528392
1782968820957687300,2.083687255859375,0.1283539927124977,4.3225159933567046,0.03985007209032774
1782968820967614500,2.093614501953125,0.6212655201941728,4.089293512937426,-0.15724223354458808
1782968820977540600,2.10354052734375,0.9934282692700623,3.7700212270498272,-0.5496287093512714
1782968820987466200,2.11346630859375,1.1834838081359862,3.524975037845969,-1.022885322966054
1782968820997393400,2.123393310546875,1.134773845502734,3.2698914387524125,-1.3483169352009892
1782968821007319600,2.133319580078125,0.8766296897947787,3.0835595965847373,-1.5927870780825615
1782968821017245400,2.143245361328125,0.4762158287465572,2.9357758039981126,-1.7735022494122386
1782968821027172400,2.15317236328125,-0.015243746361136436,2.8715900398135186,-1.9812042118668556
1782968821037098500,2.163098388671875,-0.5293967993140221,2.866299532189965,-2.1251672771215437
1782968821047024400,2.1730244140625,-0.9402946449756622,2.787507150503993,-2.2113209813557564
1782968821056950300,2.1829501953125,-1.107261569198966,2.6247920385062695,-2.193024423295259
1782968821066877400,2.19287744140625,-1.0222592269569635,2.477308105649054,-2.0618945361286403
1782968821076803300,2.20280322265625,-0.6687707832127809,2.376609304842353,-1.8060044429577886
1782968821086729500,2.2127294921875,-0.20205811134874818,2.2175902708835897,-1.4581908299796282
1782968821096656400,2.222656494140625,0.26281507012844085,2.067346810185164,-0.9996018433384597
1782968821106582500,2.23258251953125,0.6767606129229068,1.9258635790474712,-0.5817297016847879
1782968821116508400,2.24250830078125,0.9917571211874484,1.7358958645954727,-0.28764559653494504
1782968821126435600,2.252435546875,1.1868939088404178,1.4531573658570647,-0.15744433198794722
1782968821136361500,2.262361572265625,1.2957377299189567,1.1219130487553775,-0.2850125080849975
1782968821146287400,2.272287353515625,1.2416326302438974,0.682694679147005,-0.518690184925869
1782968821156214500,2.282214599609375,0.9554793546259402,0.17486089234352112,-0.7101357899107038
1782968821166140700,2.292140625,0.5347989506185055,-0.3410549324981868,-0.9332403425499797
1782968821176066300,2.30206640625,0.03261222979128361,-0.7505620544537901,-1.115855136955902
1782968821185993500,2.311993408203125,-0.3755278415948152,-1.070008235603571,-1.145217059714347
1782968821195919600,2.321919677734375,-0.5829471877157688,-1.3182738252453505,-1.037525842737034
1782968821205845200,2.33184521484375,-0.634487989860773,-1.5146081521198154,-0.8421469899564981
1782968821215771400,2.341771484375,-0.5717950945824385,-1.6511819839060307,-0.5825554484518245
1782968821225698600,2.351698486328125,-0.5048007027179002,-1.8146169346109031,-0.27672387809138743
1782968821235624400,2.36162451171875,-0.48076691617965694,-2.0115458663776518,0.08571282859891653
1782968821245550300,2.37155029296875,-0.4871259298175573,-2.2178658729545773,0.47777266626711934
1782968821255477500,2.3814775390625,-0.4984294141203165,-2.417439035619795,0.8387305325765162
1782968821265403400,2.3914033203125,-0.5221545731008053,-2.610370422182977,1.188629646591842
1782968821275329300,2.401329345703125,-0.5679115311473608,-2.8637635839715596,1.4116861223056911
1782968821285256400,2.41125634765625,-0.48710254894196986,-3.1090105564445256,1.6064268963783979
1782968821295182600,2.4211826171875,-0.16854922497868538,-3.3866935253590342,1.8045194650970398
1782968821305108500,2.4311083984375,0.26682079863846303,-3.817670282453298,1.8840330006644128
1782968821315035400,2.441035400390625,0.5967009877800941,-4.2716319015547635,1.8238098565004766
1782968821324961500,2.45096142578125,0.8265881862968206,-4.6496793247550725,1.7971666181161998
1782968821334887400,2.460887451171875,0.997360348021984,-5.003702021506428,1.792241144412756
1782968821344814600,2.470814697265625,1.1439888330936432,-5.206495461392402,1.7811546638615428
1782968821354740500,2.480740478515625,1.2263666720509527,-5.268424386560916,1.8462933448567986
1782968821364666400,2.490666259765625,1.1501485247671603,-5.171602427187562,2.0337102057822047
1782968821374592500,2.500592529296875,0.734236065813899,-4.9349049641340965,2.3847044946230946
1782968821384519400,2.51051953125,-0.06215513513982296,-4.671227431957424,2.8869705642968415
1782968821394445300,2.5204453125,-0.9908078576385975,-4.435455851577222,3.3625615391433237
1782968821404371500,2.530371337890625,-1.737527557450533,-4.212341800457239,3.5835748185917735
1782968821414298600,2.540298583984375,-2.2173159839868544,-3.9497251755103466,3.8028336555883286
1782968821424224300,2.550224365234375,-2.5401228737413883,-3.5211414510324595,3.766123927350342
1782968821434150400,2.560150390625,-2.2842595224469897,-3.385140158437192,3.3367879232004283
1782968821444077600,2.57007763671875,-1.7549381264567374,-3.373831121176481,3.0896868472933767
1782968821454003500,2.58000341796875,-1.1364274579286575,-3.2986893709525464,2.7789228620320556
1782968821463929300,2.589929443359375,-0.6082037940472365,-3.313601108880341,2.4993369821056723
1782968821473856500,2.5998564453125,-0.253898188701272,-3.365772610144317,2.229588605582714
1782968821483782700,2.60978271484375,0.0037409400939941405,-3.2982661771044133,1.9438702142506836
1782968821493708300,2.619708251953125,0.2200777521640062,-3.191915049624443,1.8095944302737712
1782968821503635500,2.629635498046875,0.312748437076807,-3.023572160872817,1.8245453311681747
1782968821513561600,2.6395615234375,0.20797814904749393,-2.797719916960597,2.0188782550923525
1782968821523487200,2.6494873046875,-0.06847381676733494,-2.37736523777619,2.2634451363466677
1782968821533414400,2.659414306640625,-0.48100247850120065,-1.8740367995679377,2.4116359022989866
1782968821543340500,2.669340576171875,-0.9085703039348125,-1.3692363891109824,2.3894028815723956
1782968821553266400,2.679266357421875,-1.2415133877784013,-0.8592536806453019,2.3365081806004047
1782968821563192300,2.6891923828125,-1.445070213252306,-0.4429398012842983,2.2372313754208384
1782968821573119500,2.699119384765625,-1.3902338766932487,-0.10735723578259349,2.074512464030832
1782968821583045400,2.70904541015625,-1.0289578478127717,0.11448884122818707,1.8504045795679092
1782968821592971300,2.71897119140625,-0.49162031862735744,0.17215024514533578,1.5875439167320728
1782968821602898400,2.7288984375,-0.10706804357767105,0.060765726608037945,1.3674116579018532
1782968821612824300,2.73882421875,0.05602057790756225,-0.03523921729400754,1.2106450790449976
1782968821622750500,2.74875048828125,0.010250760379433631,0.07644121544994413,1.1353812368113547
1782968821632677600,2.758677734375,-0.15391396590471268,0.35484234257116914,1.1293684062626212
1782968821642603500,2.768603515625,-0.22552608069777488,0.5978618482530117,1.083768173147738
1782968821652529400,2.778529296875,-0.31377076586186886,0.7764552051231265,0.9645363021109252
1782968821662456600,2.78845654296875,-0.41836628184616564,0.8980619155324995,0.7038003032788633
1782968821672382500,2.798382568359375,-0.6924392435699701,0.9766855165228248,0.40120270987097173
1782968821682308400,2.808308349609375,-0.9734382051646708,1.0701086272381246,0.1781377220571041
1782968821692235500,2.818235595703125,-1.1787252154320478,1.176293750501424,0.06305778306797147
1782968821702161700,2.82816162109375,-1.3146031739085913,1.2670089174322783,0.03430157111771404
1782968821712087300,2.83808740234375,-1.4305869298696516,1.3992546568863093,0.04555003729760647
1782968821722013400,2.848013427734375,-1.424049637055397,1.579651556047052,0.07153532322980463
1782968821731940600,2.857940673828125,-1.303553372105956,1.6930289289020002,0.09061769790574908
1782968821741865700,2.86786572265625,-1.0681985558331013,1.7513930011957883,0.10103168602287768
1782968821751791400,2.877791259765625,-0.7672083610892295,1.803842296487838,0.17182181690856813
1782968821761718500,2.887718505859375,-0.5315554386526345,1.8666934510678053,0.2873086561981588
1782968821771644700,2.897644775390625,-0.48939445927143094,1.9710763472147286,0.4408681095767766
1782968821781570600,2.907570556640625,-0.5188508553802966,2.1643059860721228,0.5913683215152472
1782968821791497500,2.91749755859375,-0.5351426494896412,2.3249697184979916,0.8232455978706479
1782968821801423600,2.927423583984375,-0.525191164317727,2.484389296081662,1.053283749165386
1782968821811349500,2.937349609375,-0.41446635179817676,2.643668588411808,1.1548536337181925
1782968821821276700,2.947276611328125,-0.18419044622480868,2.7699355457171797,1.0805897623073308
1782968821831202600,2.95720263671875,0.150548873385787,2.80762668620795,0.8679589651484042
1782968821841128700,2.967128662109375,0.5270534510582685,2.7909432624325157,0.522683711541444
1782968821851055600,2.9770556640625,0.9065572105467319,2.7661349843904373,0.06082907416783273
1782968821860981500,2.9869814453125,1.2388280942171812,2.7567569151923057,-0.4285949765242636
1782968821870907600,2.99690771484375,1.4714052624702452,2.7400474801927803,-0.7940501907855272
1782968821880833500,3.00683349609375,1.5014187079399823,2.7110762372523545,-0.9867875160813331
1782968821890760700,3.0167607421875,1.3423299697458744,2.8018630081146956,-1.0931925657056272
1782968821900686600,3.0266865234375,1.1315852785944938,3.0123253751933574,-1.2038806994765996
1782968821910612500,3.036612548828125,0.9666671035945414,3.2301144318982957,-1.258782940878719
1782968821920539600,3.04653955078125,0.77207509034276,3.3925913512259718,-1.2359773809611796
1782968821930465500,3.056465576171875,0.48870998413860794,3.548747835360467,-1.1361275981992482
1782968821940391400,3.066391357421875,0.10214987639784813,3.6867671897798773,-1.0496443697497249
1782968821950318600,3.076318603515625,-0.2529793202906847,3.8143916991740463,-0.9729033676356077
1782968821960244700,3.08624462890625,-0.30947336092889305,3.9619934131920336,-0.9371376422494649
1782968821970170600,3.096170654296875,-0.18427929355204103,4.082154162576795,-0.8929504177376627
1782968821980097500,3.10609765625,0.09892916078567504,4.178517272266745,-0.8783367859736084
1782968821990023700,3.116023681640625,0.5737146644681692,4.143000553205609,-0.9199071059852838
1782968821999949600,3.125949462890625,1.1039023218989372,4.058587701289356,-1.0269337215740233
1782968822009875500,3.13587548828125,1.5535954699009655,3.9641707572311162,-1.255568801137805
1782968822019802600,3.145802734375,1.8481968403905629,3.830712719377875,-1.537857510282099
1782968822029728800,3.155728759765625,1.961129976609349,3.6165564662173386,-1.7912015722319483
1782968822039654400,3.165654296875,1.8602789078503845,3.350682885301113,-1.9575315137259661
1782968822049581600,3.17558154296875,1.4898504352211952,3.1346196294754742,-2.0934091799415646
1782968822059507700,3.1855078125,0.8665075242310762,3.0319682332962747,-2.0936286679111418
1782968822069433300,3.195433349609375,0.1584311510682106,3.1069436870425937,-1.9927445736654101
1782968822079360500,3.205360595703125,-0.40162148327231406,3.25686069226563,-1.917625181403756
1782968822089286700,3.21528662109375,-0.8037772195518016,3.350067383751273,-1.892557667903602
1782968822099212500,3.225212646484375,-1.0421458306878804,3.2933450873151418,-1.8521167903132736
1782968822109139700,3.2351396484375,-0.9219044172823428,3.16139073202312,-1.7557761847160755
1782968822119065600,3.245065673828125,-0.48210137965381145,2.9900270341455935,-1.5820770296283064
1782968822128991500,3.254991455078125,0.0497661936879158,2.727491365480423,-1.3265830961681901
1782968822138918700,3.264918701171875,0.48860126306712626,2.3719360523343083,-1.1392298750635237
1782968822148844500,3.274844482421875,0.6918541371583938,1.9186292438797652,-0.9735407156910747
1782968822158770700,3.284770751953125,0.6957330244183539,1.4502045074008405,-0.8554263774421066
1782968822168696600,3.294696533203125,0.5288911878794431,1.0949826639927922,-0.7886454821977764
1782968822178623700,3.304623779296875,0.31426293329298494,0.7769416734658181,-0.7896491793476045
1782968822188549600,3.314549560546875,0.12896364904344082,0.41775604099333286,-0.7514295580033212
1782968822198475500,3.3244755859375,-0.032194296640157695,0.002382949613779783,-0.6352686188444495
1782968822208402700,3.334402587890625,-0.18566870208382605,-0.4259557140618562,-0.4727792053613811
1782968822218328600,3.34432861328125,-0.3366068670481443,-0.7952681882731616,-0.31331608089692886
1782968822228254500,3.35425439453125,-0.5510474901080131,-1.125020659381896,-0.26546675368100403
1782968822238181600,3.364181640625,-0.814069480985403,-1.432911135033518,-0.2277790472563356
1782968822248107800,3.374107666015625,-1.1017799229174852,-1.7752305345095694,-0.1724359302189201
1782968822258033400,3.384033447265625,-1.3076304122865199,-2.105044818808138,-0.11746529975570738
1782968822267960600,3.393960693359375,-1.4543921683490275,-2.4841402897566556,-0.03976780063435435
1782968822277886700,3.40388671875,-1.5520646070718764,-2.7490681142553686,0.10150456423163413
1782968822287812400,3.413812255859375,-1.628312564972043,-2.9764854155272245,0.2792985874176025
1782968822297739500,3.423739501953125,-1.698826363134384,-3.150266111418605,0.4941159348353743
1782968822307665700,3.433665771484375,-1.6573977896809577,-3.319751740464568,0.6782545047424733
1782968822317591600,3.443591552734375,-1.561619786402583,-3.4940777952790256,0.84615542188026
1782968822327518500,3.4535185546875,-1.3731523935109375,-3.712169926583767,1.0100456420719623
1782968822337444600,3.463444580078125,-1.0918588328838348,-3.9201016061410305,1.1235214338000863
1782968822347370800,3.473370849609375,-0.8324076862305402,-4.0802673259168865,1.2439834311537443
1782968822357296400,3.48329638671875,-0.49672728637754915,-4.17972927840501,1.3913909377738833
1782968822367223600,3.4932236328125,-0.08167524364590645,-4.346653240269422,1.48983202278167
1782968822377149700,3.503149658203125,0.42015725691616534,-4.491595379689335,1.6001239968419074
1782968822387075600,3.51307568359375,0.8288824347138405,-4.613071303325891,1.702586300189793
1782968822397002500,3.52300244140625,1.102241110688448,-4.641047105488181,1.7775873267687856
1782968822406928600,3.5329287109375,1.2767618112921715,-4.53056662311852,1.9025633674807845
1782968822416854500,3.5428544921875,1.2851146290957927,-4.245415802541375,2.116642756012827
1782968822426781700,3.55278173828125,0.9092921884685754,-4.096903695680201,2.3053176541753113
1782968822436707600,3.56270751953125,0.5138216290414334,-4.01557215090543,2.3446226596035062
1782968822446633500,3.572633544921875,-0.08621464064121245,-3.8667920407578347,2.5024653432592747
1782968822456560600,3.582560546875,-0.7430342892974615,-3.7234585055783387,2.5004274076908826
1782968822466486500,3.592486572265625,-0.9943249258488416,-3.664069035759568,2.344576482374221
1782968822476412400,3.602412353515625,-0.7635363945782184,-3.5829829901784658,2.2578780037388206
1782968822486338600,3.612338623046875,-0.28541093281805513,-3.4238062814399597,2.27545180048272
1782968822496265700,3.622265625,0.11864040794968604,-3.3466157819926736,2.312317596065253
1782968822506191600,3.632191650390625,0.3434919503867626,-3.341365021857619,2.34288078437224
1782968822516117500,3.642117431640625,0.4208078297793865,-3.246747879052162,2.247328260412812
1782968822526044700,3.652044677734375,0.3120388275027275,-3.1092341360673306,2.177269074150175
1782968822535970600,3.661970458984375,0.017325813332200048,-2.831099623993039,2.161149421737343
1782968822545896400,3.671896484375,-0.15980185489952564,-2.5052538049340245,2.1246317089401185
1782968822555823600,3.68182373046875,-0.2252151150524616,-2.229691919826716,2.0107824807897208
1782968822565749800,3.691749755859375,-0.19905776048898696,-1.960527626802027,1.810055325783789
1782968822575675400,3.70167529296875,-0.1509071853041649,-1.6575775301620363,1.6047558944262563
1782968822585602600,3.7116025390625,-0.20684768371284007,-1.3994602624610066,1.3639013116933405
1782968822595528700,3.72152880859375,-0.2805097167730331,-1.1150657401438802,1.0859828535225242
1782968822605454300,3.731454345703125,-0.27287586089372634,-0.8594776255942881,0.9333766092155128
1782968822615381500,3.741381591796875,-0.2902273931890726,-0.6081213764607906,0.9916814986679703
1782968822625307600,3.7513076171875,-0.31702012304663657,-0.31971929900273677,1.1025636206410825
1782968822635233500,3.761233642578125,-0.3582932136774063,0.01354687931537628,1.1695672187253832
1782968822645160700,3.77116064453125,-0.4178706072837114,0.3435691072762012,1.1834028518542647
1782968822655086600,3.781086669921875,-0.3746662563294172,0.605890987060219,0.9488868975583463
1782968822665012500,3.791012451171875,-0.24343583139777183,0.7754961508326232,0.5455027519950643
1782968822674938600,3.800938720703125,-0.06864683524668216,0.8083018573693931,0.14822689671162514
1782968822684865500,3.810865478515625,-0.05596563284993172,0.7661297720722854,-0.20734218923151493
1782968822694791700,3.820791748046875,-0.22487083165943622,0.7716593491487205,-0.4702614869194105
1782968822704717600,3.830717529296875,-0.4215402357071638,0.8959405394643545,-0.5552891097331419
1782968822714644700,3.840644775390625,-0.630269495382905,1.0361121034815908,-0.4540018780466169
1782968822724570600,3.850570556640625,-0.8485352296888827,1.2453713783808051,-0.32198322534672913
1782968822734496500,3.86049658203125,-1.1073282046943902,1.5061827074714005,-0.2260940898440778
1782968822744423400,3.87042333984375,-1.3532798183053731,1.8004728200547395,-0.13155278875380755
1782968822754349600,3.880349609375,-1.4969050299078226,2.0373681437678632,-0.09317563876025378
1782968822764275200,3.890275146484375,-1.4737550404667854,2.230863593954593,-0.11596899678334593
1782968822774202400,3.900202392578125,-1.2354150709033012,2.339237167172879,-0.08291472231298684
1782968822784128500,3.91012841796875,-1.0280150140047073,2.3629009513549506,0.06384462259672581
1782968822794054100,3.92005419921875,-0.8638765912055969,2.395284779217839,0.24730383193753658
1782968822803981300,3.929981201171875,-0.7309539754033089,2.4787659032419325,0.4036788541935384
1782968822813907500,3.939907470703125,-0.5583078364998102,2.5774527797043323,0.5495768330335616
1782968822823833300,3.949833251953125,-0.40950668356418607,2.6802991139337418,0.5636009014066309
1782968822833759200,3.95975927734375,-0.28675650220811366,2.7534657646924257,0.41452034700773654
1782968822843686400,3.969686279296875,-0.09891688582599162,2.7590216452538967,0.14620704478919505
1782968822853612500,3.979612548828125,0.1617693555802107,2.733201267559826,-0.15484474394880235
1782968822863538200,3.9895380859375,0.3659451897352934,2.7213839885160325,-0.4883559830691665
1782968822873464300,3.99946435546875,0.4367763832837343,2.7160686387121675,-0.8297055876649916
1782968822883390500,4.009390380859375,0.40760464933514595,2.7480332182496783,-1.1219022351004182
1782968822893317400,4.0193173828125,0.31476036142110825,2.8027973663553594,-1.2477899838298558
1782968822903243300,4.0292431640625,0.15358312651515005,2.946059882125258,-1.2671556324265896
1782968822913169400,4.03916943359375,0.046125206837058064,3.162068485154211,-1.3272154027223586
1782968822923096300,4.049096435546875,-0.030596213793754577,3.321963571295142,-1.311636433057487
1782968822933022200,4.059022216796875,-0.21172318079471586,3.4197041068181395,-1.2666083738073706
1782968822942948400,4.0689482421875,-0.5964297696232795,3.4924393804222342,-1.1874769694253802
1782968822952874500,4.07887451171875,-1.027372039926052,3.589141220547259,-1.1345005084540694
1782968822962801400,4.088801513671875,-1.2299720030665398,3.683133217191696,-1.0317283354394138
1782968822972727300,4.098727294921875,-1.1176859325796364,3.766433431690931,-0.8561930509656667
1782968822982653400,4.1086533203125,-0.7532821270674467,3.86591496566236,-0.7122484712157398
1782968822992580400,4.118580322265625,-0.1603746863514185,3.8895416327044368,-0.5600382404889911
1782968823002506200,4.12850634765625,0.5256459223479032,3.874285319122672,-0.4391325179558247
1782968823012432400,4.138432373046875,1.1676648922353983,3.8312767830014227,-0.40698220658786594
1782968823022359300,4.148359375,1.6349977418243884,3.702808808520436,-0.5236520451169461
1782968823032285400,4.158285400390625,1.7628513837993145,3.502208787025511,-0.7933208535976708
1782968823042211300,4.16821142578125,1.5896885275453327,3.222883019340038,-1.1344971474532037
1782968823052138200,4.17813818359375,1.1151222195714712,2.943175266599655,-1.4590718505978584
1782968823062064400,4.188064453125,0.40731531099975105,2.7154797329083085,-1.7637109232380985
1782968823071990300,4.197990234375,-0.36709786690175533,2.5612714602321387,-1.934320880138874
1782968823081917200,4.207917236328125,-1.0871709673285483,2.4864868528828024,-1.8617504417076707
1782968823091843300,4.21784326171875,-1.571616279760003,2.521883160434663,-1.586334102550894
1782968823101769500,4.22776953125,-1.6914508659303187,2.6794290531009435,-1.2359808880925178
1782968823111695400,4.2376953125,-1.4151152199715376,2.7300334511786697,-0.9472202064551413
1782968823121622300,4.247622314453125,-0.6731897686988115,2.620752992248535,-0.7016229592397809
1782968823131548400,4.25754833984375,0.2749953372657299,2.4251569165207445,-0.5273212351489812
1782968823141474300,4.267474365234375,1.1586603325247764,2.1937012996435166,-0.4101150977861136
1782968823151401200,4.277401123046875,1.7264198879808186,1.856937780728936,-0.3756599435418844
1782968823161327400,4.287327392578125,1.8820383197158574,1.4612586931176483,-0.5160072294522077
1782968823171253500,4.29725341796875,1.6905366736948488,1.044643784983456,-0.8558918760620057
1782968823181180200,4.30718017578125,1.312436351263523,0.6205046188242733,-1.1540950704358517
1782968823191106300,4.317106201171875,0.8745043682038783,0.28393209243714806,-1.316726888064295
1782968823201032400,4.327032470703125,0.31189211250841614,0.013695640136301517,-1.3268157358802855
1782968823210959400,4.33695947265625,-0.31320261058509347,-0.19367387549355625,-1.1618297563411295
1782968823220885200,4.34688525390625,-0.9695020347595215,-0.322647899800539,-0.8308687862254679
1782968823230811400,4.356811279296875,-1.3074012797057628,-0.45471652912199495,-0.32380207480434325
1782968823240737500,4.366737548828125,-1.1888467964738607,-0.5956817277349531,0.26848116959873586
1782968823250664400,4.37666455078125,-0.8260714689463377,-0.8311397851865738,0.7072719249121844
1782968823260590300,4.38659033203125,-0.5024813198596239,-1.127692362809181,0.9362950539454817
1782968823270516500,4.3965166015625,-0.35981413963437076,-1.4548675307758152,1.0177767477806656
1782968823280443400,4.406443359375,-0.33145839824378487,-1.8320405092291532,0.994015567638725
1782968823290369300,4.416369384765625,-0.3098684977263212,-2.1835921396918594,1.02322631842345
1782968823300295400,4.42629541015625,-0.3492348779529333,-2.4749013367682693,1.2140442199639976
1782968823310222300,4.436222412109375,-0.44600247679054733,-2.7402856728628278,1.4518635266542435
1782968823320148500,4.4461484375,-0.44519642110466956,-2.9578917742162942,1.5571037702828645
1782968823330074400,4.456074462890625,-0.32066695511639115,-3.191073922625184,1.5951139135949313
1782968823340001300,4.466001220703125,0.01842471448481083,-3.537604802316427,1.701961738550663
1782968823349927400,4.475927490234375,0.46063656682074067,-3.957070569837093,1.8586125820733606
1782968823359853300,4.485853271484375,0.8002297562032937,-4.461725726604461,2.0016537101775405
1782968823369780200,4.4957802734375,0.9879717574298381,-5.083255450692772,1.9199353580422698
1782968823379706400,4.505706298828125,1.1151555373191833,-5.4505503014713526,1.7431532883778214
1782968823389632500,4.515632568359375,1.303156481742859,-5.634745423871278,1.7399429480291901
1782968823399559200,4.52555908203125,1.301539109674096,-5.81076133146882,1.7152083197452126
1782968823409485300,4.5354853515625,1.0077414567828178,-5.812755720156431,1.7577882551908492
1782968823419411500,4.545411376953125,0.4822194530755281,-5.535809833344817,1.9778945027969776
1782968823429337300,4.55533740234375,-0.723152361741662,-4.795516951709986,2.7630168523699044
1782968823439264300,4.56526416015625,-1.7465099053293465,-4.21384986693263,3.4975960325330493
1782968823449190400,4.5751904296875,-2.224575745856762,-3.9058889563933015,4.225141368536651
1782968823459116500,4.585116455078125,-2.5087656124472617,-3.6804005773574113,4.374723442716896
1782968823469043200,4.595043212890625,-2.455539633694291,-3.4775323186695575,4.07610143840909
1782968823478969300,4.60496923828125,-1.934930536469817,-3.518145484086871,3.654537237304449
1782968823488895500,4.6148955078125,-1.0185404986947775,-3.6913589014843105,3.1163007134526968
1782968823498822400,4.624822509765625,-0.3171808665663004,-3.789052090734243,2.6263568036049603
1782968823508748300,4.634748291015625,0.18425766624212264,-3.828769768616557,2.0520535255938768
1782968823518674400,4.64467431640625,0.5940776535391807,-3.8993993021130557,1.5946373821243642
1782968823528601300,4.654601318359375,0.7686948002547025,-3.959127794627845,1.3589816832087933
1782968823538527200,4.66452734375,0.5953612636089325,-3.850858266305923,1.329221481847763
1782968823548453400,4.674453369140625,0.11314473314285278,-3.4746100014820693,1.484267082130909
1782968823558380300,4.68438037109375,-0.4338865070611238,-2.84961727745831,1.750283870910108
1782968823568306400,4.694306396484375,-0.8899263937413692,-2.2215306790724396,1.9886139036014674
1782968823578232300,4.704232421875,-1.1445230861008167,-1.5326624258570372,2.1201905116222797
1782968823588159200,4.7141591796875,-1.1413292584955692,-0.9298124139279127,2.0908868218570946
1782968823598085400,4.72408544921875,-0.98063893032372,-0.5306729201970621,1.927262632190436
1782968823608011300,4.73401123046875,-0.6616752719938754,-0.34412199191860854,1.6443072758309543
1782968823617937400,4.7439375,-0.21616437811255454,-0.3672524729415774,1.3760254647292196
1782968823627864300,4.7538642578125,0.1468102713793516,-0.3762851627681404,1.1775941655755042
1782968823637790500,4.76379052734375,0.40214872201681134,-0.23368249914646147,1.0642828436940908
1782968823647716400,4.77371630859375,0.4354337365031242,0.006441796550527215,0.9586134148679674
1782968823657643300,4.783643310546875,0.31587972083985805,0.2729019451830536,0.8341418165467679
1782968823667569400,4.7935693359375,0.12424655739367008,0.5067811359453946,0.6259357039622963
1782968823677495300,4.803495361328125,-0.18991233100295066,0.6403288248434662,0.3170535869248211
1782968823687422200,4.813422119140625,-0.5139841261267661,0.7898065618664026,-0.02686184957101941
1782968823697348400,4.823348388671875,-0.7458499312400817,0.9656690324679017,-0.36178244403265414
1782968823707274500,4.8332744140625,-0.8785784857749939,1.167434006088972,-0.6104393710795789
1782968823717201400,4.843201416015625,-0.8891261832743883,1.3724144346252083,-0.73541614244394
1782968823727127300,4.853127197265625,-0.9243471342593431,1.5280634076289832,-0.6504195723555982
1782968823737054200,4.86305419921875,-1.1935931142181158,1.6547991514898837,-0.4804357114639133
1782968823746981000,4.872981201171875,-1.5028805971860886,1.8732853966787457,-0.33691447169259187
1782968823756907000,4.882906982421875,-1.549609030613303,2.094646320521086,-0.17937347439713774
1782968823766833200,4.892833251953125,-1.2919640565991402,2.2390283418402075,0.06385112540274858
1782968823776759000,4.902759033203125,-0.8662707928657531,2.3622646992780267,0.33668811559081074
1782968823786686200,4.912686279296875,-0.4499754720747471,2.405638269319385,0.5181734675753862
1782968823796612000,4.922612060546875,-0.2169634195357561,2.40662698809579,0.6476721733435988
1782968823806538000,4.9325380859375,-0.21218904474079608,2.433325756059587,0.6834598183006048
1782968823816465200,4.942465087890625,-0.23985329673588274,2.5634070109561082,0.5839947970725595
1782968823826391000,4.95239111328125,-0.059742228779196736,2.759277665841579,0.4496104381546378
1782968823836317200,4.962317138671875,0.01789221504330635,2.89609261290729,0.3790435946308076
1782968823846244000,4.972244140625,0.05225216528475284,3.0107243697375057,0.22639131922498343
1782968823856170200,4.982170166015625,0.09018997401297092,3.131768331697583,0.028384675224125383
1782968823866096000,4.99209619140625,0.06350947235822678,3.3255385071724652,-0.18223185950294135
1782968823876023000,5.00202294921875,0.15564473522007463,3.6029905899405477,-0.33600276367515325
1782968823885949200,5.01194921875,0.26471009009480473,3.734762282142043,-0.4896382048994303
1782968823895875000,5.021875,0.43490883584618567,3.808028593882918,-0.6804815331421792
1782968823905802000,5.031802001953125,0.5894266128629446,3.881947816574573,-1.0257855013869701
1782968823915728100,5.04172802734375,0.6744184337109327,3.88263433753401,-1.3758122603699565
1782968823925654300,5.051654296875,0.5777531262040138,3.8489679225146767,-1.5743446818105875
1782968823935580000,5.061579833984375,0.27769816648364065,3.8426819741129874,-1.5359341410040854
1782968823945507000,5.071507080078125,-0.25986440362930296,3.8180040444523096,-1.277259385550767
1782968823955433200,5.08143310546875,-0.8454571374177933,3.8618653980106115,-0.8987344079665839
1782968823965358800,5.09135888671875,-1.2307885801464318,3.9752836873978374,-0.5737982510983943
1782968823975286000,5.1012861328125,-1.2262895151615143,4.154024928306043,-0.2777930051602423
1782968823985212200,5.111212158203125,-0.9354296692878007,4.314930652794241,-0.07120894081965089
1782968823995138000,5.121137939453125,-0.32974282649755476,4.304763771305978,-0.0029649872854351994
1782968824005065000,5.13106494140625,0.45407881574034686,4.154736875967681,0.0033652386493980883
1782968824014991000,5.1409912109375,1.2115537183225153,4.019470619648695,-0.3005640052210539
1782968824024917200,5.150917236328125,1.5899609147459268,3.702325408917665,-0.3252194307889789
1782968824034844200,5.16084423828125,1.874593848928809,3.4190760380476712,-0.614292904702574
1782968824044770000,5.17077001953125,1.8891192178875207,3.3298598775029182,-1.0972625185582787
1782968824054696200,5.1806962890625,1.5002619391202925,3.0814433350831267,-1.2933642787858843
1782968824064623000,5.190623046875,0.9048919076830149,2.8760347442626952,-1.3870903179705143
1782968824074549000,5.200549072265625,0.2100403422743082,2.9289924274683,-1.4960963438734411
1782968824084475100,5.21047509765625,-0.3347562707453966,3.0668653591543436,-1.5057599520146845
1782968824094402000,5.220402099609375,-0.41318098816275595,3.0880402491301298,-1.2702417618736623
1782968824104328200,5.230328125,-0.0149707746386528,2.968497631643712,-1.1939275338042528
1782968824114254000,5.240254150390625,0.42359307658374307,2.7886873001992702,-1.2980704106502234
1782968824124181000,5.250180908203125,0.8465425945669413,2.4611557200103995,-1.2630039195746183
1782968824134107100,5.260107177734375,1.1111918943852186,1.961916012420505,-1.3038649222731589
1782968824144033000,5.270032958984375,1.0792898586899042,1.6615747831046581,-1.6940917358279228
1782968824153959000,5.279958984375,0.7616577412247657,1.2933844447910785,-1.7077695480465889
1782968824163886000,5.289885986328125,0.3479588666677475,0.9817778712257742,-1.42496280637756
1782968824173812200,5.299812255859375,0.040841128954291345,0.6921333194259554,-1.4156648166783152
1782968824183738000,5.309738037109375,-0.2943728224307299,0.5492348146628588,-1.2894972280941903
1782968824193665000,5.3196650390625,-0.5452484484404325,0.24944975792504845,-0.965178399406746
1782968824203591200,5.329591064453125,-0.6313128669559955,-0.04788344868123531,-1.2160912886869162
1782968824213517000,5.33951708984375,-0.7878034053504467,-0.26021402078457173,-1.6074334430724382
1782968824223444000,5.34944384765625,-1.0089975943237544,-0.6601318419441581,-1.779741436062753
1782968824233370000,5.3593701171875,-1.1746920143932102,-1.1352706891089677,-1.7417369918391108
1782968824243296300,5.369296142578125,-1.1654168210476636,-1.5397148285865783,-1.5691519354730843
1782968824253223200,5.37922314453125,-1.1173843192845583,-1.8961507239595055,-1.2662073917910457
1782968824263149000,5.389149169921875,-1.0650012210965156,-2.0878379556804894,-0.9439861199047416
1782968824273075200,5.3990751953125,-1.0390554634571074,-2.284876777562499,-0.6578977992817759
1782968824283000800,5.409000732421875,-1.0272416915446518,-2.323873009302467,-0.2972005201373249
1782968824292928000,5.418927978515625,-1.335018185427785,-2.38277805660516,0.2922141100268811
1782968824302854100,5.428854248046875,-1.4748241310030221,-2.5398183378368615,0.7770737754128872
1782968824312780000,5.438780029296875,-1.3335399295687675,-2.686034442715347,1.1467620971992611
1782968824322707200,5.448707275390625,-0.9960486809015273,-2.8389599821045994,1.3170590426281095
1782968824332633000,5.458633056640625,-0.514870261311531,-3.144407740779221,1.306939361282438
1782968824342559000,5.46855908203125,0.05284837761223316,-3.523020104385912,1.157815260002762
1782968824352486100,5.478486083984375,0.5846984152972697,-4.198153116106987,0.9221629220880567
1782968824362412000,5.488412109375,0.8717366570562124,-5.364779312944412,0.39221930254623294
1782968824372338200,5.498338134765625,0.9288245719343423,-6.110985218015313,-0.16873590665720403
1782968824382265000,5.50826513671875,0.7115536938846111,-6.076314886650443,-0.5482312636435032
1782968824392191200,5.518191162109375,0.3010036387473345,-5.524339175781607,-0.21525617722645402
1782968824402117000,5.5281171875,0.07509002003669739,-4.657741635179519,1.0173212590981273
1782968824412044000,5.5380439453125,-0.17312778494060038,-3.8332694181233644,2.2543178270392117
1782968824421970200,5.54797021484375,0.43130993457138533,-3.4375425458475943,3.493437159287929
1782968824431896000,5.55789599609375,0.6831190420389175,-3.566769229741394,4.523056685879826
1782968824441823000,5.567822998046875,0.24453707063794133,-3.7811663059204816,4.863471713039279
1782968824451749000,5.5777490234375,-0.2231494146943092,-3.8761727403044697,4.532261152076721
1782968824461675300,5.58767529296875,-0.34825463474392887,-3.9154292304158207,4.067768494349718
1782968824471601000,5.597600830078125,-0.5985925006151199,-3.811861011652648,3.8459886144429443
1782968824481528000,5.607528076171875,-1.0852537355303764,-3.53050315361768,3.6091625565737484
1782968824491454200,5.6174541015625,-1.6105401769161223,-3.1671500262022017,3.2154663133427497
1782968824501379800,5.6273798828125,-1.9071113861739635,-2.965952623336017,2.8003318530246615
1782968824511307000,5.63730712890625,-1.7532909437716007,-3.060615066587925,2.3747974331147965
1782968824521233200,5.647233154296875,-1.1601035170704126,-3.2439290222391484,1.9864657856568693
1782968824531159000,5.657158935546875,-0.37904315623939033,-3.3360338899627324,1.669955219567567
1782968824541086000,5.6670859375,0.3041425212949514,-3.3640599610075355,1.4627509775020182
1782968824551012000,5.67701220703125,0.7742652938634157,-3.3497666472390293,1.2894032662004231
1782968824560938200,5.686938232421875,0.992642087328434,-3.334638343951106,1.2876885712370276
1782968824570865200,5.696865234375,0.9513304182529448,-3.192447841326892,1.8075757839277387
1782968824580791000,5.706791015625,0.576497573184967,-2.6848317889273163,2.569329386742413
1782968824590717200,5.71671728515625,-0.03585165010392666,-1.9753155922196803,3.0019889823570844
1782968824600644000,5.72664404296875,-0.5920908636361361,-1.3700798541978,3.093151308533549
1782968824610570000,5.736570068359375,-1.053088664984703,-0.8512671388708054,3.100461047025025
1782968824620496100,5.74649609375,-1.4278455222070217,-0.4624058780482039,2.980245644843578
1782968824630422000,5.756422119140625,-1.715119326287508,-0.1430121942706406,2.6177047105938196
1782968824640349200,5.76634912109375,-1.752717527797818,0.010729629937559366,2.055885358841717
1782968824650275000,5.776275146484375,-1.5107272190332413,-0.007499781170859933,1.5127097711525856
1782968824660201000,5.786200927734375,-1.1210977868497372,-0.08075250277779995,1.0723300296146423
1782968824670128000,5.796128173828125,-0.7600070514082908,-0.09482318677157163,0.6852789234865456
1782968824680054000,5.806053955078125,-0.5309861143320799,0.0199954709328711,0.4452697420692071
1782968824689980000,5.81597998046875,-0.35673078666627406,0.3386502094440162,0.4221824791334569
1782968824699907000,5.825906982421875,-0.5936620584756136,0.6914680604502559,0.5410407676175236
1782968824709833200,5.835833251953125,-0.8086579773306846,1.1549569479621946,0.5153022595206276
1782968824719759000,5.845759033203125,-0.9340122037053108,1.5297174584463238,0.2953816341470927
1782968824729686000,5.85568603515625,-1.0030956768035888,1.7356451047047972,-0.04566109645664692
1782968824739612200,5.865612060546875,-0.9956342548817395,1.863753452093154,-0.3237918822038919
1782968824749538300,5.875538330078125,-1.0603308911979197,1.95149559456259,-0.6908840500172228
1782968824759465200,5.88546533203125,-1.3819570467352866,1.9851891898497938,-1.0408153127364814
1782968824769391000,5.89539111328125,-1.6424223388671875,2.003492616042495,-1.1215391739416867
1782968824779317200,5.905317138671875,-1.6218571052223443,2.1384451302371916,-0.9154351482030004
1782968824789243100,5.9152431640625,-1.2937614614099264,2.40477624566257,-0.6258439340256154
1782968824799170000,5.925170166015625,-0.9071867406219244,2.64362708735764,-0.3779206550154835
1782968824809096200,5.93509619140625,-0.626328648802638,2.7714427354097366,-0.07278174309432506
1782968824819022000,5.94502197265625,-0.40616672548651694,2.8772929276302457,0.22394962516129016
1782968824828949200,5.95494921875,-0.2515817284524441,2.9359681116998195,0.3583538578234613
1782968824838875100,5.964875244140625,-0.20870061810314655,3.029755817943811,0.39424540154635906
1782968824848801000,5.974801025390625,-0.03188625360429287,3.2000521788507696,0.4343264328483492
1782968824858728200,5.984728271484375,0.32213235149383546,3.4459073463499545,0.5113839535657316
1782968824868654000,5.994654052734375,0.6628273646384477,3.6699800133690235,0.5069336230933666
1782968824878580000,6.004580078125,0.860860458254814,3.8660944138824935,0.3602596183795482
1782968824888507100,6.014507080078125,0.9217495189815759,3.9669858146518466,0.17949761223345995
1782968824898433300,6.024433349609375,0.9251718946456908,4.015468398270011,-0.012528203792124985
1782968824908359200,6.034359130859375,0.8263350883185863,4.039119907492399,-0.3317201909851283
1782968824918286000,6.0442861328125,0.7681219688028097,4.099449873031675,-0.7523753874860704
1782968824928212200,6.054212158203125,0.8093991510868072,4.149641306394338,-1.1085206293493508
1782968824938138000,6.06413818359375,0.9190817610770463,4.1530461464017625,-1.4099794645182788
1782968824948065000,6.07406494140625,1.0280074152201413,4.080625637835264,-1.7016076644159852
1782968824957991200,6.0839912109375,0.9916209275871515,3.9985190170347686,-1.9103316633947192
1782968824967917300,6.093917236328125,0.6569523351252079,3.9455736087888478,-1.911508159828186
1782968824977843000,6.103843017578125,0.06048515610098838,3.965926076465845,-1.6414714678831397
1782968824987770000,6.11377001953125,-0.5742530091285705,4.068760427996516,-1.20909258890599
1782968824997696300,6.1236962890625,-1.06508597677052,4.264087769785523,-0.7391280025739222
1782968825007622000,6.133621826171875,-1.2010668110996483,4.54030125066936,-0.31086737257055935
1782968825017549000,6.143549072265625,-1.07360947496593,4.674115554614365,-0.07766169715560972
1782968825027475200,6.15347509765625,-0.7338175481408834,4.581361575332283,-0.03102554512172937
1782968825037401000,6.163401123046875,-0.0926566563874483,4.356379684513807,-0.15223945682123302
1782968825047328000,6.173327880859375,0.5741115548312664,4.123354187971353,-0.38093225792162116
1782968825057254100,6.183254150390625,1.0046130956292152,3.8217750874236223,-0.7223908758498728
1782968825067180000,6.193179931640625,1.1807675349146127,3.478202765277028,-1.0170588087696582
1782968825077107200,6.203107177734375,1.046180785292387,3.1748902650654314,-1.193210983032733
1782968825087033000,6.213033203125,0.5931149459868669,3.009196429517865,-1.3964116885453461
1782968825096959200,6.222959228515625,0.04822422494292259,2.9598832402944564,-1.561790320663899
1782968825106885000,6.232885009765625,-0.4074818997383117,2.9495939014703034,-1.7091688934504985
1782968825116812000,6.24281201171875,-0.767248693099618,2.916843139991164,-1.8284470147818326
1782968825126738200,6.25273828125,-0.9712994395703076,2.8104116407513615,-1.8350757852718234
1782968825136664000,6.2626640625,-0.9721335523068905,2.5787732146531344,-1.7738249054953454
1782968825146591200,6.27259130859375,-0.7680886510550975,2.310439234972745,-1.754180732218176
1782968825156517000,6.28251708984375,-0.46586628416776654,2.007453336367011,-1.7212135515093803
1782968825166443000,6.292443115234375,-0.30556232496500013,1.6801837681151925,-1.6501377355501055
1782968825176370200,6.3023701171875,-0.09115501965284346,1.3471578282937406,-1.5332292659595608
1782968825186296000,6.312296142578125,0.21092180128395557,1.0361359227485953,-1.3407904852189123
1782968825196222000,6.322221923828125,0.5360808071225881,0.7111041965514421,-1.1767599797736852
1782968825206149000,6.332149169921875,0.8178688732683658,0.3453397702105343,-1.110379335893318
1782968825216075300,6.3420751953125,0.9911761064290999,-0.03285349120125174,-0.9527678306449204
1782968825226001200,6.352001220703125,0.9922703314065933,-0.3176633163210004,-0.7228258332010358
1782968825235928000,6.361927978515625,0.7940648038327693,-0.48493704147115346,-0.5310714545279741
1782968825245854200,6.371854248046875,0.401444373139739,-0.6173555802088231,-0.36421485881134863
1782968825255780000,6.381780029296875,-0.11040332548022269,-0.8205982982322573,-0.17524119689799844
1782968825265707000,6.39170703125,-0.5772147815436125,-1.181346357715875,0.015789835936576128
1782968825275633200,6.401633056640625,-0.8390835107326508,-1.6043647031515835,0.19107078032307326
1782968825285559300,6.411559326171875,-0.7590460974216461,-2.0185992920204994,0.2880046756383031
1782968825295485000,6.42148486328125,-0.6656178721398115,-2.6091926105752585,0.35708624904043973
1782968825305412000,6.431412109375,-0.5077449394762515,-3.2082924761906266,0.37540553038939833
1782968825315338200,6.441338134765625,-0.29933307518661023,-3.7660388794153925,0.40688634499795734
1782968825325264100,6.45126416015625,-0.1347165134817362,-4.267775810648501,0.5382821165591478
1782968825335191000,6.46119091796875,-0.15238953281641004,-4.699838609413803,0.6844513135559857
1782968825345117200,6.4711171875,-0.17643325622677802,-4.8270159595623605,0.8985789251439272
1782968825355043000,6.48104296875,-0.22089432924389837,-5.107116218751669,1.2806123492404817
1782968825364970200,6.49097021484375,-0.2917483191460371,-5.516912825173139,1.5907891822636127
1782968825374896000,6.500896240234375,-0.3180728469699621,-5.872580366522073,1.7231486112251877
1782968825384822000,6.510822021484375,-0.27488369358479975,-6.089492932653426,1.730001838120818
1782968825394749200,6.520749267578125,-0.1567307768911123,-6.2082905769914385,1.6640421961314975
1782968825404675000,6.530675048828125,-0.39584816056787964,-6.339959977862239,1.7593024591460822
1782968825414601000,6.54060107421875,-0.6481020891934632,-6.455722784548997,2.0163395303949714
1782968825424528100,6.550528076171875,-0.7571388024955987,-6.504874645730853,2.409473025176674
1782968825434454300,6.560454345703125,-0.5240402407169342,-6.0776587024748325,2.8785704002201555
1782968825444380200,6.570380126953125,-0.22428046455085277,-5.341355767259001,3.4662262040182945
1782968825454306000,6.58030615234375,-0.2571826171994209,-5.266705307683348,3.873913855461776
1782968825464233200,6.590233154296875,-0.11120119785964488,-5.63531942436695,3.965906787243485
1782968825474159000,6.6001591796875,0.10108896916806698,-5.654923119503259,3.932879839171469
1782968825484085000,6.6100849609375,0.10418167448639869,-5.114039296013116,3.9383600241482255
1782968825494012200,6.62001220703125,-0.21006430767178536,-4.479776931601762,4.018461442606151
1782968825503938300,6.629938232421875,-0.832018394652009,-4.091018144772947,3.8600799758985636
1782968825513864000,6.639864013671875,-1.5957161172717809,-3.8819028083890674,3.457863157081604
1782968825523791000,6.649791015625,-2.1019874770641325,-3.679471772074699,2.859348982399702
1782968825533717200,6.65971728515625,-2.1338433355301616,-3.5047704542070623,2.1630353816144168
1782968825543643000,6.669642822265625,-1.5866057590991258,-3.428007532522082,1.438486450947821
1782968825553570000,6.679570068359375,-0.8033335674375295,-3.34572789324224,0.8703826851639896
1782968825563496200,6.68949609375,-0.05008826524913311,-3.391038276565075,0.6713894412785768
1782968825573422000,6.699422119140625,0.20827742425501344,-3.4183462624683973,0.8961568125635385
1782968825583349000,6.709348876953125,-0.08489771282374858,-3.0012527770370245,1.3691259144738315
1782968825593275100,6.719275146484375,-0.5112754516899586,-2.1346806631371376,1.8010291387632489
1782968825603201000,6.729200927734375,-1.0055021534234285,-1.450049755230546,1.8465514112710952
1782968825613128200,6.739128173828125,-1.4551245742768049,-0.9333073433715849,1.7280168017834423
1782968825623054000,6.74905419921875,-1.689542401960492,-0.46842714763171966,1.5305634077511727
1782968825632980200,6.758980224609375,-1.7952812427610159,-0.1510315423361957,1.2621511021375655
1782968825642906000,6.768906005859375,-1.9888351451367139,0.13075243215635418,0.929653131712973
1782968825652833300,6.778833251953125,-2.0720716467499734,0.4107129906140268,0.5790205888565629
1782968825662759200,6.78875927734375,-1.8757208071321247,0.6045991936840117,0.337734848164767
1782968825672685000,6.79868505859375,-1.4857488451212644,0.7522121597483754,0.27960611899681387
1782968825682612200,6.8086123046875,-0.9853530993640423,0.955006184156239,0.4239252676801756
1782968825692538000,6.8185380859375,-0.46659810557365416,1.291906188932061,0.6009196649210528
1782968825702464000,6.828464111328125,-0.05409925445616245,1.6239781890295446,0.8036891759421676
1782968825712391200,6.83839111328125,0.22588906879127024,1.9097315055444835,1.0090951364140957
1782968825722317300,6.8483173828125,0.2816173857539892,2.0657789763465524,1.1411785249132662
1782968825732243000,6.858242919921875,0.04613865084052086,2.1367935636378825,1.1389355682920663
1782968825742170600,6.868170654296875,-0.33251462929844855,2.1813877615153787,0.9887013868786394
1782968825752096800,6.8780966796875,-0.7148036355912685,2.308002801606059,0.7654452969394624
1782968825762022400,6.8880224609375,-1.0309265175372362,2.4761867004036904,0.5689958192527294
1782968825771948500,6.897948486328125,-1.372381409138441,2.6419436643153427,0.30311858507469297
1782968825781875700,6.907875732421875,-1.6371312467217445,2.782333547258377,-0.027128829944133757
1782968825791801300,6.91780126953125,-1.6936954299867153,2.8402745718345046,-0.38110491107478733
1782968825801727500,6.9277275390625,-1.4453151279240846,2.764649129746854,-0.6703048609122634
1782968825811654700,6.937654541015625,-0.9747019414901733,2.7326953638643023,-0.8296126486845314
1782968825821580500,6.94758056640625,-0.4351590112149715,2.7464459490582347,-0.8528986855953932
1782968825831506400,6.95750634765625,0.0035170682102441788,2.7809391702905297,-0.8544117205068469
1782968825841433600,6.96743359375,0.27644670511782166,2.8410321122035382,-0.7482621069483458
1782968825851359500,6.977359375,0.4571463866174221,2.9653868061468005,-0.5062878725357354
1782968825861285400,6.987285400390625,0.4883411508262157,3.130138684669137,-0.003889262523502111
1782968825871212500,6.997212646484375,0.27562369829714295,3.6438890020400283,0.6481628794699907
1782968825881138700,7.007138671875,0.059273442223668094,4.2698318663954735,0.9999841206543147
1782968825891064600,7.017064697265625,-0.044990065327286714,4.773720714965463,1.060728804474324
1782968825900991700,7.02699169921875,0.06979191362857819,5.0933215021550655,0.8960269025735557
1782968825910917600,7.036917724609375,0.37344811271131034,5.134938291656971,0.5373275923132896
1782968825920843500,7.046843505859375,0.7606821741908788,4.946202018696069,0.02821034157052636
1782968825930770700,7.056770751953125,1.069220884618163,4.702166467839479,-0.6055952189840376
1782968825940696600,7.066696533203125,1.1179437067329883,4.48661671449393,-1.2449068296089767
1782968825950622500,7.07662255859375,0.9855383928030729,4.294520901972056,-1.6966212543055414
1782968825960548600,7.086548583984375,0.6785311297267675,4.157773174923658,-1.877459321362525
1782968825970475800,7.096475830078125,0.31207974403500555,4.127336827866733,-1.7083029242709278
1782968825980401400,7.1064013671875,0.05643441940546035,4.286035982221365,-1.2749772659629584
1782968825990327600,7.11632763671875,0.11232523345351218,4.569056512771547,-0.8078712108671665
1782968826000254700,7.126254638671875,0.4502402604907751,4.844382689426839,-0.4828774785928428
1782968826010180400,7.136180419921875,0.8924813389211893,5.003339033412933,-0.38742052396237847
1782968826020106500,7.1461064453125,1.29563836119771,4.935886376386881,-0.48868002739176153
1782968826030033700,7.15603369140625,1.6537106256008147,4.788128595024347,-0.6475793804936111
1782968826039959600,7.16595947265625,2.0333885726124046,4.602014779521524,-0.8137463865108787
1782968826049885400,7.175885498046875,2.3550860398203133,4.321745008984208,-0.9777831025011837
1782968826059812600,7.1858125,2.4221464826583863,4.027020596636832,-1.10970421311073
1782968826069738800,7.19573876953125,2.068206203493476,3.7718884822264314,-1.2963507472507654
1782968826079664400,7.205664306640625,1.5129051475942135,3.5729125548020004,-1.3229676821500063
1782968826089591600,7.215591552734375,0.9744523506432771,3.5046102952092886,-1.1891859653003514
1782968826099517700,7.225517578125,0.5186082787960767,3.462954050479829,-0.8773895682513714
1782968826109443600,7.235443603515625,0.13501929582059383,3.4174992902502415,-0.6154780228339135
1782968826119370500,7.24537060546875,-0.1343283909469843,3.2995974257081744,-0.5324323676176369
1782968826129296600,7.255296630859375,-0.2882558008551597,3.091886695425212,-0.6653638973787427
1782968826139222500,7.265222412109375,-0.3399532548666,2.7168220874279734,-0.8695612127132714
1782968826149148400,7.2751484375,-0.3233949187755584,2.1067802642986178,-1.0391817201852798
1782968826159075600,7.28507568359375,-0.3864396962314844,1.499485109528899,-1.1546551885366438
1782968826169001500,7.29500146484375,-0.48190848743021486,0.9930591436967253,-1.3099668924100696
1782968826178927600,7.304927734375,-0.5421528205126523,0.45195831645503637,-1.4837627858705817
1782968826188854500,7.3148544921875,-0.45061260093450545,-0.07839651423618196,-1.5926074837319553
1782968826198780400,7.324780517578125,-0.36369594950377937,-0.5634243027307093,-1.7010050223477184
1782968826208706600,7.33470654296875,-0.3740565999984741,-1.0209970980666576,-1.7638401025757193
1782968826218633700,7.3446337890625,-0.5480319416791201,-1.3944117468997834,-1.5632516253881155
1782968826228559600,7.3545595703125,-0.9220341811418533,-1.6077654515057802,-1.1194812915638088
1782968826238485500,7.364485595703125,-1.403019708508253,-1.6990500888876616,-0.6202725636340677
1782968826248412700,7.37441259765625,-1.6950620421648024,-1.7497122085019945,-0.23318083323463795
1782968826258338600,7.384338623046875,-1.691376047128439,-1.8839469298161564,0.06843560364879667
1782968826268264400,7.394264404296875,-1.5872142463862895,-2.191308120896667,0.3493698294442147
1782968826278191600,7.404191650390625,-1.4037129514694213,-2.495995562723279,0.6524872454751283
1782968826288117800,7.41411767578125,-1.2046896777719258,-2.7638170628368854,0.893021217951551
1782968826298043400,7.42404345703125,-1.0115963786453008,-3.1042011103361844,1.0484412775702774
1782968826307969500,7.433969482421875,-0.8129302478224039,-3.4511440779596567,1.1197166346896439
1782968826317896700,7.443896728515625,-0.7073159101843833,-3.8109535414189097,1.01254914932549
1782968826327822300,7.453822265625,-0.744057202604413,-4.165902413104474,0.8257341998159885
1782968826337748500,7.46374853515625,-0.8153934230655431,-4.511264249016344,0.7084483482804149
1782968826347675600,7.473675537109375,-0.781612734016776,-4.67445019339621,0.8282624031193554
1782968826357601500,7.4836015625,-0.5733277109771967,-4.603329076990485,1.0983574741881341
1782968826367527400,7.49352734375,-0.4599263727247715,-4.696630168761312,1.3540686305955052
1782968826377454600,7.50345458984375,-0.2898433623075485,-4.851656187561154,1.5104958944953977
1782968826387380500,7.51338037109375,-0.0077723875671625135,-4.975564891302585,1.6157747165687382
1782968826397306600,7.523306640625,0.2087368584603071,-5.126773689901828,1.7128052041262387
1782968826407233500,7.533233642578125,0.41834991523325443,-5.174079046434164,1.793001607391238
1782968826417159700,7.54315966796875,0.7178378887206316,-5.216171636754274,1.9131379529871047
1782968826427085600,7.55308544921875,1.1036094764322042,-5.078838803294301,2.1419125140868127
1782968826437012700,7.5630126953125,1.1536083098322152,-4.957886026749015,2.2812764149829743
1782968826446938600,7.572938720703125,1.0406424403876064,-5.096703545808792,2.469122461105883
1782968826456864500,7.582864501953125,0.7340203772366046,-5.267009843587875,2.8157836891785264
1782968826466790700,7.592790771484375,0.2143015068501234,-4.945144034075737,3.0523125176668167
1782968826476717600,7.602717529296875,-0.43178105921447274,-4.431737415575981,3.1984672477468847
1782968826486643500,7.6126435546875,-1.2034423080593346,-3.972011826120317,3.255184575746953
1782968826496569600,7.622569580078125,-1.888594901752472,-3.49985170250535,3.15447057737112
1782968826506496800,7.632496826171875,-2.2366648275792596,-3.0065169811755417,2.890879846695065
1782968826516422400,7.64242236328125,-2.2988801684737203,-2.6650176659107205,2.522128951889276
1782968826526348500,7.6523486328125,-2.0652952844828367,-2.5348715290844437,2.037478180013597
1782968826536275700,7.662275634765625,-1.4322539862990378,-2.5526921401962634,1.4246796055220066
1782968826546201300,7.672201416015625,-0.6016922201961279,-2.783631770375371,0.8133793798293918
1782968826556127500,7.68212744140625,0.05881693062782287,-3.03498991920501,0.4198424188133329
1782968826566054700,7.6920546875,0.46134792996048923,-3.144728351035714,0.4402406253281981
1782968826575980500,7.70198046875,0.39089959824979303,-2.9571064690575004,0.9377800318062305
1782968826585906400,7.711906494140625,-0.046203532770276064,-2.2502856489136813,1.4841044389151037
1782968826595833600,7.72183349609375,-0.5054331554025411,-1.5149356305085122,1.6847162969782947
1782968826605759700,7.731759765625,-1.0032213490098714,-0.8993667145207523,1.8100678930044174
1782968826615685400,7.741685302734375,-1.5435118827819823,-0.3008894377831369,1.9017348077021539
1782968826625611500,7.751611572265625,-1.942513538944721,0.25842574912831184,1.9454479849614201
1782968826635538700,7.76153857421875,-1.945566496774554,0.7101101440127938,1.9212199910253285
1782968826645464600,7.771464599609375,-1.6232494363635777,0.9746140440110117,1.7887249529853462
1782968826655390500,7.781390380859375,-1.1081506269931793,1.0516752910554408,1.4420172554224728
1782968826665317600,7.791317626953125,-0.5105331088900565,1.0612458140857517,0.9260708162467927
1782968826675243500,7.801243408203125,0.15016834963560102,1.1041444600917398,0.37071737257316706
1782968826685169400,7.81116943359375,0.7008937681823968,1.087907026518136,-0.10205701048262417
1782968826695096600,7.8210966796875,1.0125316136687994,1.03631843970865,-0.35522272019088263
1782968826705022500,7.8310224609375,0.9755173495262861,1.041355118701607,-0.362621086813882
1782968826714948600,7.840948486328125,0.500351322093606,1.1418129503592849,-0.2509345896553248
1782968826724875500,7.85087548828125,-0.41047991251051424,1.4190920146480202,-0.06095028939470649
1782968826734801400,7.860801513671875,-1.3280536071121691,1.8029475396052002,0.06916939781606198
1782968826744726800,7.870726806640625,-2.1400246545135975,2.164833370947093,0.1079189613185823
1782968826754653700,7.88065380859375,-2.6297411853462456,2.480909929533303,0.06875584857910871
1782968826764579800,7.890579833984375,-2.731965296024084,2.7026228816837072,-0.03941621071770787
1782968826774505700,7.900505615234375,-2.48508253904283,2.779908950459957,-0.18134703949242828
1782968826784432600,7.9104326171875,-1.9915145934790373,2.727120194080472,-0.30367431926131244
1782968826794358800,7.92035888671875,-1.3513327758908271,2.6906284925073383,-0.32628347982391714
1782968826804284700,7.93028466796875,-0.7138783374398946,2.6682792980551717,-0.29617388050332666
1782968826814210600,7.94021044921875,-0.21396949841678142,2.713141937610507,-0.20598989783972502
1782968826824137700,7.9501376953125,0.19527064316570758,2.759389894044399,-0.11829539390429854
1782968826834064000,7.96006396484375,0.5174859967678785,2.7662185710206626,-0.047832303015887735
1782968826843989500,7.969989501953125,0.7070090361922979,2.781165380261838,0.00271291222050786
1782968826853916700,7.979916748046875,0.7860621146410703,2.8431887057155367,0.17003157249093054
1782968826863842800,7.9898427734375,0.8750193319886922,3.051216831384599,0.36217283158972857
1782968826873768700,7.999768798828125,1.0694628766804932,3.3847827233016488,0.48913960772752757
1782968826883695600,8.009695556640626,1.4001894535183905,3.642291503715515,0.4945319682903587
1782968826893621800,8.019621826171875,1.7150287253946064,3.746593589711189,0.4082553683288395
1782968826903547600,8.029547607421875,1.9799235244065523,3.795630300080776,0.26592911049574613
1782968826913474800,8.039474853515625,2.1578198389232157,3.8894144991934296,-0.040865678873658176
1782968826923400700,8.049400634765625,2.1400211473822592,3.97167894090414,-0.34665567511469125
1782968826933326800,8.059326904296874,1.8994295994997024,3.974119319793582,-0.6018855508111417
1782968826943253800,8.069253662109375,1.4784166025370358,3.805178757409751,-0.8069033887483179
1782968826953179600,8.0791796875,0.8833329868257045,3.562019697126746,-1.0392369575038551
1782968826963105800,8.089105712890625,0.16991934428811073,3.4399838015198707,-1.1834398228637872
1782968826973031700,8.09903173828125,-0.5563958653986454,3.4593437510281797,-1.2583657383799551
1782968826982958800,8.108958740234375,-1.1175772115081548,3.542308449962735,-1.2119659523852169
1782968826992884700,8.118884765625,-1.353705350241065,3.668250120836496,-0.913937822317332
1782968827002810600,8.128810546875,-1.2655401600539684,3.851582488927245,-0.5996957856819033
1782968827012737800,8.13873779296875,-0.885391088399291,4.016228861248493,-0.33145079945921896
1782968827022663700,8.14866357421875,-0.38428748663365836,4.153035040485858,-0.08214066920056938
1782968827032589600,8.158589599609375,0.16162790128290652,4.235616877582669,-0.08117182416841387
1782968827042516700,8.168516845703126,0.683075202897191,4.09213955001831,-0.2546286949329078
1782968827052443000,8.17844287109375,1.1016823077619076,3.7352635096624494,-0.589249648860842
1782968827062368500,8.188368408203125,1.2168915722191334,3.247475024282932,-1.013922337374836
1782968827072295700,8.198295654296874,1.0654109709411859,2.8270331052064894,-1.4081997414946554
1782968827082221800,8.208221923828125,0.7765835076779126,2.5355162567287683,-1.6370834620572625
1782968827092147700,8.218147705078126,0.35824236027300355,2.398030278533697,-1.7026698868200183
1782968827102074600,8.22807470703125,-0.11785890218317507,2.3933802607707677,-1.6890562258787452
1782968827112000800,8.238000732421876,-0.48500645344555376,2.3776586677648126,-1.6465608999766408
1782968827121927000,8.247927001953125,-0.659880205270648,2.2393793472349643,-1.6323625710152088
1782968827131852500,8.2578525390625,-0.6117167706042528,1.9943913179591297,-1.5631518182754516
1782968827141779700,8.26777978515625,-0.4225917905867099,1.6771939386494457,-1.4724490724347532
1782968827151705900,8.277705810546875,-0.21553309447169303,1.4398939796581864,-1.2367258612409233
1782968827161631500,8.287631591796876,-0.14540508075654507,1.275383654806763,-0.633871757658571
1782968827171558700,8.29755859375,-0.3918441856235266,0.9994679878257214,0.19992723679989574
1782968827181484800,8.30748486328125,-0.7689309470981359,0.7381931328766047,0.8975544044017791
1782968827191410700,8.31741064453125,-1.0760942775189877,0.46165977238863704,1.0071231787540018
1782968827201337600,8.327337646484375,-1.1931260812282563,0.17264774633869528,0.44452480545341966
1782968827211263700,8.337263671875,-1.1284241842150688,-0.3212977273005992,-0.308769450443238
1782968827221189600,8.347189697265625,-1.0140022707432508,-0.9963592081554233,-0.7893985655874013
1782968827231117800,8.357117919921874,-0.8073013020247221,-1.62436411960721,-1.1013137667104602
1782968827241043700,8.367043701171875,-0.5984048690885305,-2.1132463915728033,-1.3607491312727331
1782968827250970600,8.376970703125,-0.5601672006309032,-2.5566911467045546,-1.3784325258709489
1782968827260896800,8.386896728515625,-0.667796969744563,-3.007540479004383,-1.061457703270763
1782968827270822700,8.39682275390625,-0.7080477315902709,-3.368377531945705,-0.5072289527781307
1782968827280749800,8.406749755859375,-0.5726929202049971,-3.522190960085392,0.1837868338599801
1782968827290675700,8.41667578125,-0.43600715247690675,-3.5098706999555227,0.9446844043672085
1782968827300601600,8.4266015625,-0.3303828779667616,-3.514201422636211,1.6510389221735298
1782968827310528800,8.43652880859375,-0.19688392358124254,-3.6815634836569426,2.1645495855696497
1782968827320454700,8.44645458984375,0.03597966039776802,-3.938473421394825,2.305217554801702
1782968827330380800,8.456380859375,0.27554654140770435,-4.209610621927679,2.1555001638039943
1782968827340307700,8.4663076171875,0.4730775307208299,-4.731840890613198,1.883405808676779
1782968827350233900,8.47623388671875,0.6543629031538963,-5.30305146330595,1.4960178718097508
1782968827360159700,8.48615966796875,0.9872299991518259,-5.558331461754441,1.0824639586813747
1782968827370086700,8.496086669921874,1.1380202800780534,-5.839661847260594,0.8774098803870379
1782968827380012800,8.5060126953125,1.3904051416069267,-5.886013264068961,0.7799228812336921
1782968827389938700,8.515938720703126,1.9313801505118606,-5.434643707287311,0.7974937553681433
1782968827399865600,8.525865478515625,1.8859189605414866,-4.989788062444329,1.0014629610352217
1782968827409791700,8.535791748046876,1.0357780492216349,-5.018440740954875,1.2059484456613658
1782968827419718000,8.5457177734375,0.1049696099936962,-5.324823150131106,1.6109610326766968
1782968827429643500,8.5556435546875,-0.5745312415480613,-5.22572798512876,1.7543816616177559
1782968827439570700,8.56557080078125,-0.895516176572442,-4.811115210597217,1.9313355807177721
1782968827449496800,8.575496826171875,-1.0134095655471085,-4.179992897777259,2.3105793740957976
1782968827459422500,8.58542236328125,-1.0808207215189933,-3.7078625847786664,2.561203655692935
1782968827469349600,8.595349609375,-1.1372475421398878,-3.4162218176603316,2.5808108579605817
1782968827479275800,8.60527587890625,-1.0368979931622744,-3.1992391089022156,2.4148982650958
1782968827489201700,8.61520166015625,-0.8240490232080221,-3.1210531686767933,2.036926099088788
1782968827499128600,8.625128662109375,-0.47836160860359667,-3.1345278595387933,1.481428351573646
1782968827509054700,8.6350546875,-0.04089841209948063,-3.308854498875141,0.9539402354251593
1782968827518980900,8.64498095703125,0.4199111732006073,-3.466149339389801,0.6680034521020949
1782968827528907800,8.65490771484375,0.8434288464605808,-3.373601988595724,0.4687400129731744
1782968827538833700,8.664833740234375,1.0770628302901983,-3.2104221816956997,0.381167162656039
1782968827548759800,8.674759765625,0.8807833023428916,-3.091946608918905,0.5290759698618203
1782968827558686700,8.684686767578125,0.1230079555094242,-2.900125229424238,1.1539715901866554
1782968827568612600,8.694612548828125,-1.048306691405177,-2.193440895141661,2.0291905364006757
1782968827578538800,8.704538818359374,-2.1243378405600786,-1.1966205722805112,2.523795131535828
1782968827588464600,8.714464599609375,-2.8861329444289208,-0.3512912990260869,2.560755327403545
1782968827598391800,8.724391845703124,-3.1504075657159087,0.3165248868755996,2.29826101366207
1782968827608317700,8.734317626953125,-2.8587942711263894,0.6968209657855331,1.8761137519724667
1782968827618243600,8.74424365234375,-2.097913944014907,0.8195065574727952,1.4097344037160278
1782968827628170800,8.754170654296875,-1.128494326841831,0.6071596918217838,0.9515998828440904
1782968827638096600,8.7640966796875,-0.3028291006088257,0.25228636959046125,0.5091812558896839
1782968827648022500,8.7740224609375,0.31192309216856956,0.1449497382044792,0.08382116963341832
1782968827657949700,8.78394970703125,0.7132002920478582,0.1315707628019154,-0.18090572546571493
1782968827667875800,8.793875732421874,0.7432453016996383,0.1607750838458538,-0.22854615917131305
1782968827677801700,8.8038017578125,0.36020810738801956,0.5702618936657905,-0.2423852263662964
1782968827687728600,8.813728759765626,-0.10556465327739716,1.323573100697249,-0.3232658855684101
1782968827697654800,8.82365478515625,-0.3986123645842075,1.7894364622555672,-0.38299708149693906
1782968827707581000,8.833580810546875,-0.551549594411254,2.067529327145219,-0.11392302403897046
1782968827717507600,8.843507568359374,-0.6780716955214738,2.253473192908615,0.15759849963635206
1782968827727433700,8.853433837890625,-0.8753092548459768,2.4290828577928245,0.3124399556495249
1782968827737360000,8.86335986328125,-1.2552484831422566,2.567997553616762,0.2899965070426464
1782968827747287000,8.873287109375,-1.7242904747366905,2.705341785253584,0.1544366746045649
1782968827757213200,8.883213134765626,-2.1133248636364934,2.7642104460686445,-0.05387406739816069
1782968827767139000,8.89313916015625,-2.254907755756378,2.7037480863213537,-0.3397843280404806
1782968827777065000,8.90306494140625,-2.107868936318159,2.571496209387481,-0.5835637121789157
1782968827786992000,8.9129921875,-1.8502473431795834,2.3511785109877583,-0.7019527757160365
1782968827796918300,8.922918212890625,-1.5123533589303493,2.2437857655003666,-0.4955408530719578
1782968827806844000,8.932843994140624,-1.0711170736283062,2.3679630570501087,-0.21843626856729387
1782968827816771000,8.94277099609375,-0.5925035360902547,2.5406182560428974,0.00123217214345932
1782968827826697200,8.952697265625,-0.15941723949611186,2.6349849312186238,0.222804839040339
1782968827836622800,8.962622802734375,0.15255553703308106,2.720221082216501,0.44767523230835793
1782968827846550000,8.972550048828126,0.2871072153419256,2.8757231940954924,0.5506435854822397
1782968827856476200,8.98247607421875,0.3075415160834789,3.0537109862878915,0.5057729087509215
1782968827866402000,8.992402099609375,0.326942966645956,3.218547620484233,0.3626334348388016
1782968827876329000,9.002328857421874,0.3626239363580942,3.299583397182822,0.11021949334591627
1782968827886255000,9.012255126953125,0.5054243875741958,3.3142242092147467,-0.20495763218253849
1782968827896181000,9.022180908203126,0.723512427225709,3.247251444660127,-0.5884155361242592
1782968827906108200,9.032108154296875,0.8274965333133936,3.073615417936444,-0.9559573474012315
1782968827916034000,9.042033935546876,0.6469476584613323,2.9236007975578304,-1.1970720423750578
1782968827925960000,9.0519599609375,0.21875790173709392,2.859567009064555,-1.3378529704622923
1782968827935886000,9.061885986328125,-0.2894032173246145,2.9575986364886164,-1.3710928306326269
1782968827945813200,9.071813232421874,-0.7038526179879904,3.1157828270584345,-1.185213116146624
1782968827955739100,9.0817392578125,-0.8629553847074508,3.3202696268588303,-0.8386573942750691
1782968827965665000,9.0916650390625,-0.6106359896302223,3.5709143667221066,-0.5368238805748522
1782968827975592200,9.10159228515625,0.04792494973540306,3.700088443645835,-0.32231881397664547
1782968827985518000,9.11151806640625,0.8842483481049537,3.624205811926722,-0.26972791825681924
1782968827995444000,9.12144384765625,1.4745207641422748,3.487902613775432,-0.4764762332484126
1782968828005371100,9.13137109375,1.7639087838977574,3.4228415280610323,-0.8604347801886498
1782968828015297300,9.14129736328125,1.9440286196827887,3.3566064301311966,-1.3172742928139864
1782968828025223000,9.151222900390625,1.9987141495943068,3.2032769861161707,-1.7103091495268046
1782968828035150000,9.161150146484376,1.9725679009467363,3.001340455320477,-1.9257075117029248
1782968828045076200,9.171076171875,1.6959727272689342,2.8290073278889056,-2.0057950477659703
1782968828055001900,9.181001953125,1.1319967820048331,2.779106986427307,-2.08610192566812
1782968828064929000,9.190928955078125,0.5941992340922355,2.8330735544145105,-2.118431392995268
1782968828074855200,9.200855224609375,0.13847382018864154,2.933010430938005,-1.9571452908873557
1782968828084781000,9.210781005859374,-0.20592998434603213,3.0214781112030145,-1.6741218377277254
1782968828094708000,9.2207080078125,-0.36233868967592714,3.0658132197529078,-1.4288026768013835
1782968828104634000,9.230634033203126,-0.2191582992315292,2.9742472812116145,-1.1616907862618564
1782968828114560000,9.24056005859375,0.09545008649826049,2.7163167682543397,-0.9582944851119071
1782968828124486000,9.25048583984375,0.3391396003961563,2.3291202623061835,-0.8326268088739365
1782968828134413000,9.2604130859375,0.4143389260262251,1.8540645633801818,-0.7102367660671473
1782968828144339200,9.270339111328125,0.35954642860889435,1.461887930931896,-0.5326115235768258
1782968828154265000,9.28026513671875,0.18550211334526537,1.133056520190835,-0.5318503299459815
1782968828164192000,9.29019189453125,-0.04919803841114044,0.7522168359234929,-0.6745080116905272
1782968828174118100,9.3001181640625,-0.22064415387511252,0.3157823979452252,-0.7776954875078051
1782968828184044000,9.3100439453125,-0.3190829007953405,-0.18219532688483595,-0.7735325956746936
1782968828193971200,9.31997119140625,-0.36139819395542144,-0.6513440667893737,-0.7165189881417899
1782968828203897000,9.32989697265625,-0.42812545931637286,-1.141413137386739,-0.58884070273377
1782968828213823000,9.339822998046875,-0.6594172639340162,-1.5957707700684665,-0.43404608153700824
1782968828223750100,9.349750244140624,-1.0483376710653305,-1.9327268889456986,-0.3457594569273293
1782968828233676000,9.359676025390625,-1.3171096037715673,-2.263528576846421,-0.2180889164343476
1782968828243602000,9.369601806640626,-1.3904109868258236,-2.6191259755685925,0.08008125245273112
1782968828253529000,9.379529052734375,-1.2902648514658213,-2.9070868851304055,0.5599487355746329
1782968828263455200,9.389455322265626,-1.0984650992810725,-3.0892753438830374,1.113817712844163
1782968828273381000,9.399381103515625,-0.8358850069522857,-3.339240869310498,1.600738329347968
1782968828283307000,9.40930712890625,-0.6261164673566818,-3.6215737098574636,2.0333628536492583
1782968828293234200,9.419234130859374,-0.4068102840870619,-3.8482898771226406,2.4871710357546806
1782968828303160000,9.42916015625,-0.2521551444262266,-4.030176722580194,2.8875393040955064
1782968828313086000,9.4390859375,-0.14005787450969218,-4.16277755908221,3.07449073946625
1782968828323013000,9.44901318359375,-0.10315993022322655,-4.270075612023472,2.9731653311938047
1782968828332939300,9.458939208984376,-0.19783026452064514,-4.4471036192730065,2.742845878739655
1782968828342865000,9.468864990234374,-0.28657296233475205,-4.80567360406518,2.647946996383369
1782968828352792000,9.4787919921875,-0.3373386884540319,-5.098077756771445,2.6216978718832133
1782968828362718200,9.48871826171875,-0.1557645622074604,-5.109111191961169,2.4559137277036904
1782968828372643800,9.498643798828125,0.060163084539771074,-4.965552615854143,2.405501052805781
1782968828382571000,9.508571044921876,0.1243459261149168,-4.868625442540646,2.255252331410348
1782968828392497200,9.5184970703125,-0.0070972647845745085,-4.6821682204276325,2.1289824514955282
1782968828402423000,9.528423095703126,-0.6529916148006916,-4.58766242904216,2.2459102103084323
1782968828412349000,9.538348876953124,-1.36106272726655,-4.247949704933166,2.434589492385089
1782968828422276000,9.548276123046875,-1.7845675410449504,-3.6019618314146995,2.5539681514814494
1782968828432202000,9.558201904296874,-1.9532336704015731,-3.039835021148622,2.654540111038089
1782968828442128100,9.568128173828125,-2.019510269385576,-2.6248116199895737,2.6010300546467304
1782968828452055000,9.578054931640626,-1.8383453084617851,-2.388276361760497,2.3890628359630703
1782968828461981200,9.587981201171875,-1.3625544271290302,-2.2300705438807604,2.2261206372112032
1782968828471907000,9.597906982421875,-0.5931015019834042,-2.1671238199718297,2.140884778474271
1782968828481834200,9.607834228515625,0.19875264006257057,-2.1359990522593257,2.1639159638412298
1782968828491760000,9.617760009765625,0.6187661045938729,-2.165457348064333,2.271150157766044
1782968828501686000,9.62768603515625,0.604306786608696,-2.107705708580464,2.3096457465074955
1782968828511613200,9.63761328125,0.2765443202733993,-1.8803220173172652,2.2654984156146645
1782968828521539000,9.6475390625,-0.03362403718233108,-1.6375003722950816,2.303889082676917
1782968828531465000,9.65746484375,-0.3040209407418966,-1.3257584819123147,2.2603289040222765
1782968828541392100,9.66739208984375,-0.6553408082753419,-1.032784420363605,2.190364848697185
1782968828551318300,9.677318359375,-1.1371335603713988,-0.7528666050691157,1.9970695972576735
1782968828561244000,9.687243896484375,-1.917632780188322,-0.36136940625235436,1.6661805233344436
1782968828571171000,9.697171142578124,-2.604176535978913,0.14445333298966287,1.2700593910440803
1782968828581097200,9.70709716796875,-2.523864397379756,0.6359134926192462,0.9180641815323382
1782968828591022800,9.71702294921875,-1.833877223137021,1.0140981323331595,0.9233965555362403
1782968828600949000,9.726948974609375,-0.7364484811663627,1.20904129711017,1.1084878961235285
1782968828610876200,9.736876220703126,0.5464478873580694,1.4249034774057567,1.105143992523104
1782968828620802000,9.746802001953125,1.6586761390537021,1.5980563967876136,0.981862334638834
1782968828630728000,9.75672802734375,2.3451707950055596,1.5661870943181215,0.9264262786209583
1782968828640655000,9.766655029296874,2.496821492153406,1.4504567285962402,0.6807849730681628
1782968828650581200,9.776581298828125,2.047819833546877,1.3048095096468926,0.29705227077305313
1782968828660507000,9.7865068359375,1.3566875809222458,1.2188676945976913,-0.04508994550518691
1782968828670434000,9.79643408203125,0.6036643970519304,1.239034284313768,-0.2757281085196882
1782968828680360200,9.806360107421876,-0.19280103818178176,1.3476624168150126,-0.5054798440884799
1782968828690286000,9.8162861328125,-1.0666928274452685,1.4669120427042246,-0.7182037994235754
1782968828700213000,9.826212890625,-1.8528858749896286,1.593588603723794,-0.9601173896901309
1782968828710139100,9.83613916015625,-2.426493571951985,1.7248983775019644,-1.1959583820447326
1782968828720065000,9.84606494140625,-2.728484468171,1.886181410869956,-1.2798074625983833
1782968828729992200,9.8559921875,-2.792539299452305,2.113186039687693,-1.1355049362562597
1782968828739917800,9.865917724609375,-2.506689390695095,2.259908778914064,-0.8126227893084287
1782968828749843700,9.87584375,-1.7920424069702625,2.401012509214878,-0.6292834069550037
1782968828759769900,9.885769775390624,-0.8086965557754039,2.5199261811479925,-0.4617885133348405
1782968828769697000,9.895697021484375,0.17181202616691588,2.6031448548436162,-0.10417115309238434
1782968828779623000,9.905622802734374,0.8801333140015601,2.607378546890616,0.20633841901645064
1782968828789548800,9.915548828125,1.3992641553670166,2.6103093396455046,0.3995116515114903
1782968828799476000,9.92547607421875,1.7984131110459565,2.635609200596809,0.4483262435629964
1782968828809401900,9.93540185546875,2.0267326218545434,2.6084789093479515,0.3685594638869166
1782968828819327700,9.94532763671875,2.0371300972282884,2.5653262885808945,0.050582770767807955
1782968828829255000,9.9552548828125,1.9568039301037787,2.494060795268416,-0.4513723332606256
1782968828839181000,9.96518115234375,1.84971309017241,2.401337211124599,-0.8768301808029413
1782968828849106700,9.975106689453124,1.7281605941683054,2.278134609825909,-1.2862668678708373
1782968828859033900,9.985033935546875,1.5997458111792802,2.083419700846821,-1.8093971541360019
1782968828868960000,9.9949599609375,1.5327806454092263,1.9385481424450872,-2.263090623820573
1782968828878885600,10.0048857421875,1.4751777667462824,1.8531731674984095,-2.425365736965835
1782968828888812800,10.014812744140626,1.143278638997674,1.7626723739705978,-2.2735594108648596
1782968828898739000,10.024739013671875,0.4667921668410301,1.7756188031747937,-1.9667206362232565
1782968828908664800,10.034664794921875,-0.25938158854842186,1.9519284330219029,-1.76073366099298
1782968828918590700,10.0445908203125,-0.7075269225865602,2.173121452951431,-1.7177356462657452
1782968828928518000,10.054517822265625,-0.9205231920570135,2.3546092160888015,-1.596911902927607
1782968828938443800,10.06444384765625,-0.9093775286644696,2.530271049551666,-1.3905499569050968
1782968828948369700,10.07436962890625,-0.7854968819737433,2.5282152860656377,-1.079154980263859
1782968828958296800,10.084296875,-0.5070061038076877,2.7870751888275147,-1.100394606038928
1782968828968223000,10.094222900390625,0.0270791455835104,2.9970898121386766,-1.5027363664098083
1782968828978148900,10.10414892578125,0.699496760866046,2.8456714624419805,-1.8345070454731582
1782968828988076000,10.114075927734374,1.312464408314228,2.473935706606507,-1.9275934715799987
1782968828998002000,10.124001953125,1.7225953612565994,2.216637938594818,-2.0653888079851863
1782968829007927800,10.133927734375,1.9117846386820077,2.162617886854708,-2.3101786843404173
1782968829017855000,10.14385498046875,1.9055466210752725,2.16488451661244,-2.415087796318531
1782968829027780900,10.15378076171875,1.679492132589221,2.2126247574307025,-2.319925879111886
1782968829037706800,10.163706787109374,1.2761702751398085,2.2766335576131937,-2.1859413331665096
1782968829047634000,10.173634033203125,0.7526146030694246,2.303460920392722,-1.9909861856907605
1782968829057560000,10.18356005859375,0.30063480543494225,2.3655158100284637,-1.7384753596946596
1782968829067485700,10.193485595703125,0.1880979750573635,2.79111248151958,-1.878745415650308
1782968829077412900,10.203412841796874,0.3104594493567943,2.8146383185356854,-1.7308529019922017
1782968829087339000,10.213339111328125,0.5824550202846527,2.4874352396488186,-1.3929514650888741
1782968829097264600,10.2232646484375,0.8396230244368315,2.235235379298031,-1.3098166702844203
1782968829107190800,10.233190673828124,0.8145961352080107,2.0571545019946993,-1.2677983142443001
1782968829117118000,10.243117919921875,0.4587520682483911,1.8653410135455428,-1.2142004334390162
1782968829127043800,10.2530439453125,0.19793840107023714,1.49157112153396,-1.1879359652392565
1782968829136969700,10.2629697265625,0.21605624156296252,1.0242113839380442,-1.1163904859416187
1782968829146897000,10.27289697265625,-0.0147398884922266,0.8095464506030082,-1.2277065423525868
1782968829156823000,10.282822998046875,-0.2722369784682989,0.6642364277187734,-1.2403415675200522
1782968829166748700,10.292748779296875,-0.6007213293373584,0.3576743511267006,-0.972206179151684
1782968829176675800,10.30267578125,-1.000157869786024,0.11538308665417134,-0.6115054659411311
