time,seconds_elapsed,z,y,x
1782968818940165000,0.0661650390625,-0.5287796854972839,-0.17524078488349915,-0.05971046909689903
1782968818950092000,0.076092041015625,-0.5550161004066467,0.013849502429366112,0.017475396394729614
1782968818960018200,0.08601806640625,-0.5650261044502258,0.18387342989444733,0.10111836344003677
1782968818969944000,0.095944091796875,-0.5562166571617126,0.32164886593818665,0.1634501814842224
1782968818979870200,0.1058701171875,-0.5464543104171753,0.36941346526145935,0.17583121359348297
1782968818989797000,0.115797119140625,-0.5531097650527954,0.3021249771118164,0.1385759860277176
1782968818999723000,0.125722900390625,-0.576515257358551,0.13870009779930115,0.07220202684402466
1782968819009649200,0.135649169921875,-0.6148024797439575,-0.069646455347538,0.009562346152961254
1782968819019576000,0.145576171875,-0.6542092561721802,-0.2747626006603241,-0.06298402696847916
1782968819029502200,0.155502197265625,-0.6835000514984131,-0.4606941044330597,-0.14927177131175995
1782968819039428000,0.165427978515625,-0.712954580783844,-0.5708091855049133,-0.26487240195274353
1782968819049355000,0.17535498046875,-0.7533837556838989,-0.6099395155906677,-0.38930433988571167
1782968819059281200,0.18528125,-0.811357855796814,-0.5886192917823792,-0.5064946413040161
1782968819069207000,0.19520703125,-0.8797339797019958,-0.5337414145469666,-0.5825414657592773
1782968819079134000,0.205134033203125,-0.9322065114974976,-0.42489030957221985,-0.6077703833580017
1782968819089060000,0.21506005859375,-0.9576178789138794,-0.33229219913482666,-0.6012605428695679
1782968819098986200,0.224986328125,-0.9627583026885986,-0.27340784668922424,-0.5891026854515076
1782968819108913000,0.234912841796875,-0.9593198895454407,-0.24090422689914703,-0.5899423956871033
1782968819118839000,0.244839111328125,-0.9477044939994812,-0.21051888167858124,-0.6141883134841919
1782968819128765200,0.25476513671875,-0.9359932541847229,-0.19051428139209747,-0.6857679486274719
1782968819138692000,0.264692138671875,-0.9262652397155762,-0.21337619423866272,-0.8010247945785522
1782968819148618000,0.274617919921875,-0.9224313497543335,-0.25326475501060486,-0.927020788192749
1782968819158544100,0.284544189453125,-0.8843297958374023,-0.2673262357711792,-1.0045353174209595
1782968819168471000,0.294470947265625,-0.8302668333053589,-0.23798219859600067,-1.0307527780532837
1782968819178397200,0.304397216796875,-0.7701648473739624,-0.1614072620868683,-1.0260655879974365
1782968819188323000,0.314322998046875,-0.7229411602020264,-0.038355112075805664,-1.0259809494018555
1782968819198250000,0.32425,-0.688743531703949,0.049485526978969574,-1.052614450454712
1782968819208176000,0.334176025390625,-0.6582031846046448,0.09961580485105515,-1.099150538444519
1782968819218102000,0.34410205078125,-0.6451001763343811,0.12591426074504852,-1.1365077495574951
1782968819228028200,0.354028076171875,-0.6477734446525574,0.1616450846195221,-1.132949948310852
1782968819237955000,0.363955078125,-0.674537181854248,0.16676874458789825,-1.0798656940460205
1782968819247881200,0.373881103515625,-0.7088993787765503,0.1394476443529129,-0.9894633889198303
1782968819257807000,0.38380712890625,-0.7027109861373901,0.1736958920955658,-0.8462061285972595
1782968819267734000,0.393734130859375,-0.640256941318512,0.2036476731300354,-0.6896458268165588
1782968819277660200,0.40366015625,-0.553810715675354,0.2312862128019333,-0.5603259205818176
1782968819287586000,0.4135859375,-0.4779476523399353,0.2935546636581421,-0.4421079158782959
1782968819297513000,0.423512939453125,-0.4453495144844055,0.3714422583580017,-0.34015971422195435
1782968819307439000,0.433439208984375,-0.4974800944328308,0.38355618715286255,-0.23969914019107819
1782968819317365200,0.443365234375,-0.6270785331726074,0.2766534388065338,-0.1124061718583107
1782968819327292000,0.4532919921875,-0.7906094193458557,0.19629600644111633,-0.08109911531209946
1782968819337218000,0.463218017578125,-0.9428956508636475,0.2430320829153061,-0.19730108976364136
1782968819347144200,0.473144287109375,-1.008094310760498,0.3593648374080658,-0.45674464106559753
1782968819357071000,0.483071044921875,-0.9107257127761841,0.560685932636261,-0.7715561389923096
1782968819366997000,0.4929970703125,-0.6710617542266846,0.7913186550140381,-0.9677216410636902
1782968819376923100,0.502923095703125,-0.388752281665802,0.8763973116874695,-0.973791241645813
1782968819386850000,0.51285009765625,-0.11101173609495163,0.7669863700866699,-0.8049260377883911
1782968819396776000,0.52277587890625,0.11108417809009552,0.5668322443962097,-0.5618372559547424
1782968819406702000,0.5327021484375,0.3735077977180481,0.27428749203681946,-0.2634470760822296
1782968819416629000,0.54262890625,0.613581657409668,0.17657503485679626,0.10288936644792557
1782968819426555100,0.55255517578125,0.7922794818878174,0.14319364726543427,0.4851382076740265
1782968819436481000,0.56248095703125,0.8766641616821289,0.06396327167749405,0.710419774055481
1782968819446407200,0.5724072265625,0.9208326935768127,0.08960764855146408,0.7886639833450317
1782968819456334000,0.582333984375,0.930312991142273,0.19245892763137817,0.7494484186172485
1782968819466260000,0.592260009765625,0.9158629775047302,0.28127428889274597,0.6300655603408813
1782968819476186000,0.60218603515625,0.8772095441818237,0.33521926403045654,0.4874764680862427
1782968819486113000,0.612113037109375,0.8152503371238708,0.3375852406024933,0.3823319375514984
1782968819496039200,0.6220390625,0.7733470797538757,0.3010900616645813,0.3505716025829315
1782968819505965000,0.631965087890625,0.7866392135620117,0.23458321392536163,0.4181618392467499
1782968819515892000,0.64189208984375,0.8620268702507019,0.16507203876972198,0.5515859127044678
1782968819525818000,0.651818115234375,0.9555608630180359,0.1130882054567337,0.7209153175354004
1782968819535744000,0.661743896484375,1.0545305013656616,0.08740121871232986,0.8670453429222107
1782968819545671000,0.6716708984375,1.1612557172775269,0.08628349006175995,0.9705528616905212
1782968819555597000,0.68159716796875,1.2562098503112793,0.10340681672096252,1.0303841829299927
1782968819565523200,0.691523193359375,1.335272192955017,0.12310115993022919,1.0634691715240479
1782968819575450000,0.7014501953125,1.3824149370193481,0.13295619189739227,1.0749943256378174
1782968819585376000,0.7113759765625,1.4022551774978638,0.09101992100477219,1.0507222414016724
1782968819595302100,0.72130224609375,1.3908363580703735,-0.021436316892504692,0.9833695888519287
1782968819605229000,0.73122900390625,1.3560352325439453,-0.21168401837348938,0.8938308954238892
1782968819615155000,0.741155029296875,1.3055741786956787,-0.4436171352863312,0.7850418090820312
1782968819625081000,0.7510810546875,1.2511975765228271,-0.6364893913269043,0.6951553225517273
1782968819635008000,0.761008056640625,1.2100695371627808,-0.7438227534294128,0.6427523493766785
1782968819644934100,0.77093408203125,1.1734081506729126,-0.7573601603507996,0.6169553399085999
1782968819654860000,0.780860107421875,1.1193209886550903,-0.6849468946456909,0.5997071266174316
1782968819664786200,0.7907861328125,1.0436052083969116,-0.5638500452041626,0.5947256684303284
1782968819674713000,0.800713134765625,0.9576535224914551,-0.4375983774662018,0.5874602794647217
1782968819684639000,0.810638916015625,0.8800759315490723,-0.34471210837364197,0.5733418464660645
1782968819694565000,0.820565185546875,0.8179529309272766,-0.29351869225502014,0.5437109470367432
1782968819704492000,0.830491943359375,0.7692412734031677,-0.28552016615867615,0.4965578317642212
1782968819714418200,0.840418212890625,0.7287148833274841,-0.30470824241638184,0.4264663755893707
1782968819724344000,0.850343994140625,0.6783830523490906,-0.3074435591697693,0.34068140387535095
1782968819734270500,0.8602705078125,0.6020557880401611,-0.2910480797290802,0.239858940243721
1782968819744196600,0.870196533203125,0.4924943745136261,-0.2717686593532562,0.15274666249752045
1782968819754122800,0.880122802734375,0.4036039113998413,-0.2555486857891083,0.13792884349822998
1782968819764049700,0.890049560546875,0.3597666919231415,-0.22460727393627167,0.17556357383728027
1782968819773975600,0.8999755859375,0.3633619546890259,-0.19742092490196228,0.23528549075126648
1782968819783901700,0.909901611328125,0.3681492507457733,-0.14813274145126343,0.2623749077320099
1782968819793828600,0.91982861328125,0.40502044558525085,-0.15292988717556,0.3235969841480255
1782968819803754800,0.929754638671875,0.422305703163147,-0.1998838186264038,0.3825188875198364
1782968819813680600,0.9396806640625,0.41304269433021545,-0.24874164164066315,0.39332839846611023
1782968819823607800,0.94960791015625,0.3903728127479553,-0.2896589934825897,0.36628344655036926
1782968819833533700,0.95953369140625,0.33866938948631287,-0.2989124059677124,0.3006783425807953
1782968819843459600,0.96945947265625,0.24884150922298431,-0.271823525428772,0.201681986451149
1782968819853386800,0.97938671875,0.15302416682243347,-0.2192428708076477,0.09047237783670425
1782968819863312600,0.989312744140625,0.04165210574865341,-0.17133073508739471,-0.03133422136306763
1782968819873238800,0.99923876953125,-0.081450916826725,-0.13181981444358826,-0.1663823127746582
1782968819883164700,1.00916455078125,-0.201307013630867,-0.10397619754076004,-0.2957397699356079
1782968819893091600,1.019091552734375,-0.319863498210907,-0.05164162442088127,-0.39315181970596313
1782968819903017700,1.029017822265625,-0.4177525043487549,0.047932904213666916,-0.4228593707084656
1782968819912943600,1.038943603515625,-0.48734354972839355,0.1786554902791977,-0.37514325976371765
1782968819922870500,1.04887060546875,-0.512788712978363,0.2939317524433136,-0.2742249071598053
1782968819932796700,1.058796630859375,-0.4917292594909668,0.3684227764606476,-0.15257781744003296
1782968819942722800,1.068722900390625,-0.4298536479473114,0.3899328410625458,-0.04909910261631012
1782968819952649500,1.0786494140625,-0.3405698239803314,0.33201974630355835,-0.01064811646938324
1782968819962575600,1.08857568359375,-0.25177472829818726,0.19391168653964996,-0.0011270497925579548
1782968819972501800,1.098501708984375,-0.21160545945167542,0.025194035843014717,-0.056117862462997437
1782968819982428700,1.1084287109375,-0.22448210418224335,-0.14975248277187347,-0.1455308347940445
1782968819992354600,1.1183544921875,-0.2889127731323242,-0.2874528169631958,-0.24340467154979706
1782968820002280700,1.12828076171875,-0.40183132886886597,-0.3521401882171631,-0.3414633274078369
1782968820012207900,1.138207763671875,-0.5427229404449463,-0.2904917597770691,-0.4217251241207123
1782968820022133500,1.148133544921875,-0.6859501600265503,-0.10999760776758194,-0.47301867604255676
1782968820032059600,1.1580595703125,-0.8108923435211182,0.14548476040363312,-0.47856950759887695
1782968820041985800,1.16798583984375,-0.8996062278747559,0.42745813727378845,-0.4296341836452484
1782968820051912700,1.17791259765625,-0.9571480751037598,0.6801018118858337,-0.37340447306632996
1782968820061838600,1.187838623046875,-0.986497700214386,0.8162444829940796,-0.3517332673072815
1782968820071764700,1.1977646484375,-0.9944379329681396,0.8558864593505859,-0.36845260858535767
1782968820081691600,1.207691650390625,-0.9863549470901489,0.7978801131248474,-0.4239600598812103
1782968820091617500,1.217617431640625,-0.9675722122192383,0.654677152633667,-0.5016418099403381
1782968820101543700,1.227543701171875,-0.9284578561782837,0.4547469913959503,-0.5657454133033752
1782968820111470600,1.237470703125,-0.8723618388175964,0.22777749598026276,-0.5856640338897705
1782968820121396700,1.247396728515625,-0.8124564290046692,0.030459638684988022,-0.5736395716667175
1782968820131322600,1.257322509765625,-0.767953634262085,-0.12549534440040588,-0.5583173632621765
1782968820141249500,1.26724951171875,-0.7376173138618469,-0.24522626399993896,-0.5582102537155151
1782968820151175700,1.27717578125,-0.7270291447639465,-0.31665995717048645,-0.5798615217208862
1782968820161101600,1.2871015625,-0.7336167097091675,-0.30093932151794434,-0.6217911243438721
1782968820171028700,1.29702880859375,-0.7448355555534363,-0.19525684416294098,-0.6873634457588196
1782968820180954600,1.30695458984375,-0.7693089246749878,-0.021564148366451263,-0.7861922979354858
1782968820190880800,1.316880859375,-0.7965109944343567,0.2037470042705536,-0.9064976572990417
1782968820200807700,1.3268076171875,-0.8327326774597168,0.4030854105949402,-1.0240693092346191
1782968820210733600,1.336733642578125,-0.8654730319976807,0.5236104726791382,-1.1179587841033936
1782968820220659700,1.34665966796875,-0.8946804404258728,0.5793144702911377,-1.1849842071533203
1782968820230585600,1.356585693359375,-0.8819015026092529,0.555295467376709,-1.1672477722167969
1782968820240512500,1.366512451171875,-0.8352575898170471,0.4519224464893341,-1.0790127515792847
1782968820250438700,1.376438720703125,-0.7627943158149719,0.29416903853416443,-0.9234031438827515
1782968820260364800,1.38636474609375,-0.6824517846107483,0.12246093153953552,-0.7358569502830505
1782968820270291700,1.396291748046875,-0.6049964427947998,-0.010453173890709877,-0.5691486597061157
1782968820280217600,1.406217529296875,-0.5369641184806824,-0.07747135311365128,-0.459735631942749
1782968820290143700,1.416143798828125,-0.48750442266464233,-0.0886869952082634,-0.3909805417060852
1782968820300070700,1.426070556640625,-0.44939324259757996,-0.050997402518987656,-0.3512563109397888
1782968820309996500,1.43599658203125,-0.44955384731292725,0.013862552121281624,-0.33039042353630066
1782968820319922700,1.445922607421875,-0.4764467179775238,0.09557339549064636,-0.3143129348754883
1782968820329849600,1.455849609375,-0.5117897987365723,0.18170347809791565,-0.30390477180480957
1782968820339775700,1.465775634765625,-0.5303858518600464,0.26595020294189453,-0.3210560381412506
1782968820349701600,1.47570166015625,-0.511816143989563,0.3401266932487488,-0.36363840103149414
1782968820359628800,1.48562890625,-0.47244957089424133,0.40168485045433044,-0.40407130122184753
1782968820369554700,1.4955546875,-0.3905019760131836,0.4431212544441223,-0.42079994082450867
1782968820379480600,1.50548046875,-0.27928435802459717,0.43814459443092346,-0.3922191858291626
1782968820389406700,1.51540673828125,-0.1741587519645691,0.3865615725517273,-0.3422446846961975
1782968820399333600,1.525333740234375,-0.0039012646302580833,0.2679715156555176,-0.17511588335037231
1782968820409259800,1.535259765625,0.12626871466636658,0.14640913903713226,0.03400217369198799
1782968820419185700,1.545185546875,0.24417617917060852,0.0256305281072855,0.24029675126075745
1782968820429112600,1.555112548828125,0.3431280553340912,-0.03202318027615547,0.40805405378341675
1782968820439038700,1.565038818359375,0.4183027148246765,-0.029228724539279938,0.5106632709503174
1782968820448964600,1.574964599609375,0.484616756439209,0.02388003282248974,0.5541460514068604
1782968820458891500,1.5848916015625,0.5289623737335205,0.09567246586084366,0.5506356954574585
1782968820468817700,1.594817626953125,0.5446619987487793,0.1687791645526886,0.4974912703037262
1782968820478743800,1.604743896484375,0.5284087061882019,0.2209627330303192,0.4192745089530945
1782968820488670500,1.61467041015625,0.5160343050956726,0.23466390371322632,0.3511018455028534
1782968820498596600,1.6245966796875,0.5548288822174072,0.2109822779893875,0.32628196477890015
1782968820508522800,1.634522705078125,0.6586194634437561,0.16299185156822205,0.3630943298339844
1782968820518449700,1.64444970703125,0.7972471117973328,0.10947909206151962,0.45611321926116943
1782968820528375600,1.65437548828125,0.9471250176429749,0.05415111780166626,0.5602747797966003
1782968820538301700,1.6643017578125,1.0781991481781006,-0.014869493432343006,0.6618293523788452
1782968820548227800,1.674227783203125,1.1925395727157593,-0.05751975253224373,0.7426539063453674
1782968820558154500,1.684154541015625,1.2771186828613281,-0.06799156963825226,0.8002820611000061
1782968820568080600,1.69408056640625,1.3286007642745972,-0.0800948366522789,0.8390211462974548
1782968820578006800,1.7040068359375,1.3563343286514282,-0.10055910050868988,0.8582936525344849
1782968820587933700,1.71393359375,1.3657987117767334,-0.16705982387065887,0.8719460964202881
1782968820597859600,1.723859619140625,1.373751163482666,-0.2854037880897522,0.8864257335662842
1782968820607785700,1.73378564453125,1.375097393989563,-0.416585236787796,0.89234459400177
1782968820617712600,1.743712646484375,1.3927816152572632,-0.5431852340698242,0.8997601270675659
1782968820627638500,1.753638427734375,1.423443078994751,-0.6391893029212952,0.9002866744995117
1782968820637564700,1.763564697265625,1.4559746980667114,-0.6907190680503845,0.8786545991897583
1782968820647491600,1.77349169921875,1.4687533378601074,-0.718925416469574,0.8175928592681885
1782968820657417700,1.783417724609375,1.4537853002548218,-0.7300946712493896,0.7267822623252869
1782968820667343600,1.793343505859375,1.3936681747436523,-0.742316722869873,0.6168139576911926
1782968820677270500,1.8032705078125,1.2873510122299194,-0.735512375831604,0.5080850720405579
1782968820687196700,1.81319677734375,1.1386997699737549,-0.6959337592124939,0.4139103591442108
1782968820697122600,1.82312255859375,0.973712146282196,-0.5963525772094727,0.3414875566959381
1782968820707049700,1.8330498046875,0.8213164806365967,-0.4570642113685608,0.29268699884414673
1782968820716975600,1.8429755859375,0.6953662633895874,-0.31830233335494995,0.25398939847946167
1782968820726901800,1.85290185546875,0.6124133467674255,-0.17949412763118744,0.22660037875175476
1782968820736828400,1.862828369140625,0.5725322365760803,-0.0482088066637516,0.2205347716808319
1782968820746755300,1.87275537109375,0.5555838942527771,0.05078648030757904,0.23063720762729645
1782968820756681500,1.882681396484375,0.5344676375389099,0.11956820636987686,0.1982092261314392
1782968820766607600,1.892607666015625,0.5414273142814636,0.10895071923732758,0.18795658648014069
1782968820776534500,1.902534423828125,0.5529625415802002,0.010485131293535233,0.24910490214824677
1782968820786460400,1.91246044921875,0.5553261041641235,-0.11228978633880615,0.3630799353122711
1782968820796386600,1.922386474609375,0.5767467021942139,-0.25945740938186646,0.4916080832481384
1782968820806313500,1.9323134765625,0.6005563735961914,-0.37657415866851807,0.5718504786491394
1782968820816239400,1.9422392578125,0.6095064878463745,-0.4304696321487427,0.5703375339508057
1782968820826165500,1.95216552734375,0.5858302116394043,-0.4252373278141022,0.49794134497642517
1782968820836092400,1.962092529296875,0.49536073207855225,-0.36429139971733093,0.3774125277996063
1782968820846018600,1.9720185546875,0.34725090861320496,-0.2564943730831146,0.2088424265384674
1782968820855944400,1.9819443359375,0.14248789846897125,-0.12340955436229706,0.00640703272074461
1782968820865871400,1.991871337890625,-0.08051028847694397,0.033781666308641434,-0.19375082850456238
1782968820875797500,2.001797607421875,-0.2865912914276123,0.19214999675750732,-0.3500938415527344
1782968820885723400,2.011723388671875,-0.44386160373687744,0.3258891701698303,-0.4406373202800751
1782968820895649500,2.0216494140625,-0.5425586104393005,0.4658515751361847,-0.446954607963562
1782968820905576400,2.031576416015625,-0.5854906439781189,0.5901690125465393,-0.38783907890319824
1782968820915502600,2.041502685546875,-0.5751447677612305,0.6498019695281982,-0.28014057874679565
1782968820925428500,2.051428466796875,-0.5484298467636108,0.659238338470459,-0.20164363086223602
1782968820935355400,2.06135546875,-0.48650306463241577,0.5979382395744324,-0.11738841235637665
1782968820945281500,2.071281494140625,-0.4067626893520355,0.44840121269226074,-0.009317069314420223
1782968820955207400,2.08120751953125,-0.35649633407592773,0.2720320522785187,0.048949964344501495
1782968820965134300,2.09113427734375,-0.34022256731987,0.10296313464641571,0.039622243493795395
1782968820975060500,2.101060546875,-0.3662102222442627,-0.04691770672798157,-0.028202876448631287
1782968820984986600,2.110986572265625,-0.4321162700653076,-0.18128830194473267,-0.11646588891744614
1782968820994913300,2.120913330078125,-0.5224695801734924,-0.2550855576992035,-0.22123411297798157
1782968821004839400,2.13083935546875,-0.6260852217674255,-0.2401425540447235,-0.34040310978889465
1782968821014765600,2.140765625,-0.738353967666626,-0.12786075472831726,-0.4533195495605469
1782968821024692500,2.1506923828125,-0.851703405380249,0.051003530621528625,-0.5365305542945862
1782968821034618400,2.160618408203125,-0.9645814895629883,0.26242655515670776,-0.5665225386619568
1782968821044544500,2.17054443359375,-1.0756049156188965,0.4759199321269989,-0.5606414675712585
1782968821054470700,2.180470703125,-1.1747735738754272,0.6618320345878601,-0.5236738920211792
1782968821064397300,2.190397216796875,-1.258009672164917,0.7620667219161987,-0.4797452986240387
1782968821074323500,2.200323486328125,-1.3035200834274292,0.7737055420875549,-0.4307117164134979
1782968821084249600,2.21024951171875,-1.308543086051941,0.7085790038108826,-0.3958756923675537
1782968821094176500,2.220176513671875,-1.266451358795166,0.5726635456085205,-0.3788570463657379
1782968821104102400,2.230102294921875,-1.190711259841919,0.40967699885368347,-0.37264201045036316
1782968821114028500,2.240028564453125,-1.1021732091903687,0.2546032667160034,-0.38938769698143005
1782968821123955500,2.24995556640625,-1.020108699798584,0.10895498096942902,-0.43002620339393616
1782968821133881300,2.25988134765625,-0.9749888777732849,-0.05254203826189041,-0.4938350319862366
1782968821143807500,2.269807373046875,-0.9682399034500122,-0.20650283992290497,-0.5546488165855408
1782968821153734400,2.279734375,-1.0048149824142456,-0.3122657537460327,-0.6220971345901489
1782968821163660500,2.28966064453125,-1.0731679201126099,-0.3496845066547394,-0.6837083101272583
1782968821173586400,2.29958642578125,-1.1608290672302246,-0.3025449514389038,-0.7366993427276611
1782968821183513300,2.309513427734375,-1.250899314880371,-0.18938776850700378,-0.8025622367858887
1782968821193439500,2.319439453125,-1.3241626024246216,-0.03254835680127144,-0.8824030160903931
1782968821203365400,2.329365478515625,-1.384812831878662,0.1412133127450943,-0.9744951128959656
1782968821213291500,2.33929150390625,-1.4293336868286133,0.3049367368221283,-1.0596848726272583
1782968821223218400,2.349218505859375,-1.4660943746566772,0.45151418447494507,-1.1255152225494385
1782968821233144600,2.35914453125,-1.4798991680145264,0.5806463360786438,-1.1579499244689941
1782968821243070500,2.369070556640625,-1.4645683765411377,0.6649758815765381,-1.1450061798095703
1782968821252997400,2.378997314453125,-1.4228858947753906,0.6897531151771545,-1.089687705039978
1782968821262923500,2.388923583984375,-1.3609040975570679,0.6544734239578247,-0.9794800281524658
1782968821272849400,2.398849365234375,-1.290294885635376,0.5825552940368652,-0.823383092880249
1782968821282776300,2.4087763671875,-1.2014907598495483,0.5105985403060913,-0.6776652932167053
1782968821292702500,2.418702392578125,-1.1135514974594116,0.418792188167572,-0.5812039971351624
1782968821302628600,2.428628662109375,-1.0460654497146606,0.3555101752281189,-0.5201957821846008
1782968821312555500,2.438555419921875,-0.9957377910614014,0.31138983368873596,-0.48355308175086975
1782968821322481400,2.4484814453125,-0.9585960507392883,0.29526785016059875,-0.47132304310798645
1782968821332407600,2.458407470703125,-0.9319271445274353,0.3073386549949646,-0.4882200062274933
1782968821342334500,2.46833447265625,-0.8964663743972778,0.3394041657447815,-0.5606899261474609
1782968821352260400,2.47826025390625,-0.8424918055534363,0.393316388130188,-0.6737595200538635
1782968821362186500,2.4881865234375,-0.7700937986373901,0.4256274700164795,-0.7664646506309509
1782968821372112600,2.498112548828125,-0.6546769142150879,0.3642706274986267,-0.766301155090332
1782968821382039600,2.50803955078125,-0.5003323554992676,0.19706113636493683,-0.6327782273292542
1782968821391965400,2.51796533203125,-0.36824220418930054,-0.024701351299881935,-0.41830936074256897
1782968821401891600,2.5278916015625,-0.1653442233800888,-0.27561160922050476,-0.11172466725111008
1782968821411818500,2.537818603515625,0.05841697007417679,-0.443897008895874,0.23737899959087372
1782968821421744400,2.547744384765625,0.2079971432685852,-0.4796329140663147,0.48482874035835266
1782968821431670500,2.55767041015625,0.34290647506713867,-0.4135313928127289,0.6192390322685242
1782968821441597400,2.567597412109375,0.4466073215007782,-0.3170922100543976,0.6652448773384094
1782968821451523600,2.577523681640625,0.5200860500335693,-0.21516583859920502,0.6521929502487183
1782968821461449500,2.587449462890625,0.5671883225440979,-0.11384720355272293,0.6039391756057739
1782968821471376400,2.59737646484375,0.5884648561477661,-0.03711008280515671,0.5424771308898926
1782968821481302500,2.607302490234375,0.5868448615074158,0.002435993403196335,0.4829480051994324
1782968821491228400,2.617228515625,0.5907386541366577,-0.00833862368017435,0.44243308901786804
1782968821501155300,2.6271552734375,0.597068190574646,-0.05188024044036865,0.4167921543121338
1782968821511081500,2.63708154296875,0.6280421018600464,-0.11482618749141693,0.4194931387901306
1782968821521007600,2.647007568359375,0.7019568085670471,-0.1832670271396637,0.47115179896354675
1782968821530934300,2.656934326171875,0.8023601174354553,-0.22298328578472137,0.5673185586929321
1782968821540860400,2.6668603515625,0.9186984300613403,-0.24406352639198303,0.6888021230697632
1782968821550786600,2.67678662109375,1.053049087524414,-0.2306491881608963,0.8187279105186462
1782968821560712400,2.68671240234375,1.1889383792877197,-0.15757764875888824,0.9279177784919739
1782968821570639400,2.696639404296875,1.3212237358093262,-0.05964548513293266,0.9856809377670288
1782968821580565500,2.7065654296875,1.4262598752975464,0.0099623529240489,0.9864015579223633
1782968821590491600,2.71649169921875,1.48940908908844,0.018974224105477333,0.9424053430557251
1782968821600418300,2.726418212890625,1.5105873346328735,-0.031554996967315674,0.9017183780670166
1782968821610344400,2.736344482421875,1.5205411911010742,-0.13067492842674255,0.8722707629203796
1782968821620270600,2.7462705078125,1.5230844020843506,-0.2713393568992615,0.8660210967063904
1782968821630197500,2.756197509765625,1.5422030687332153,-0.4362500309944153,0.8777627348899841
1782968821640123400,2.766123291015625,1.5530524253845215,-0.6000493168830872,0.8748313784599304
1782968821650049500,2.776049560546875,1.5456968545913696,-0.7343514561653137,0.8461901545524597
1782968821659976400,2.7859765625,1.508076786994934,-0.7957895398139954,0.8109442591667175
1782968821669902300,2.79590234375,1.4478535652160645,-0.7788366675376892,0.7657583951950073
1782968821679828500,2.805828369140625,1.3746414184570312,-0.6933504939079285,0.7076213359832764
1782968821689755400,2.81575537109375,1.2988449335098267,-0.5643166303634644,0.6397024989128113
1782968821699681500,2.825681640625,1.22400963306427,-0.4154414236545563,0.5790883898735046
1782968821709607400,2.835607421875,1.1604639291763306,-0.2717580199241638,0.5253838896751404
1782968821719533600,2.845533447265625,1.1049106121063232,-0.14011609554290771,0.47701048851013184
1782968821729460500,2.85546044921875,1.0500998497009277,-0.025258218869566917,0.41922521591186523
1782968821739385600,2.865385498046875,0.9895217418670654,0.034750524908304214,0.3555450439453125
1782968821749311500,2.8753115234375,0.9267049431800842,0.02785426750779152,0.29399460554122925
1782968821759238400,2.88523828125,0.8742252588272095,-0.01233443059027195,0.2532604932785034
1782968821769164500,2.89516455078125,0.841846227645874,-0.056056343019008636,0.2520173192024231
1782968821779090700,2.905090576171875,0.8273754119873047,-0.10645267367362976,0.2727210223674774
1782968821789017600,2.915017578125,0.8465352654457092,-0.15791825950145721,0.33230578899383545
1782968821798943500,2.924943603515625,0.896824300289154,-0.20909009873867035,0.41601985692977905
1782968821808869600,2.93486962890625,0.9450847506523132,-0.23877769708633423,0.5050197839736938
1782968821818796500,2.944796630859375,0.9844740033149719,-0.2529006898403168,0.5758721232414246
1782968821828722400,2.954722412109375,0.9988020658493042,-0.24378709495067596,0.6167689561843872
1782968821838648600,2.964648681640625,0.9706420302391052,-0.21789024770259857,0.6128367781639099
1782968821848575500,2.974575439453125,0.8975151181221008,-0.18340204656124115,0.572410523891449
1782968821858501600,2.984501708984375,0.7914890646934509,-0.15913985669612885,0.5051233768463135
1782968821868427500,2.994427490234375,0.6559701561927795,-0.16593171656131744,0.4133947789669037
1782968821878353700,3.004353759765625,0.5158500671386719,-0.1661072075366974,0.34043267369270325
1782968821888280600,3.014280517578125,0.3853719234466553,-0.15014688670635223,0.26673075556755066
1782968821898206500,3.02420654296875,0.2590360939502716,-0.12687832117080688,0.1842380166053772
1782968821908132600,3.034132568359375,0.1411888152360916,-0.08288715779781342,0.09178771078586578
1782968821918059500,3.0440595703125,0.04710919037461281,-0.020976655185222626,0.0032711606472730637
1782968821927985700,3.053985595703125,-0.030848460271954536,0.05044719576835632,-0.05687153711915016
1782968821937911600,3.06391162109375,-0.08173374831676483,0.1515868604183197,-0.08088552951812744
1782968821947838500,3.07383837890625,-0.10514160245656967,0.2751367688179016,-0.10002193599939346
1782968821957764600,3.0837646484375,-0.10099265724420547,0.37770840525627136,-0.07976193726062775
1782968821967690500,3.0936904296875,-0.07887563854455948,0.4010816514492035,-0.0030091057997196913
1782968821977617400,3.103617431640625,-0.055685631930828094,0.35219213366508484,0.07189948856830597
1782968821987543600,3.11354345703125,-0.040275249630212784,0.24040940403938293,0.12457681447267532
1782968821997469700,3.1234697265625,-0.04494217410683632,0.08650533109903336,0.13535648584365845
1782968822007395600,3.1333955078125,-0.06595318019390106,-0.09077384322881699,0.12087076157331467
1782968822017322500,3.143322509765625,-0.11588958650827408,-0.2798050045967102,0.07000065594911575
1782968822027248600,3.15324853515625,-0.20161780714988708,-0.45129793882369995,-0.02449548989534378
1782968822037174500,3.163174560546875,-0.3114345967769623,-0.585940420627594,-0.14130572974681854
1782968822047101400,3.173101318359375,-0.44443631172180176,-0.6415634751319885,-0.25285303592681885
1782968822057027600,3.183027587890625,-0.5480670928955078,-0.6177124977111816,-0.3370286226272583
1782968822066953700,3.19295361328125,-0.6298362612724304,-0.5173078775405884,-0.3914886713027954
1782968822076880400,3.20288037109375,-0.691060483455658,-0.36357447504997253,-0.42486685514450073
1782968822086806500,3.212806640625,-0.7446224689483643,-0.1575651317834854,-0.43298232555389404
1782968822096732700,3.222732666015625,-0.7933343648910522,0.06464210897684097,-0.42204391956329346
1782968822106659600,3.23265966796875,-0.828919529914856,0.25637292861938477,-0.43597012758255005
1782968822116585500,3.24258544921875,-0.8474117517471313,0.3868151009082794,-0.4828942120075226
1782968822126511600,3.25251171875,-0.8604106307029724,0.42908185720443726,-0.5638260841369629
1782968822136438500,3.2624384765625,-0.8623531460762024,0.38184189796447754,-0.6477657556533813
1782968822146364400,3.272364501953125,-0.8702827095985413,0.27799245715141296,-0.7221568822860718
1782968822156290600,3.28229052734375,-0.8845961093902588,0.14786988496780396,-0.7658303380012512
1782968822166216700,3.292216796875,-0.8886422514915466,0.013570670038461685,-0.7802502512931824
1782968822176143600,3.3021435546875,-0.898922324180603,-0.10170479118824005,-0.7861369252204895
1782968822186069500,3.312069580078125,-0.9164195656776428,-0.17577742040157318,-0.8075231909751892
1782968822195995600,3.32199560546875,-0.9301460385322571,-0.21404704451560974,-0.8420600891113281
1782968822205922600,3.331922607421875,-0.9414535164833069,-0.2150457352399826,-0.8930348753929138
1782968822215848400,3.341848388671875,-0.9408897161483765,-0.18214929103851318,-0.9607811570167542
1782968822225774600,3.351774658203125,-0.940249502658844,-0.13881248235702515,-1.01748788356781
1782968822235701500,3.361701416015625,-0.9351831078529358,-0.06749941408634186,-1.0459144115447998
1782968822245627600,3.371627685546875,-0.9369714260101318,0.008174306713044643,-1.0597929954528809
1782968822255553500,3.381553466796875,-0.9421262741088867,0.0829811692237854,-1.0571879148483276
1782968822265480400,3.39148046875,-0.9507650136947632,0.13790833950042725,-1.038140892982483
1782968822275406600,3.401406494140625,-0.9507753849029541,0.20716942846775055,-1.0022462606430054
1782968822285332700,3.411332763671875,-0.9409224987030029,0.26861387491226196,-0.9440863132476807
1782968822295259400,3.42125927734375,-0.9216095209121704,0.30593863129615784,-0.8527095317840576
1782968822305185500,3.431185546875,-0.8961966037750244,0.3072640597820282,-0.7326627969741821
1782968822315111700,3.441111572265625,-0.8606274127960205,0.308732271194458,-0.6059876680374146
1782968822325038600,3.45103857421875,-0.837135374546051,0.31920915842056274,-0.484619140625
1782968822334964500,3.460964599609375,-0.81561279296875,0.34081777930259705,-0.3816157877445221
1782968822344890600,3.470890625,-0.7848154306411743,0.3961484134197235,-0.2882640063762665
1782968822354816800,3.480816650390625,-0.7547292113304138,0.45586898922920227,-0.20749379694461823
1782968822364743400,3.490743408203125,-0.7226247787475586,0.4644070863723755,-0.16837117075920105
1782968822374669600,3.500669677734375,-0.6954991817474365,0.4563555419445038,-0.17455929517745972
1782968822384595700,3.510595703125,-0.658256471157074,0.43546971678733826,-0.2064296007156372
1782968822394522600,3.520522705078125,-0.6064936518669128,0.4207019507884979,-0.2608502209186554
1782968822404448500,3.530448486328125,-0.5159874558448792,0.41411036252975464,-0.3364863991737366
1782968822414374700,3.540374755859375,-0.406314492225647,0.4073701798915863,-0.3720223009586334
1782968822424301600,3.550301513671875,-0.3352768123149872,0.41331300139427185,-0.3816688060760498
1782968822434227500,3.5602275390625,-0.20570015907287598,0.34158822894096375,-0.2662806808948517
1782968822444153600,3.570153564453125,-0.0814029797911644,0.2668439447879791,-0.05903695523738861
1782968822454080500,3.58008056640625,0.0060179452411830425,0.2309437394142151,0.17656171321868896
1782968822464006700,3.590006591796875,0.08478013426065445,0.22400087118148804,0.3467686176300049
1782968822473932500,3.5999326171875,0.17854523658752441,0.2297905832529068,0.4429100453853607
1782968822483858700,3.609858642578125,0.2718504071235657,0.21873101592063904,0.4725363850593567
1782968822493785600,3.61978564453125,0.3672187626361847,0.20304232835769653,0.46919411420822144
1782968822503711500,3.62971142578125,0.45007050037384033,0.16562891006469727,0.45316481590270996
1782968822513637600,3.6396376953125,0.5132001638412476,0.11751437932252884,0.4484131932258606
1782968822523564500,3.649564453125,0.5817025303840637,0.08165864646434784,0.471393883228302
1782968822533490700,3.65949072265625,0.6530299782752991,0.06233101710677147,0.5118337273597717
1782968822543416600,3.66941650390625,0.7339794635772705,0.05716848000884056,0.5638468861579895
1782968822553343500,3.679343505859375,0.8110302686691284,0.06876734644174576,0.6142421364784241
1782968822563269600,3.68926953125,0.872463047504425,0.05712054297327995,0.6571959853172302
1782968822573195500,3.699195556640625,0.9260945320129395,0.022162826731801033,0.7016827464103699
1782968822583122400,3.709122314453125,0.9538177847862244,-0.006549245677888393,0.7505940794944763
1782968822593048600,3.719048583984375,0.9665519595146179,-0.03050864115357399,0.7825914621353149
1782968822602974700,3.728974609375,0.9849392175674438,-0.04577600955963135,0.8003501892089844
1782968822612901400,3.7389013671875,1.0196207761764526,-0.03111344389617443,0.7961581349372864
1782968822622827500,3.74882763671875,1.0815054178237915,0.003428287338465452,0.780430018901825
1782968822632753700,3.758753662109375,1.1634565591812134,0.03009691648185253,0.7704223990440369
1782968822642680600,3.7686806640625,1.24246346950531,0.02761724591255188,0.7651932835578918
1782968822652606500,3.7786064453125,1.2910560369491577,-0.006039782892912626,0.7536199688911438
1782968822662532600,3.78853271484375,1.2909306287765503,-0.07115859538316727,0.722292423248291
1782968822672458800,3.798458740234375,1.2344039678573608,-0.16525420546531677,0.6745076179504395
1782968822682385400,3.808385498046875,1.137059211730957,-0.2508300840854645,0.6267477869987488
1782968822692311600,3.8183115234375,1.0215462446212769,-0.3192397654056549,0.575175404548645
1782968822702237700,3.82823779296875,0.9121180176734924,-0.35683056712150574,0.5143911838531494
1782968822712164600,3.83816455078125,0.8291006088256836,-0.368395060300827,0.4414612948894501
1782968822722090500,3.848090576171875,0.7712530493736267,-0.34575074911117554,0.3664722740650177
1782968822732016600,3.8580166015625,0.7355754971504211,-0.28614920377731323,0.3085056245326996
1782968822741943300,3.867943359375,0.7092275023460388,-0.2114533931016922,0.2765069603919983
1782968822751869400,3.877869384765625,0.6885030269622803,-0.1458408236503601,0.2661256790161133
1782968822761795300,3.88779541015625,0.6602410674095154,-0.0997455045580864,0.25288790464401245
1782968822771722200,3.89772216796875,0.6251831650733948,-0.07655123621225357,0.2486598789691925
1782968822781648400,3.9076484375,0.5978367924690247,-0.07869161665439606,0.26810094714164734
1782968822791574300,3.91757421875,0.5855047702789307,-0.11991122364997864,0.30874133110046387
1782968822801501200,3.927501220703125,0.5843332409858704,-0.1728372871875763,0.3593277931213379
1782968822811427300,3.93742724609375,0.5959627032279968,-0.2276342213153839,0.41873493790626526
1782968822821353500,3.947353515625,0.6053774952888489,-0.2596805691719055,0.46941009163856506
1782968822831279400,3.957279296875,0.6007348299026489,-0.287995308637619,0.5124012231826782
1782968822841206300,3.967206298828125,0.5707710981369019,-0.3083977699279785,0.519892692565918
1782968822851132400,3.97713232421875,0.5098789930343628,-0.3183065950870514,0.4808614253997803
1782968822861056300,3.98705615234375,0.4247576892375946,-0.3141496777534485,0.4189155101776123
1782968822870982400,3.996982421875,0.32065099477767944,-0.29593124985694885,0.3431541621685028
1782968822880909600,4.00690966796875,0.19510051608085632,-0.27223125100135803,0.2589367628097534
1782968822890835200,4.016835205078125,0.0672200471162796,-0.2325056791305542,0.17136350274085999
1782968822900761300,4.02676123046875,-0.046778690069913864,-0.16965454816818237,0.07629317045211792
1782968822910688500,4.0366884765625,-0.15436027944087982,-0.11414867639541626,-0.03600087761878967
1782968822920614100,4.0466142578125,-0.25174570083618164,-0.05402914807200432,-0.1421707272529602
1782968822930540300,4.056540283203125,-0.34252724051475525,0.019408851861953735,-0.21067015826702118
1782968822940467500,4.066467529296875,-0.42348015308380127,0.11774101108312607,-0.21694163978099823
1782968822950393300,4.076393310546875,-0.48479199409484863,0.2174108773469925,-0.17461654543876648
1782968822960319200,4.0863193359375,-0.5274446606636047,0.29985490441322327,-0.09995029866695404
1782968822970245400,4.096245361328125,-0.5440753102302551,0.3436921238899231,-0.00968831405043602
1782968822980172300,4.10617236328125,-0.5382488369941711,0.332191526889801,0.06373796612024307
1782968822990098200,4.11609814453125,-0.5192348957061768,0.2582930624485016,0.1135563924908638
1782968823000024300,4.1260244140625,-0.48907995223999023,0.12012241035699844,0.11257901042699814
1782968823009951200,4.135951171875,-0.4656590521335602,-0.04598187282681465,0.05368426814675331
1782968823019877400,4.14587744140625,-0.45842668414115906,-0.20958945155143738,-0.04916355013847351
1782968823029803300,4.15580322265625,-0.4929252862930298,-0.34447455406188965,-0.18395252525806427
1782968823039730400,4.16573046875,-0.5668498277664185,-0.40646496415138245,-0.3394944369792938
1782968823049656300,4.17565625,-0.677687406539917,-0.3540952205657959,-0.4886682331562042
1782968823059582500,4.18558251953125,-0.8203561305999756,-0.18943171203136444,-0.6066467761993408
1782968823069509400,4.19550927734375,-0.9604272246360779,0.06676305085420609,-0.6685812473297119
1782968823079435300,4.205435302734375,-1.0677601099014282,0.35642388463020325,-0.654456377029419
1782968823089361400,4.215361328125,-1.1200346946716309,0.5870925188064575,-0.5717255473136902
1782968823099288600,4.22528857421875,-1.1183524131774902,0.7224868535995483,-0.43085578083992004
1782968823109214200,4.235214111328125,-1.0909290313720703,0.750914454460144,-0.29375332593917847
1782968823119140400,4.245140380859375,-1.040137767791748,0.6579323410987854,-0.21269789338111877
1782968823129066500,4.25506640625,-0.9873531460762024,0.47245675325393677,-0.21626944839954376
1782968823138993200,4.2649931640625,-0.9452951550483704,0.25095072388648987,-0.29756537079811096
1782968823148919300,4.274919189453125,-0.9260721802711487,0.05427335947751999,-0.4251968264579773
1782968823158845400,4.284845458984375,-0.9455641508102417,-0.05938715860247612,-0.573311448097229
1782968823168772400,4.2947724609375,-1.0087350606918335,-0.08709202706813812,-0.7258844971656799
1782968823178698200,4.3046982421875,-1.0968811511993408,-0.07335144281387329,-0.8690957427024841
1782968823188624400,4.314624267578125,-1.190853238105774,-0.03297925367951393,-0.9759864807128906
1782968823198551300,4.32455126953125,-1.2780715227127075,0.01224841084331274,-1.0255790948867798
1782968823208477200,4.334477294921875,-1.3310753107070923,0.031376563012599945,-0.9903395771980286
1782968823218403300,4.3444033203125,-1.3426140546798706,0.030545126646757126,-0.9022771120071411
1782968823228331300,4.354331298828125,-1.2991999387741089,-0.025108549743890762,-0.8109298944473267
1782968823238257400,4.36425732421875,-1.2131729125976562,-0.09215708822011948,-0.7714685201644897
1782968823248184300,4.374184326171875,-1.1090081930160522,-0.15157674252986908,-0.7705113291740417
1782968823258110200,4.384110107421875,-1.019518494606018,-0.18782156705856323,-0.7854858040809631
1782968823268036400,4.394036376953125,-0.9504979252815247,-0.18899734318256378,-0.7987472414970398
1782968823277963500,4.403963623046875,-0.9087802767753601,-0.17525304853916168,-0.810090184211731
1782968823287889200,4.41388916015625,-0.8774617910385132,-0.17232675850391388,-0.7991155385971069
1782968823297815300,4.423815185546875,-0.8318870663642883,-0.13987214863300323,-0.7566828727722168
1782968823307742500,4.433742431640625,-0.7853411436080933,-0.08630186319351196,-0.6871531009674072
1782968823317668400,4.44366845703125,-0.722740888595581,-0.019340941682457924,-0.6100532412528992
1782968823327594200,4.45359423828125,-0.6576468348503113,0.058034539222717285,-0.5500586032867432
1782968823337521400,4.463521484375,-0.5951499342918396,0.10503986477851868,-0.5220528244972229
1782968823347447300,4.473447265625,-0.5427855253219604,0.10940132290124893,-0.5148577690124512
1782968823357373200,4.483373291015625,-0.5120654106140137,0.09681069850921631,-0.5243484377861023
1782968823367300400,4.49330029296875,-0.5100006461143494,0.1003044992685318,-0.5658823251724243
1782968823377226200,4.503226318359375,-0.4953562021255493,0.1625409722328186,-0.6653149127960205
1782968823387152400,4.51315234375,-0.4819490611553192,0.2582065165042877,-0.8154388666152954
1782968823397079600,4.52307958984375,-0.4640432894229889,0.36116912961006165,-0.9901164174079895
1782968823407005200,4.533005126953125,-0.45851218700408936,0.49652373790740967,-1.1930793523788452
1782968823416931300,4.542931396484375,-0.31237441301345825,0.4827253818511963,-1.138176679611206
1782968823426857500,4.552857421875,-0.12560293078422546,0.3364621698856354,-0.9029276967048645
1782968823436784400,4.562784423828125,0.1591305285692215,0.14352893829345703,-0.5998189449310303
1782968823446710300,4.572710205078125,0.4261888563632965,0.03981585428118706,-0.2383079081773758
1782968823456636400,4.582636474609375,0.6749086380004883,-0.09508203715085983,0.13064296543598175
1782968823466563600,4.5925634765625,0.8756036758422852,-0.2190340757369995,0.42963287234306335
1782968823476489200,4.6024892578125,1.0006694793701172,-0.25802168250083923,0.5885218381881714
1782968823486415400,4.612415283203125,1.085510015487671,-0.23897503316402435,0.6296325325965881
1782968823496342500,4.622342529296875,1.1127277612686157,-0.17454437911510468,0.5970104336738586
1782968823506268200,4.63226806640625,1.091713309288025,-0.10699063539505005,0.5179933309555054
1782968823516194300,4.6421943359375,1.026023268699646,-0.07263638824224472,0.39869225025177
1782968823526121500,4.65212158203125,0.9432056546211243,-0.05867236852645874,0.30491435527801514
1782968823536047400,4.66204736328125,0.8686211705207825,-0.07526332885026932,0.2716991603374481
1782968823545973200,4.67197314453125,0.8551761507987976,-0.10776321589946747,0.31183192133903503
1782968823555900400,4.681900390625,0.904306173324585,-0.10737572610378265,0.41069191694259644
1782968823565826300,4.691826416015625,1.0060306787490845,-0.07468249648809433,0.5501723289489746
1782968823575752200,4.701752197265625,1.139135479927063,-0.009273925796151161,0.6967801451683044
1782968823585679400,4.711679443359375,1.2867558002471924,0.050625625997781754,0.8325518369674683
1782968823595605200,4.721605224609375,1.401572346687317,0.0970221534371376,0.9314938187599182
1782968823605531400,4.731531494140625,1.4647998809814453,0.10355621576309204,0.98260098695755
1782968823615457300,4.741457275390625,1.4878010749816895,0.039860598742961884,1.0103873014450073
1782968823625384400,4.751384521484375,1.4915605783462524,-0.0963720753788948,1.0035030841827393
1782968823635310300,4.761310302734375,1.4879648685455322,-0.24795760214328766,0.9770306944847107
1782968823645236200,4.771236328125,1.4933462142944336,-0.3855269253253937,0.9392271637916565
1782968823655163400,4.781163330078125,1.4801005125045776,-0.5067899823188782,0.898849606513977
1782968823665089300,4.79108935546875,1.4440058469772339,-0.5879223942756653,0.8521255254745483
1782968823675015400,4.801015380859375,1.3777179718017578,-0.618739664554596,0.8004018664360046
1782968823684942300,4.8109423828125,1.293365478515625,-0.5885290503501892,0.7411702275276184
1782968823694868200,4.8208681640625,1.188081979751587,-0.5149573683738708,0.6629060506820679
1782968823704794400,4.83079443359375,1.0799767971038818,-0.43541219830513,0.5601416230201721
1782968823714721500,4.840721435546875,0.971179187297821,-0.39643681049346924,0.4541246294975281
1782968823724647200,4.850647216796875,0.8764886260032654,-0.3846350312232971,0.38292980194091797
1782968823734573300,4.8605732421875,0.7887880802154541,-0.37218475341796875,0.3751496374607086
1782968823744501000,4.8705009765625,0.7174881100654602,-0.3538443446159363,0.4151524603366852
1782968823754427000,4.880427001953125,0.6633660197257996,-0.3279688060283661,0.4529581665992737
1782968823764353000,4.89035302734375,0.6459609270095825,-0.29843994975090027,0.46625158190727234
1782968823774279200,4.900279052734375,0.6353369951248169,-0.26924052834510803,0.4506470561027527
1782968823784206000,4.9102060546875,0.6221234798431396,-0.25125807523727417,0.41686221957206726
1782968823794132000,4.920132080078125,0.612975537776947,-0.23142656683921814,0.40116074681282043
1782968823804058000,4.93005810546875,0.6053774952888489,-0.20659898221492767,0.40692275762557983
1782968823813985000,4.939985107421875,0.5937512516975403,-0.15947115421295166,0.3778093457221985
1782968823823911000,4.949910888671875,0.5884637832641602,-0.15910975635051727,0.386107474565506
1782968823833837000,4.959837158203125,0.5761458873748779,-0.21164780855178833,0.42145854234695435
1782968823843764000,4.969763916015625,0.5430057644844055,-0.24925003945827484,0.4386362135410309
1782968823853690000,4.979690185546875,0.4996494948863983,-0.27191513776779175,0.45149049162864685
1782968823863616000,4.989615966796875,0.4500387907028198,-0.27998530864715576,0.4441998302936554
1782968823873543000,4.99954296875,0.3984352648258209,-0.26728442311286926,0.41027966141700745
1782968823883469000,5.009468994140625,0.33741745352745056,-0.22585363686084747,0.3368730843067169
1782968823893395000,5.01939501953125,0.2516290545463562,-0.1839674413204193,0.21495838463306427
1782968823903321900,5.02932177734375,0.12669242918491364,-0.13539591431617737,0.05077289789915085
1782968823913248000,5.039248046875,-0.02516074664890766,-0.07247073948383331,-0.14543841779232025
1782968823923174100,5.049174072265625,-0.17747758328914642,0.005673864856362343,-0.3296852111816406
1782968823933100000,5.05910009765625,-0.30694448947906494,0.10246032476425171,-0.46009597182273865
1782968823943027000,5.06902685546875,-0.39896681904792786,0.21510671079158783,-0.5005605816841125
1782968823952953000,5.078953125,-0.44910162687301636,0.3696664571762085,-0.44288021326065063
1782968823962879200,5.088879150390625,-0.450622022151947,0.5091716051101685,-0.33089137077331543
1782968823972806000,5.098805908203125,-0.4064370095729828,0.5903812646865845,-0.18577279150485992
1782968823982732000,5.10873193359375,-0.3419749140739441,0.604843020439148,-0.03898947685956955
1782968823992658200,5.118658203125,-0.2767801880836487,0.5089316964149475,0.07275809347629547
1782968824002585000,5.128585205078125,-0.2472555935382843,0.310109406709671,0.11487837880849838
1782968824012511000,5.138510986328125,-0.23097223043441772,0.14333079755306244,0.10985299944877625
1782968824022437000,5.14843701171875,-0.2176351249217987,0.015533952042460442,0.035649072378873825
1782968824032364000,5.158364013671875,-0.2645067572593689,-0.14753246307373047,-0.10685134679079056
1782968824042290000,5.1682900390625,-0.34400689601898193,-0.20946267247200012,-0.25057896971702576
1782968824052216000,5.178216064453125,-0.42873990535736084,-0.19130098819732666,-0.3791678249835968
1782968824062143000,5.18814306640625,-0.5276520848274231,-0.114589162170887,-0.45887491106987
1782968824072069000,5.198069091796875,-0.6180933117866516,0.02370506338775158,-0.4700561761856079
1782968824081995000,5.2079951171875,-0.6627204418182373,0.26030588150024414,-0.4699866771697998
1782968824091922000,5.217921875,-0.666402280330658,0.4390029311180115,-0.46007224917411804
1782968824101848000,5.22784814453125,-0.6702718138694763,0.4599931538105011,-0.44244399666786194
1782968824111774000,5.23777392578125,-0.6895933151245117,0.4547525942325592,-0.472433865070343
1782968824121701000,5.247701171875,-0.689038872718811,0.43466198444366455,-0.5461546778678894
1782968824131627000,5.257626953125,-0.7250261306762695,0.30554261803627014,-0.6485835909843445
1782968824141553200,5.26755322265625,-0.7922400832176208,0.15113146603107452,-0.7258219122886658
1782968824151479000,5.27747900390625,-0.8459019660949707,0.0035390746779739857,-0.7685800194740295
1782968824161406000,5.287406005859375,-0.8768822550773621,-0.16378387808799744,-0.8107213377952576
1782968824171332000,5.29733203125,-0.899903416633606,-0.2863862216472626,-0.8470029234886169
1782968824181258000,5.307258056640625,-0.8704773783683777,-0.2339472472667694,-0.8805132508277893
1782968824191185000,5.317184814453125,-0.843108594417572,-0.13631708920001984,-0.9575499296188354
1782968824201111000,5.327111083984375,-0.8627291917800903,-0.035590749233961105,-1.0368133783340454
1782968824211037200,5.337037109375,-0.9061570763587952,0.05808407440781593,-1.0747554302215576
1782968824220963800,5.3469638671875,-0.9868945479393005,0.15850841999053955,-1.0524487495422363
1782968824230890000,5.356889892578125,-1.0782550573349,0.14782275259494781,-1.014345645904541
1782968824240816000,5.366816162109375,-1.1594327688217163,0.08081921190023422,-0.9794387221336365
1782968824250743000,5.376742919921875,-1.224251627922058,-0.022352976724505424,-0.9427792429924011
1782968824260669000,5.3866689453125,-1.280808448791504,-0.10810703039169312,-0.9230591058731079
1782968824270595000,5.396594970703125,-1.3242179155349731,-0.14816869795322418,-0.9253637790679932
1782968824280521200,5.406521240234375,-1.307347059249878,-0.17167001962661743,-0.8540933132171631
1782968824290448000,5.41644775390625,-1.2655272483825684,-0.14188656210899353,-0.7417768836021423
1782968824300374000,5.4263740234375,-1.1975181102752686,-0.08939539641141891,-0.6248252391815186
1782968824310300200,5.436300048828125,-1.1119786500930786,-0.023631559684872627,-0.5081948041915894
1782968824320227000,5.44622705078125,-1.0374979972839355,0.022774022072553635,-0.4044116735458374
1782968824330153000,5.456153076171875,-1.0016785860061646,0.061833009123802185,-0.3447573781013489
1782968824340079000,5.4660791015625,-1.0222759246826172,0.09604104608297348,-0.3497209846973419
1782968824350006000,5.476006103515625,-1.1263810396194458,0.13247708976268768,-0.39735668897628784
1782968824359932000,5.485931884765625,-1.2576314210891724,0.14574867486953735,-0.4698423445224762
1782968824369858000,5.495858154296875,-1.4340629577636719,0.15649427473545074,-0.5087196826934814
1782968824379785000,5.505784912109375,-1.526094913482666,0.10767240077257156,-0.45434778928756714
1782968824389711000,5.515711181640625,-1.45399010181427,0.14199122786521912,-0.3554089665412903
1782968824399637000,5.525636962890625,-1.2867515087127686,0.4557400941848755,-0.21220439672470093
1782968824409564000,5.53556396484375,-1.0203078985214233,0.8122859597206116,-0.30734315514564514
1782968824419490000,5.545489990234375,-0.7160824537277222,1.0629171133041382,-0.4245757758617401
1782968824429416200,5.555416259765625,-0.4236801564693451,1.0395820140838623,-0.3780066967010498
1782968824439342800,5.5653427734375,-0.20962274074554443,0.666996955871582,-0.1905907243490219
1782968824449269000,5.57526904296875,-0.07683006674051285,0.14078961312770844,0.00811891257762909
1782968824459195100,5.585195068359375,0.029943784698843956,-0.3199518918991089,0.19316066801548004
1782968824469121000,5.59512109375,0.15630970895290375,-0.6087222099304199,0.349116712808609
1782968824479048000,5.6050478515625,0.2924710214138031,-0.6549104452133179,0.49213725328445435
1782968824488974000,5.61497412109375,0.4112565219402313,-0.49224963784217834,0.6313867568969727
1782968824498900200,5.624900146484375,0.4862665832042694,-0.19665713608264923,0.7300981283187866
1782968824508827000,5.634826904296875,0.5184834003448486,0.13352316617965698,0.7563457489013672
1782968824518753000,5.6447529296875,0.5149331092834473,0.4141883850097656,0.7149359583854675
1782968824528679200,5.65467919921875,0.49393993616104126,0.6214004158973694,0.6214355826377869
1782968824538606000,5.664606201171875,0.4607524275779724,0.7368441820144653,0.5030575394630432
1782968824548532000,5.674531982421875,0.4139556288719177,0.7727643847465515,0.39197948575019836
1782968824558458000,5.6844580078125,0.36742275953292847,0.6840278506278992,0.29756057262420654
1782968824568385000,5.694385009765625,0.4163450300693512,0.5245724320411682,0.2738368809223175
1782968824578311000,5.704310791015625,0.5506862998008728,0.3216336965560913,0.33117738366127014
1782968824588237000,5.714237060546875,0.7350271344184875,0.1273702085018158,0.44663020968437195
1782968824598164000,5.7241640625,0.9387658834457397,-0.030912907794117928,0.5958870649337769
1782968824608090000,5.734090087890625,1.1524763107299805,-0.14365996420383453,0.7634537220001221
1782968824618016000,5.74401611328125,1.3465664386749268,-0.22515003383159637,0.9302772879600525
1782968824627942100,5.753942138671875,1.4951283931732178,-0.25160932540893555,1.0762046575546265
1782968824637869000,5.763869140625,1.5713952779769897,-0.2517555356025696,1.1657689809799194
1782968824647795000,5.773794921875,1.5911060571670532,-0.23959395289421082,1.1888902187347412
1782968824657721000,5.78372119140625,1.552235722541809,-0.20944350957870483,1.1362930536270142
1782968824667648000,5.79364794921875,1.4819849729537964,-0.17722484469413757,1.0350629091262817
1782968824677574100,5.80357421875,1.4135571718215942,-0.14430232346057892,0.8888838291168213
1782968824687500000,5.8135,1.3837369680404663,-0.1728452742099762,0.8092448711395264
1782968824697427000,5.823427001953125,1.3778060674667358,-0.25279471278190613,0.7746767997741699
1782968824707353000,5.83335302734375,1.371057391166687,-0.3318948447704315,0.7597183585166931
1782968824717279000,5.843279052734375,1.3501635789871216,-0.4050412178039551,0.7406749129295349
1782968824727206000,5.853205810546875,1.3031933307647705,-0.4578048586845398,0.7081262469291687
1782968824737132000,5.863132080078125,1.2218897342681885,-0.5262294411659241,0.6588524580001831
1782968824747058200,5.87305810546875,1.0980095863342285,-0.5641059875488281,0.6383786201477051
1782968824756985000,5.882985107421875,0.942859947681427,-0.5306987762451172,0.6443965435028076
1782968824766911000,5.892910888671875,0.7956289649009705,-0.4391704499721527,0.6491380333900452
1782968824776837000,5.902837158203125,0.6932083368301392,-0.3274194002151489,0.6174759864807129
1782968824786763300,5.91276318359375,0.6214587688446045,-0.21990972757339478,0.5535838603973389
1782968824796690000,5.92268994140625,0.5679095387458801,-0.11022770404815674,0.47967711091041565
1782968824806616000,5.932615966796875,0.5381953120231628,-0.0011773834703490138,0.40070053935050964
1782968824816542200,5.942542236328125,0.5159741640090942,0.10523267835378647,0.356925368309021
1782968824826469000,5.95246923828125,0.4935348927974701,0.16590215265750885,0.37782639265060425
1782968824836395000,5.96239501953125,0.46770673990249634,0.18605774641036987,0.4303756058216095
1782968824846321200,5.972321044921875,0.46123844385147095,0.17812472581863403,0.47880467772483826
1782968824856248000,5.982248046875,0.46841806173324585,0.10453572869300842,0.5191907286643982
1782968824866174200,5.99217431640625,0.48525965213775635,-0.01070857048034668,0.5472087860107422
1782968824876100000,6.00210009765625,0.4903998076915741,-0.13386058807373047,0.5646750926971436
1782968824886027000,6.012027099609375,0.481331467628479,-0.2631935477256775,0.5683335065841675
1782968824895953200,6.021953125,0.4565398395061493,-0.3524853587150574,0.5490013360977173
1782968824905879000,6.031879150390625,0.4002552628517151,-0.36832448840141296,0.5128180384635925
1782968824915806000,6.041805908203125,0.31247028708457947,-0.3388121426105499,0.4335429072380066
1782968824925732000,6.051732177734375,0.20090754330158234,-0.27186399698257446,0.3079919219017029
1782968824935658200,6.061658203125,0.05873548611998558,-0.17851407825946808,0.129913792014122
1782968824945585000,6.0715849609375,-0.11643446981906891,-0.07712487876415253,-0.09753134846687317
1782968824955511000,6.081510986328125,-0.2918323874473572,0.044440168887376785,-0.318520188331604
1782968824965437200,6.091437255859375,-0.44360700249671936,0.17940756678581238,-0.4871153235435486
1782968824975363000,6.101363037109375,-0.5484095811843872,0.3012506663799286,-0.5625674724578857
1782968824985290000,6.1112900390625,-0.5862360596656799,0.40994730591773987,-0.5527249574661255
1782968824995216100,6.121216064453125,-0.5527470707893372,0.5002068877220154,-0.49144697189331055
1782968825005142300,6.131142333984375,-0.4663591980934143,0.5524138808250427,-0.37232083082199097
1782968825015069000,6.14106884765625,-0.3647763729095459,0.48297038674354553,-0.19586217403411865
1782968825024995000,6.1509951171875,-0.2853856682777405,0.3258734345436096,-0.05735010653734207
1782968825034921200,6.160921142578125,-0.22141042351722717,0.1519881933927536,-0.014308897778391838
1782968825044848000,6.17084814453125,-0.20004360377788544,-0.045344047248363495,-0.04037964716553688
1782968825054774000,6.18077392578125,-0.2190694957971573,-0.24403317272663116,-0.12782640755176544
1782968825064700200,6.1907001953125,-0.27522969245910645,-0.4063784182071686,-0.2456047087907791
1782968825074627000,6.200626953125,-0.3445941209793091,-0.48616963624954224,-0.3629419803619385
1782968825084553000,6.210552978515625,-0.4244958758354187,-0.44371166825294495,-0.46297457814216614
1782968825094479000,6.22047900390625,-0.5068597197532654,-0.30902495980262756,-0.5409199595451355
1782968825104405200,6.2304052734375,-0.58452308177948,-0.09274351596832275,-0.5958364605903625
1782968825114332200,6.240332275390625,-0.6506565809249878,0.14555320143699646,-0.6195284724235535
1782968825124258000,6.250258056640625,-0.6945734620094299,0.3486546576023102,-0.622840940952301
1782968825134184200,6.26018408203125,-0.7274909019470215,0.4884333312511444,-0.6155960559844971
1782968825144111000,6.270111083984375,-0.7571318745613098,0.5325704216957092,-0.6129696369171143
1782968825154037000,6.280037109375,-0.7924688458442688,0.47323015332221985,-0.5956785678863525
1782968825163963100,6.289963134765625,-0.8323185443878174,0.35753071308135986,-0.56793612241745
1782968825173890000,6.29989013671875,-0.8659430742263794,0.21506516635417938,-0.5477115511894226
1782968825183816200,6.309816162109375,-0.899672269821167,0.09177891910076141,-0.5709282159805298
1782968825193742000,6.3197421875,-0.9419904351234436,0.021921277046203613,-0.6571938395500183
1782968825203669000,6.3296689453125,-0.9999243021011353,-0.011232414282858372,-0.7808223366737366
1782968825213595100,6.33959521484375,-1.0489405393600464,-0.04354694485664368,-0.9131545424461365
1782968825223521000,6.34952099609375,-1.0662175416946411,-0.10940718650817871,-1.0400573015213013
1782968825233448000,6.359447998046875,-1.040279507637024,-0.18604417145252228,-1.1137830018997192
1782968825243374000,6.3693740234375,-0.9831940531730652,-0.26980164647102356,-1.123893141746521
1782968825253300200,6.37930029296875,-0.9118676781654358,-0.3402678370475769,-1.0761690139770508
1782968825263227000,6.389226806640625,-0.8313957452774048,-0.37342286109924316,-0.9912205338478088
1782968825273153000,6.399153076171875,-0.7586072683334351,-0.35032206773757935,-0.9421568512916565
1782968825283079200,6.4090791015625,-0.6991018652915955,-0.328157901763916,-0.8642786145210266
1782968825293005000,6.419005126953125,-0.6701160669326782,-0.3178967535495758,-0.7934854030609131
1782968825302932000,6.428931884765625,-0.6864079236984253,-0.3025939464569092,-0.750464141368866
1782968825312858000,6.438858154296875,-0.7273681163787842,-0.2777189612388611,-0.7371930480003357
1782968825322784300,6.4487841796875,-0.7638283967971802,-0.23528575897216797,-0.720956027507782
1782968825332711200,6.458711181640625,-0.7908240556716919,-0.21613869071006775,-0.685310423374176
1782968825342637000,6.468636962890625,-0.8006407618522644,-0.198431596159935,-0.6503524780273438
1782968825352563200,6.478563232421875,-0.800969660282135,-0.16382861137390137,-0.6059080362319946
1782968825362490000,6.488489990234375,-0.8063721656799316,-0.10148374736309052,-0.5603541135787964
1782968825372416000,6.498416015625,-0.8146972060203552,0.035537220537662506,-0.5584251880645752
1782968825382342100,6.508342041015625,-0.8198472261428833,0.22513191401958466,-0.5808750987052917
1782968825392269000,6.51826904296875,-0.8098768591880798,0.347698837518692,-0.5247260928153992
1782968825402195200,6.5281953125,-0.7927855253219604,0.4376508295536041,-0.40351417660713196
1782968825412121000,6.53812109375,-0.7500670552253723,0.5239063501358032,-0.2427913397550583
1782968825422048000,6.548048095703125,-0.6335399150848389,0.6736234426498413,-0.1551365852355957
1782968825431974100,6.55797412109375,-0.449205219745636,0.8652088046073914,-0.12066702544689178
1782968825441900000,6.567900146484375,-0.27088290452957153,0.8741312026977539,-0.008625712245702744
1782968825451826200,6.577826171875,-0.1385621428489685,0.6389629244804382,0.14388605952262878
1782968825461753000,6.587753173828125,-0.02762150764465332,0.3170437216758728,0.2633352279663086
1782968825471679200,6.59767919921875,0.10326220840215683,0.015126754529774189,0.3327223062515259
1782968825481605000,6.607605224609375,0.27691760659217834,-0.22993838787078857,0.3801651895046234
1782968825491532000,6.617531982421875,0.47023195028305054,-0.36775273084640503,0.45662611722946167
1782968825501458200,6.627458251953125,0.6474818587303162,-0.39923474192619324,0.5995814204216003
1782968825511384000,6.637384033203125,0.7757734656333923,-0.31652575731277466,0.7911868095397949
1782968825521311000,6.64731103515625,0.8499257564544678,-0.13192154467105865,0.9696172475814819
1782968825531237000,6.657237060546875,0.8596052527427673,0.133894681930542,1.0761189460754395
1782968825541163300,6.667163330078125,0.8280470967292786,0.4175090789794922,1.0894265174865723
1782968825551090000,6.67708984375,0.7546842098236084,0.5702821016311646,0.9974774122238159
1782968825561016000,6.68701611328125,0.6590953469276428,0.5858743786811829,0.8621329069137573
1782968825570942200,6.696942138671875,0.6186621785163879,0.5399455428123474,0.7597918510437012
1782968825580869000,6.706869140625,0.6757656931877136,0.44368475675582886,0.7185016870498657
1782968825590795000,6.716794921875,0.7760371565818787,0.29792171716690063,0.7306366562843323
1782968825600721200,6.72672119140625,0.8883746266365051,0.18839921057224274,0.7970873117446899
1782968825610648000,6.73664794921875,0.9866132736206055,0.09095094352960587,0.8824560046195984
1782968825620574000,6.746573974609375,1.0751935243606567,0.008171376772224903,0.958169162273407
1782968825630500000,6.7565,1.1460753679275513,-0.02004321664571762,1.0375374555587769
1782968825640426200,6.76642626953125,1.1813558340072632,0.028901156038045883,1.1245312690734863
1782968825650353200,6.776353271484375,1.1814945936203003,0.09295923262834549,1.201522946357727
1782968825660279000,6.786279052734375,1.1582074165344238,0.17155684530735016,1.2432652711868286
1782968825670205200,6.796205078125,1.1372113227844238,0.22453376650810242,1.2501791715621948
1782968825680132000,6.806132080078125,1.1326237916946411,0.2138342559337616,1.223050594329834
1782968825690058000,6.81605810546875,1.1537916660308838,0.1385541558265686,1.159376859664917
1782968825699984100,6.825984130859375,1.1912492513656616,-0.010485930368304253,1.0646146535873413
1782968825709911000,6.8359111328125,1.2366881370544434,-0.2509070634841919,0.9664073586463928
1782968825719837200,6.845837158203125,1.2746649980545044,-0.527198851108551,0.8802234530448914
1782968825729763000,6.85576318359375,1.2927484512329102,-0.7846468687057495,0.807615339756012
1782968825739690500,6.8656904296875,1.295591950416565,-0.9436075091362,0.7278658747673035
1782968825749616600,6.87561669921875,1.292844295501709,-1.0004560947418213,0.6348278522491455
1782968825759542500,6.88554248046875,1.2786749601364136,-0.9500566124916077,0.5440558195114136
1782968825769468700,6.89546875,1.2331538200378418,-0.8035593032836914,0.46733203530311584
1782968825779395600,6.9053955078125,1.151399850845337,-0.6079136729240417,0.40787404775619507
1782968825789321700,6.91532177734375,1.0253593921661377,-0.39905843138694763,0.3644852936267853
1782968825799247600,6.92524755859375,0.8749304413795471,-0.19498573243618011,0.3131749629974365
1782968825809174500,6.935174560546875,0.7086508870124817,-0.023909593001008034,0.2537553012371063
1782968825819100700,6.9451005859375,0.5370115041732788,0.10796774923801422,0.18025632202625275
1782968825829026600,6.955026611328125,0.3699119985103607,0.22138752043247223,0.1269528865814209
1782968825838953500,6.964953369140625,0.22060081362724304,0.30703476071357727,0.08983375132083893
1782968825848879600,6.974879638671875,0.09738514572381973,0.32754990458488464,0.06265246123075485
1782968825858805800,6.9848056640625,0.061214886605739594,0.3189694583415985,0.08034943044185638
1782968825868732400,6.994732421875,0.11687815189361572,0.2580443322658539,0.15136101841926575
1782968825878658600,7.004658447265625,0.23184974491596222,0.1597936600446701,0.2574927806854248
1782968825888584700,7.014584716796875,0.3548195958137512,0.03906058520078659,0.36149802803993225
1782968825898511600,7.02451171875,0.4491109549999237,-0.0935714989900589,0.43582791090011597
1782968825908437500,7.0344375,0.4796057343482971,-0.23541970551013947,0.4528020918369293
1782968825918363600,7.04436376953125,0.43267685174942017,-0.3502853214740753,0.39098691940307617
1782968825928290600,7.05429052734375,0.3124505877494812,-0.40497544407844543,0.2743077278137207
1782968825938216400,7.064216552734375,0.13993632793426514,-0.3654956817626953,0.12997637689113617
1782968825948142600,7.074142578125,-0.06077040731906891,-0.22230097651481628,-0.0076392777264118195
1782968825958068700,7.08406884765625,-0.24638128280639648,-0.006397712044417858,-0.09980995208024979
1782968825967995600,7.09399560546875,-0.3790442645549774,0.23396243155002594,-0.1392444372177124
1782968825977921500,7.103921630859375,-0.43067842721939087,0.4431489408016205,-0.12548309564590454
1782968825987847700,7.11384765625,-0.41790854930877686,0.5791123509407043,-0.07818694412708282
1782968825997774600,7.123774658203125,-0.3613257110118866,0.6116687059402466,-0.023307986557483673
1782968826007700700,7.13370068359375,-0.3187204599380493,0.5328497886657715,0.034507643431425095
1782968826017626600,7.143626708984375,-0.2987840473651886,0.37999022006988525,0.09588125348091125
1782968826027553500,7.153553466796875,-0.2976023852825165,0.16608750820159912,0.13033084571361542
1782968826037479700,7.163479736328125,-0.32826682925224304,-0.09119223058223724,0.1094449982047081
1782968826047405600,7.173405517578125,-0.3845207691192627,-0.3539314568042755,0.0326269194483757
1782968826057332500,7.18333251953125,-0.463473916053772,-0.5750473141670227,-0.05806969478726387
1782968826067258600,7.193258544921875,-0.5522221326828003,-0.6884968876838684,-0.13738049566745758
1782968826077184800,7.203184814453125,-0.6262702941894531,-0.7105715870857239,-0.20679739117622375
1782968826087111400,7.213111328125,-0.6616860628128052,-0.6689029932022095,-0.2749607264995575
1782968826097037600,7.22303759765625,-0.6533301472663879,-0.5572070479393005,-0.3330322802066803
1782968826106963700,7.232963623046875,-0.6157121658325195,-0.3989732265472412,-0.3931600749492645
1782968826116890600,7.242890625,-0.5709103345870972,-0.22372736036777496,-0.4688175618648529
1782968826126816500,7.25281640625,-0.5458270907402039,-0.09956147521734238,-0.5414859056472778
1782968826136742700,7.26274267578125,-0.5514777898788452,-0.04844263195991516,-0.5961502194404602
1782968826146668800,7.272668701171875,-0.581895649433136,-0.08044584095478058,-0.6429813504219055
1782968826156595500,7.282595458984375,-0.6270630955696106,-0.16177824139595032,-0.6842222809791565
1782968826166521600,7.292521484375,-0.6918026804924011,-0.22817698121070862,-0.7342026233673096
1782968826176447700,7.30244775390625,-0.7805560231208801,-0.23433446884155273,-0.8339803218841553
1782968826186374700,7.312374755859375,-0.8902776837348938,-0.18019133806228638,-0.9912197589874268
1782968826196300500,7.322300537109375,-1.0150455236434937,-0.06431560963392258,-1.185845971107483
1782968826206226700,7.332226806640625,-1.149823784828186,0.0677657276391983,-1.367169976234436
1782968826216153600,7.342153564453125,-1.255798101425171,0.1793668270111084,-1.489945411682129
1782968826226079500,7.35207958984375,-1.305467128753662,0.26498985290527344,-1.5222111940383911
1782968826236005600,7.362005615234375,-1.3011664152145386,0.32450297474861145,-1.4751225709915161
1782968826245932500,7.3719326171875,-1.2729548215866089,0.3148639500141144,-1.3953195810317993
1782968826255858700,7.381858642578125,-1.2266557216644287,0.254002183675766,-1.3006415367126465
1782968826265784600,7.39178466796875,-1.1683164834976196,0.17477233707904816,-1.204125165939331
1782968826275711500,7.40171142578125,-1.0870217084884644,0.0973646342754364,-1.1204261779785156
1782968826285637600,7.4116376953125,-1.0048301219940186,0.03972584009170532,-1.0520652532577515
1782968826295563500,7.4215634765625,-0.9205005764961243,0.002466353354975581,-1.0107783079147339
1782968826305489700,7.43148974609375,-0.8497774004936218,-0.018001370131969452,-0.9900487661361694
1782968826315416600,7.44141650390625,-0.8154188990592957,-0.01600080356001854,-0.9517524838447571
1782968826325342700,7.4513427734375,-0.8318048119544983,0.020045081153512,-0.891975462436676
1782968826335268600,7.4612685546875,-0.8500173687934875,0.09345937520265579,-0.8279304504394531
1782968826345195500,7.471195556640625,-0.8462287783622742,0.23592731356620789,-0.8058466911315918
1782968826355121700,7.48112158203125,-0.8163339495658875,0.34272274374961853,-0.7247747778892517
1782968826365047600,7.491047607421875,-0.7768803238868713,0.3804650604724884,-0.6138149499893188
1782968826374974500,7.500974365234375,-0.7446427345275879,0.4204159379005432,-0.5331839919090271
1782968826384900600,7.510900634765625,-0.7085185647010803,0.46740448474884033,-0.4507160484790802
1782968826394826800,7.52082666015625,-0.654901921749115,0.4913444221019745,-0.3714028596878052
1782968826404753400,7.53075341796875,-0.582565426826477,0.536616325378418,-0.3163513243198395
1782968826414679600,7.540679443359375,-0.46786946058273315,0.6583693623542786,-0.37585005164146423
1782968826424605700,7.550605712890625,-0.37545910477638245,0.7265729308128357,-0.4394604563713074
1782968826434532600,7.56053271484375,-0.32195141911506653,0.6835945844650269,-0.4906772971153259
1782968826444458500,7.57045849609375,-0.24457992613315582,0.45606526732444763,-0.47717028856277466
1782968826454384600,7.580384521484375,-0.1435592919588089,0.11008788645267487,-0.4254479706287384
1782968826464310500,7.590310546875,-0.015084144659340382,-0.2486201971769333,-0.3406018018722534
1782968826474237700,7.60023779296875,0.15090934932231903,-0.5380184650421143,-0.17918387055397034
1782968826484163600,7.61016357421875,0.3513130247592926,-0.6795430779457092,0.04791053384542465
1782968826494089700,7.62008984375,0.5588119029998779,-0.661844789981842,0.2957592308521271
1782968826504016600,7.6300166015625,0.7627224326133728,-0.482751727104187,0.524361789226532
1782968826513942500,7.639942626953125,0.9366329312324524,-0.18847990036010742,0.6996850967407227
1782968826523868700,7.64986865234375,1.0445482730865479,0.1181064024567604,0.7954326868057251
1782968826533795600,7.659795654296875,1.0642281770706177,0.3449789583683014,0.8114899396896362
1782968826543721700,7.6697216796875,1.0107327699661255,0.47864195704460144,0.7489565014839172
1782968826553647600,7.679647705078125,0.9007266163825989,0.48507481813430786,0.6285491585731506
1782968826563574500,7.689574462890625,0.8088598251342773,0.37599998712539673,0.5311285853385925
1782968826573500700,7.699500732421875,0.7962779402732849,0.22533591091632843,0.4905276298522949
1782968826583426600,7.709426513671875,0.8357018232345581,0.020711669698357582,0.5148066282272339
1782968826593353500,7.719353515625,0.9040142893791199,-0.18791264295578003,0.6082388162612915
1782968826603279600,7.729279541015625,1.006669044494629,-0.32842394709587097,0.7606462240219116
1782968826613205800,7.739205810546875,1.146551251411438,-0.34678512811660767,0.9557275772094727
1782968826623131400,7.74913134765625,1.3107527494430542,-0.26929643750190735,1.142037272453308
1782968826633058600,7.75905859375,1.4568912982940674,-0.19367359578609467,1.2753204107284546
1782968826642984700,7.768984619140625,1.559128761291504,-0.14990560710430145,1.3637158870697021
1782968826652910600,7.77891064453125,1.5977938175201416,-0.14194542169570923,1.4097174406051636
1782968826662837500,7.78883740234375,1.593272089958191,-0.20081833004951477,1.3858264684677124
1782968826672763600,7.798763671875,1.5233582258224487,-0.3067628741264343,1.2720061540603638
1782968826682689800,7.808689697265625,1.399702548980713,-0.4258738160133362,1.063551425933838
1782968826692616400,7.818616455078125,1.2638664245605469,-0.5421079993247986,0.7944893836975098
1782968826702542600,7.82854248046875,1.1321827173233032,-0.6347386240959167,0.5131972432136536
1782968826712468700,7.83846875,1.0409880876541138,-0.6629281640052795,0.2903660535812378
1782968826722395600,7.848395751953125,0.9852433800697327,-0.6405392289161682,0.14864620566368103
1782968826732321500,7.858321533203125,0.9593340158462524,-0.5816916227340698,0.10426968336105347
1782968826742246700,7.86824658203125,0.9437246918678284,-0.49435219168663025,0.14060798287391663
1782968826752173600,7.878173583984375,0.9244233965873718,-0.4195360243320465,0.21635760366916656
1782968826762099700,7.888099609375,0.8822131156921387,-0.3754226267337799,0.3152828514575958
1782968826772025600,7.898025634765625,0.8102936744689941,-0.346802681684494,0.399704247713089
1782968826781952500,7.907952392578125,0.722970724105835,-0.3444679081439972,0.45421063899993896
1782968826791878700,7.917878662109375,0.6219099164009094,-0.37005263566970825,0.45955055952072144
1782968826801804800,7.9278046875,0.5285221338272095,-0.35961490869522095,0.4291122257709503
1782968826811730700,7.937730712890625,0.4411824643611908,-0.2965525686740875,0.37116608023643494
1782968826821657600,7.94765771484375,0.35865217447280884,-0.15965384244918823,0.290200412273407
1782968826831583700,7.957583740234375,0.2693140208721161,0.018578743562102318,0.19460250437259674
1782968826841509600,7.967509521484375,0.18571846187114716,0.2205243855714798,0.11985929310321808
1782968826851436500,7.9774365234375,0.14181199669837952,0.4244764447212219,0.07808148860931396
1782968826861361000,7.98736083984375,0.14252252876758575,0.5825185179710388,0.06382052600383759
1782968826871287600,7.99728759765625,0.17395395040512085,0.6520592570304871,0.05781376361846924
1782968826881213700,8.007213623046875,0.20890368521213531,0.6082366704940796,0.059844426810741425
1782968826891139800,8.017139892578125,0.23107795417308807,0.45335283875465393,0.06875056773424149
1782968826901066800,8.027066650390625,0.24070662260055542,0.20923630893230438,0.055819589644670486
1782968826910992600,8.03699267578125,0.2171642780303955,-0.08082134276628494,0.022066952660679817
1782968826920918800,8.046918701171874,0.17441041767597198,-0.35157668590545654,-0.03242158889770508
1782968826930845700,8.056845703125,0.09768714755773544,-0.5290462970733643,-0.1192355826497078
1782968826940771600,8.066771484375,-0.011567972600460052,-0.5635563135147095,-0.2409348487854004
1782968826950697700,8.07669775390625,-0.137256920337677,-0.4356183111667633,-0.37073758244514465
1782968826960624600,8.086624755859376,-0.2572192847728729,-0.17646664381027222,-0.4673416316509247
1782968826970550800,8.09655078125,-0.36682432889938354,0.137684628367424,-0.5055564045906067
1782968826980476700,8.1064765625,-0.4276258945465088,0.4267180263996124,-0.46584492921829224
1782968826990403600,8.116403564453124,-0.4455071687698364,0.61051344871521,-0.3647601306438446
1782968827000329700,8.126329833984375,-0.43294262886047363,0.6704145669937134,-0.2338295429944992
1782968827010255600,8.136255615234376,-0.38932645320892334,0.6185916066169739,-0.104295514523983
1782968827020181800,8.146181640625,-0.3097280263900757,0.4839847683906555,0.0041489386931061745
1782968827030108700,8.156108642578126,-0.24597008526325226,0.32514479756355286,0.05738579481840134
1782968827040034800,8.166034912109374,-0.22089456021785736,0.1666576862335205,0.03257099166512489
1782968827049960700,8.175960693359375,-0.2521022856235504,0.04277249798178673,-0.050398193299770355
1782968827059887600,8.1858876953125,-0.3287765681743622,-0.024054203182458878,-0.1670430451631546
1782968827069813800,8.195813720703125,-0.4440251290798187,-0.03320322558283806,-0.29102012515068054
1782968827079739600,8.20573974609375,-0.5611637234687805,-0.00011478224041638896,-0.3978025019168854
1782968827089666600,8.21566650390625,-0.6499447226524353,0.07915660738945007,-0.4704931974411011
1782968827099592700,8.2255927734375,-0.7104663848876953,0.18022702634334564,-0.5278505086898804
1782968827109518800,8.235518798828124,-0.757117509841919,0.28471001982688904,-0.5657765865325928
1782968827119445800,8.24544580078125,-0.8073425889015198,0.34985122084617615,-0.5924380421638489
1782968827129371600,8.25537158203125,-0.8556116223335266,0.3302990794181824,-0.6287126541137695
1782968827139297800,8.2652978515625,-0.891383171081543,0.1831628978252411,-0.662747859954834
1782968827149224700,8.275224609375,-0.9003801345825195,-0.18433521687984467,-0.657432496547699
1782968827159150600,8.285150634765625,-0.8528456687927246,-0.7159703373908997,-0.5816159844398499
1782968827169076700,8.29507666015625,-0.7387459874153137,-1.2307779788970947,-0.4576178789138794
1782968827179003000,8.3050029296875,-0.6016703844070435,-1.5349924564361572,-0.35415515303611755
1782968827188929800,8.3149296875,-0.4952835142612457,-1.574082612991333,-0.337911993265152
1782968827198855700,8.324855712890624,-0.4585728943347931,-1.3620388507843018,-0.41878393292427063
1782968827208781800,8.33478173828125,-0.4946669936180115,-0.9627942442893982,-0.5681790113449097
1782968827218708700,8.344708740234376,-0.5766904950141907,-0.5088791847229004,-0.7588136792182922
1782968827228634600,8.354634521484375,-0.6992424726486206,-0.10145285725593567,-0.9543741345405579
1782968827238560800,8.364560791015625,-0.8521329760551453,0.21799784898757935,-1.1002389192581177
1782968827248487700,8.37448779296875,-1.006377935409546,0.4049445688724518,-1.1607052087783813
1782968827258413800,8.384413818359375,-1.1346254348754883,0.4535999894142151,-1.129502773284912
1782968827268339700,8.394339599609374,-1.198248267173767,0.3949635624885559,-1.0533156394958496
1782968827278266600,8.4042666015625,-1.1935791969299316,0.2761354446411133,-0.9526702165603638
1782968827288192800,8.41419287109375,-1.1108773946762085,0.16898423433303833,-0.8413181304931641
1782968827298118700,8.42411865234375,-0.9647588729858398,0.10896110534667969,-0.7181035280227661
1782968827308045600,8.434045654296876,-0.8048834204673767,0.04820534586906433,-0.5905932784080505
1782968827317971700,8.4439716796875,-0.6726295351982117,0.005650694947689772,-0.478752464056015
1782968827327897900,8.45389794921875,-0.5811198353767395,0.017236510291695595,-0.36969417333602905
1782968827337823700,8.46382373046875,-0.5212053656578064,0.04890256002545357,-0.277761846780777
1782968827347750700,8.473750732421875,-0.5154260396957397,0.15338130295276642,-0.27902257442474365
1782968827357676800,8.4836767578125,-0.49013057351112366,0.2839598059654236,-0.24474024772644043
1782968827367602700,8.493602783203125,-0.42207321524620056,0.41605260968208313,-0.25570154190063477
1782968827377529600,8.503529541015626,-0.34126386046409607,0.7136227488517761,-0.46093645691871643
1782968827387455700,8.513455810546875,-0.27101126313209534,1.005548357963562,-0.6750519275665283
1782968827397382000,8.5233818359375,-0.27479347586631775,1.1138449907302856,-0.7292706966400146
1782968827407308500,8.53330859375,-0.22214998304843903,0.9729768633842468,-0.6002640128135681
1782968827417234700,8.543234619140625,-0.19235293567180634,0.7148398160934448,-0.34825998544692993
1782968827427160800,8.553160888671876,-0.15493738651275635,0.3753134310245514,-0.05672692880034447
1782968827437087700,8.563087646484375,-0.03891437500715256,0.025589516386389732,0.19675034284591675
1782968827447013600,8.573013671875,0.12419438362121582,-0.22412312030792236,0.39531031250953674
1782968827456939800,8.582939697265624,0.28213396668434143,-0.3191942274570465,0.5585748553276062
1782968827466866700,8.59286669921875,0.4481112062931061,-0.2873436212539673,0.6646674871444702
1782968827476792600,8.60279248046875,0.5957978963851929,-0.14168629050254822,0.7141072154045105
1782968827486718700,8.61271875,0.6852813959121704,0.06404636055231094,0.7118560075759888
1782968827496644600,8.62264453125,0.6963433623313904,0.2620678246021271,0.6720343232154846
1782968827506571800,8.63257177734375,0.6570689678192139,0.3942977786064148,0.6064233183860779
1782968827516497700,8.64249755859375,0.598482608795166,0.43903860449790955,0.5281423926353455
1782968827526423800,8.652423828125,0.5407527089118958,0.35254740715026855,0.43845751881599426
1782968827536350700,8.662350830078125,0.4717153310775757,0.1211802214384079,0.37414056062698364
1782968827546276600,8.672276611328124,0.40878617763519287,-0.2245606780052185,0.3746812045574188
1782968827556202800,8.68220263671875,0.4419369399547577,-0.5323365926742554,0.4636491537094116
1782968827566129700,8.692129638671876,0.5799792408943176,-0.7470393180847168,0.64435875415802
1782968827576055800,8.702055908203125,0.7806092500686646,-0.780193567276001,0.8822898268699646
1782968827585981700,8.711981689453125,1.0096267461776733,-0.6403512358665466,1.120072603225708
1782968827595908600,8.72190869140625,1.2272999286651611,-0.36501818895339966,1.2966800928115845
1782968827605834800,8.731834716796875,1.3941240310668945,-0.054971374571323395,1.3773466348648071
1782968827615761000,8.741760986328124,1.478060245513916,0.19417241215705872,1.3612233400344849
1782968827625687600,8.7516875,1.4821321964263916,0.3838917315006256,1.2745782136917114
1782968827635613700,8.76161376953125,1.4243009090423584,0.4797263741493225,1.1502578258514404
1782968827645539800,8.771539794921875,1.316145420074463,0.48139485716819763,0.9918932914733887
1782968827655466800,8.781466796875,1.1646714210510254,0.41951391100883484,0.8097224235534668
1782968827665392600,8.791392578125,1.0412431955337524,0.38202807307243347,0.6490728259086609
1782968827675318800,8.80131884765625,0.9685181975364685,0.32571685314178467,0.5502279996871948
1782968827685244700,8.81124462890625,0.9002624154090881,0.19685207307338715,0.49470534920692444
1782968827695171600,8.821171630859375,0.8774391412734985,0.01426415704190731,0.4576330780982971
1782968827705097700,8.83109765625,0.8863285183906555,-0.21176232397556305,0.412623792886734
1782968827715024000,8.84102392578125,0.9058228135108948,-0.44449383020401,0.36671727895736694
1782968827724950800,8.85095068359375,0.9187671542167664,-0.6180301904678345,0.31827810406684875
1782968827734876700,8.860876708984375,0.9146022200584412,-0.6835016012191772,0.29993265867233276
1782968827744803000,8.870802978515625,0.885541558265686,-0.6286082863807678,0.30830296874046326
1782968827754730000,8.88072998046875,0.8249548673629761,-0.4732415974140167,0.322628915309906
1782968827764656000,8.89065625,0.7195642590522766,-0.2644849121570587,0.31958118081092834
1782968827774582300,8.900582275390626,0.5740923285484314,-0.033428795635700226,0.30644407868385315
1782968827784509200,8.91050927734375,0.4307210147380829,0.1778096705675125,0.2945519983768463
1782968827794435000,8.92043505859375,0.32958775758743286,0.34576672315597534,0.28251877427101135
1782968827804361200,8.930361328125,0.26198768615722656,0.4438709318637848,0.2595798969268799
1782968827814288100,8.9402880859375,0.21953821182250977,0.47638463973999023,0.23467935621738434
1782968827824214000,8.950214111328124,0.19846248626708984,0.4348214864730835,0.20840246975421906
1782968827834140200,8.96014013671875,0.1977197378873825,0.3399224281311035,0.2067965865135193
1782968827844066000,8.970066162109376,0.21262358129024506,0.22041253745555878,0.23579947650432587
1782968827853993200,8.9799931640625,0.2376013696193695,0.09141326695680618,0.27620843052864075
1782968827863919000,8.989919189453126,0.2486870437860489,-0.02340332604944706,0.3166802227497101
1782968827873845000,8.999844970703125,0.23346388339996338,-0.11383069306612015,0.33513617515563965
1782968827883772200,9.009772216796875,0.17839664220809937,-0.18596720695495605,0.2981901466846466
1782968827893698000,9.019697998046874,0.07986367493867874,-0.23915453255176544,0.1965615302324295
1782968827903624000,9.0296240234375,-0.05257426202297211,-0.25744643807411194,0.04782265052199364
1782968827913551000,9.039551025390624,-0.21005523204803467,-0.20128729939460754,-0.09651561826467514
1782968827923477200,9.049477294921875,-0.36509355902671814,-0.0725487694144249,-0.18815553188323975
1782968827933403100,9.059403076171876,-0.4872815012931824,0.10697678476572037,-0.20686130225658417
1782968827943330000,9.069330078125,-0.5471424460411072,0.2979070544242859,-0.15469184517860413
1782968827953256200,9.079256103515625,-0.5467616319656372,0.4691632390022278,-0.04500848799943924
1782968827963182000,9.08918212890625,-0.4949045479297638,0.54850172996521,0.06873245537281036
1782968827973109000,9.09910888671875,-0.4409361183643341,0.5054160356521606,0.1229429692029953
1782968827983035100,9.10903515625,-0.40533551573753357,0.3728872835636139,0.13980157673358917
1782968827992961300,9.118961181640625,-0.40473923087120056,0.21834592521190643,0.13692456483840942
1782968828002888000,9.128887939453126,-0.4435204565525055,0.05288185551762581,0.11207007616758347
1782968828012814000,9.13881396484375,-0.5215209722518921,-0.08168900012969971,0.051423508673906326
1782968828022740200,9.148740234375,-0.6371479630470276,-0.17571403086185455,-0.053522348403930664
1782968828032665900,9.158665771484374,-0.7692588567733765,-0.2094419002532959,-0.21740901470184326
1782968828042593000,9.168593017578125,-0.9046595692634583,-0.16054919362068176,-0.3832741379737854
1782968828052519200,9.178519287109374,-1.0363664627075195,-0.030222883448004723,-0.5307278037071228
1782968828062445000,9.188445068359375,-1.1522361040115356,0.12827888131141663,-0.6319577097892761
1782968828072372000,9.1983720703125,-1.2162315845489502,0.2794625461101532,-0.6791194081306458
1782968828082298000,9.208298095703125,-1.2365754842758179,0.418308287858963,-0.6793262958526611
1782968828092224000,9.21822412109375,-1.2210263013839722,0.5155631899833679,-0.6790258884429932
1782968828102151200,9.228151123046874,-1.2039200067520142,0.5373904705047607,-0.6978546977043152
1782968828112077000,9.2380771484375,-1.1759017705917358,0.47958284616470337,-0.7269681096076965
1782968828122003200,9.248003173828126,-1.1437355279922485,0.35177695751190186,-0.7455666065216064
1782968828131930000,9.25793017578125,-1.1021548509597778,0.16080273687839508,-0.7605324983596802
1782968828141856000,9.26785595703125,-1.0437889099121094,-0.03431030362844467,-0.7682090401649475
1782968828151782100,9.2777822265625,-0.9961873292922974,-0.19403311610221863,-0.7855827212333679
1782968828161709000,9.287708984375,-0.9766879677772522,-0.32225340604782104,-0.8006559610366821
1782968828171635200,9.29763525390625,-0.9832203984260559,-0.4229733645915985,-0.8143541812896729
1782968828181561000,9.30756103515625,-1.0027328729629517,-0.48003503680229187,-0.8485510349273682
1782968828191487000,9.317487060546876,-1.044928789138794,-0.4970095157623291,-0.9129853844642639
1782968828201414100,9.3274140625,-1.1000086069107056,-0.4361022114753723,-0.9971149563789368
1782968828211340000,9.337340087890626,-1.1593939065933228,-0.29248353838920593,-1.0569963455200195
1782968828221266000,9.347265869140625,-1.2243566513061523,-0.09769672900438309,-1.098203420639038
1782968828231193000,9.357193115234375,-1.27750825881958,0.12143775075674057,-1.117863416671753
1782968828241119200,9.367119140625,-1.3045635223388672,0.3027912974357605,-1.108572244644165
1782968828251044900,9.377044921875,-1.2920438051223755,0.405674010515213,-1.0717966556549072
1782968828260972000,9.386971923828124,-1.2369855642318726,0.41517749428749084,-1.0027525424957275
1782968828270898200,9.396898193359375,-1.1544928550720215,0.3470149338245392,-0.8956101536750793
1782968828280824000,9.406823974609376,-1.0452622175216675,0.19220805168151855,-0.7582858204841614
1782968828290751000,9.4167509765625,-0.9006616473197937,-0.0253937728703022,-0.6058563590049744
1782968828300677000,9.426677001953125,-0.7352889180183411,-0.2101612240076065,-0.45932310819625854
1782968828310603300,9.436603271484374,-0.5713263750076294,-0.33702462911605835,-0.32786014676094055
1782968828320530200,9.4465302734375,-0.44564592838287354,-0.3960682451725006,-0.21550698578357697
1782968828330456000,9.4564560546875,-0.358869731426239,-0.3781190812587738,-0.12196744978427887
1782968828340382200,9.46638232421875,-0.291769802570343,-0.29675471782684326,-0.05868568271398544
1782968828350308000,9.47630810546875,-0.25376835465431213,-0.152552530169487,-0.0750657245516777
1782968828360235000,9.486235107421875,-0.22690264880657196,-0.003062102710828185,-0.14323332905769348
1782968828370161200,9.4961611328125,-0.2182212769985199,0.0873921662569046,-0.23026037216186523
1782968828380087000,9.506087158203124,-0.2299213409423828,0.05766542628407478,-0.2987004220485687
1782968828390014200,9.51601416015625,-0.2190077155828476,-0.052495963871479034,-0.22335265576839447
1782968828399940000,9.525940185546874,-0.18863064050674438,-0.19506855309009552,-0.0681963637471199
1782968828409866000,9.535865966796875,-0.14072196185588837,-0.28001460433006287,0.12654782831668854
1782968828419793200,9.545793212890626,-0.041743453592061996,-0.31409135460853577,0.34038206934928894
1782968828429719000,9.555718994140625,0.07917311787605286,-0.2769913971424103,0.5812583565711975
1782968828439645000,9.56564501953125,0.1869933158159256,-0.14887256920337677,0.7860756516456604
1782968828449572000,9.575572021484374,0.2814977169036865,0.023516511544585228,0.9016179442405701
1782968828459498200,9.585498291015625,0.36304184794425964,0.18327847123146057,0.9146528244018555
1782968828469424000,9.595424072265626,0.4342467784881592,0.281536340713501,0.8274319171905518
1782968828479351000,9.60535107421875,0.4950885772705078,0.3026368319988251,0.6754274368286133
1782968828489277200,9.615277099609376,0.540203869342804,0.30382487177848816,0.5166151523590088
1782968828499203000,9.625203125,0.5866509675979614,0.2586509883403778,0.42108064889907837
1782968828509129000,9.63512890625,0.6514198780059814,0.18661701679229736,0.3818219304084778
1782968828519056100,9.64505615234375,0.725063681602478,0.08304375410079956,0.3938860595226288
1782968828528982300,9.654982177734375,0.7871294617652893,-0.06627462804317474,0.4465934634208679
1782968828538908000,9.664907958984376,0.8307424783706665,-0.19372233748435974,0.563664436340332
1782968828548835000,9.6748349609375,0.8566552996635437,-0.2837131917476654,0.7788353562355042
1782968828558761200,9.68476123046875,0.8800748586654663,-0.20215949416160583,1.104564905166626
1782968828568686800,9.694686767578125,0.9080551266670227,0.025951972231268883,1.4446961879730225
1782968828578614000,9.704614013671875,0.9510331749916077,0.23079992830753326,1.6916297674179077
1782968828588540200,9.7145400390625,1.001579761505127,0.3769741654396057,1.7978347539901733
1782968828598466000,9.724466064453125,1.0569134950637817,0.4598214030265808,1.7404413223266602
1782968828608393000,9.73439306640625,1.108204960823059,0.47489407658576965,1.5463708639144897
1782968828618319000,9.744319091796875,1.1674374341964722,0.38627952337265015,1.274586796760559
1782968828628245000,9.754244873046876,1.2155826091766357,0.19956956803798676,0.9800438284873962
1782968828638172200,9.764172119140625,1.224596619606018,-0.0027542412281036377,0.7350527048110962
1782968828648098000,9.77409814453125,1.2043226957321167,-0.18726682662963867,0.5819816589355469
1782968828658024200,9.784024169921874,1.1662852764129639,-0.3830331265926361,0.4908597469329834
1782968828667950000,9.7939501953125,1.1261045932769775,-0.6015812158584595,0.4433276355266571
1782968828677877000,9.803876953125,1.0699039697647095,-0.7562301754951477,0.4224165081977844
1782968828687803100,9.81380322265625,0.9899694323539734,-0.793494701385498,0.41152122616767883
1782968828697729000,9.82372900390625,0.8928660154342651,-0.68232262134552,0.3955369293689728
1782968828707656200,9.83365625,0.799331545829773,-0.4831096827983856,0.3776412904262543
1782968828717582000,9.84358203125,0.7201099395751953,-0.2534477114677429,0.37213626503944397
1782968828727508000,9.853508056640624,0.6645191311836243,0.01860164664685726,0.3883317708969116
1782968828737435100,9.86343505859375,0.6429065465927124,0.28168120980262756,0.39289534091949463
1782968828747361000,9.873361083984374,0.6437249183654785,0.4681115448474884,0.3644637167453766
1782968828757287000,9.883286865234375,0.6513106822967529,0.5218115448951721,0.31918758153915405
1782968828767213800,9.8932138671875,0.6702443957328796,0.4426477253437042,0.2914659380912781
1782968828777140000,9.903139892578125,0.6884620189666748,0.2727207541465759,0.29901254177093506
1782968828787065900,9.91306591796875,0.7046273946762085,0.06501974910497665,0.32089680433273315
1782968828796992800,9.92299267578125,0.7142148017883301,-0.13893204927444458,0.3327332139015198
1782968828806919000,9.9329189453125,0.7117812037467957,-0.2905799150466919,0.31576648354530334
1782968828816845000,9.942844970703124,0.6665958762168884,-0.36234357953071594,0.2555555999279022
1782968828826771700,9.952771728515625,0.5741304159164429,-0.35156816244125366,0.16328373551368713
1782968828836697900,9.96269775390625,0.45088356733322144,-0.2892826795578003,0.040229976177215576
1782968828846624000,9.9726240234375,0.29009759426116943,-0.1470152735710144,-0.11924436688423157
1782968828856549600,9.982549560546875,0.09770019352436066,0.01738538220524788,-0.31911006569862366
1782968828866476800,9.992476806640624,-0.11354120820760727,0.09182526171207428,-0.5384719967842102
1782968828876403000,10.00240283203125,-0.3081999123096466,0.07731050252914429,-0.7210090756416321
1782968828886328800,10.012328857421876,-0.49160462617874146,0.010527209378778934,-0.8304684162139893
1782968828896256000,10.022256103515625,-0.6493455171585083,-0.04956568777561188,-0.8551607131958008
1782968828906182000,10.032181884765626,-0.7916887998580933,-0.053344447165727615,-0.8350237607955933
1782968828916107800,10.042107666015625,-0.8781374096870422,0.003370230318978429,-0.7768704295158386
1782968828926035000,10.052034912109375,-0.8907256722450256,0.07972358912229538,-0.6979825496673584
1782968828935960800,10.0619609375,-0.8173321485519409,0.10801035910844803,-0.593337893486023
1782968828945887000,10.071886962890625,-0.7664596438407898,0.09201647341251373,-0.4597742557525635
1782968828955814000,10.08181396484375,-0.7691235542297363,0.10326992720365524,-0.3268178105354309
1782968828965740000,10.091739990234375,-0.8125264644622803,0.1394500434398651,-0.2410949021577835
1782968828975666000,10.101666015625,-0.857524037361145,0.08884012699127197,-0.23773080110549927
1782968828985592800,10.1115927734375,-0.9169138669967651,-0.020496485754847527,-0.30216410756111145
1782968828995519000,10.12151904296875,-1.0164891481399536,-0.10242117941379547,-0.393912136554718
1782968829005444900,10.13144482421875,-1.131828784942627,-0.15735793113708496,-0.4905689060688019
1782968829015370800,10.141370849609375,-1.2421278953552246,-0.19264161586761475,-0.5749871134757996
1782968829025298000,10.1512978515625,-1.3205028772354126,-0.2072456032037735,-0.6342850923538208
1782968829035224000,10.16122412109375,-1.3652738332748413,-0.20235496759414673,-0.6540156602859497
1782968829045149700,10.171149658203126,-1.3531025648117065,-0.1929076761007309,-0.6158642768859863
1782968829055076900,10.181076904296875,-1.341856598854065,-0.16168077290058136,-0.5496253371238708
1782968829065003000,10.1910029296875,-1.3001829385757446,-0.13059422373771667,-0.4837610721588135
1782968829074928600,10.2009287109375,-1.220872163772583,-0.1869179606437683,-0.47761771082878113
1782968829084855800,10.210855712890625,-1.149823784828186,-0.29110187292099,-0.5380866527557373
1782968829094782000,10.220781982421874,-1.0978671312332153,-0.4032140374183655,-0.5986069440841675
1782968829104707800,10.230707763671875,-1.070326805114746,-0.46715787053108215,-0.5708674788475037
1782968829114634800,10.240634765625,-1.0940768718719482,-0.610356330871582,-0.5557865500450134
1782968829124561000,10.250560791015625,-1.105595588684082,-0.770187258720398,-0.6641971468925476
1782968829134487000,10.260487060546875,-1.0847105979919434,-0.7558048367500305,-0.7618933916091919
1782968829144414000,10.2704140625,-1.0812772512435913,-0.7261143326759338,-0.8562794923782349
1782968829154339800,10.28033984375,-1.0960558652877808,-0.6785529255867004,-0.9273723363876343
1782968829164266000,10.290265869140624,-1.1100702285766602,-0.6238564252853394,-0.9359575510025024
1782968829174191900,10.30019189453125,-1.1226919889450073,-0.5990692973136902,-0.922987699508667
1782968829184118800,10.310118896484376,-1.1094001531600952,-0.5588076114654541,-0.9109664559364319
