time,seconds_elapsed,z,y,x
1782968818952572200,0.078572265625,-0.5569331645965576,0.054543882608413696,0.03915480524301529
1782968818962498000,0.088498046875,-0.5607380867004395,0.21611599624156952,0.12009714543819427
1782968818972424000,0.098423828125,-0.5490683913230896,0.3378741145133972,0.17124927043914795
1782968818982350000,0.10835009765625,-0.5483611822128296,0.35524696111679077,0.16908054053783417
1782968818992277200,0.11827734375,-0.557599663734436,0.26635411381721497,0.12122087925672531
1782968819002203000,0.128202880859375,-0.5865465402603149,0.08574075996875763,0.054813895374536514
1782968819012129000,0.13812890625,-0.6278114318847656,-0.12539757788181305,-0.011676982045173645
1782968819022056200,0.14805615234375,-0.6609231233596802,-0.32952553033828735,-0.08387309312820435
1782968819031981800,0.15798193359375,-0.68954998254776,-0.5017415285110474,-0.17601872980594635
1782968819041908000,0.167907958984375,-0.7210745811462402,-0.5932149887084961,-0.2952716052532196
1782968819051835100,0.177835205078125,-0.7653834223747253,-0.6149019598960876,-0.42131420969963074
1782968819061761000,0.187760986328125,-0.829547107219696,-0.5830647349357605,-0.5357701778411865
1782968819071687000,0.19768701171875,-0.8964877724647522,-0.5154164433479309,-0.5959839820861816
1782968819081614000,0.207614013671875,-0.9408215880393982,-0.4023820161819458,-0.6075188517570496
1782968819091540200,0.217540283203125,-0.9581544995307922,-0.320657342672348,-0.6023006439208984
1782968819101466000,0.227466064453125,-0.963320791721344,-0.27388036251068115,-0.5886315703392029
1782968819111393000,0.23739306640625,-0.9545505046844482,-0.23998312652111053,-0.5929113030433655
1782968819121319200,0.247319091796875,-0.9453279972076416,-0.20827199518680573,-0.6286724209785461
1782968819131245000,0.2572451171875,-0.9310814142227173,-0.198578342795372,-0.7111092805862427
1782968819141172200,0.267172119140625,-0.9285336136817932,-0.22901368141174316,-0.8317070007324219
1782968819151098000,0.27709814453125,-0.912638247013092,-0.26628008484840393,-0.953339695930481
1782968819161024000,0.28702392578125,-0.8701726794242859,-0.26713526248931885,-1.0161577463150024
1782968819170951200,0.296951171875,-0.810538113117218,-0.22609356045722961,-1.0324053764343262
1782968819180877000,0.306876953125,-0.7550026774406433,-0.13673651218414307,-1.025574803352356
1782968819190803000,0.316802978515625,-0.7147356867790222,-0.01726658269762993,-1.0309547185897827
1782968819200730000,0.326730224609375,-0.6813548803329468,0.058945782482624054,-1.0659433603286743
1782968819210656300,0.33665625,-0.6530596017837524,0.10146234929561615,-1.1111057996749878
1782968819220582000,0.346581787109375,-0.6455615758895874,0.12793831527233124,-1.142138957977295
1782968819230508000,0.356508056640625,-0.6502897143363953,0.15965284407138824,-1.126961350440979
1782968819240435200,0.366435302734375,-0.6880836486816406,0.15825878083705902,-1.0613973140716553
1782968819250361000,0.376361083984375,-0.7132247090339661,0.13829731941223145,-0.958680272102356
1782968819260287000,0.386286865234375,-0.6927950382232666,0.17760559916496277,-0.8044049143791199
1782968819270214100,0.396214111328125,-0.6188947558403015,0.20150746405124664,-0.6551775932312012
1782968819280140300,0.406140380859375,-0.5318116545677185,0.23745544254779816,-0.5300852656364441
1782968819290066000,0.41606591796875,-0.46480706334114075,0.3128862977027893,-0.41439884901046753
1782968819299993000,0.4259931640625,-0.4468488395214081,0.37794172763824463,-0.31862813234329224
1782968819309919200,0.435919189453125,-0.5267630815505981,0.3585435450077057,-0.20811468362808228
1782968819319844900,0.445844970703125,-0.6648918390274048,0.2446524202823639,-0.09529206901788712
1782968819329772000,0.45577197265625,-0.8309987783432007,0.19088931381702423,-0.09428885579109192
1782968819339698200,0.4656982421875,-0.9688287973403931,0.2612132728099823,-0.2509714663028717
1782968819349624000,0.4756240234375,-1.0003125667572021,0.39800068736076355,-0.5383456945419312
1782968819359551000,0.485551025390625,-0.8603753447532654,0.6183075308799744,-0.8372721672058105
1782968819369477000,0.49547705078125,-0.6045382022857666,0.8269246220588684,-0.9905077815055847
1782968819379403000,0.505403076171875,-0.31730160117149353,0.8612731695175171,-0.9512981176376343
1782968819389330200,0.515330078125,-0.04837079346179962,0.721854031085968,-0.7476038336753845
1782968819399256000,0.525256103515625,0.17069654166698456,0.4904121160507202,-0.49138134717941284
1782968819409182000,0.535181884765625,0.44204816222190857,0.2151603102684021,-0.18537668883800507
1782968819419109000,0.545109130859375,0.6631107926368713,0.17586255073547363,0.2065211832523346
1782968819429035000,0.555034912109375,0.8207608461380005,0.11579122394323349,0.5539997816085815
1782968819438961200,0.564961181640625,0.8904118537902832,0.05162741616368294,0.7395403981208801
1782968819448887000,0.574886962890625,0.9254564046859741,0.10736231505870819,0.7870303988456726
1782968819458814200,0.584814208984375,0.9296225309371948,0.21233555674552917,0.7218307852745056
1782968819468740000,0.594739990234375,0.9123937487602234,0.29422593116760254,0.5901774168014526
1782968819478666000,0.604666015625,0.8631571531295776,0.3342888057231903,0.4561399519443512
1782968819488593200,0.61459326171875,0.8022458553314209,0.3249506950378418,0.36623483896255493
1782968819498519300,0.624519287109375,0.7714900970458984,0.2774462103843689,0.3585827350616455
1782968819508445000,0.63444482421875,0.8026866316795349,0.21082375943660736,0.4407476484775543
1782968819518372000,0.6443720703125,0.8820181488990784,0.14231349527835846,0.5951218605041504
1782968819528298200,0.65429833984375,0.9794150590896606,0.09717104583978653,0.757449209690094
1782968819538223900,0.664223876953125,1.0810960531234741,0.07715415954589844,0.8949638605117798
1782968819548151000,0.674151123046875,1.1841974258422852,0.08592847734689713,0.989306628704071
1782968819558077200,0.6840771484375,1.2769825458526611,0.10238045454025269,1.0385624170303345
1782968819568003000,0.694003173828125,1.349542498588562,0.12206414341926575,1.0688388347625732
1782968819577930000,0.703929931640625,1.3910819292068481,0.12415625154972076,1.0691591501235962
1782968819587856100,0.713856201171875,1.4017149209976196,0.0622878223657608,1.033491611480713
1782968819597782000,0.723781982421875,1.384275197982788,-0.0673057809472084,0.962318480014801
1782968819607709200,0.733709228515625,1.3446124792099,-0.2749505639076233,0.8670420050621033
1782968819617635000,0.743635009765625,1.2922852039337158,-0.5028249025344849,0.7553988099098206
1782968819627561200,0.753561279296875,1.2395426034927368,-0.6768653988838196,0.6747007966041565
1782968819637488000,0.763488037109375,1.20122492313385,-0.7615466713905334,0.6320927739143372
1782968819647414000,0.7734140625,1.161126732826233,-0.7499531507492065,0.6077024936676025
1782968819657340200,0.783340087890625,1.100307822227478,-0.6622879505157471,0.5947223901748657
1782968819667266000,0.79326611328125,1.0228694677352905,-0.5363057851791382,0.589397132396698
1782968819677193200,0.803193115234375,0.9395394325256348,-0.4166284203529358,0.5847905278205872
1782968819687119000,0.813119140625,0.8624654412269592,-0.3319505453109741,0.5681164264678955
1782968819697045000,0.823044921875,0.8011749386787415,-0.29409536719322205,0.5317776203155518
1782968819706972200,0.83297216796875,0.7597030997276306,-0.2950807213783264,0.47858333587646484
1782968819716898000,0.84289794921875,0.717582106590271,-0.3154599964618683,0.4074336290359497
1782968819726824000,0.852823974609375,0.6641468405723572,-0.3098178207874298,0.31210124492645264
1782968819736750600,0.86275048828125,0.5762776136398315,-0.29118552803993225,0.21119293570518494
1782968819746676700,0.8726767578125,0.4728947579860687,-0.27573680877685547,0.13948412239551544
1782968819756603000,0.882602783203125,0.38898396492004395,-0.25705358386039734,0.1443311870098114
1782968819766529800,0.89252978515625,0.3586031496524811,-0.2215835005044937,0.18756042420864105
1782968819776455700,0.90245556640625,0.36458197236061096,-0.1881570965051651,0.2434239536523819
1782968819786381800,0.9123818359375,0.3746691942214966,-0.14780187606811523,0.2751915752887726
1782968819796308700,0.922308837890625,0.41219276189804077,-0.1691357046365738,0.33758312463760376
1782968819806234600,0.932234619140625,0.42438843846321106,-0.21858367323875427,0.38945990800857544
1782968819816160800,0.942160888671875,0.41089892387390137,-0.2653512954711914,0.3869180381298065
1782968819826087700,0.952087646484375,0.38101640343666077,-0.3013433814048767,0.3492577373981476
1782968819836013800,0.962013916015625,0.3182276487350464,-0.2994559705257416,0.2750568091869354
1782968819845939700,0.971939697265625,0.22636376321315765,-0.26438987255096436,0.17269182205200195
1782968819855866600,0.98186669921875,0.12716269493103027,-0.21253977715969086,0.06097011640667915
1782968819865792800,0.991792724609375,0.010768705978989601,-0.16494376957416534,-0.06998524069786072
1782968819875718700,1.00171875,-0.10951264202594757,-0.13202965259552002,-0.20021313428878784
1782968819885644800,1.011644775390625,-0.23243564367294312,-0.0988439992070198,-0.3266778588294983
1782968819895571700,1.02157177734375,-0.34568464756011963,-0.038264885544776917,-0.4087354838848114
1782968819905497900,1.031497802734375,-0.439542680978775,0.07575542479753494,-0.42220044136047363
1782968819915423700,1.041423828125,-0.49711576104164124,0.20549973845481873,-0.356352835893631
1782968819925350700,1.0513505859375,-0.5086390376091003,0.31565552949905396,-0.2447645366191864
1782968819935276800,1.06127685546875,-0.4796668589115143,0.37082144618034363,-0.1270323097705841
1782968819945202700,1.07120263671875,-0.40485092997550964,0.38093721866607666,-0.03897089511156082
1782968819955129600,1.081129638671875,-0.312959223985672,0.2987167537212372,-0.004579833243042231
1782968819965055700,1.0910556640625,-0.23735740780830383,0.14443770051002502,-0.01166597194969654
1782968819974982000,1.10098193359375,-0.20502319931983948,-0.02286926470696926,-0.0772508978843689
1782968819984908500,1.110908447265625,-0.23401996493339539,-0.19579443335533142,-0.17104637622833252
1782968819994834700,1.120834716796875,-0.31196942925453186,-0.31739822030067444,-0.2701055407524109
1782968820004760800,1.1307607421875,-0.4350988268852234,-0.35542604327201843,-0.36461764574050903
1782968820014687700,1.140687744140625,-0.5779614448547363,-0.25767621397972107,-0.4438519775867462
1782968820024613600,1.150613525390625,-0.7193952798843384,-0.059035830199718475,-0.48474109172821045
1782968820034539800,1.160539794921875,-0.8382372260093689,0.20533496141433716,-0.47228312492370605
1782968820044465700,1.170465576171875,-0.9186707735061646,0.49329644441604614,-0.4163871109485626
1782968820054392600,1.180392578125,-0.9650816917419434,0.7188142538070679,-0.36295485496520996
1782968820064318700,1.190318603515625,-0.9901683926582336,0.831242024898529,-0.35424551367759705
1782968820074244900,1.200244873046875,-0.9933710694313049,0.8461393713951111,-0.3817311227321625
1782968820084171800,1.210171875,-0.9794805645942688,0.7654029726982117,-0.4433750510215759
1782968820094097700,1.22009765625,-0.9602335691452026,0.6030720472335815,-0.5258433818817139
1782968820104023800,1.23002392578125,-0.9170759916305542,0.3951875567436218,-0.5771382451057434
1782968820113950700,1.23995068359375,-0.8575085997581482,0.16840136051177979,-0.5868081450462341
1782968820123876600,1.249876708984375,-0.7972372770309448,-0.01811632141470909,-0.5712390542030334
1782968820133802800,1.259802734375,-0.7580248713493347,-0.166111558675766,-0.5564277768135071
1782968820143729700,1.269729736328125,-0.7304574251174927,-0.27477094531059265,-0.5609562397003174
1782968820153655800,1.27965576171875,-0.7278954386711121,-0.32793372869491577,-0.5910719633102417
1782968820163581700,1.289581787109375,-0.7341655492782593,-0.2862411439418793,-0.6374993920326233
1782968820173508600,1.299508544921875,-0.7506023049354553,-0.16318276524543762,-0.7121140956878662
1782968820183434800,1.309434814453125,-0.7768810391426086,0.029028212651610374,-0.8184182047843933
1782968820193361000,1.31936083984375,-0.808761477470398,0.2517504096031189,-0.9360809922218323
1782968820203287600,1.32928759765625,-0.8429708480834961,0.43675196170806885,-1.0505836009979248
1782968820213213700,1.339213623046875,-0.8729760646820068,0.5354085564613342,-1.1388911008834839
1782968820223139800,1.349139892578125,-0.8961101770401001,0.578474760055542,-1.190885066986084
1782968820233065700,1.359065673828125,-0.875138521194458,0.5347166657447815,-1.1535927057266235
1782968820242992600,1.36899267578125,-0.8176217079162598,0.4069501459598541,-1.0468957424163818
1782968820252918800,1.378918701171875,-0.7413187026977539,0.24469316005706787,-0.8793538808822632
1782968820262845000,1.388844970703125,-0.6615447998046875,0.07876837998628616,-0.6924487352371216
1782968820272771600,1.398771484375,-0.587783694267273,-0.03739319369196892,-0.5376424193382263
1782968820282697700,1.40869775390625,-0.5248122215270996,-0.09188014268875122,-0.44065597653388977
1782968820292624000,1.418623779296875,-0.47734081745147705,-0.08946632593870163,-0.3827059268951416
1782968820302550800,1.42855078125,-0.4494287669658661,-0.039370663464069366,-0.34579822421073914
1782968820312476700,1.4384765625,-0.45443037152290344,0.027005083858966827,-0.3279361128807068
1782968820322402800,1.44840283203125,-0.4857901632785797,0.1128145307302475,-0.3097275495529175
1782968820332329700,1.458329833984375,-0.5184519290924072,0.19797109067440033,-0.30654093623161316
1782968820342255600,1.468255615234375,-0.5243721008300781,0.2788110673427582,-0.3323717415332794
1782968820352181800,1.478181640625,-0.503463864326477,0.3525926172733307,-0.37662699818611145
1782968820362108700,1.488108642578125,-0.4547407925128937,0.40914615988731384,-0.41034555435180664
1782968820372034800,1.498034912109375,-0.3646944463253021,0.43955373764038086,-0.421284019947052
1782968820381960700,1.507960693359375,-0.2622130811214447,0.43396270275115967,-0.3984615206718445
1782968820391886600,1.517886474609375,-0.1306099146604538,0.3502877950668335,-0.30976930260658264
1782968820401813800,1.527813720703125,0.03356863185763359,0.23450635373592377,-0.1254223734140396
1782968820411739600,1.53773974609375,0.15525047481060028,0.10932201892137527,0.08137430995702744
1782968820421665800,1.547665771484375,0.27321040630340576,-0.002905182307586074,0.28858476877212524
1782968820431592700,1.5575927734375,0.3627490997314453,-0.044719893485307693,0.4406716525554657
1782968820441518800,1.567518798828125,0.43811896443367004,-0.024525940418243408,0.5250642895698547
1782968820451444700,1.57744482421875,0.49798914790153503,0.03600812703371048,0.5556159019470215
1782968820461371600,1.58737158203125,0.5379568338394165,0.10799364000558853,0.5379945635795593
1782968820471297800,1.5972978515625,0.5446372032165527,0.1757226586341858,0.4768823981285095
1782968820481223700,1.6072236328125,0.5269668698310852,0.22405663132667542,0.39520004391670227
1782968820491150600,1.617150634765625,0.5193969011306763,0.22725041210651398,0.335325688123703
1782968820501076700,1.62707666015625,0.5759342312812805,0.19618569314479828,0.32877084612846375
1782968820511003000,1.6370029296875,0.6930592656135559,0.14265349507331848,0.38348016142845154
1782968820520929500,1.646929443359375,0.8361927270889282,0.09342151135206223,0.47750067710876465
1782968820530855700,1.656855712890625,0.9843769073486328,0.030688999220728874,0.5827039480209351
1782968820540781800,1.66678173828125,1.1124850511550903,-0.03185294568538666,0.6809682250022888
1782968820550707500,1.67670751953125,1.215319275856018,-0.06338214874267578,0.7580607533454895
1782968820560634600,1.686634521484375,1.292285680770874,-0.07566837221384048,0.8091015219688416
1782968820570560800,1.696560791015625,1.33775794506073,-0.09041866660118103,0.8394343256950378
1782968820580486700,1.706486572265625,1.359757423400879,-0.11693841964006424,0.8627340793609619
1782968820590413600,1.71641357421875,1.3672829866409302,-0.19960132241249084,0.874903678894043
1782968820600339700,1.726339599609375,1.3749890327453613,-0.32399171590805054,0.8872402310371399
1782968820610265900,1.736265869140625,1.3787158727645874,-0.453581303358078,0.8943018913269043
1782968820620192800,1.74619287109375,1.4018349647521973,-0.5783640146255493,0.8990649580955505
1782968820630118700,1.75611865234375,1.4339780807495117,-0.6579899191856384,0.8962392210960388
1782968820640044800,1.766044921875,1.4611433744430542,-0.7066676616668701,0.8672725558280945
1782968820649971700,1.7759716796875,1.4689512252807617,-0.7283927202224731,0.7968025207519531
1782968820659897900,1.78589794921875,1.4430911540985107,-0.7368200421333313,0.6994155049324036
1782968820669823700,1.79582373046875,1.371571660041809,-0.7479475140571594,0.5872105956077576
1782968820679750700,1.805750732421875,1.2531243562698364,-0.7361111044883728,0.4813981354236603
1782968820689676800,1.8156767578125,1.0992640256881714,-0.683737576007843,0.39505642652511597
1782968820699602700,1.825602783203125,0.9335317611694336,-0.5702653527259827,0.32686591148376465
1782968820709529600,1.835529541015625,0.7879793047904968,-0.42838606238365173,0.2799922823905945
1782968820719455700,1.845455810546875,0.6721269488334656,-0.28703558444976807,0.2477530986070633
1782968820729382000,1.8553818359375,0.600802481174469,-0.1487586349248886,0.22223713994026184
1782968820739308300,1.865308349609375,0.5639337301254272,-0.023706713691353798,0.22122061252593994
1782968820749235500,1.8752353515625,0.5525286793708801,0.06318233907222748,0.22749604284763336
1782968820759161600,1.88516162109375,0.5346388816833496,0.11976040154695511,0.18794862926006317
1782968820769087500,1.89508740234375,0.5510093569755554,0.08140113949775696,0.19724154472351074
1782968820779014400,1.905014404296875,0.5547478795051575,-0.025859270244836807,0.2736055552959442
1782968820788940500,1.9149404296875,0.5591900944709778,-0.15316776931285858,0.3907614052295685
1782968820798866400,1.924866455078125,0.5859492421150208,-0.3019005060195923,0.5210871696472168
1782968820808793600,1.934793701171875,0.6080770492553711,-0.4028606712818146,0.5781443119049072
1782968820818719500,1.944719482421875,0.6068820953369141,-0.43865060806274414,0.5558443665504456
1782968820828645400,1.954645263671875,0.5672267079353333,-0.4211128354072571,0.46689438819885254
1782968820838572500,1.964572509765625,0.4652808904647827,-0.34671318531036377,0.33947598934173584
1782968820848498400,1.97449853515625,0.299571692943573,-0.23154182732105255,0.1611247956752777
1782968820858424300,1.98442431640625,0.0839105099439621,-0.09047684073448181,-0.04805132374167442
1782968820868351500,1.9943515625,-0.13562113046646118,0.06857448071241379,-0.2387082874774933
1782968820878277600,2.004277587890625,-0.32899564504623413,0.22256962954998016,-0.38174161314964294
1782968820888203300,2.014203369140625,-0.47305092215538025,0.3508898913860321,-0.45424407720565796
1782968820898129400,2.02412939453125,-0.55776447057724,0.4971080720424652,-0.43969762325286865
1782968820908056600,2.034056640625,-0.5882889628410339,0.6051666736602783,-0.3677065372467041
1782968820917982500,2.043982421875,-0.5680140256881714,0.6491213440895081,-0.25602424144744873
1782968820927908400,2.053908447265625,-0.5365623831748962,0.6466487050056458,-0.18858209252357483
1782968820937835500,2.06383544921875,-0.46262800693511963,0.5630467534065247,-0.09029761701822281
1782968820947761400,2.073761474609375,-0.3919554650783539,0.40126943588256836,0.01623860001564026
1782968820957687300,2.083687255859375,-0.34968629479408264,0.22217796742916107,0.05196037515997887
1782968820967614500,2.093614501953125,-0.34218451380729675,0.057140808552503586,0.025855684652924538
1782968820977540600,2.10354052734375,-0.37836942076683044,-0.08963186293840408,-0.04668509587645531
1782968820987466200,2.11346630859375,-0.4519224762916565,-0.21058149635791779,-0.14065232872962952
1782968820997393400,2.123393310546875,-0.5473968386650085,-0.26747217774391174,-0.2547072470188141
1782968821007319600,2.133319580078125,-0.6567755341529846,-0.2258768230676651,-0.37120071053504944
1782968821017245400,2.143245361328125,-0.7675294876098633,-0.09312330186367035,-0.4811069965362549
1782968821027172400,2.15317236328125,-0.879940927028656,0.09730230271816254,-0.5483312010765076
1782968821037098500,2.163098388671875,-0.9914264678955078,0.3113091289997101,-0.5702290534973145
1782968821047024400,2.1730244140625,-1.1032652854919434,0.5190867781639099,-0.5543190240859985
1782968821056950300,2.1829501953125,-1.1983795166015625,0.6922513842582703,-0.5122844576835632
1782968821066877400,2.19287744140625,-1.2726155519485474,0.7665541172027588,-0.46598920226097107
1782968821076803300,2.20280322265625,-1.308364748954773,0.7621865272521973,-0.4190600514411926
1782968821086729500,2.2127294921875,-1.3019593954086304,0.6730305552482605,-0.39246106147766113
1782968821096656400,2.222656494140625,-1.2509582042694092,0.5299162864685059,-0.3774975538253784
1782968821106582500,2.23258251953125,-1.1668418645858765,0.36407002806663513,-0.3778526782989502
1782968821116508400,2.24250830078125,-1.079454779624939,0.21354632079601288,-0.4017598628997803
1782968821126435600,2.252435546875,-1.0067646503448486,0.06368784606456757,-0.44646555185317993
1782968821136361500,2.262361572265625,-0.9690297245979309,-0.10119511187076569,-0.5095654129981995
1782968821146287400,2.272287353515625,-0.9744461178779602,-0.24316620826721191,-0.5714179873466492
1782968821156214500,2.282214599609375,-1.0179551839828491,-0.334870845079422,-0.6372337341308594
1782968821166140700,2.292140625,-1.0904072523117065,-0.3490139842033386,-0.6957605481147766
1782968821176066300,2.30206640625,-1.1823265552520752,-0.28144025802612305,-0.7538637518882751
1782968821185993500,2.311993408203125,-1.2668086290359497,-0.1579974889755249,-0.8216263651847839
1782968821195919600,2.321919677734375,-1.339481234550476,0.0034268260933458805,-0.909558892250061
1782968821205845200,2.33184521484375,-1.3966416120529175,0.18063946068286896,-0.9985474348068237
1782968821215771400,2.341771484375,-1.4414721727371216,0.33893537521362305,-1.0820286273956299
1782968821225698600,2.351698486328125,-1.4704054594039917,0.48204177618026733,-1.133579969406128
1782968821235624400,2.36162451171875,-1.4796860218048096,0.6000986099243164,-1.161452054977417
1782968821245550300,2.37155029296875,-1.4558131694793701,0.6699256896972656,-1.1418664455413818
1782968821255477500,2.3814775390625,-1.4072810411453247,0.6814396381378174,-1.0683759450912476
1782968821265403400,2.3914033203125,-1.3451218605041504,0.6371553540229797,-0.9437437057495117
1782968821275329300,2.401329345703125,-1.2668209075927734,0.5604792237281799,-0.7879921793937683
1782968821285256400,2.41125634765625,-1.1769073009490967,0.48255887627601624,-0.6469312310218811
1782968821295182600,2.4211826171875,-1.0975738763809204,0.3973108232021332,-0.5654030442237854
1782968821305108500,2.4311083984375,-1.0368272066116333,0.3392176628112793,-0.5123906135559082
1782968821315035400,2.441035400390625,-0.9883769154548645,0.29750776290893555,-0.47797882556915283
1782968821324961500,2.45096142578125,-0.9497336149215698,0.28752949833869934,-0.47356510162353516
1782968821334887400,2.460887451171875,-0.9220484495162964,0.30768856406211853,-0.5040860176086426
1782968821344814600,2.470814697265625,-0.8836858868598938,0.34568142890930176,-0.5873024463653564
1782968821354740500,2.480740478515625,-0.8247671723365784,0.39717230200767517,-0.7025856375694275
1782968821364666400,2.490666259765625,-0.7437810897827148,0.4132562279701233,-0.7827129364013672
1782968821374592500,2.500592529296875,-0.6145676970481873,0.32852375507354736,-0.746934711933136
1782968821384519400,2.51051953125,-0.45594584941864014,0.13400614261627197,-0.5767982006072998
1782968821394445300,2.5204453125,-0.332225501537323,-0.0957663357257843,-0.3550346791744232
1782968821404371500,2.530371337890625,-0.1036662757396698,-0.3303039073944092,-0.02017924003303051
1782968821414298600,2.540298583984375,0.10188368707895279,-0.46911877393722534,0.30714455246925354
1782968821424224300,2.550224365234375,0.2429736852645874,-0.4756719470024109,0.5274578332901001
1782968821434150400,2.560150390625,0.37277135252952576,-0.39380183815956116,0.6333531141281128
1782968821444077600,2.57007763671875,0.46912533044815063,-0.2964459955692291,0.6649584174156189
1782968821454003500,2.58000341796875,0.5331751704216003,-0.19489699602127075,0.6422467231750488
1782968821463929300,2.589929443359375,0.5760647654533386,-0.09486771374940872,0.5856194496154785
1782968821473856500,2.5998564453125,0.58747798204422,-0.027653519064188004,0.5232053399085999
1782968821483782700,2.60978271484375,0.5872552394866943,-0.0016111144796013832,0.4679480195045471
1782968821493708300,2.619708251953125,0.5884140133857727,-0.020199712365865707,0.4302707016468048
1782968821503635500,2.629635498046875,0.6012777090072632,-0.06781946122646332,0.41223737597465515
1782968821513561600,2.6395615234375,0.6430619359016418,-0.1416580080986023,0.4237739145755768
1782968821523487200,2.6494873046875,0.7254201173782349,-0.2001519799232483,0.49214836955070496
1782968821533414400,2.659414306640625,0.82785564661026,-0.23493526875972748,0.5959639549255371
1782968821543340500,2.669340576171875,0.9521492719650269,-0.2493944615125656,0.7167602181434631
1782968821553266400,2.679266357421875,1.0875651836395264,-0.2196940928697586,0.8440558910369873
1782968821563192300,2.6891923828125,1.22592294216156,-0.13926416635513306,0.9469452500343323
1782968821573119500,2.699119384765625,1.3503605127334595,-0.044894520193338394,0.9909718632698059
1782968821583045400,2.70904541015625,1.4482147693634033,0.011998970061540604,0.9773150682449341
1782968821592971300,2.71897119140625,1.497852087020874,0.004696850199252367,0.9313066005706787
1782968821602898400,2.7288984375,1.5153751373291016,-0.05386427789926529,0.8898592591285706
1782968821612824300,2.73882421875,1.5209366083145142,-0.17022071778774261,0.8686681985855103
1782968821622750500,2.74875048828125,1.529422640800476,-0.31676217913627625,0.8688582181930542
1782968821632677600,2.758677734375,1.544830322265625,-0.484933078289032,0.878508448600769
1782968821642603500,2.768603515625,1.5520037412643433,-0.6418130993843079,0.8680999875068665
1782968821652529400,2.778529296875,1.538375735282898,-0.7616838216781616,0.8372704386711121
1782968821662456600,2.78845654296875,1.4940321445465088,-0.8043443560600281,0.7988235354423523
1782968821672382500,2.798382568359375,1.4317187070846558,-0.7678510546684265,0.7492942810058594
1782968821682308400,2.808308349609375,1.3552559614181519,-0.671260416507721,0.6914567947387695
1782968821692235500,2.818235595703125,1.2782716751098633,-0.5327182412147522,0.6227917075157166
1782968821702161700,2.82816162109375,1.2072395086288452,-0.3832397162914276,0.5640314221382141
1782968821712087300,2.83808740234375,1.1474131345748901,-0.24198243021965027,0.5107391476631165
1782968821722013400,2.848013427734375,1.0933092832565308,-0.11097317934036255,0.4594618082046509
1782968821731940600,2.857940673828125,1.036159634590149,-0.008771441876888275,0.4044131934642792
1782968821741865700,2.86786572265625,0.9763626456260681,0.03236252814531326,0.3390406668186188
1782968821751791400,2.877791259765625,0.9147288799285889,0.01495557464659214,0.2803957164287567
1782968821761718500,2.887718505859375,0.8643048405647278,-0.028886258602142334,0.25192755460739136
1782968821771644700,2.897644775390625,0.8341874480247498,-0.07022996991872787,0.2522258460521698
1782968821781570600,2.907570556640625,0.8305414319038391,-0.1261012703180313,0.28481367230415344
1782968821791497500,2.91749755859375,0.8566164374351501,-0.1742836982011795,0.34884563088417053
1782968821801423600,2.927423583984375,0.9077519774436951,-0.22257837653160095,0.4356052279472351
1782968821811349500,2.937349609375,0.9573101997375488,-0.25030961632728577,0.5213866829872131
1782968821821276700,2.947276611328125,0.9933773875236511,-0.2606162428855896,0.5909783244132996
1782968821831202600,2.95720263671875,0.9930858016014099,-0.24455150961875916,0.6180195212364197
1782968821841128700,2.967128662109375,0.9600000977516174,-0.21346576511859894,0.6038095355033875
1782968821851055600,2.9770556640625,0.8761451244354248,-0.17758074402809143,0.5561046004295349
1782968821860981500,2.9869814453125,0.7604084014892578,-0.16355261206626892,0.4785761535167694
1782968821870907600,2.99690771484375,0.6233893036842346,-0.174887016415596,0.39345061779022217
1782968821880833500,3.00683349609375,0.48720064759254456,-0.17068132758140564,0.3213948607444763
1782968821890760700,3.0167607421875,0.3528955578804016,-0.1498040109872818,0.24812625348567963
1782968821900686600,3.0266865234375,0.22744770348072052,-0.11938385665416718,0.15887629985809326
1782968821910612500,3.036612548828125,0.1167888268828392,-0.0699944719672203,0.06587391346693039
1782968821920539600,3.04653955078125,0.024011598899960518,-0.011246887966990471,-0.016595391556620598
1782968821930465500,3.056465576171875,-0.045511554926633835,0.06536932289600372,-0.06943783164024353
1782968821940391400,3.066391357421875,-0.08880999684333801,0.17678570747375488,-0.08477329462766647
1782968821950318600,3.076318603515625,-0.11048226803541183,0.2996365427970886,-0.10336242616176605
1782968821960244700,3.08624462890625,-0.09614314138889313,0.38480889797210693,-0.06244233623147011
1782968821970170600,3.096170654296875,-0.071151502430439,0.39240023493766785,0.015267638489603996
1782968821980097500,3.10609765625,-0.05279909819364548,0.32374927401542664,0.08814723044633865
1782968821990023700,3.116023681640625,-0.041530463844537735,0.19957061111927032,0.1272115409374237
1782968821999949600,3.125949462890625,-0.046731870621442795,0.03989405930042267,0.13214309513568878
1782968822009875500,3.13587548828125,-0.07480984181165695,-0.14303234219551086,0.10733335465192795
1782968822019802600,3.145802734375,-0.1340816169977188,-0.3305272161960602,0.04479144513607025
1782968822029728800,3.155728759765625,-0.2275705486536026,-0.495961457490921,-0.05185253918170929
1782968822039654400,3.165654296875,-0.3463190793991089,-0.6112583875656128,-0.17142844200134277
1782968822049581600,3.17558154296875,-0.4725225567817688,-0.6510106325149536,-0.27858367562294006
1782968822059507700,3.1855078125,-0.5734020471572876,-0.6022342443466187,-0.35396093130111694
1782968822069433300,3.195433349609375,-0.6438868641853333,-0.48714199662208557,-0.40155482292175293
1782968822079360500,3.205360595703125,-0.7031835317611694,-0.31989365816116333,-0.4290733337402344
1782968822089286700,3.21528662109375,-0.7570424675941467,-0.10786370933055878,-0.43552565574645996
1782968822099212500,3.225212646484375,-0.802140474319458,0.11119920760393143,-0.42185884714126587
1782968822109139700,3.2351396484375,-0.8345588445663452,0.28996121883392334,-0.4450070261955261
1782968822119065600,3.245065673828125,-0.8532212972640991,0.40397244691848755,-0.5056408643722534
1782968822128991500,3.254991455078125,-0.859058141708374,0.4203157424926758,-0.5839008092880249
1782968822138918700,3.264918701171875,-0.8627732992172241,0.3559246361255646,-0.6711546182632446
1782968822148844500,3.274844482421875,-0.8756398558616638,0.24205507338047028,-0.7407544851303101
1782968822158770700,3.284770751953125,-0.884033739566803,0.10820607841014862,-0.7738425731658936
1782968822168696600,3.294696533203125,-0.8902231454849243,-0.02458365634083748,-0.7837429046630859
1782968822178623700,3.304623779296875,-0.9007007479667664,-0.13069814443588257,-0.7932913899421692
1782968822188549600,3.314549560546875,-0.9201301336288452,-0.1955367922782898,-0.8157548904418945
1782968822198475500,3.3244755859375,-0.9359135627746582,-0.2232484668493271,-0.8546489477157593
1782968822208402700,3.334402587890625,-0.9377378225326538,-0.21369357407093048,-0.9094170928001404
1782968822218328600,3.34432861328125,-0.9384375810623169,-0.17712704837322235,-0.9777365922927856
1782968822228254500,3.35425439453125,-0.9417052865028381,-0.12731288373470306,-1.0284593105316162
1782968822238181600,3.364181640625,-0.9359182119369507,-0.05449635535478592,-1.0542241334915161
1782968822248107800,3.374107666015625,-0.9401334524154663,0.023630937561392784,-1.062307596206665
1782968822258033400,3.384033447265625,-0.9435461759567261,0.0922410786151886,-1.0567148923873901
1782968822267960600,3.393960693359375,-0.9545170664787292,0.14930009841918945,-1.0344252586364746
1782968822277886700,3.40388671875,-0.9489045143127441,0.22074678540229797,-0.9925606846809387
1782968822287812400,3.413812255859375,-0.9355125427246094,0.2785267233848572,-0.9224103689193726
1782968822297739500,3.423739501953125,-0.9163888096809387,0.3028949499130249,-0.8268815875053406
1782968822307665700,3.433665771484375,-0.8857070803642273,0.30257323384284973,-0.6994237899780273
1782968822317591600,3.443591552734375,-0.8516840934753418,0.303485631942749,-0.5758477449417114
1782968822327518500,3.4535185546875,-0.8300190567970276,0.31742605566978455,-0.458879292011261
1782968822337444600,3.463444580078125,-0.8086673021316528,0.3451747000217438,-0.35639846324920654
1782968822347370800,3.473370849609375,-0.7746933698654175,0.41148847341537476,-0.2711820900440216
1782968822357296400,3.48329638671875,-0.7457776069641113,0.45724883675575256,-0.19331111013889313
1782968822367223600,3.4932236328125,-0.7140585780143738,0.456731379032135,-0.1663047820329666
1782968822377149700,3.503149658203125,-0.6845978498458862,0.44671630859375,-0.1822998821735382
1782968822387075600,3.51307568359375,-0.649573028087616,0.4290270507335663,-0.21829836070537567
1782968822397002500,3.52300244140625,-0.5864942669868469,0.411042183637619,-0.2811295688152313
1782968822406928600,3.5329287109375,-0.48738521337509155,0.4080043137073517,-0.3504287600517273
1782968822416854500,3.5428544921875,-0.3803580701351166,0.4024203419685364,-0.37480637431144714
1782968822426781700,3.55278173828125,-0.3095659017562866,0.39814117550849915,-0.3709770143032074
1782968822436707600,3.56270751953125,-0.17239582538604736,0.3146154284477234,-0.22374095022678375
1782968822446633500,3.572633544921875,-0.05698348581790924,0.24862630665302277,0.004595019854605198
1782968822456560600,3.582560546875,0.023003898561000824,0.22269587218761444,0.22470563650131226
1782968822466486500,3.592486572265625,0.10582128167152405,0.22184818983078003,0.3772006332874298
1782968822476412400,3.602412353515625,0.19762127101421356,0.22257797420024872,0.4548391103744507
1782968822486338600,3.612338623046875,0.296085000038147,0.2065763771533966,0.47288790345191956
1782968822496265700,3.622265625,0.3870517909526825,0.19401678442955017,0.46364888548851013
1782968822506191600,3.632191650390625,0.4636315107345581,0.15299266576766968,0.45052188634872437
1782968822516117500,3.642117431640625,0.530636727809906,0.10024399310350418,0.45269379019737244
1782968822526044700,3.652044677734375,0.6005606651306152,0.071762815117836,0.4794934391975403
1782968822535970600,3.661970458984375,0.6760632395744324,0.053316354751586914,0.5253642797470093
1782968822545896400,3.671896484375,0.7502011060714722,0.05680243298411369,0.5755161643028259
1782968822555823600,3.68182373046875,0.8267726898193359,0.06463277339935303,0.6219357848167419
1782968822565749800,3.691749755859375,0.8898438215255737,0.040139682590961456,0.6658039093017578
1782968822575675400,3.70167529296875,0.9355835914611816,0.00874013639986515,0.7156981825828552
1782968822585602600,3.7116025390625,0.9589824080467224,-0.02043932117521763,0.7585087418556213
1782968822595528700,3.72152880859375,0.9709833860397339,-0.039971400052309036,0.7870289087295532
1782968822605454300,3.731454345703125,0.991435706615448,-0.04875956475734711,0.7978234887123108
1782968822615381500,3.741381591796875,1.0318118333816528,-0.0332767479121685,0.789902925491333
1782968822625307600,3.7513076171875,1.0991958379745483,0.012073958292603493,0.77189701795578
1782968822635233500,3.761233642578125,1.1850833892822266,0.02523316815495491,0.7648460865020752
1782968822645160700,3.77116064453125,1.2617545127868652,0.014115002937614918,0.7653304934501648
1782968822655086600,3.781086669921875,1.2975800037384033,-0.024086520075798035,0.74568110704422
1782968822665012500,3.791012451171875,1.281638264656067,-0.09813358634710312,0.7070455551147461
1782968822674938600,3.800938720703125,1.2132220268249512,-0.19366395473480225,0.6608544588088989
1782968822684865500,3.810865478515625,1.1078135967254639,-0.2780051827430725,0.611977219581604
1782968822694791700,3.820791748046875,0.9904038906097412,-0.33582136034965515,0.558559775352478
1782968822704717600,3.830717529296875,0.8913084864616394,-0.3678293526172638,0.49379703402519226
1782968822714644700,3.840644775390625,0.8123064041137695,-0.36972934007644653,0.4182990491390228
1782968822724570600,3.850570556640625,0.759132981300354,-0.33287331461906433,0.3507745862007141
1782968822734496500,3.86049658203125,0.7288209199905396,-0.2692227363586426,0.2990648150444031
1782968822744423400,3.87042333984375,0.7065710425376892,-0.20083674788475037,0.2733898162841797
1782968822754349600,3.880349609375,0.6801672577857971,-0.13702471554279327,0.26120415329933167
1782968822764275200,3.890275146484375,0.6474862694740295,-0.09690632671117783,0.24963967502117157
1782968822774202400,3.900202392578125,0.6185395121574402,-0.07575196027755737,0.24998703598976135
1782968822784128500,3.91012841796875,0.5941657423973083,-0.08985499292612076,0.2715471684932709
1782968822794054100,3.92005419921875,0.5830292701721191,-0.14195016026496887,0.3221079111099243
1782968822803981300,3.929981201171875,0.587012529373169,-0.1925177276134491,0.3727412521839142
1782968822813907500,3.939907470703125,0.59978848695755,-0.23950253427028656,0.4305189251899719
1782968822823833300,3.949833251953125,0.6079177856445312,-0.2715070843696594,0.48199862241744995
1782968822833759200,3.95975927734375,0.5935199856758118,-0.2951749265193939,0.5148187279701233
1782968822843686400,3.969686279296875,0.5588821172714233,-0.3188996911048889,0.5103989243507385
1782968822853612500,3.979612548828125,0.4929853677749634,-0.32455724477767944,0.46497389674186707
1782968822863538200,3.9895380859375,0.4026333689689636,-0.31442683935165405,0.3957684636116028
1782968822873464300,3.99946435546875,0.2927393615245819,-0.2973051369190216,0.31877169013023376
1782968822883390500,4.009390380859375,0.1636655181646347,-0.26715680956840515,0.23733115196228027
1782968822893317400,4.0193173828125,0.03956596925854683,-0.22223342955112457,0.14938141405582428
1782968822903243300,4.0292431640625,-0.07364927232265472,-0.16392192244529724,0.04900394007563591
1782968822913169400,4.03916943359375,-0.1775190532207489,-0.10667609423398972,-0.061241280287504196
1782968822923096300,4.049096435546875,-0.2725182771682739,-0.0426824614405632,-0.1678159236907959
1782968822933022200,4.059022216796875,-0.36341744661331177,0.03539027273654938,-0.2211216390132904
1782968822942948400,4.0689482421875,-0.4400826692581177,0.13712649047374725,-0.21334414184093475
1782968822952874500,4.07887451171875,-0.4998805820941925,0.2355669140815735,-0.15745732188224792
1782968822962801400,4.088801513671875,-0.5325870513916016,0.31032851338386536,-0.08220037817955017
1782968822972727300,4.098727294921875,-0.5450510382652283,0.34444546699523926,0.007927254773676395
1782968822982653400,4.1086533203125,-0.5345115661621094,0.3154844045639038,0.07749567925930023
1782968822992580400,4.118580322265625,-0.5115394592285156,0.22255195677280426,0.1188422366976738
1782968823002506200,4.12850634765625,-0.4823163151741028,0.07574998587369919,0.10129786282777786
1782968823012432400,4.138432373046875,-0.45793017745018005,-0.09558345377445221,0.03048943728208542
1782968823022359300,4.148359375,-0.4613534212112427,-0.25256481766700745,-0.07924239337444305
1782968823032285400,4.158285400390625,-0.5043827295303345,-0.3768683671951294,-0.2241651862859726
1782968823042211300,4.16821142578125,-0.588556706905365,-0.40839752554893494,-0.38087916374206543
1782968823052138200,4.17813818359375,-0.7138943076133728,-0.32644036412239075,-0.52469402551651
1782968823062064400,4.188064453125,-0.854884684085846,-0.1370725780725479,-0.6285879611968994
1782968823071990300,4.197990234375,-0.9907140135765076,0.13516324758529663,-0.6758953928947449
1782968823081917200,4.207917236328125,-1.0870321989059448,0.4156135320663452,-0.6434508562088013
1782968823091843300,4.21784326171875,-1.1224520206451416,0.6248553395271301,-0.5397987961769104
1782968823101769500,4.22776953125,-1.1104514598846436,0.7334550619125366,-0.39743074774742126
1782968823111695400,4.2376953125,-1.0795021057128906,0.7327497005462646,-0.2677093744277954
1782968823121622300,4.247622314453125,-1.028372049331665,0.6153807044029236,-0.20665773749351501
1782968823131548400,4.25754833984375,-0.9763854742050171,0.41323035955429077,-0.23411831259727478
1782968823141474300,4.267474365234375,-0.9388466477394104,0.19125428795814514,-0.3297699987888336
1782968823151401200,4.277401123046875,-0.9265527129173279,0.01074431836605072,-0.46156173944473267
1782968823161327400,4.287327392578125,-0.9586965441703796,-0.07599616795778275,-0.6125941276550293
1782968823171253500,4.29725341796875,-1.0286883115768433,-0.09184939414262772,-0.7649591565132141
1782968823181180200,4.30718017578125,-1.1178644895553589,-0.06977951526641846,-0.9023154377937317
1782968823191106300,4.317106201171875,-1.2161078453063965,-0.026959994807839394,-0.9981390833854675
1782968823201032400,4.327032470703125,-1.2957872152328491,0.012881958857178688,-1.0280357599258423
1782968823210959400,4.33695947265625,-1.3399461507797241,0.028620518743991852,-0.9749352335929871
1782968823220885200,4.34688525390625,-1.3363051414489746,0.014055692590773106,-0.8774619698524475
1782968823230811400,4.356811279296875,-1.2789089679718018,-0.04472251981496811,-0.799896776676178
1782968823240737500,4.366737548828125,-1.1849273443222046,-0.11277320235967636,-0.7698808312416077
1782968823250664400,4.37666455078125,-1.0869996547698975,-0.1700289249420166,-0.7744121551513672
1782968823260590300,4.38659033203125,-0.9965382814407349,-0.19718331098556519,-0.7899351716041565
1782968823270516500,4.3965166015625,-0.9365711808204651,-0.18905222415924072,-0.8036788105964661
1782968823280443400,4.406443359375,-0.9028558731079102,-0.18063797056674957,-0.8136627674102783
1782968823290369300,4.416369384765625,-0.8671172261238098,-0.17220404744148254,-0.7928458452224731
1782968823300295400,4.42629541015625,-0.8234858512878418,-0.13294558227062225,-0.7428061366081238
1782968823310222300,4.436222412109375,-0.7662068605422974,-0.07678496092557907,-0.6706539988517761
1782968823320148500,4.4461484375,-0.7063584327697754,-0.004536597058176994,-0.5956798791885376
1782968823330074400,4.456074462890625,-0.6408641934394836,0.06599791347980499,-0.5440754890441895
1782968823340001300,4.466001220703125,-0.5833276510238647,0.10327710211277008,-0.5221669673919678
1782968823349927400,4.475927490234375,-0.5308308601379395,0.10019993782043457,-0.5177710652351379
1782968823359853300,4.485853271484375,-0.5096563696861267,0.09023625403642654,-0.5316751599311829
1782968823369780200,4.4957802734375,-0.5068565607070923,0.10488896071910858,-0.5879098773002625
1782968823379706400,4.505706298828125,-0.49263766407966614,0.17990435659885406,-0.6989218592643738
1782968823389632500,4.515632568359375,-0.4761457145214081,0.279879093170166,-0.859836220741272
1782968823399559200,4.52555908203125,-0.4779587686061859,0.41038036346435547,-1.0593993663787842
1782968823409485300,4.5354853515625,-0.4287492334842682,0.50475013256073,-1.2012180089950562
1782968823419411500,4.545411376953125,-0.27281051874160767,0.4540230631828308,-1.0931724309921265
1782968823429337300,4.55533740234375,-0.05841523036360741,0.27617964148521423,-0.8382710218429565
1782968823439264300,4.56526416015625,0.22874915599822998,0.11344265937805176,-0.5144546031951904
1782968823449190400,4.5751904296875,0.4885576069355011,0.00539828697219491,-0.14932914078235626
1782968823459116500,4.585116455078125,0.7345538139343262,-0.1358477920293808,0.21482403576374054
1782968823469043200,4.595043212890625,0.9101583361625671,-0.24155327677726746,0.47817397117614746
1782968823478969300,4.60496923828125,1.0266473293304443,-0.26091447472572327,0.6034163236618042
1782968823488895500,4.6148955078125,1.0938066244125366,-0.2311905175447464,0.6256583333015442
1782968823498822400,4.624822509765625,1.1142606735229492,-0.1620873361825943,0.5817289352416992
1782968823508748300,4.634748291015625,1.0781621932983398,-0.09887858480215073,0.4862229824066162
1782968823518674400,4.64467431640625,1.0088961124420166,-0.07222460210323334,0.37158510088920593
1782968823528601300,4.654601318359375,0.9208714962005615,-0.06782300770282745,0.2878757119178772
1782968823538527200,4.66452734375,0.8579822778701782,-0.08953362703323364,0.2734498977661133
1782968823548453400,4.674453369140625,0.8600960373878479,-0.1155163049697876,0.33134543895721436
1782968823558380300,4.68438037109375,0.9232398271560669,-0.10551666468381882,0.4438301622867584
1782968823568306400,4.694306396484375,1.0389318466186523,-0.06427266448736191,0.5878186225891113
1782968823578232300,4.704232421875,1.1759858131408691,0.00019526947289705276,0.7309419512748718
1782968823588159200,4.7141591796875,1.3205934762954712,0.05988500267267227,0.860306978225708
1782968823598085400,4.72408544921875,1.4245954751968384,0.09944652765989304,0.9455675482749939
1782968823608011300,4.73401123046875,1.471657633781433,0.08934082090854645,0.9957079291343689
1782968823617937400,4.7439375,1.4890522956848145,0.005837937816977501,1.011757731437683
1782968823627864300,4.7538642578125,1.4914711713790894,-0.1404094696044922,0.9947065711021423
1782968823637790500,4.76379052734375,1.488827109336853,-0.2899387776851654,0.9685208201408386
1782968823647716400,4.77371630859375,1.492428183555603,-0.4261789321899414,0.9302037358283997
1782968823657643300,4.783643310546875,1.4770334959030151,-0.5369515419006348,0.8847201466560364
1782968823667569400,4.7935693359375,1.431120753288269,-0.6098649501800537,0.8397535085678101
1782968823677495300,4.803495361328125,1.3557021617889404,-0.6196741461753845,0.7843115329742432
1782968823687422200,4.813422119140625,1.2663222551345825,-0.5763033032417297,0.7206676602363586
1782968823697348400,4.823348388671875,1.1642712354660034,-0.4995480477809906,0.6415855884552002
1782968823707274500,4.8332744140625,1.0525763034820557,-0.4282133877277374,0.5331207513809204
1782968823717201400,4.843201416015625,0.946762204170227,-0.3972056806087494,0.4327632784843445
1782968823727127300,4.853127197265625,0.8485479354858398,-0.386961430311203,0.37339529395103455
1782968823737054200,4.86305419921875,0.7711521983146667,-0.37348902225494385,0.3812204599380493
1782968823746981000,4.872981201171875,0.7020375728607178,-0.35380426049232483,0.4244707226753235
1782968823756907000,4.882906982421875,0.6575881242752075,-0.3288600444793701,0.45768725872039795
1782968823766833200,4.892833251953125,0.64231276512146,-0.2965773940086365,0.4618230164051056
1782968823776759000,4.902759033203125,0.6337464451789856,-0.26906242966651917,0.4399819076061249
1782968823786686200,4.912686279296875,0.6202260255813599,-0.25284749269485474,0.4043281078338623
1782968823796612000,4.922612060546875,0.608721137046814,-0.2312260866165161,0.40297043323516846
1782968823806538000,4.9325380859375,0.6035733819007874,-0.1982182264328003,0.4019283652305603
1782968823816465200,4.942465087890625,0.5934227108955383,-0.1549258679151535,0.37183862924575806
1782968823826391000,4.95239111328125,0.5891136527061462,-0.1730061024427414,0.3956919014453888
1782968823836317200,4.962317138671875,0.5693082213401794,-0.22727148234844208,0.43028050661087036
1782968823846244000,4.972244140625,0.5318506360054016,-0.26461565494537354,0.4382188022136688
1782968823856170200,4.982170166015625,0.4889342784881592,-0.27874237298965454,0.4471025764942169
1782968823866096000,4.99209619140625,0.4387354552745819,-0.284912109375,0.44016388058662415
1782968823876023000,5.00202294921875,0.3891005218029022,-0.2616158425807953,0.39692506194114685
1782968823885949200,5.01194921875,0.319834440946579,-0.2206401228904724,0.3127557337284088
1782968823895875000,5.021875,0.22113902866840363,-0.17608970403671265,0.1776367723941803
1782968823905802000,5.031802001953125,0.09069106727838516,-0.12632283568382263,0.003013989422470331
1782968823915728100,5.04172802734375,-0.0649254247546196,-0.05868467316031456,-0.19493716955184937
1782968823925654300,5.051654296875,-0.21017858386039734,0.02065432071685791,-0.37116530537605286
1782968823935580000,5.061579833984375,-0.33319348096847534,0.1188136413693428,-0.48191285133361816
1782968823945507000,5.071507080078125,-0.4165770411491394,0.2455819845199585,-0.4928555190563202
1782968823955433200,5.08143310546875,-0.45300430059432983,0.40210819244384766,-0.4194105863571167
1782968823965358800,5.09135888671875,-0.4414449632167816,0.5290701985359192,-0.301388144493103
1782968823975286000,5.1012861328125,-0.3857846260070801,0.5968055725097656,-0.1502462774515152
1782968823985212200,5.111212158203125,-0.32377418875694275,0.5868515968322754,-0.007125727832317352
1782968823995138000,5.121137939453125,-0.26087749004364014,0.4675579369068146,0.08816137909889221
1782968824005065000,5.13106494140625,-0.24722643196582794,0.24449102580547333,0.11667924374341965
1782968824014991000,5.1409912109375,-0.22192427515983582,0.11548005044460297,0.09975139796733856
1782968824024917200,5.150917236328125,-0.2239769846200943,-0.032926082611083984,-0.0005335196619853377
1782968824034844200,5.16084423828125,-0.28049007058143616,-0.1823776215314865,-0.14477990567684174
1782968824044770000,5.17077001953125,-0.3636687397956848,-0.21438977122306824,-0.28329917788505554
1782968824054696200,5.1806962890625,-0.45288702845573425,-0.1848614513874054,-0.4053366482257843
1782968824064623000,5.190623046875,-0.5499690175056458,-0.08459445089101791,-0.4691367745399475
1782968824074549000,5.200549072265625,-0.6314846277236938,0.06877139955759048,-0.46318647265434265
1782968824084475100,5.21047509765625,-0.6640558242797852,0.3090585768222809,-0.47115349769592285
1782968824094402000,5.220402099609375,-0.6652361750602722,0.454190731048584,-0.4576736390590668
1782968824104328200,5.230328125,-0.6758750081062317,0.4468733072280884,-0.45077335834503174
1782968824114254000,5.240254150390625,-0.6897767186164856,0.4556902348995209,-0.4895455241203308
1782968824124181000,5.250180908203125,-0.6948584318161011,0.4029558002948761,-0.5719248056411743
1782968824134107100,5.260107177734375,-0.7343363165855408,0.26871731877326965,-0.6715584397315979
1782968824144033000,5.270032958984375,-0.8120434284210205,0.1009252667427063,-0.744635820388794
1782968824153959000,5.279958984375,-0.8507178425788879,-0.03657027706503868,-0.778705358505249
1782968824163886000,5.289885986328125,-0.887904942035675,-0.21572111546993256,-0.8247848153114319
1782968824173812200,5.299812255859375,-0.8963445425033569,-0.29573366045951843,-0.8533645272254944
1782968824183738000,5.309738037109375,-0.8596656918525696,-0.20970188081264496,-0.8954867124557495
1782968824193665000,5.3196650390625,-0.8460654616355896,-0.12012273073196411,-0.9818748831748962
1782968824203591200,5.329591064453125,-0.8713098764419556,-0.012689255177974701,-1.0453673601150513
1782968824213517000,5.33951708984375,-0.9239877462387085,0.0866469219326973,-1.072359323501587
1782968824223444000,5.34944384765625,-1.009706974029541,0.15924416482448578,-1.0454118251800537
1782968824233370000,5.3593701171875,-1.1003031730651855,0.13047322630882263,-1.0091841220855713
1782968824243296300,5.369296142578125,-1.1810661554336548,0.051507990807294846,-0.9711263179779053
1782968824253223200,5.37922314453125,-1.2366373538970947,-0.051754213869571686,-0.9356005787849426
1782968824263149000,5.389149169921875,-1.2936190366744995,-0.1248599961400032,-0.9317967295646667
1782968824273075200,5.3990751953125,-1.3222291469573975,-0.16344814002513885,-0.9147519469261169
1782968824283000800,5.409000732421875,-1.296771764755249,-0.1767914891242981,-0.8273019790649414
1782968824292928000,5.418927978515625,-1.2496947050094604,-0.1353665441274643,-0.7140265107154846
1782968824302854100,5.428854248046875,-1.1745253801345825,-0.08083422482013702,-0.59406578540802
1782968824312780000,5.438780029296875,-1.0930036306381226,-0.01598198711872101,-0.4844990670681
1782968824322707200,5.448707275390625,-1.0247724056243896,0.028425423428416252,-0.38804468512535095
1782968824332633000,5.458633056640625,-0.9986340403556824,0.06632353365421295,-0.3413331210613251
1782968824342559000,5.46855908203125,-1.0368435382843018,0.09847622364759445,-0.3617253005504608
1782968824352486100,5.478486083984375,-1.156104326248169,0.12923653423786163,-0.4154370129108429
1782968824362412000,5.488412109375,-1.3019448518753052,0.14519964158535004,-0.49223265051841736
1782968824372338200,5.498338134765625,-1.4674831628799438,0.14971530437469482,-0.5044136643409729
1782968824382265000,5.50826513671875,-1.5197184085845947,0.07374397665262222,-0.44447386264801025
1782968824392191200,5.518191162109375,-1.4237910509109497,0.2034175544977188,-0.30467256903648376
1782968824402117000,5.5281171875,-1.2230497598648071,0.5383448004722595,-0.22005300223827362
1782968824412044000,5.5380439453125,-0.9409582018852234,0.8835616111755371,-0.34525060653686523
1782968824421970200,5.54797021484375,-0.6373456716537476,1.0851795673370361,-0.4312630891799927
1782968824431896000,5.55789599609375,-0.3597539961338043,0.9694554209709167,-0.338701456785202
1782968824441823000,5.567822998046875,-0.17062079906463623,0.5337536334991455,-0.14100418984889984
1782968824451749000,5.5777490234375,-0.05441536754369736,0.013324578292667866,0.05323958396911621
1782968824461675300,5.58767529296875,0.05870245397090912,-0.4190102219581604,0.2320275753736496
1782968824471601000,5.597600830078125,0.19208528101444244,-0.649482786655426,0.3844115436077118
1782968824481528000,5.607528076171875,0.3258648216724396,-0.6335567235946655,0.5245724320411682
1782968824491454200,5.6174541015625,0.4304162561893463,-0.4288909435272217,0.6592381000518799
1782968824501379800,5.6273798828125,0.5010679960250854,-0.12047107517719269,0.7394763827323914
1782968824511307000,5.63730712890625,0.5194272994995117,0.20776140689849854,0.7498835325241089
1782968824521233200,5.647233154296875,0.5081335306167603,0.46943220496177673,0.6931003928184509
1782968824531159000,5.657158935546875,0.48783090710639954,0.6508821249008179,0.5919412970542908
1782968824541086000,5.6670859375,0.4498775899410248,0.7499758005142212,0.47127360105514526
1782968824551012000,5.67701220703125,0.3968793451786041,0.7550709843635559,0.36163127422332764
1782968824560938200,5.686938232421875,0.36909645795822144,0.6420129537582397,0.2837139070034027
1782968824570865200,5.696865234375,0.4473435878753662,0.4696055054664612,0.2779487073421478
1782968824580791000,5.706791015625,0.5952757596969604,0.26509737968444824,0.355412095785141
1782968824590717200,5.71671728515625,0.7836613655090332,0.0805741474032402,0.4836835265159607
1782968824600644000,5.72664404296875,0.9947488307952881,-0.06821494549512863,0.6372274160385132
1782968824610570000,5.736570068359375,1.2031928300857544,-0.17329876124858856,0.802668035030365
1782968824620496100,5.74649609375,1.3871922492980957,-0.23683081567287445,0.9698481559753418
1782968824630422000,5.756422119140625,1.5204617977142334,-0.25590598583221436,1.1014128923416138
1782968824640349200,5.76634912109375,1.5830469131469727,-0.2557196319103241,1.1763466596603394
1782968824650275000,5.776275146484375,1.5866057872772217,-0.23494669795036316,1.178231120109558
1782968824660201000,5.786200927734375,1.535057544708252,-0.20631079375743866,1.1142686605453491
1782968824670128000,5.796128173828125,1.4631335735321045,-0.1749590039253235,0.9897523522377014
1782968824680054000,5.806053955078125,1.4037741422653198,-0.14648285508155823,0.8606541156768799
1782968824689980000,5.81597998046875,1.3821189403533936,-0.19711114466190338,0.7962232232093811
1782968824699907000,5.825906982421875,1.3783401250839233,-0.2775806784629822,0.7698525190353394
1782968824709833200,5.835833251953125,1.367390513420105,-0.3588923215866089,0.7528847455978394
1782968824719759000,5.845759033203125,1.3398274183273315,-0.42370378971099854,0.7313416004180908
1782968824729686000,5.85568603515625,1.2835345268249512,-0.4782749116420746,0.6900327801704407
1782968824739612200,5.865612060546875,1.1919854879379272,-0.5486097931861877,0.6489266753196716
1782968824749538300,5.875538330078125,1.0593935251235962,-0.5676516890525818,0.6328818798065186
1782968824759465200,5.88546533203125,0.9048977494239807,-0.5160245299339294,0.6451807618141174
1782968824769391000,5.89539111328125,0.763969361782074,-0.4168185889720917,0.6421242356300354
1782968824779317200,5.905317138671875,0.6701371073722839,-0.3051207363605499,0.6042122840881348
1782968824789243100,5.9152431640625,0.603262722492218,-0.19836287200450897,0.5328201055526733
1782968824799170000,5.925170166015625,0.5595210194587708,-0.09309613704681396,0.4642622768878937
1782968824809096200,5.93509619140625,0.5340577363967896,0.022669877856969833,0.3806459307670593
1782968824819022000,5.94502197265625,0.5100053548812866,0.12309768050909042,0.3544906973838806
1782968824828949200,5.95494921875,0.4847221076488495,0.170956552028656,0.3888276219367981
1782968824838875100,5.964875244140625,0.4648710787296295,0.18260623514652252,0.44066330790519714
1782968824848801000,5.974801025390625,0.46164652705192566,0.15893633663654327,0.4910886585712433
1782968824858728200,5.984728271484375,0.4730808138847351,0.07520735263824463,0.5236433744430542
1782968824868654000,5.994654052734375,0.48686328530311584,-0.046813592314720154,0.5490350723266602
1782968824878580000,6.004580078125,0.4887964725494385,-0.1736542135477066,0.5655437111854553
1782968824888507100,6.014507080078125,0.4769083857536316,-0.2990070581436157,0.5631594061851501
1782968824898433300,6.024433349609375,0.44523438811302185,-0.3671215772628784,0.540186882019043
1782968824908359200,6.034359130859375,0.3835097551345825,-0.37046703696250916,0.49347129464149475
1782968824918286000,6.0442861328125,0.2892214357852936,-0.3321550190448761,0.40546858310699463
1782968824928212200,6.054212158203125,0.16815975308418274,-0.25594013929367065,0.2692505717277527
1782968824938138000,6.06413818359375,0.01910058781504631,-0.15941275656223297,0.07633661478757858
1782968824948065000,6.07406494140625,-0.16023029386997223,-0.05339125916361809,-0.15598876774311066
1782968824957991200,6.0839912109375,-0.33160942792892456,0.07207676023244858,-0.36912158131599426
1782968824967917300,6.093917236328125,-0.47511786222457886,0.2064036875963211,-0.5176271796226501
1782968824977843000,6.103843017578125,-0.5632796287536621,0.32737645506858826,-0.5693209767341614
1782968824987770000,6.11377001953125,-0.5855633616447449,0.4281770884990692,-0.536476194858551
1782968824997696300,6.1236962890625,-0.5363367795944214,0.5154216289520264,-0.47659939527511597
1782968825007622000,6.133621826171875,-0.4415609836578369,0.5393229722976685,-0.331086665391922
1782968825017549000,6.143549072265625,-0.340993732213974,0.4440504312515259,-0.155259907245636
1782968825027475200,6.15347509765625,-0.26484864950180054,0.27671098709106445,-0.04310888051986694
1782968825037401000,6.163401123046875,-0.21183866262435913,0.09908224642276764,-0.015815122053027153
1782968825047328000,6.173327880859375,-0.20210213959217072,-0.10268549621105194,-0.05967658385634422
1782968825057254100,6.183254150390625,-0.23312914371490479,-0.29528525471687317,-0.1544228345155716
1782968825067180000,6.193179931640625,-0.29388144612312317,-0.44002166390419006,-0.277135968208313
1782968825077107200,6.203107177734375,-0.3671238422393799,-0.4903833568096161,-0.3918469250202179
1782968825087033000,6.213033203125,-0.44590041041374207,-0.4208780527114868,-0.4865201711654663
1782968825096959200,6.222959228515625,-0.5271182060241699,-0.2645461857318878,-0.5584339499473572
1782968825106885000,6.232885009765625,-0.6017508506774902,-0.03823688253760338,-0.6036205887794495
1782968825116812000,6.24281201171875,-0.6617705225944519,0.19534631073474884,-0.6222853660583496
1782968825126738200,6.25273828125,-0.702398419380188,0.38398972153663635,-0.6224225163459778
1782968825136664000,6.2626640625,-0.7345473170280457,0.5082123279571533,-0.617462158203125
1782968825146591200,6.27259130859375,-0.7646370530128479,0.5208583474159241,-0.6105954647064209
1782968825156517000,6.28251708984375,-0.8037192225456238,0.443805992603302,-0.5903580188751221
1782968825166443000,6.292443115234375,-0.8390790820121765,0.3180201053619385,-0.5576874017715454
1782968825176370200,6.3023701171875,-0.873877763748169,0.1745840460062027,-0.5491525530815125
1782968825186296000,6.312296142578125,-0.9084506034851074,0.06587433815002441,-0.5912286043167114
1782968825196222000,6.322221923828125,-0.957247257232666,0.006037903483957052,-0.6843549013137817
1782968825206149000,6.332149169921875,-1.0162233114242554,-0.017953183501958847,-0.8127906322479248
1782968825216075300,6.3420751953125,-1.056743860244751,-0.06174057349562645,-0.950516402721405
1782968825226001200,6.352001220703125,-1.0621373653411865,-0.13326935470104218,-1.0641915798187256
1782968825235928000,6.361927978515625,-1.0260837078094482,-0.2120017260313034,-1.1258727312088013
1782968825245854200,6.371854248046875,-0.9647577404975891,-0.29414770007133484,-1.11989426612854
1782968825255780000,6.381780029296875,-0.8921042680740356,-0.3558061122894287,-1.0610077381134033
1782968825265707000,6.39170703125,-0.8109316825866699,-0.3765433430671692,-0.9856328368186951
1782968825275633200,6.401633056640625,-0.7435318827629089,-0.3482111096382141,-0.9257270693778992
1782968825285559300,6.411559326171875,-0.6866675019264221,-0.33263614773750305,-0.8444963693618774
1782968825295485000,6.42148486328125,-0.6690300703048706,-0.3207450211048126,-0.7821977734565735
1782968825305412000,6.431412109375,-0.6988691687583923,-0.30209144949913025,-0.741886556148529
1782968825315338200,6.441338134765625,-0.7345850467681885,-0.27458247542381287,-0.733726441860199
1782968825325264100,6.45126416015625,-0.772271454334259,-0.2338656485080719,-0.7161591649055481
1782968825335191000,6.46119091796875,-0.7987179160118103,-0.21582423150539398,-0.6798463463783264
1782968825345117200,6.4711171875,-0.8022562265396118,-0.1943812519311905,-0.6419673562049866
1782968825355043000,6.48104296875,-0.804103434085846,-0.155832901597023,-0.5918846726417542
1782968825364970200,6.49097021484375,-0.8081703782081604,-0.0838971957564354,-0.5539945363998413
1782968825374896000,6.500896240234375,-0.8182743191719055,0.0778610035777092,-0.5771536827087402
1782968825384822000,6.510822021484375,-0.8201656937599182,0.259442001581192,-0.5761760473251343
1782968825394749200,6.520749267578125,-0.8065493106842041,0.36669203639030457,-0.5038784742355347
1782968825404675000,6.530675048828125,-0.7864192724227905,0.4540290832519531,-0.3652081787586212
1782968825414601000,6.54060107421875,-0.7313477993011475,0.5459316968917847,-0.21056951582431793
1782968825424528100,6.550528076171875,-0.5889546871185303,0.721424400806427,-0.14867739379405975
1782968825434454300,6.560454345703125,-0.4047297239303589,0.8856978416442871,-0.1048954650759697
1782968825444380200,6.570380126953125,-0.23352040350437164,0.8244690895080566,0.028909476473927498
1782968825454306000,6.58030615234375,-0.10746517032384872,0.5554081201553345,0.1809297502040863
1782968825464233200,6.590233154296875,0.005476290360093117,0.23497657477855682,0.28223374485969543
1782968825474159000,6.6001591796875,0.14417944848537445,-0.059811875224113464,0.34381818771362305
1782968825484085000,6.6100849609375,0.3255678713321686,-0.28480851650238037,0.3941551148891449
1782968825494012200,6.62001220703125,0.5175215005874634,-0.38934001326560974,0.48267868161201477
1782968825503938300,6.629938232421875,0.6844910383224487,-0.3931898772716522,0.6417593955993652
1782968825513864000,6.639864013671875,0.801593005657196,-0.28645992279052734,0.8382307887077332
1782968825523791000,6.649791015625,0.860994815826416,-0.07519322633743286,1.004266619682312
1782968825533717200,6.65971728515625,0.8580067157745361,0.20205043256282806,1.0889787673950195
1782968825543643000,6.669642822265625,0.8163633942604065,0.4650879502296448,1.0734516382217407
1782968825553570000,6.679570068359375,0.7325745820999146,0.5777932405471802,0.9652374386787415
1782968825563496200,6.68949609375,0.6413620710372925,0.571012556552887,0.8295730352401733
1782968825573422000,6.699422119140625,0.6273481249809265,0.5209478139877319,0.741460919380188
1782968825583349000,6.709348876953125,0.6989874243736267,0.40317484736442566,0.7119299173355103
1782968825593275100,6.719275146484375,0.8044775724411011,0.2622046172618866,0.744257390499115
1782968825603201000,6.729200927734375,0.913651704788208,0.16075018048286438,0.8167427778244019
1782968825613128200,6.739128173828125,1.0106737613677979,0.06873130053281784,0.9007055759429932
1782968825623054000,6.74905419921875,1.097342610359192,-0.012359822168946266,0.9756799936294556
1782968825632980200,6.758980224609375,1.1610323190689087,-0.020854279398918152,1.0605021715164185
1782968825642906000,6.768906005859375,1.1862671375274658,0.03644256666302681,1.144803524017334
1782968825652833300,6.778833251953125,1.1771774291992188,0.10842583328485489,1.2141001224517822
1782968825662759200,6.78875927734375,1.152052640914917,0.1815548986196518,1.2493371963500977
1782968825672685000,6.79868505859375,1.1334946155548096,0.2211419939994812,1.24490225315094
1782968825682612200,6.8086123046875,1.1358851194381714,0.1972997784614563,1.206882357597351
1782968825692538000,6.8185380859375,1.1626628637313843,0.11015643179416656,1.1400001049041748
1782968825702464000,6.828464111328125,1.2020233869552612,-0.06976726651191711,1.0368186235427856
1782968825712391200,6.83839111328125,1.2489280700683594,-0.32441094517707825,0.941775381565094
1782968825722317300,6.8483173828125,1.282250165939331,-0.6034992933273315,0.8589284420013428
1782968825732243000,6.858242919921875,1.2972908020019531,-0.8377313017845154,0.7844106554985046
1782968825742170600,6.868170654296875,1.2963930368423462,-0.9709524512290955,0.7059206366539001
1782968825752096800,6.8780966796875,1.2920039892196655,-1.006544828414917,0.6116282343864441
1782968825762022400,6.8880224609375,1.2715799808502197,-0.9275844097137451,0.5209305882453918
1782968825771948500,6.897948486328125,1.2194111347198486,-0.7651028037071228,0.4487476944923401
1782968825781875700,6.907875732421875,1.1250510215759277,-0.5619409084320068,0.39446499943733215
1782968825791801300,6.91780126953125,0.9897992610931396,-0.3527112305164337,0.3489743173122406
1782968825801727500,6.9277275390625,0.8324916362762451,-0.15148279070854187,0.2976698577404022
1782968825811654700,6.937654541015625,0.6670664548873901,0.0039014783687889576,0.2353644073009491
1782968825821580500,6.94758056640625,0.49331867694854736,0.13269487023353577,0.1649208664894104
1782968825831506400,6.95750634765625,0.33291953802108765,0.24345000088214874,0.11448672413825989
1782968825841433600,6.96743359375,0.1869836300611496,0.31442776322364807,0.07666744291782379
1782968825851359500,6.977359375,0.0779513344168663,0.3187984228134155,0.059311408549547195
1782968825861285400,6.987285400390625,0.06866142898797989,0.2994955778121948,0.09179158508777618
1782968825871212500,6.997212646484375,0.1403251737356186,0.2342166006565094,0.17556090652942657
1782968825881138700,7.007138671875,0.264648973941803,0.12373774498701096,0.2783522605895996
1782968825891064600,7.017064697265625,0.3868464529514313,0.004575484897941351,0.38237398862838745
1782968825900991700,7.02699169921875,0.4621894061565399,-0.13380688428878784,0.4443438947200775
1782968825910917600,7.036917724609375,0.47641536593437195,-0.27550965547561646,0.44179168343544006
1782968825920843500,7.046843505859375,0.41128402948379517,-0.3763673007488251,0.3682812452316284
1782968825930770700,7.056770751953125,0.2725413143634796,-0.40995970368385315,0.2398737072944641
1782968825940696600,7.066696533203125,0.0908101424574852,-0.34391677379608154,0.09552212804555893
1782968825950622500,7.07662255859375,-0.10847193002700806,-0.17899833619594574,-0.03586295247077942
1782968825960548600,7.086548583984375,-0.28358224034309387,0.049621254205703735,-0.11449304968118668
1782968825970475800,7.096475830078125,-0.3983791470527649,0.2880418300628662,-0.13999927043914795
1782968825980401400,7.1064013671875,-0.43189555406570435,0.4812528192996979,-0.11922767758369446
1782968825990327600,7.11632763671875,-0.40210309624671936,0.5902643799781799,-0.07005628198385239
1782968826000254700,7.126254638671875,-0.3468393087387085,0.5933882594108582,-0.010474713519215584
1782968826010180400,7.136180419921875,-0.3109089434146881,0.495019793510437,0.04969802126288414
1782968826020106500,7.1461064453125,-0.2977486550807953,0.32591941952705383,0.105994313955307
1782968826030033700,7.15603369140625,-0.3032527267932892,0.09949598461389542,0.12853804230690002
1782968826039959600,7.16595947265625,-0.3394962251186371,-0.1635521501302719,0.09191878139972687
1782968826049885400,7.175885498046875,-0.3992229402065277,-0.422881156206131,0.011218002997338772
1782968826059812600,7.1858125,-0.48429441452026367,-0.6192605495452881,-0.08278758823871613
1782968826069738800,7.19573876953125,-0.5737936496734619,-0.7055503129959106,-0.15947476029396057
1782968826079664400,7.205664306640625,-0.6381052732467651,-0.7090286612510681,-0.2272612601518631
1782968826089591600,7.215591552734375,-0.6643311381340027,-0.6542349457740784,-0.2923128306865692
1782968826099517700,7.225517578125,-0.6483790278434753,-0.525362491607666,-0.34765544533729553
1782968826109443600,7.235443603515625,-0.5998292565345764,-0.35701483488082886,-0.41470980644226074
1782968826119370500,7.24537060546875,-0.5614144802093506,-0.18820610642433167,-0.48932012915611267
1782968826129296600,7.255296630859375,-0.5433737635612488,-0.08104514330625534,-0.5558903217315674
1782968826139222500,7.265222412109375,-0.5586315393447876,-0.05437704920768738,-0.6100401282310486
1782968826149148400,7.2751484375,-0.5878486633300781,-0.10551552474498749,-0.6571053862571716
1782968826159075600,7.28507568359375,-0.6402287483215332,-0.18748869001865387,-0.6930455565452576
1782968826169001500,7.29500146484375,-0.7110005617141724,-0.2396732121706009,-0.7571720480918884
1782968826178927600,7.304927734375,-0.8061805963516235,-0.23179371654987335,-0.869579017162323
1782968826188854500,7.3148544921875,-0.9206605553627014,-0.15897798538208008,-1.0368105173110962
1782968826198780400,7.324780517578125,-1.0501066446304321,-0.033563606441020966,-1.2342798709869385
1782968826208706600,7.33470654296875,-1.1808785200119019,0.09194143116474152,-1.404788851737976
1782968826218633700,7.3446337890625,-1.2741740942001343,0.19338417053222656,-1.510678768157959
1782968826228559600,7.3545595703125,-1.3098008632659912,0.2810046672821045,-1.517444133758545
1782968826238485500,7.364485595703125,-1.2961201667785645,0.3226469159126282,-1.460371971130371
1782968826248412700,7.37441259765625,-1.2593944072723389,0.2978503108024597,-1.3726470470428467
1782968826258338600,7.384338623046875,-1.2109013795852661,0.23058073222637177,-1.2758525609970093
1782968826268264400,7.394264404296875,-1.149389386177063,0.1491680145263672,-1.1831222772598267
1782968826278191600,7.404191650390625,-1.068765640258789,0.07627276331186295,-1.100675106048584
1782968826288117800,7.41411767578125,-0.982732892036438,0.02415900118649006,-1.0435525178909302
1782968826298043400,7.42404345703125,-0.9000356197357178,-0.008373907767236233,-1.0082017183303833
1782968826307969500,7.433969482421875,-0.8345181345939636,-0.027309782803058624,-0.9832199811935425
1782968826317896700,7.443896728515625,-0.8173357248306274,-0.0169876366853714,-0.9403340220451355
1782968826327822300,7.453822265625,-0.8413776159286499,0.030482182279229164,-0.8782836198806763
1782968826337748500,7.46374853515625,-0.8522960543632507,0.12167467921972275,-0.8272260427474976
1782968826347675600,7.473675537109375,-0.8396304249763489,0.2647272050380707,-0.79114830493927
1782968826357601500,7.4836015625,-0.80584716796875,0.3529750406742096,-0.6979890465736389
1782968826367527400,7.49352734375,-0.7705209255218506,0.38327717781066895,-0.5898443460464478
1782968826377454600,7.50345458984375,-0.7358119487762451,0.42650747299194336,-0.5142945051193237
1782968826387380500,7.51338037109375,-0.6964450478553772,0.4694484770298004,-0.4313197731971741
1782968826397306600,7.523306640625,-0.637198269367218,0.4925159811973572,-0.35631558299064636
1782968826407233500,7.533233642578125,-0.5580222010612488,0.5569820404052734,-0.32310304045677185
1782968826417159700,7.54315966796875,-0.4398287534713745,0.6801913380622864,-0.3978281319141388
1782968826427085600,7.55308544921875,-0.3597120940685272,0.72400963306427,-0.4594827890396118
1782968826437012700,7.5630126953125,-0.30348077416419983,0.6423773765563965,-0.494059681892395
1782968826446938600,7.572938720703125,-0.2224896103143692,0.3703247010707855,-0.4674210846424103
1782968826456864500,7.582864501953125,-0.11257856339216232,0.013309324160218239,-0.40997907519340515
1782968826466790700,7.592790771484375,0.02304946817457676,-0.33806172013282776,-0.30722129344940186
1782968826476717600,7.602717529296875,0.1995432823896408,-0.5929097533226013,-0.12898792326450348
1782968826486643500,7.6126435546875,0.4025839865207672,-0.6957500576972961,0.11039237678050995
1782968826496569600,7.622569580078125,0.6095648407936096,-0.6417659521102905,0.35208436846733093
1782968826506496800,7.632496826171875,0.8062137961387634,-0.418255090713501,0.5714783072471619
1782968826516422400,7.64242236328125,0.9669573903083801,-0.11221367120742798,0.7311931252479553
1782968826526348500,7.6523486328125,1.0572772026062012,0.1784743368625641,0.803016722202301
1782968826536275700,7.662275634765625,1.060150146484375,0.38429808616638184,0.7997407913208008
1782968826546201300,7.672201416015625,0.9864228963851929,0.4886847734451294,0.7205077409744263
1782968826556127500,7.68212744140625,0.8726899027824402,0.46064114570617676,0.5982390642166138
1782968826566054700,7.6920546875,0.7952114939689636,0.3381873071193695,0.5114309787750244
1782968826575980500,7.70198046875,0.8025863170623779,0.1725916862487793,0.4893302023410797
1782968826585906400,7.711906494140625,0.8499259948730469,-0.03867896646261215,0.5318540930747986
1782968826595833600,7.72183349609375,0.9279656410217285,-0.23871485888957977,0.6394074559211731
1782968826605759700,7.731759765625,1.0423301458358765,-0.34989133477211,0.8100987076759338
1782968826615685400,7.741685302734375,1.1879909038543701,-0.33857396245002747,1.0046647787094116
1782968826625611500,7.751611572265625,1.3483103513717651,-0.2529468238353729,1.1760706901550293
1782968826635538700,7.76153857421875,1.4881083965301514,-0.18399226665496826,1.2976871728897095
1782968826645464600,7.771464599609375,1.575629711151123,-0.15006378293037415,1.3794629573822021
1782968826655390500,7.781390380859375,1.6019185781478882,-0.15264146029949188,1.40854012966156
1782968826665317600,7.791317626953125,1.5818551778793335,-0.22884529829025269,1.3687095642089844
1782968826675243500,7.801243408203125,1.4977046251296997,-0.34279128909111023,1.2244365215301514
1782968826685169400,7.81116943359375,1.3673620223999023,-0.4638071358203888,1.0023373365402222
1782968826695096600,7.8210966796875,1.2318366765975952,-0.5750921368598938,0.7226516008377075
1782968826705022500,7.8310224609375,1.11043119430542,-0.6539989113807678,0.4486123323440552
1782968826714948600,7.840948486328125,1.0250813961029053,-0.6645575761795044,0.24446162581443787
1782968826724875500,7.85087548828125,0.9785394668579102,-0.6319341659545898,0.12583528459072113
1782968826734801400,7.860801513671875,0.9577005505561829,-0.5651945471763611,0.10772871971130371
1782968826744726800,7.870726806640625,0.9359046816825867,-0.4789579212665558,0.1549188643693924
1782968826754653700,7.88065380859375,0.9134997725486755,-0.4131070077419281,0.23764091730117798
1782968826764579800,7.890579833984375,0.866489589214325,-0.3705894947052002,0.3355451822280884
1782968826774505700,7.900505615234375,0.7886315584182739,-0.3471025228500366,0.41565385460853577
1782968826784432600,7.9104326171875,0.700289249420166,-0.3584473729133606,0.4583195745944977
1782968826794358800,7.92035888671875,0.6002231240272522,-0.3767758011817932,0.4539692997932434
1782968826804284700,7.93028466796875,0.5069788694381714,-0.3557264804840088,0.4155377149581909
1782968826814210600,7.94021044921875,0.4204634130001068,-0.27611687779426575,0.35270336270332336
1782968826824137700,7.9501376953125,0.3377557396888733,-0.1254928559064865,0.2650575637817383
1782968826834064000,7.96006396484375,0.2455165982246399,0.06313299387693405,0.1716863363981247
1782968826843989500,7.969989501953125,0.17069517076015472,0.26639845967292786,0.1040678471326828
1782968826853916700,7.979916748046875,0.13158053159713745,0.46331313252449036,0.07224173843860626
1782968826863842800,7.9898427734375,0.149603933095932,0.6022861003875732,0.05961909517645836
1782968826873768700,7.999768798828125,0.1833275556564331,0.6488085985183716,0.05395535007119179
1782968826883695600,8.009695556640626,0.2166370153427124,0.5730405449867249,0.05877818539738655
1782968826893621800,8.019621826171875,0.23611031472682953,0.3918726444244385,0.06616392731666565
1782968826903547600,8.029547607421875,0.23900187015533447,0.13073524832725525,0.04660509526729584
1782968826913474800,8.039474853515625,0.20863570272922516,-0.15704940259456635,0.0091567886993289
1782968826923400700,8.049400634765625,0.16104350984096527,-0.41299575567245483,-0.05207864195108414
1782968826933326800,8.059326904296874,0.07199937850236893,-0.555778980255127,-0.14987152814865112
1782968826943253800,8.069253662109375,-0.04116876423358917,-0.5533455610275269,-0.2778606116771698
1782968826953179600,8.0791796875,-0.16691577434539795,-0.38889217376708984,-0.40138575434684753
1782968826963105800,8.089105712890625,-0.2853841483592987,-0.10538662225008011,-0.48592323064804077
1782968826973031700,8.09903173828125,-0.3877917528152466,0.21235831081867218,-0.5040292739868164
1782968826982958800,8.108958740234375,-0.43491676449775696,0.47723397612571716,-0.44732293486595154
1782968826992884700,8.118884765625,-0.44391772150993347,0.6293518543243408,-0.333751916885376
1782968827002810600,8.128810546875,-0.42586323618888855,0.6622692346572876,-0.2038160115480423
1782968827012737800,8.13873779296875,-0.3701264560222626,0.5834550857543945,-0.07497094571590424
1782968827022663700,8.14866357421875,-0.29200130701065063,0.4415739178657532,0.02315545082092285
1782968827032589600,8.158589599609375,-0.2318844199180603,0.2801855504512787,0.05957338213920593
1782968827042516700,8.168516845703126,-0.2237175703048706,0.12716680765151978,0.015475579537451267
1782968827052443000,8.17844287109375,-0.26491373777389526,0.01658116839826107,-0.0807497501373291
1782968827062368500,8.188368408203125,-0.35470154881477356,-0.039155445992946625,-0.20372900366783142
1782968827072295700,8.198295654296874,-0.47364285588264465,-0.03504219278693199,-0.3217477798461914
1782968827082221800,8.208221923828125,-0.5858820080757141,0.007511581759899855,-0.41956838965415955
1782968827092147700,8.218147705078126,-0.6646143794059753,0.10102741420269012,-0.48772692680358887
1782968827102074600,8.22807470703125,-0.7207574844360352,0.20321069657802582,-0.5426333546638489
1782968827112000800,8.238000732421876,-0.7720872759819031,0.3016144931316376,-0.5742837190628052
1782968827121927000,8.247927001953125,-0.8183761239051819,0.3481115996837616,-0.5986239314079285
1782968827131852500,8.2578525390625,-0.8637723922729492,0.3033614456653595,-0.6399087905883789
1782968827141779700,8.26777978515625,-0.8949908018112183,0.10830815881490707,-0.6700512170791626
1782968827151705900,8.277705810546875,-0.8931635618209839,-0.3166452646255493,-0.6493871808052063
1782968827161631500,8.287631591796876,-0.8293934464454651,-0.8591723442077637,-0.5571483373641968
1782968827171558700,8.29755859375,-0.7051591277122498,-1.3358359336853027,-0.428541362285614
1782968827181484800,8.30748486328125,-0.5694696307182312,-1.5754432678222656,-0.3412370979785919
1782968827191410700,8.31741064453125,-0.47948673367500305,-1.5506640672683716,-0.35154032707214355
1782968827201337600,8.327337646484375,-0.4621194303035736,-1.2785041332244873,-0.4550206661224365
1782968827211263700,8.337263671875,-0.5106461644172668,-0.8564415574073792,-0.6172780394554138
1782968827221189600,8.347189697265625,-0.6074156165122986,-0.40414631366729736,-0.8116177916526794
1782968827231117800,8.357117919921874,-0.7359589338302612,-0.0159413181245327,-0.9999600052833557
1782968827241043700,8.367043701171875,-0.8900638818740845,0.27178633213043213,-1.126346468925476
1782968827250970600,8.376970703125,-1.0434457063674927,0.42357584834098816,-1.1594713926315308
1782968827260896800,8.386896728515625,-1.157325029373169,0.44460225105285645,-1.1127766370773315
1782968827270822700,8.39682275390625,-1.202964425086975,0.3615068197250366,-1.0323342084884644
1782968827280749800,8.406749755859375,-1.179004430770874,0.23952758312225342,-0.9299007654190063
1782968827290675700,8.41667578125,-1.0825343132019043,0.14809727668762207,-0.8119930624961853
1782968827300601600,8.4266015625,-0.9226699471473694,0.08931418508291245,-0.6895989775657654
1782968827310528800,8.43652880859375,-0.7693858742713928,0.02892674319446087,-0.5650700926780701
1782968827320454700,8.44645458984375,-0.6471684575080872,-0.0001330985687673092,-0.4532506763935089
1782968827330380800,8.456380859375,-0.5611757636070251,0.020091746002435684,-0.3452885150909424
1782968827340307700,8.4663076171875,-0.5155815482139587,0.06288551539182663,-0.270907461643219
1782968827350233900,8.47623388671875,-0.5097728967666626,0.18369315564632416,-0.27430886030197144
1782968827360159700,8.48615966796875,-0.47859087586402893,0.2987131178379059,-0.2333078533411026
1782968827370086700,8.496086669921874,-0.40361544489860535,0.475188285112381,-0.296325147151947
1782968827380012800,8.5060126953125,-0.3252320885658264,0.7903950214385986,-0.5223023891448975
1782968827389938700,8.515938720703126,-0.2632851004600525,1.0467735528945923,-0.7040306329727173
1782968827399865600,8.525865478515625,-0.2642419636249542,1.0931466817855835,-0.7108800411224365
1782968827409791700,8.535791748046876,-0.21079257130622864,0.9134488105773926,-0.5519992709159851
1782968827419718000,8.5457177734375,-0.18709343671798706,0.6297165155410767,-0.27362993359565735
1782968827429643500,8.5556435546875,-0.13253644108772278,0.27809908986091614,0.009990320540964603
1782968827439570700,8.56557080078125,0.002203533425927162,-0.05522686243057251,0.24985553324222565
1782968827449496800,8.575496826171875,0.16316579282283783,-0.26475027203559875,0.4400339722633362
1782968827459422500,8.58542236328125,0.3239123821258545,-0.3286246061325073,0.5884172916412354
1782968827469349600,8.595349609375,0.48777616024017334,-0.26189032196998596,0.681239902973175
1782968827479275800,8.60527587890625,0.6245401501655579,-0.10110098868608475,0.7178676128387451
1782968827489201700,8.61520166015625,0.6947054266929626,0.10968688130378723,0.7043619155883789
1782968827499128600,8.625128662109375,0.6885452270507812,0.2989938259124756,0.6561881899833679
1782968827509054700,8.6350546875,0.6471946239471436,0.4103110432624817,0.5888141989707947
1782968827518980900,8.64498095703125,0.5845616459846497,0.4254138767719269,0.5043908357620239
1782968827528907800,8.65490771484375,0.5248575806617737,0.3043422996997833,0.4193308353424072
1782968827538833700,8.664833740234375,0.45350000262260437,0.034115344285964966,0.367537260055542
1782968827548759800,8.674759765625,0.4055649936199188,-0.31441840529441833,0.38679590821266174
1782968827558686700,8.684686767578125,0.47044360637664795,-0.603916347026825,0.5010255575180054
1782968827568612600,8.694612548828125,0.6260116100311279,-0.7767996788024902,0.6958328485488892
1782968827578538800,8.704538818359374,0.8411380052566528,-0.7667535543441772,0.9421657919883728
1782968827588464600,8.714464599609375,1.0688518285751343,-0.5899146199226379,1.1683577299118042
1782968827598391800,8.724391845703124,1.2744626998901367,-0.28984957933425903,1.3268065452575684
1782968827608317700,8.734317626953125,1.4235786199569702,0.007286239881068468,1.3789435625076294
1782968827618243600,8.74424365234375,1.4904465675354004,0.24280673265457153,1.3421649932861328
1782968827628170800,8.754170654296875,1.472940444946289,0.40758875012397766,1.2462445497512817
1782968827638096600,8.7640966796875,1.4058234691619873,0.48261135816574097,1.11305570602417
1782968827648022500,8.7740224609375,1.2802766561508179,0.4641101062297821,0.9458872079849243
1782968827657949700,8.78394970703125,1.1288753747940063,0.4009019136428833,0.7616648077964783
1782968827667875800,8.793875732421874,1.0217238664627075,0.37149953842163086,0.617631733417511
1782968827677801700,8.8038017578125,0.9488584399223328,0.29752978682518005,0.5320479273796082
1782968827687728600,8.813728759765626,0.8913722634315491,0.15155181288719177,0.48685646057128906
1782968827697654800,8.82365478515625,0.8760195970535278,-0.044712286442518234,0.4477151036262512
1782968827707581000,8.833580810546875,0.893714964389801,-0.27541181445121765,0.4026173949241638
1782968827717507600,8.843507568359374,0.9105768799781799,-0.5000231862068176,0.352569043636322
1782968827727433700,8.853433837890625,0.9214431047439575,-0.6501743197441101,0.31034329533576965
1782968827737360000,8.86335986328125,0.9107568264007568,-0.6872476935386658,0.29730987548828125
1782968827747287000,8.873287109375,0.8740203976631165,-0.600855827331543,0.30742430686950684
1782968827757213200,8.883213134765626,0.8038861751556396,-0.42915433645248413,0.32026100158691406
1782968827767139000,8.89313916015625,0.6856953501701355,-0.21255892515182495,0.3138289153575897
1782968827777065000,8.90306494140625,0.5375880002975464,0.018906181678175926,0.2994057834148407
1782968827786992000,8.9129921875,0.40262484550476074,0.2217133492231369,0.28923705220222473
1782968827796918300,8.922918212890625,0.3131667673587799,0.3722234070301056,0.27388796210289
1782968827806844000,8.932843994140624,0.2506740987300873,0.4522053003311157,0.254088431596756
1782968827816771000,8.94277099609375,0.2122807800769806,0.46701401472091675,0.22639085352420807
1782968827826697200,8.952697265625,0.19718757271766663,0.4100743234157562,0.20481392741203308
1782968827836622800,8.962622802734375,0.2006545215845108,0.3071420192718506,0.21256288886070251
1782968827846550000,8.972550048828126,0.21900583803653717,0.18406935036182404,0.24196313321590424
1782968827856476200,8.98247607421875,0.2420385777950287,0.053811438381671906,0.2834312915802002
1782968827866402000,8.992402099609375,0.24768687784671783,-0.05262179300189018,0.32537955045700073
1782968827876329000,9.002328857421874,0.223541259765625,-0.1392272561788559,0.3319039046764374
1782968827886255000,9.012255126953125,0.16171438992023468,-0.2054709941148758,0.27601879835128784
1782968827896181000,9.022180908203126,0.050445783883333206,-0.2532990574836731,0.159816175699234
1782968827906108200,9.032108154296875,-0.08582310378551483,-0.25496140122413635,0.007621589116752148
1782968827916034000,9.042033935546876,-0.2465774267911911,-0.17836754024028778,-0.12348861247301102
1782968827925960000,9.0519599609375,-0.3994537889957428,-0.03443674370646477,-0.20279648900032043
1782968827935886000,9.061885986328125,-0.5076885223388672,0.14956676959991455,-0.20433393120765686
1782968827945813200,9.071813232421874,-0.5527744889259338,0.34195831418037415,-0.13047754764556885
1782968827955739100,9.0817392578125,-0.5358956456184387,0.49483510851860046,-0.014334193430840969
1782968827965665000,9.0916650390625,-0.4813027083873749,0.5441744923591614,0.08541956543922424
1782968827975592200,9.10159228515625,-0.427653431892395,0.47022122144699097,0.127662792801857
1782968827985518000,9.11151806640625,-0.40313103795051575,0.33358827233314514,0.13844034075737
1782968827995444000,9.12144384765625,-0.41211777925491333,0.17042802274227142,0.13002297282218933
1782968828005371100,9.13137109375,-0.45846956968307495,0.008204497396945953,0.09951141476631165
1782968828015297300,9.14129736328125,-0.5471705198287964,-0.11539079248905182,0.030730750411748886
1782968828025223000,9.151222900390625,-0.6666548252105713,-0.19696740806102753,-0.09279464930295944
1782968828035150000,9.161150146484376,-0.8020947575569153,-0.2123790830373764,-0.26039478182792664
1782968828045076200,9.171076171875,-0.9361668229103088,-0.13941965997219086,-0.42506736516952515
1782968828055001900,9.181001953125,-1.0695632696151733,0.0014407173730432987,-0.562125027179718
1782968828064929000,9.190928955078125,-1.1712232828140259,0.16469861567020416,-0.6530024409294128
1782968828074855200,9.200855224609375,-1.2226539850234985,0.3123169243335724,-0.6863648891448975
1782968828084781000,9.210781005859374,-1.2338975667953491,0.4401020407676697,-0.6837317943572998
1782968828094708000,9.2207080078125,-1.2173658609390259,0.5263060331344604,-0.6847701072692871
1782968828104634000,9.230634033203126,-1.195857048034668,0.5266269445419312,-0.7094405293464661
1782968828114560000,9.24056005859375,-1.1672154664993286,0.449859082698822,-0.7330817580223083
1782968828124486000,9.25048583984375,-1.135189175605774,0.3018544316291809,-0.7509965896606445
1782968828134413000,9.2604130859375,-1.0895551443099976,0.10359588265419006,-0.7646323442459106
1782968828144339200,9.270339111328125,-1.0287368297576904,-0.08101870864629745,-0.7743811011314392
1782968828154265000,9.28026513671875,-0.9912300109863281,-0.23113954067230225,-0.7920135259628296
1782968828164192000,9.29019189453125,-0.9757400155067444,-0.35759735107421875,-0.8057413101196289
1782968828174118100,9.3001181640625,-0.9880578517913818,-0.44626519083976746,-0.8212379217147827
1782968828184044000,9.3100439453125,-1.013471245765686,-0.49283161759376526,-0.8619057536125183
1782968828193971200,9.31997119140625,-1.0575239658355713,-0.4953456521034241,-0.9362837076187134
1782968828203897000,9.32989697265625,-1.1140506267547607,-0.41067710518836975,-1.018657922744751
1782968828213823000,9.339822998046875,-1.1740376949310303,-0.25004252791404724,-1.0727351903915405
1782968828223750100,9.349750244140624,-1.238820195198059,-0.0472811684012413,-1.10514497756958
1782968828233676000,9.359676025390625,-1.2901839017868042,0.16656732559204102,-1.1185287237167358
1782968828243602000,9.369601806640626,-1.3034800291061401,0.33043932914733887,-1.1046773195266724
1782968828253529000,9.379529052734375,-1.2805278301239014,0.4119356572628021,-1.056822657585144
1782968828263455200,9.389455322265626,-1.219051718711853,0.40129393339157104,-0.9784589409828186
1782968828273381000,9.399381103515625,-1.1327279806137085,0.3136376142501831,-0.8645722270011902
1782968828283307000,9.40930712890625,-1.0118801593780518,0.13459834456443787,-0.7232102751731873
1782968828293234200,9.419234130859374,-0.8605763912200928,-0.08120249956846237,-0.575081467628479
1782968828303160000,9.42916015625,-0.6925298571586609,-0.2482423484325409,-0.42472392320632935
1782968828313086000,9.4390859375,-0.5341557264328003,-0.36181819438934326,-0.298011839389801
1782968828323013000,9.44901318359375,-0.42634937167167664,-0.40605223178863525,-0.19355891644954681
1782968828332939300,9.458939208984376,-0.3374994397163391,-0.36902114748954773,-0.10206200182437897
1782968828342865000,9.468864990234374,-0.2856735289096832,-0.27320167422294617,-0.05684419348835945
1782968828352792000,9.4787919921875,-0.24603235721588135,-0.11886263638734818,-0.09142545610666275
1782968828362718200,9.48871826171875,-0.22320666909217834,0.023621538653969765,-0.16677212715148926
1782968828372643800,9.498643798828125,-0.2182822823524475,0.0850532054901123,-0.25616738200187683
1782968828382571000,9.508571044921876,-0.23154987394809723,0.030423518270254135,-0.2917991280555725
1782968828392497200,9.5184970703125,-0.21287547051906586,-0.0948619619011879,-0.19190119206905365
1782968828402423000,9.528423095703126,-0.17938382923603058,-0.22874519228935242,-0.02547520026564598
1782968828412349000,9.538348876953124,-0.12247835099697113,-0.2958337366580963,0.17782548069953918
1782968828422276000,9.548276123046875,-0.014896765351295471,-0.3184165358543396,0.40051475167274475
1782968828432202000,9.558201904296874,0.10950464755296707,-0.2576804459095001,0.6334053874015808
1782968828442128100,9.568128173828125,0.21191677451133728,-0.11079991608858109,0.822050154209137
1782968828452055000,9.578054931640626,0.3014104962348938,0.06156359612941742,0.9116504192352295
1782968828461981200,9.587981201171875,0.3819034695625305,0.2133864164352417,0.900772213935852
1782968828471907000,9.597906982421875,0.453859806060791,0.2847941517829895,0.7930393218994141
1782968828481834200,9.607834228515625,0.5083209276199341,0.3002748489379883,0.6317915916442871
1782968828491760000,9.617760009765625,0.5530045032501221,0.29141104221343994,0.48526522517204285
1782968828501686000,9.62768603515625,0.6001808047294617,0.23800456523895264,0.4028891324996948
1782968828511613200,9.63761328125,0.6679994463920593,0.16021810472011566,0.3774382472038269
1782968828521539000,9.6475390625,0.7448700070381165,0.03963896632194519,0.40036940574645996
1782968828531465000,9.65746484375,0.8018221259117126,-0.1026727557182312,0.46510136127471924
1782968828541392100,9.66739208984375,0.8397580981254578,-0.22510145604610443,0.6052435636520386
1782968828551318300,9.677318359375,0.863078236579895,-0.28986066579818726,0.8525654077529907
1782968828561244000,9.687243896484375,0.8843281269073486,-0.157197967171669,1.1898247003555298
1782968828571171000,9.697171142578124,0.9198248982429504,0.08064822852611542,1.5132468938827515
1782968828581097200,9.70709716796875,0.9657188653945923,0.26601967215538025,1.7317155599594116
1782968828591022800,9.71702294921875,1.0164376497268677,0.39708396792411804,1.795356273651123
1782968828600949000,9.726948974609375,1.0722099542617798,0.46474289894104004,1.7000774145126343
1782968828610876200,9.736876220703126,1.1247178316116333,0.45703089237213135,1.4818665981292725
1782968828620802000,9.746802001953125,1.182367205619812,0.34251123666763306,1.1988681554794312
1782968828630728000,9.75672802734375,1.2240378856658936,0.1414489448070526,0.9090738892555237
1782968828640655000,9.766655029296874,1.2247964143753052,-0.053243834525346756,0.6891258358955383
1782968828650581200,9.776581298828125,1.198199987411499,-0.2369971126317978,0.5548297166824341
1782968828660507000,9.7865068359375,1.1579878330230713,-0.4435684084892273,0.4732357859611511
1782968828670434000,9.79643408203125,1.1125609874725342,-0.6559213995933533,0.43663251399993896
1782968828680360200,9.806360107421876,1.0530518293380737,-0.7846730351448059,0.41822341084480286
1782968828690286000,9.8162861328125,0.9632973670959473,-0.778607964515686,0.4025561213493347
1782968828700213000,9.826212890625,0.868125855922699,-0.6431958079338074,0.3916241228580475
1782968828710139100,9.83613916015625,0.7779444456100464,-0.4347164034843445,0.37171947956085205
1782968828720065000,9.84606494140625,0.7025615572929382,-0.19391097128391266,0.3703913688659668
1782968828729992200,9.8559921875,0.654654860496521,0.08107037842273712,0.38829493522644043
1782968828739917800,9.865917724609375,0.636878252029419,0.33445045351982117,0.387131929397583
1782968828749843700,9.87584375,0.645106315612793,0.4917854070663452,0.35230833292007446
1782968828759769900,9.885769775390624,0.6568260788917542,0.506676435470581,0.30718132853507996
1782968828769697000,9.895697021484375,0.6781604290008545,0.40019217133522034,0.2898259162902832
1782968828779623000,9.905622802734374,0.6934847831726074,0.2191140055656433,0.30232760310173035
1782968828789548800,9.915548828125,0.7089720368385315,0.005388624034821987,0.32294535636901855
1782968828799476000,9.92547607421875,0.7165716290473938,-0.18679626286029816,0.3293638527393341
1782968828809401900,9.93540185546875,0.7051130533218384,-0.3238566517829895,0.30293482542037964
1782968828819327700,9.94532763671875,0.6483861207962036,-0.3709948658943176,0.23671187460422516
1782968828829255000,9.9552548828125,0.5470708608627319,-0.34753990173339844,0.1363968849182129
1782968828839181000,9.96518115234375,0.41435012221336365,-0.26787516474723816,0.002639875980094075
1782968828849106700,9.975106689453124,0.24373705685138702,-0.10657648742198944,-0.16947300732135773
1782968828859033900,9.985033935546875,0.04506684094667435,0.04078100621700287,-0.37445011734962463
1782968828868960000,9.9949599609375,-0.1614515334367752,0.09213782101869583,-0.5889780521392822
1782968828878885600,10.0048857421875,-0.35650572180747986,0.05921076238155365,-0.7589237093925476
1782968828888812800,10.014812744140626,-0.5294262766838074,-0.016417641192674637,-0.8428125977516174
1782968828898739000,10.024739013671875,-0.6888840794563293,-0.0606631338596344,-0.855320930480957
1782968828908664800,10.034664794921875,-0.8171666860580444,-0.04884474724531174,-0.8248521685600281
1782968828918590700,10.0445908203125,-0.8868874311447144,0.01816118322312832,-0.7620231509208679
1782968828928518000,10.054517822265625,-0.8791362047195435,0.09046391397714615,-0.6762992739677429
1782968828938443800,10.06444384765625,-0.8014723062515259,0.10229314118623734,-0.5620166659355164
1782968828948369700,10.07436962890625,-0.7609381079673767,0.08307439833879471,-0.42429524660110474
1782968828958296800,10.084296875,-0.779002845287323,0.10769771784543991,-0.2991546392440796
1782968828968223000,10.094222900390625,-0.8233289122581482,0.13050347566604614,-0.234694704413414
1782968828978148900,10.10414892578125,-0.8667395114898682,0.05889506638050079,-0.25258955359458923
1782968828988076000,10.114075927734374,-0.9384633898735046,-0.050428301095962524,-0.3280228078365326
1782968828998002000,10.124001953125,-1.0459734201431274,-0.12437469512224197,-0.41951173543930054
1782968829007927800,10.133927734375,-1.1644659042358398,-0.17066173255443573,-0.512296199798584
1782968829017855000,10.14385498046875,-1.2642885446548462,-0.20328305661678314,-0.5951426029205322
1782968829027780900,10.15378076171875,-1.339226484298706,-0.21238307654857635,-0.6488654613494873
1782968829037706800,10.163706787109374,-1.3618119955062866,-0.20758193731307983,-0.6500322222709656
1782968829047634000,10.173634033203125,-1.3526849746704102,-0.1922668069601059,-0.6036046743392944
1782968829057560000,10.18356005859375,-1.3347818851470947,-0.15299344062805176,-0.53391432762146
1782968829067485700,10.193485595703125,-1.2805678844451904,-0.14040164649486542,-0.4750707745552063
1782968829077412900,10.203412841796874,-1.1997249126434326,-0.21320633590221405,-0.4913969933986664
1782968829087339000,10.213339111328125,-1.1354291439056396,-0.3240288496017456,-0.5567607879638672
1782968829097264600,10.2232646484375,-1.0872586965560913,-0.43635058403015137,-0.6129023432731628
1782968829107190800,10.233190673828124,-1.0729392766952515,-0.4809868037700653,-0.5510750412940979
1782968829117118000,10.243117919921875,-1.1040431261062622,-0.6763030290603638,-0.5783056020736694
1782968829127043800,10.2530439453125,-1.1038577556610107,-0.7844393849372864,-0.6938660740852356
1782968829136969700,10.2629697265625,-1.08289635181427,-0.7506095170974731,-0.7881134748458862
1782968829146897000,10.27289697265625,-1.0856564044952393,-0.7203231453895569,-0.8806835412979126
1782968829156823000,10.282822998046875,-1.1045291423797607,-0.6672913432121277,-0.938336193561554
1782968829166748700,10.292748779296875,-1.1169501543045044,-0.6179919242858887,-0.9389824867248535
1782968829176675800,10.30267578125,-1.1222435235977173,-0.5996235609054565,-0.9194868206977844
