time,seconds_elapsed,z,y,x
1782951229927604500,0.0786044921875,0.06484101322293281,-0.04265811524838209,-0.23283012010082602
1782951229937531400,0.088531494140625,-0.1287976448267698,0.011242840156704187,-0.12257665142007171
1782951229947458600,0.09845849609375,-0.19485271001458168,0.11537409963011741,-0.037793504886701704
1782951229957384700,0.108384765625,-0.2653758605271578,0.11269918133243918,0.020614406548812983
1782951229967311600,0.1183115234375,-0.27762919290065763,0.08862272469624877,0.030191067058965564
1782951229977238500,0.128238525390625,-0.2039841109752655,0.05688596256524324,-0.023288009672239422
1782951229987165400,0.13816552734375,-0.11345920591950416,0.012017916182428598,-0.06749656923301517
1782951229997091600,0.148091552734375,-0.03567804710268974,-0.026250878065824507,-0.054392392183840274
1782951230007018500,0.1580185546875,-0.020792028138041495,-0.029500965902954337,-0.06186068223789334
1782951230016945700,0.167945556640625,-0.00010229133069515228,0.012230097628384827,-0.04026552102342248
1782951230026872600,0.17787255859375,-0.008079846081137657,0.052942339506000274,-0.017343275923654436
1782951230036799700,0.1877998046875,-0.06070493633151054,0.060622664875537156,-0.04595131157487631
1782951230046725600,0.1977255859375,-0.059143093842267985,0.054056438227742906,-0.047943435240164395
1782951230056652500,0.207652587890625,-0.05882745202183723,0.03315013606026768,-0.0446389138020575
1782951230066579500,0.217579345703125,-0.038323008653521534,0.02389876198172569,-0.06088233872503042
1782951230076506600,0.227506591796875,-0.01686053390800953,0.04322656278610229,-0.03722586106657982
1782951230086433500,0.23743359375,0.04336217186450958,0.0865767519518733,0.011248320049419998
1782951230096359400,0.247359375,0.11173428182303904,0.1409510239571333,-0.00234093710295856
1782951230106286600,0.25728662109375,0.16691899342834948,0.14978008097037673,-0.022136866875737904
1782951230116213500,0.267213623046875,0.13158581424057483,0.12377411757633089,-0.04848177990056574
1782951230126140700,0.277140625,0.08687631942033767,0.10743439267203211,-0.060191433851420874
1782951230136066600,0.287066650390625,0.050937575554847715,0.1378269005872309,-0.08692461554147303
1782951230145993500,0.296993408203125,0.06666822865009307,0.13870295276939867,-0.07815788317471742
1782951230155920400,0.30692041015625,0.07776070055067538,0.13673691339343785,-0.032361762161552905
1782951230165847600,0.31684765625,0.07412731248438358,0.1269011635556817,0.004648629523441195
1782951230175774500,0.3267744140625,-0.0018996961414813995,0.12240458278879522,0.000789104551076889
1782951230185700600,0.33670068359375,-0.09258476019501685,0.11167056893706322,0.003796981130167842
1782951230195627500,0.34662744140625,-0.11614859113395214,0.11703282662257551,0.006588000088185071
1782951230205554400,0.356554443359375,-0.08859656734168529,0.09792729026675223,-0.025237463239580392
1782951230215481600,0.366481689453125,-0.022137597528100014,0.06468158487752079,-0.028200989220291375
1782951230225407500,0.376407470703125,0.036815526700019835,0.05299772295504808,-0.0886938902363181
1782951230235334700,0.386334716796875,0.07351473354399204,0.05223536028042435,-0.09411511156745254
1782951230245261600,0.396261474609375,0.11972995675206184,0.038475714997202155,-0.03195756527483463
1782951230255188500,0.4061884765625,0.11988251696527004,0.04053527787551284,-0.002406038228422403
1782951230265115400,0.416115478515625,0.061034606677293775,0.06257350668236612,-0.0486401853326708
1782951230275041500,0.42604150390625,0.04446691823601723,0.061521805672347545,-0.11450476944968103
1782951230284968700,0.43596875,0.06486790122985839,0.042403702095896,-0.1398196087744087
1782951230294895600,0.4458955078125,0.07897241442799567,0.002833908251672983,-0.10934797120839357
1782951230304822500,0.455822509765625,0.032721535384655,0.006641629971563816,-0.07903101274743676
1782951230314749400,0.46574951171875,-0.0034200375765562055,0.036239334247261286,-0.059202788140252226
1782951230324675600,0.475675537109375,-0.0493652116715908,0.051464083646982905,-0.017035013692080974
1782951230334602500,0.4856025390625,-0.12219956173598766,0.056929509446024894,-0.0173376499004662
1782951230344529700,0.49552978515625,-0.16146949585080145,0.08208864675238728,-0.07930288849137723
1782951230354456600,0.50545654296875,-0.11120236690342426,0.10556859880015253,-0.11716419791728258
1782951230364382500,0.515382568359375,0.00442892235815525,0.09808788765594363,-0.07171586742848157
1782951230374309600,0.5253095703125,0.11898936751782893,0.12987097314670681,-0.029997882574424147
1782951230384236500,0.535236572265625,0.23998773677051066,0.17947613105401394,-0.021471169508621095
1782951230394163700,0.545163818359375,0.3144873896986246,0.19363193604797124,0.005019654792919754
1782951230404090600,0.555090576171875,0.289182268050313,0.18082374627068637,0.03167597185447812
1782951230414016500,0.5650166015625,0.18230594765245914,0.15730959969237446,0.04234481151551008
1782951230423943400,0.574943359375,0.027370822006464002,0.13562223014980554,-0.006968377707898616
1782951230433870600,0.58487060546875,-0.1316127022475004,0.10084244706109166,-0.0828488905351609
1782951230443797500,0.594797607421875,-0.2473486209273338,0.042440234714001414,-0.10483940774276852
1782951230453724700,0.604724609375,-0.2784282343238592,0.015614917761087416,-0.10424633722044527
1782951230463650600,0.614650634765625,-0.23463585434854028,0.031126667408645153,-0.0897482946600765
1782951230473577500,0.624577392578125,-0.16210604018867014,0.0023684826970100403,-0.032801249557361
1782951230483504600,0.634504638671875,-0.05742986018359661,0.006668810239434242,-0.011877996255084872
1782951230493431600,0.644431640625,-0.005331424155831337,-0.0184312903560698,-0.004162380376458168
1782951230503357700,0.654357666015625,0.009544657936692237,-0.0213854639865458,-0.04967230485938489
1782951230513284400,0.664284423828125,0.028450433936715123,0.007581833431124687,-0.09370105087384581
1782951230523211500,0.67421142578125,0.11068331146538257,0.005091477920114993,-0.08749313614442944
1782951230533138400,0.684138427734375,0.18177929342985152,-0.012847206613421439,-0.018356763815134763
1782951230543065600,0.694065673828125,0.1876186671078205,0.03976283219829201,-0.016717179914563892
1782951230552991700,0.70399169921875,0.1561474240452051,0.09441884375438094,-0.039304786232486365
1782951230562918700,0.713918701171875,0.11113339332044124,0.08066752790808678,-0.03405556046739221
1782951230572845600,0.723845458984375,-0.0019996493846178055,0.05046469734609127,-0.013621625052019953
1782951230582772500,0.7337724609375,-0.1192348667114973,0.06136573832780123,-0.041569150967895985
1782951230592698600,0.74369873046875,-0.22717793955802917,0.07590688937753438,-0.07096139579936861
1782951230602625500,0.75362548828125,-0.29927754560708997,0.069940528319031,-0.07728110034018755
1782951230612552700,0.763552734375,-0.23768179791569707,0.0616335954837501,-0.10174385288022458
1782951230622479400,0.773479248046875,-0.08084346899688244,0.06600158143490553,-0.10836115212813019
1782951230632406500,0.783406494140625,0.08997077830433844,0.0471171404838562,-0.1169774431735277
1782951230642332700,0.793332763671875,0.2231727955698967,0.0740998399555683,-0.12419687303304672
1782951230652259600,0.803259521484375,0.3272241216748953,0.12960340825170277,-0.11035524855479598
1782951230662186500,0.8131865234375,0.34444705915451046,0.1112552661344409,-0.06018968028575181
1782951230672113700,0.82311376953125,0.2405786884009838,0.08852671697586774,-0.016740560790151356
1782951230682039600,0.83303955078125,0.021769348737597463,0.005860854857414961,-0.06151581432297826
1782951230691966500,0.842966552734375,-0.31867198190689083,-0.10930340141430496,-0.18685835025981068
1782951230701893600,0.8528935546875,-0.6095177992552518,-0.169983203304559,-0.44892420945614575
1782951230711820500,0.862820556640625,-0.760460055872798,-0.19053133968412875,-0.6631582040280103
1782951230721747700,0.872747802734375,-0.7023515657752752,-0.12171601600274443,-0.7598160588808357
1782951230731673600,0.882673583984375,-0.3539636600404978,0.03579787409007549,-0.6397917222920805
1782951230741600300,0.892600341796875,0.0886573576182127,0.1651538834519684,-0.34387357011549174
1782951230751527400,0.90252734375,0.4918476976424455,0.15487696571797133,-0.24360183561444282
1782951230761454300,0.912454345703125,0.7811351796329021,0.18100363288223742,-0.20845519197471438
1782951230771381500,0.922381591796875,0.932152255052328,0.2196001977801323,-0.17512801884710788
1782951230781307400,0.932307373046875,0.8550012108325957,0.18510303102508185,-0.1453372762173414
1782951230791234600,0.942234619140625,0.6483370669931173,0.18677242554202675,-0.146827733970806
1782951230801161200,0.9521611328125,0.377594710996747,0.14644348389357328,-0.22906945239305496
1782951230811088400,0.96208837890625,0.10993395440280437,0.08326090540215372,-0.2883257973514497
1782951230821014500,0.9720146484375,-0.09873393047451973,0.02043926917761564,-0.309622706271708
1782951230830941400,0.98194140625,-0.22100889553427694,-0.029021219561994074,-0.3679657357774675
1782951230840868400,0.991868408203125,-0.2761912690520286,-0.07159954757243395,-0.3498369354993105
1782951230850795500,1.00179541015625,-0.32336277007162567,-0.10443725668266415,-0.2973245849084109
1782951230860722200,1.01172216796875,-0.3797340611129999,-0.12269903569072484,-0.2367752044647932
1782951230870648300,1.0216484375,-0.3270049259662628,-0.09550064764171838,-0.1286862203415483
1782951230880575500,1.031575439453125,-0.16751812836527824,-0.07319821494072676,-0.01858998804911971
1782951230890502400,1.04150244140625,0.022685879060626028,-0.063968760433048,0.1277949705902487
1782951230900429600,1.0514296875,0.09398761273026465,-0.008059387814998627,0.2397154226351529
1782951230910355500,1.06135546875,0.1308159989118576,0.07434723884537815,0.26509251354113217
1782951230920282400,1.071282470703125,0.19445640417337418,0.1065175700880587,0.27869397258795797
1782951230930209300,1.081209228515625,0.2212199079364538,0.06613470629528165,0.3290550634291023
1782951230940136400,1.091136474609375,0.18412322620749472,0.060312429882586,0.34267727300301193
1782951230950063400,1.1010634765625,0.13846329879462718,0.1233151217624545,0.2987902735468
1782951230959989200,1.1109892578125,0.06015490123331546,0.1955652421981096,0.33625125854350624
1782951230969916400,1.12091650390625,-0.023873627540469167,0.2604839968323707,0.4239957391005009
1782951230979843300,1.13084326171875,-0.019555764341354368,0.31763650137931104,0.5247111987810582
1782951230989770500,1.1407705078125,0.04711889404952526,0.3029920360855758,0.5767958985444158
1782951230999696400,1.1506962890625,0.08722177185714244,0.29558336726427076,0.6267962663143872
1782951231009623300,1.160623291015625,0.09717384155094623,0.29491408970057964,0.6462982546418905
1782951231019550200,1.17055029296875,0.027989830687642096,0.2541167998880148,0.648706411762163
1782951231029477400,1.180477294921875,-0.10939970139563084,0.18376549881100654,0.6411703171689063
1782951231039404300,1.190404296875,-0.3092372140854597,0.10175473960041999,0.5256584165032953
1782951231049330400,1.200330322265625,-0.5115735578536987,0.07891483902186155,0.4096506951447576
1782951231059257600,1.210257568359375,-0.5562351218789816,0.06980535763204097,0.315510960592702
1782951231069184300,1.220184326171875,-0.4507154767870903,0.013149842821806668,0.265793209156394
1782951231079111400,1.230111328125,-0.28330080879628655,-0.01682604711651802,0.24647037678807973
1782951231089037300,1.240037353515625,-0.05357376927733421,-0.04877440617159009,0.17766966615393756
1782951231098964500,1.249964599609375,0.21689678404033183,-0.07796586773395538,0.12782675396800042
1782951231108891400,1.259891357421875,0.4533890799105167,-0.1136694876693189,0.060652840818092225
1782951231118818300,1.269818359375,0.5555494777023792,-0.13467457403615116,0.00357223246358335
1782951231128745200,1.2797451171875,0.44745793629586694,-0.10234116118624806,-0.07638751250132918
1782951231138671400,1.28967138671875,0.21055939771234988,-0.021995558708906172,-0.1424782335244119
1782951231148598500,1.2995986328125,-0.018301964887976644,0.013997253431379794,-0.2090257584042847
1782951231158525400,1.309525390625,-0.19107260695397854,0.027218407923728226,-0.17429368691481648
1782951231168452600,1.31945263671875,-0.28424831877946855,0.027324937038123605,-0.12706464702170342
1782951231178378200,1.329378173828125,-0.2967483193904161,0.08068126417249441,-0.1144525643384084
1782951231188305400,1.339305419921875,-0.24956921958625314,0.11435922349914908,-0.13282251642867923
1782951231198232300,1.349232421875,-0.20505670864284037,0.11787921431884169,-0.10984298818372189
1782951231208159500,1.359159423828125,-0.15632804130911826,0.14141951825171709,-0.1157722686348483
1782951231218086400,1.36908642578125,-0.08896247804462909,0.14334128009453415,-0.09476009494010358
1782951231228012300,1.37901220703125,-0.10201426731944084,0.12828121973723172,-0.07346340521555393
1782951231237939500,1.388939453125,-0.12236264334321022,0.12645283526629209,-0.05941708847805857
1782951231247866400,1.398866455078125,-0.14127835621535778,0.12866364318355916,-0.09215067962668835
1782951231257793500,1.40879345703125,-0.10244038377702236,0.11566738348826765,-0.15618088792338966
1782951231267719400,1.418719482421875,-0.01244154842197895,0.0790866884574294,-0.2255100428784266
1782951231277646300,1.428646240234375,0.0908703574925661,0.03714358961060643,-0.30161165111046284
1782951231287573200,1.4385732421875,0.15438099889457224,0.03599383505359292,-0.3413136199669912
1782951231297500400,1.44850048828125,0.17327976063191888,0.06537073618546128,-0.37535767265968023
1782951231307427300,1.45842724609375,0.1415133340150118,0.10943155783861874,-0.3515432279605418
1782951231317353500,1.468353515625,0.05645604671537876,0.1632937886685133,-0.30975331038143483
1782951231327280400,1.4782802734375,-0.05094809694886207,0.2031416688017547,-0.282798777558282
1782951231337207300,1.488207275390625,-0.04355681765377521,0.22408318841308353,-0.2879855325464159
1782951231347134500,1.498134521484375,0.0013315408647060394,0.18568068478256464,-0.2868246355408802
1782951231357060400,1.508060302734375,0.06151391462683677,0.14820304091200232,-0.33094774530790744
1782951231366987500,1.517987548828125,0.11727028864026069,0.12749693749174476,-0.3779594526559114
1782951231376914400,1.52791455078125,0.12032967621088027,0.07684694670662283,-0.34359405905436724
1782951231386841300,1.53784130859375,0.07886720048785209,0.04696238831356168,-0.31113994243424387
1782951231396768300,1.547768310546875,-0.02014379336237907,0.052649786300212144,-0.2941112488850951
1782951231406694400,1.5576943359375,-0.1153092177003622,0.09474880636110901,-0.30551991059537975
1782951231416621600,1.56762158203125,-0.16129706189334392,0.08352277120873332,-0.27707159555051475
1782951231426548500,1.577548583984375,-0.15564005904495715,0.048710108763724565,-0.24484072975963353
1782951231436475400,1.587475341796875,-0.10195698417425154,0.04088029192090034,-0.24399825105350464
1782951231446402300,1.59740234375,0.037867081579565996,0.04841887073218822,-0.23296335455905645
1782951231456328400,1.607328369140625,0.15373685577213764,0.005215834952145814,-0.1822248452402651
1782951231466255400,1.61725537109375,0.19907588066756723,0.024672230572253463,-0.13112360355630517
1782951231476182500,1.6271826171875,0.16144845306277275,0.06031199149116873,-0.11889810903780161
1782951231486109400,1.637109375,0.07534779419004917,0.08271218547821045,-0.10920830700937657
1782951231496035300,1.647035400390625,0.003134206372499466,0.08871741724237799,-0.06065832071080803
1782951231505962500,1.65696240234375,-0.05654021786749363,0.098580493478477,-0.06176752406172454
1782951231515889400,1.666889404296875,-0.04833002340495586,0.1360007080733776,-0.04600128819644451
1782951231525816300,1.67681640625,-0.011579963156580924,0.1356597856812179,-0.029833485792949792
1782951231535743500,1.686743408203125,0.043833881029486654,0.12757131790220735,-0.03406235553435981
1782951231545669400,1.69666943359375,0.038107320076227184,0.1213924831368029,-0.034351986130699515
1782951231555596300,1.70659619140625,0.048580783295631404,0.11748130104243755,-0.05710888460092246
1782951231565523500,1.7165234375,0.05392974310815334,0.08212912489324807,-0.06344312912374735
1782951231575450400,1.726450439453125,0.014295651856064795,0.08783128205761313,-0.06788878342099487
1782951231585376500,1.73637646484375,-0.01369768596291542,0.10279562695547938,-0.08963409369587898
1782951231595303400,1.746303466796875,-0.020199322941899297,0.1112026591643691,-0.12332703139595687
1782951231605230300,1.756230224609375,0.012261515679955481,0.12591127573549746,-0.1405022572763264
1782951231615157200,1.7661572265625,0.052154550129175185,0.10619476787447929,-0.13576193088144062
1782951231625084400,1.77608447265625,0.09648644380867481,0.08178396471738815,-0.15213234318494795
1782951231635010600,1.786010498046875,0.1686474246561527,0.07346534144431352,-0.13833959934972226
1782951231644937200,1.795937255859375,0.20080138928592203,0.06291442907452582,-0.12839688200615346
1782951231654864400,1.805864501953125,0.21213877585828303,0.06602905396372079,-0.10346183577924967
1782951231664791300,1.815791259765625,0.20205986491441724,0.0872531899087131,-0.0798009011413902
1782951231674717400,1.825717529296875,0.13764789075851439,0.11816811426281928,-0.07098207326121628
1782951231684644400,1.835644287109375,0.05538929426670074,0.11390461159944533,-0.06010390169844031
1782951231694571500,1.845571533203125,-0.012165069568157195,0.11479556908980011,-0.029376462740451095
1782951231704498200,1.855498291015625,-0.07388590494394302,0.10421543062552809,-0.015067366880923508
1782951231714425300,1.86542529296875,-0.0898725786268711,0.08460121409520506,-0.020237024603784085
1782951231724351500,1.8753515625,-0.08232347842156887,0.06388444315046071,-0.03308569252192974
1782951231734278400,1.8852783203125,0.00672901599407196,0.04736980007067323,-0.004265694620460271
1782951231744205600,1.89520556640625,0.10186229162812233,0.026545623228698967,0.04280431878603995
1782951231754132500,1.905132568359375,0.17981296179294584,0.022039982372522353,0.06859598184227943
1782951231764058600,1.91505859375,0.2050251444607973,0.026155162606388328,0.1016603393152356
1782951231773985500,1.924985595703125,0.20752514458298682,0.03698737613558769,0.1051215126197785
1782951231783912400,1.934912353515625,0.1492114873021841,0.035423926211148496,0.08363755669482052
1782951231793839400,1.94483935546875,0.06820026052296162,0.011134703607112169,0.06911511034555733
1782951231803765500,1.954765625,0.014780220502614974,0.02717617621719837,0.055031713000684976
1782951231813692700,1.964692626953125,-0.01213701251745224,0.016708119825273753,0.0657340896051377
1782951231823619600,1.97461962890625,-0.03735913205742836,-0.0008930033169686793,0.0914219269607216
1782951231833546500,1.98454638671875,-0.035518472626805304,0.013495587519556283,0.0925803762808442
1782951231843473400,1.994473388671875,-0.03520633793771267,0.031470658540725706,0.12522731205932797
1782951231853399600,2.004399658203125,0.0036339725881814953,0.026396131755411622,0.16863354226127267
1782951231863326500,2.014326416015625,-0.00620703794658184,0.03652998775690794,0.2320125201076269
1782951231873253600,2.024253662109375,-0.010582184290885924,0.07624269720315932,0.24368403400518
1782951231883180500,2.0341806640625,0.021712650114297866,0.08732903162389993,0.2522618927363306
1782951231893106400,2.0441064453125,0.02291501164138317,0.06945142962783575,0.2055943226508796
1782951231903033600,2.05403369140625,0.01348725808262825,0.0503751193664968,0.15238361453227697
1782951231912960500,2.06396044921875,-0.02867547486424446,0.0306976283416152,0.1047852664027363
1782951231922887700,2.0738876953125,-0.030486908200383186,0.03214972684606909,0.0647328766733408
1782951231932814600,2.083814697265625,0.03219546568393707,0.019356588507443664,0.06774396812282502
1782951231942740500,2.093740478515625,0.07913608055710793,-0.0010270049601793288,0.07512304552346467
1782951231952667400,2.10366748046875,0.07000994029343127,-0.009020341801643371,0.003898687938973307
1782951231962594600,2.113594482421875,-0.022890461722016333,0.009688011930137873,-0.09164915984533727
1782951231972521500,2.123521484375,-0.05130699338912963,0.029895372048020362,-0.14227803477719425
1782951231982447600,2.133447509765625,-0.0109884270042181,0.04139028726965189,-0.16364552471563218
1782951231992374500,2.14337451171875,0.003480243331193924,0.07317045015096664,-0.14032120162099598
1782951232002301400,2.153301513671875,0.049340661752223965,0.12372560225948691,-0.11159501948282122
1782951232012228600,2.163228515625,0.09727321027219295,0.12751593445315956,-0.05972118599116802
1782951232022155500,2.173155517578125,0.18411855003237723,0.1322046767912805,-0.007596446478366851
1782951232032081700,2.18308154296875,0.23866613277792928,0.12211202958300708,-0.006756999979540705
1782951232042008300,2.19300830078125,0.19463468334972858,0.12464417840912938,-0.00687368516176939
1782951232051935500,2.202935546875,0.08245908749997616,0.1381312903612852,-0.020963293051719664
1782951232061862400,2.2128623046875,-0.011481763479113578,0.1142743216946721,-0.06465886158905923
1782951232071788500,2.22278857421875,-0.09008359102904796,0.06940700596421956,-0.10525858300291001
1782951232081715500,2.232715576171875,-0.12137947752475738,0.040035511659830804,-0.13138072012253105
1782951232091642600,2.242642578125,-0.013097966504096984,0.017714374258369206,-0.1532721608698368
1782951232101569500,2.252569580078125,0.15140402891039847,-0.0195708157800138,-0.13417100842818616
1782951232111496400,2.262496337890625,0.25710429126620293,-0.08779431104809045,-0.10978278242908418
1782951232121422600,2.272422607421875,0.2551145787537098,-0.14594021054655312,-0.10948796420097351
1782951232131349500,2.282349609375,0.13131401156187056,-0.1761779662914574,-0.17200813326090572
1782951232141276700,2.292276611328125,-0.049883682587742804,-0.18781199772283433,-0.2685322056662291
1782951232151203600,2.30220361328125,-0.19962533124387263,-0.1877943159356713,-0.3005826368562877
1782951232161129500,2.31212939453125,-0.30869828490316864,-0.16224632544219492,-0.2824774366494268
1782951232171056400,2.322056396484375,-0.365640069308877,-0.15492781912237405,-0.2491995094910264
1782951232180983600,2.331983642578125,-0.24061083710491657,-0.1024940136604011,-0.16097798600681126
1782951232190910500,2.341910400390625,-0.04771919803023338,-0.06962269454151392,-0.034094942629709836
1782951232200837600,2.351837646484375,0.11324936256110668,-0.012449731728434561,0.020365107962861655
1782951232210763500,2.361763427734375,0.224414320063591,0.049076165597140786,0.027768589152395724
1782951232220690400,2.3716904296875,0.2799842315942049,0.09932590501829981,0.000778802352771163
1782951232230617600,2.38161767578125,0.2840916669130325,0.11265066601559519,0.011606997293978929
1782951232240544500,2.39154443359375,0.20194237601459025,0.11840396884530782,0.07511427769511937
1782951232250470400,2.401470458984375,0.05937514903247356,0.1586409944266081,0.06824081172905862
1782951232260397300,2.411397216796875,-0.07165361584722996,0.15411927921846508,0.07217858956940472
1782951232270324500,2.421324462890625,-0.14093874899744988,0.11938874209895729,0.06584178776331245
1782951232280251400,2.43125146484375,-0.15552315466701983,0.10341975020319223,0.03503499995879829
1782951232290178600,2.441178466796875,-0.12699264123141765,0.09582432663813233,0.03336882031224668
1782951232300104700,2.451104736328125,-0.10013678300976753,0.08378624445050954,0.03224018160849809
1782951232310031400,2.46103125,-0.12928338251709937,0.07689312393590808,0.01823847119770944
1782951232319958500,2.47095849609375,-0.09674538700580597,0.061298518310487264,-0.015135755942016839
1782951232329885400,2.480885498046875,0.004881926822662353,0.03884586348384619,-0.015828414381295442
1782951232339811600,2.4908115234375,0.07677344307899475,-0.0378016151279211,0.028537600763514637
1782951232349738500,2.500738525390625,0.09254501270651817,-0.0205989897839725,0.025668036676570773
1782951232359665700,2.510665771484375,0.12494506105184554,0.01969882607385516,-0.04271532532833516
1782951232369592300,2.52059228515625,0.12719722389280796,0.013017448613792656,-0.06849237533733249
1782951232379519500,2.53051953125,0.07146072362363338,-0.009740765030682086,-0.06976159155555069
1782951232389445600,2.540445556640625,0.05116378552615642,0.0331853535041213,-0.1249643502742052
1782951232399372500,2.55037255859375,0.05188917719125748,0.053978989077359436,-0.1448315917175263
1782951232409299700,2.5602998046875,0.0231271930873394,0.05824965213388204,-0.12003734220080077
1782951232419226400,2.570226318359375,-0.03990121775567532,0.051569882109016175,-0.11608005594238638
1782951232429152500,2.580152587890625,-0.11505611972212791,0.09209346954673528,-0.12277940745055675
1782951232439079400,2.590079345703125,-0.11751052713692188,0.17225991606488822,-0.13038440256156025
1782951232449006600,2.600006591796875,-0.07300853758752346,0.1571377502568066,-0.05590506176911294
1782951232458933500,2.60993359375,-0.02851473134458065,0.16905585932657122,0.002041150438785553
1782951232468860700,2.619860595703125,0.04819266076087951,0.22169395518898963,0.016415420489013195
1782951232478786600,2.62978662109375,0.10695990702807903,0.2248841295324266,0.012598492549359798
1782951232488713500,2.63971337890625,0.06768471221625805,0.17702230816110967,0.03473557862080633
1782951232498640600,2.649640625,0.021592823126912117,0.19870923931226134,0.012314122650027274
1782951232508567600,2.659567626953125,0.0025379940450191494,0.19687296379581093,-0.031995924523845316
1782951232518493400,2.669493408203125,0.0004173486292362213,0.15661504155695438,-0.036073622291535136
1782951232528420400,2.67942041015625,0.03337269276976585,0.10803849604502319,-0.061103653325513
1782951232538347500,2.689347412109375,-0.009016250148415565,0.05556216661557555,-0.09717917531318962
1782951232548274400,2.6992744140625,-0.05432078825235367,0.03648892509415746,-0.18591025575473905
1782951232558201600,2.70920166015625,-0.04495557853579521,0.04422375712990761,-0.22694340014979242
1782951232568127700,2.719127685546875,-0.05991466273665428,0.043783319886028765,-0.24497940757796166
1782951232578054400,2.729054443359375,-0.05572539435327053,0.06626958472132682,-0.2094745981503278
1782951232587981600,2.738981689453125,0.001079027408361435,0.10567644308879971,-0.18251396437995135
1782951232597908500,2.748908447265625,0.05278232663869858,0.15814371242895722,-0.13269918230995534
1782951232607834600,2.758834716796875,-0.07379588857293129,0.17926994095742702,-0.12069602530524134
1782951232617761500,2.768761474609375,0.15095043992400167,0.22862740771397946,-0.2244642966851592
1782951232627688400,2.7786884765625,0.40808687989413733,0.14529358320608735,-0.12768946438916026
1782951232637615400,2.788615478515625,0.502777672457695,0.053324909082800145,-0.028738018706440924
1782951232647541500,2.79854150390625,0.45585868489444253,0.03849208161011338,-0.08442629591971636
1782951232657468700,2.80846875,0.2548842771291733,0.030223288828134534,-0.10928433138765394
1782951232667395600,2.8183955078125,-0.018382628908753394,0.009174071058630943,-0.18433241197876632
1782951232677322800,2.82832275390625,-0.2177566157400608,-0.000391045144200325,-0.2586064394574612
1782951232687249400,2.83824951171875,-0.31168343819379807,-0.024751725549250838,-0.25086130522340533
1782951232697175600,2.848175537109375,-0.2491846041828394,-0.04918064888492226,-0.15675934539847075
1782951232707102500,2.8581025390625,-0.135934657099843,-0.055274289584904907,-0.04427599877379834
1782951232717029600,2.868029541015625,-0.040969139248132704,-0.06718450760915876,-0.030436273991689085
1782951232726956500,2.87795654296875,-0.01768646333813667,-0.07498845935836435,0.008924991668388248
1782951232736882400,2.88788232421875,-0.07011515423357487,-0.0852393658682704,-0.013017010222375391
1782951232746809600,2.8978095703125,-0.16363631849586963,-0.08399769524410367,-0.05794336266368627
1782951232756736500,2.907736572265625,-0.196886846190691,-0.05555719817951321,-0.06270582782514393
1782951232766663400,2.917663330078125,-0.1583750369668007,0.007131020923703909,-0.07513882761448622
1782951232776590600,2.927590576171875,-0.05383446604013443,0.06342939285933971,-0.14778649600036442
1782951232786516500,2.9375166015625,0.07036357603669166,0.0748167560532689,-0.19241086982041597
1782951232796443400,2.947443359375,0.1923807669430971,0.08984919775128364,-0.21517222527004778
1782951232806370600,2.95737060546875,0.27618542383313177,0.11725246072262525,-0.21708770350255072
1782951232816297500,2.96729736328125,0.25077625728845593,0.10469517696648835,-0.14341777939684688
1782951232826223600,2.9772236328125,0.15721885266900062,0.14606719792708753,-0.05828844977430999
1782951232836150500,2.987150634765625,0.10289514180719851,0.18203399884328245,0.0005921206742525101
1782951232846077400,2.997077392578125,0.04923369424641132,0.19780381490513682,0.0759103234436363
1782951232856004400,3.00700439453125,0.007031798332929611,0.15294643604680894,0.07525105581730604
1782951232865931500,3.016931640625,-0.0017225860089063643,0.09490633501037955,0.01772365354336798
1782951232875857700,3.026857666015625,0.005527823510766029,0.011124036082625388,-0.011110445948690175
1782951232885784600,3.03678466796875,0.03751286131441593,-0.03410743678510189,0.009765314950048922
1782951232895711500,3.04671142578125,0.031515082204341884,-0.03309183000177145,0.049925037511438126
1782951232905638400,3.056638427734375,-0.019224340429902075,0.03767360483407974,0.082008494188264
1782951232915564500,3.066564453125,-0.05605798730850219,0.08134308908209205,0.1129355473715812
1782951232925491500,3.076491455078125,-0.06358721376955509,0.09471855735331773,0.15338643489927054
1782951232935418600,3.086418701171875,-0.09477262562811374,0.0952029798693955,0.14155505426488815
1782951232945345300,3.09634521484375,-0.11039514217376709,0.10099778375327587,0.05059139246568083
1782951232955272400,3.1062724609375,-0.10591244380176067,0.07784574848562478,-0.029605303060263394
1782951232965198600,3.116198486328125,-0.14563538238108156,0.0443250255472958,-0.04626541902534664
1782951232975125500,3.12612548828125,-0.2207283250272274,0.06336743353903293,-0.023483166918158528
1782951232985052700,3.136052734375,-0.21012509794831274,0.13151917874515057,-0.034936434955149885
1782951232994979600,3.1459794921875,-0.023376783934235573,0.1369102241337299,-0.03610745149590075
1782951233004905500,3.155905517578125,0.25942016699314113,0.11944427167847751,-0.01572963018193841
1782951233014832400,3.165832275390625,0.48601124657392497,0.1065188852623105,0.029212723546102642
1782951233024759600,3.175759521484375,0.593528787484765,0.10719283900111913,0.06791567142792046
1782951233034686500,3.1856865234375,0.5434393531918525,0.07734802809655666,0.061871934284269806
1782951233044612400,3.1956123046875,0.39307343515753745,0.08543708039745689,0.08491122989244758
1782951233054539500,3.20553955078125,0.17587386877834796,0.09444032493382692,0.1069374029353261
1782951233064466400,3.215466552734375,-0.0536567713856697,0.1223949381776154,0.11968553308844565
1782951233074393600,3.2253935546875,-0.2938210337668657,0.1279556410446763,0.1327907330509275
1782951233084320500,3.235320556640625,-0.43944414118826386,0.16238134999871254,0.15254348126910627
1782951233094246700,3.24524658203125,-0.4698498008459806,0.15684665835574269,0.19621851847507057
1782951233104173300,3.25517333984375,-0.3370113561958074,0.12747604083418845,0.2253581037197262
1782951233114100500,3.2651005859375,-0.22967034089565275,0.08100494316890836,0.2088704217121005
1782951233124027400,3.27502734375,-0.13435761704146862,0.054366673220694064,0.13814860682226718
1782951233133953500,3.28495361328125,-0.11205752242803572,0.0547713084988296,0.03603570143394172
1782951233143880700,3.294880615234375,-0.08911153112649917,0.07299114806130529,-0.025674539482593534
1782951233153807400,3.304807373046875,-0.016267244189977645,0.07160816927030682,-0.0423935460280627
1782951233163734500,3.314734619140625,0.08148352046608924,0.07126461652964353,-0.01171359947361052
1782951233173661400,3.324661376953125,0.17731939141154288,0.12765768101140856,-0.012848521787673234
1782951233183587600,3.334587646484375,0.19112404488027096,0.11108370895981788,-0.030687545339018105
1782951233193514500,3.344514404296875,0.17144202381074428,0.12486293572634458,-0.05762333692908287
1782951233203441700,3.354441650390625,0.05532382781505584,0.11830635368973016,-0.11478490156531333
1782951233213368300,3.364368408203125,-0.05751344681382179,0.13360270702093838,-0.16877996499463915
1782951233223294500,3.37429443359375,-0.09648819737434387,0.13245879768282173,-0.16167247107699512
1782951233233221600,3.3842216796875,-0.06958382383584975,0.12243483179658651,-0.1082531617090106
1782951233243148500,3.3941484375,-0.015069558838009834,0.0962156640432775,-0.07602876219153404
1782951233253075700,3.40407568359375,0.019015666115283963,0.10185863836631179,-0.03493387767188251
1782951233263002400,3.41400244140625,0.05635492442846298,0.09411664593741297,0.009332257295027374
1782951233272928500,3.423928466796875,0.028318331989645958,0.04243818888738751,0.06009060382544994
1782951233282855400,3.43385546875,-0.07601940984129905,0.01636003703996539,0.048712812177464364
1782951233292782600,3.443782470703125,-0.24608897625505924,0.006396569169312715,-0.05802556105442345
1782951233302709500,3.45370947265625,-0.37337329390943047,-0.002599368843436241,-0.1556404243711382
1782951233312635400,3.463635498046875,-0.3873118028908968,0.015823445945233106,-0.2558059220187366
1782951233322562600,3.4735625,-0.21982933036088942,0.09030717065185308,-0.32800511598475274
1782951233332489500,3.483489501953125,0.07384674197733401,0.13634849859774112,-0.32338271688111125
1782951233342416600,3.493416748046875,0.3633727088987827,0.1591892759591341,-0.22747619185224174
1782951233352342500,3.503342529296875,0.5231406615287065,0.18369944783747194,-0.1212135463733226
1782951233362269400,3.51326953125,0.5270131190478802,0.16390402952134608,-0.11004501356184482
1782951233372196400,3.5231962890625,0.37762978231012817,0.1333119073808193,-0.1279406626712531
1782951233382123500,3.53312353515625,0.11633096196353435,0.06134659523591399,-0.2063072201605886
1782951233392050400,3.543050537109375,-0.14053484437167643,0.05537789608985185,-0.30613420656882223
1782951233401976600,3.5529765625,-0.26188158867061134,0.08448182549923658,-0.38969957481026646
1782951233411903700,3.56290380859375,-0.14747019659280777,0.12064590255320072,-0.38460648945495485
1782951233421830400,3.572830322265625,0.07216799511015415,0.15025295917913317,-0.2593826114617288
1782951233431757600,3.582757568359375,0.3345394131243229,0.1591387148156762,-0.07771751899607479
1782951233441683500,3.592683349609375,0.5310352141708136,0.13415128081440925,0.11700038565769791
1782951233451610600,3.602610595703125,0.5072516030013561,0.07550429992601275,0.29916370996907354
1782951233461537500,3.61253759765625,0.2964309240043163,0.03766805187612772,0.4095379554852843
1782951233471464400,3.62246435546875,-0.11174538773894309,-0.0074773501433432095,0.4117811313021928
1782951233481391400,3.632391357421875,-0.5869242746531963,-0.057468146367371076,0.3169250651743263
1782951233491317500,3.6423173828125,-0.9876245514273643,-0.09821166016608476,0.131896049233526
1782951233501244700,3.65224462890625,-1.1713286754399537,-0.08478270814195275,-0.07862367405556142
1782951233511171600,3.662171630859375,-1.0549848539948463,-0.04757306755781173,-0.24506416325196623
1782951233521098500,3.672098388671875,-0.6549357346057891,0.021390724683552978,-0.3176292679209262
1782951233531024400,3.6820244140625,-0.04872574472427368,0.09628989832326769,-0.2704478300292045
1782951233540951600,3.69195166015625,0.503150597423315,0.15907894745245574,-0.10886676356270909
1782951233550878500,3.70187841796875,0.9321639454901218,0.21592691609486936,0.08604337572753429
1782951233560805600,3.7118056640625,1.0465659852176905,0.2734264805138111,0.19335611478127537
1782951233570731500,3.7217314453125,0.8758353245466947,0.2858832265049219,0.14115794470608234
1782951233580658400,3.731658447265625,0.5416472090780735,0.2641159235939383,-0.01212386077493429
1782951233590585300,3.74158544921875,0.10530687912404536,0.22008520481809973,-0.2238332322400063
1782951233600512500,3.751512451171875,-0.2506821492642164,0.1472470553614199,-0.4038975384455174
1782951233610439400,3.761439453125,-0.45394788283705706,0.07840396689027547,-0.515154777341336
1782951233620365600,3.771365478515625,-0.5066963072061539,0.0396884517878294,-0.5065683699775487
1782951233630292500,3.78129248046875,-0.35698680725395676,0.05802826446816325,-0.433523007510975
1782951233640219400,3.791219482421875,-0.10635668043792247,0.06356894746050239,-0.3302467574317008
1782951233650146600,3.801146484375,0.13866554336845874,0.024125556474924086,-0.20863946250043808
1782951233660072400,3.811072509765625,0.2182867770940065,-0.018954291316866875,-0.16762443828396498
1782951233669999600,3.82099951171875,0.20540566821098327,-0.0543824553117156,-0.2146148105829954
1782951233679926300,3.83092626953125,0.15194237357079982,-0.10972469556629658,-0.2696470350403338
1782951233689853400,3.840853515625,0.05972469312250614,-0.15635916709974407,-0.29997875267900526
1782951233699780400,3.8507802734375,-0.05149111778438091,-0.1554068348109722,-0.30008667003288864
1782951233709706500,3.86070654296875,-0.1095791496157646,-0.12450111667662858,-0.3334130394428968
1782951233719633700,3.870633544921875,-0.07661971382200718,-0.11919687278866767,-0.3024061259564012
1782951233729560600,3.880560546875,0.022822657182812688,-0.0952436041407287,-0.2452110974419862
1782951233739488000,3.890488037109375,0.1255307519853115,-0.05134644861668348,-0.24509061286747455
1782951233749414000,3.900413818359375,0.22890987791717052,0.04374737178981304,-0.25595621720962225
1782951233759341000,3.910341064453125,0.3169885588645935,0.12179185771793126,-0.24613486122339961
1782951233769267700,3.920267822265625,0.3239472919613123,0.1459602304212749,-0.18665961281731724
1782951233779195000,3.93019482421875,0.2504875034749508,0.15450886305794118,-0.12321261123605072
1782951233789121000,3.94012109375,0.19110767826735972,0.13746449701562524,-0.06780227418132126
1782951233799048000,3.9500478515625,0.10687865848541259,0.11278013761416077,0.031780016750842334
1782951233808975000,3.95997509765625,0.027470190727710724,0.0840823047876358,0.10889197106920182
1782951233818901800,3.96990185546875,-0.10171440759003161,0.1162530744217336,0.21545973697453735
1782951233828829000,3.979828857421875,-0.20714169822335243,0.12665581049248575,0.23362572745792567
1782951233838754800,3.9897548828125,-0.27359014664292336,0.10792407588511704,0.24485892300345002
1782951233848682000,3.999681884765625,-0.28576807569265367,0.07060439905524253,0.276273540508002
1782951233858609000,4.00960888671875,-0.2234422601610422,0.07164543254077434,0.2962087326209992
1782951233868536000,4.0195361328125,-0.157093180462718,0.07857289371639489,0.32138182538747784
1782951233878462000,4.0294619140625,-0.04728372922241687,0.08405687808543442,0.3492755752895027
1782951233888388900,4.039388916015625,0.08044716315567493,0.0720832394361496,0.35226781590804457
1782951233898316000,4.04931591796875,0.13409458219110965,0.05082081730738282,0.3251400088772177
1782951233908243000,4.059242919921875,0.12298749724328517,0.03195069714263082,0.21908567238673565
1782951233918168800,4.0691689453125,0.07414309457540512,0.04330225837081671,0.09420512793846428
1782951233928095700,4.079095703125,0.02029343096613884,0.06395692386478186,0.020710852660611272
1782951233938023000,4.08902294921875,0.01647124232947826,0.052920127674192186,-0.0619947569463402
1782951233947949800,4.09894970703125,0.00495090040564537,0.059676323936134576,-0.09317344680316746
1782951233957877000,4.108876953125,-0.043407764571905136,0.09258929023966192,-0.15563063362948595
1782951233967803000,4.118802978515625,-0.049399113941192625,0.15849311038851738,-0.15682159697972237
1782951233977729800,4.128729736328125,0.008913958817720412,0.1820307839728892,-0.1329425626117736
1782951233987656700,4.13865673828125,0.04825578912496566,0.15846958338245748,-0.08690065014399588
1782951233997584000,4.148583984375,0.09226794933080673,0.13876841922104358,-0.08292349014133214
1782951234007510000,4.158510009765625,0.11537994484901427,0.12207798118293285,-0.16332250330634415
1782951234017437000,4.16843701171875,0.11661913125514983,0.07733136922270059,-0.18566804449670016
1782951234027363800,4.17836376953125,0.11986965748369693,0.045007454853504894,-0.1769427401188761
1782951234037290800,4.188290771484375,0.09912965179383754,0.059212213555723425,-0.1745205544732511
1782951234047217000,4.198216796875,0.07609305959939956,0.06678031072244048,-0.14822094189487398
1782951234057143800,4.208143798828125,0.03079904288947582,0.06373480554670095,-0.11654891556315124
1782951234067071000,4.218071044921875,0.014458148941397667,0.034692981588095424,-0.09488616900518536
1782951234076998000,4.227997802734375,-0.033089199653267856,-0.0027231413535773754,-0.07567987568862736
1782951234086924800,4.2379248046875,-0.09120119688212872,-0.02019771550670266,-0.03779774267040193
1782951234096851000,4.247850830078125,-0.07462883226573466,0.019636136101186273,-0.0072494596716016525
1782951234106777900,4.25777783203125,-0.020660510712862012,0.054100423499941826,0.005166296721994877
1782951234116705000,4.267705078125,0.018771920487284658,0.0739687609218061,0.0581305557988584
1782951234126632000,4.2776318359375,0.019347674548625945,0.08972659428492188,0.0698217242449522
1782951234136557800,4.287557861328125,0.031136896541714667,0.1090112865999341,0.037658188069239255
1782951234146484700,4.297484619140625,0.05432604894936084,0.11289996460154651,0.01147394549883902
1782951234156412000,4.307411865234375,0.07213584640622138,0.09750950324609875,-0.0009740326639264822
1782951234166338800,4.3173388671875,0.08158756536245346,0.08717793271541595,-0.05104666195251047
1782951234176266000,4.327265869140625,0.038947278031706806,0.07440510651245713,-0.06653831866011023
1782951234186192000,4.33719189453125,-0.07181085223555564,0.09236731805205345,-0.10411233557723462
1782951234196121000,4.34712109375,-0.1112356846511364,0.13238909344747662,-0.13665529952459035
1782951234206047700,4.3570478515625,-0.0744663351804018,0.12305398660823702,-0.15817352304533122
1782951234215974000,4.366973876953125,-0.00820610280930996,0.1048778400570154,-0.17110840794220566
1782951234225900800,4.37690087890625,0.04827800095677375,0.08397109949812293,-0.17200360321626065
1782951234235828000,4.386827880859375,0.08575871356725692,0.06641191580146551,-0.17837642618380486
1782951234245755000,4.3967548828125,0.11776070250570773,0.06759279614910484,-0.17965367957800626
1782951234255680800,4.4066806640625,0.11918635139465332,0.05715761911347508,-0.16192315790243447
1782951234265608000,4.41660791015625,0.04379004188776016,0.03463818266093731,-0.1815839169882238
1782951234275534800,4.426534912109375,-0.020822423276305197,0.053626522377878426,-0.19062639755643904
1782951234285462000,4.4364619140625,-0.04460428088009357,0.05899287171661854,-0.20026399447359144
1782951234295389000,4.446388916015625,-0.026117607074975967,0.042277737628668544,-0.16282916683144866
1782951234305314800,4.456314697265625,0.0059212067425251005,0.028870120653510092,-0.15591149639748036
1782951234315241700,4.46624169921875,0.05615092628896236,0.03804199975505471,-0.15473763031251728
1782951234325169000,4.4761689453125,0.07806114480197429,0.03243278157114982,-0.13282383160293101
1782951234335095800,4.486095703125,0.017503507986664772,0.019416355870664117,-0.06973068496063352
1782951234345022000,4.49602197265625,-0.03560848899781704,0.037894115716964,-0.03900039645843208
1782951234354949000,4.50594921875,-0.08490648065209389,0.07816358226314186,0.030218758783489463
1782951234364875800,4.515875732421875,-0.09725275200605392,0.11603577840924262,0.07477035962827504
1782951234374803000,4.525802978515625,-0.06048924775421619,0.13231295947134494,0.06401881011985242
1782951234384728800,4.535728759765625,-0.03847790695428848,0.112434685177356,0.03943849561475217
1782951234394656000,4.545656005859375,-0.038810499909520145,0.07193447861522435,0.03696794078275561
1782951234404583000,4.5555830078125,-0.06314531522095203,0.09140329532548784,0.036133974176645274
1782951234414509800,4.565509765625,-0.06160743812918663,0.1396462249688804,0.011855126836150883
1782951234424436700,4.575436767578125,0.02243570369184017,0.1528724940277636,0.03042889440283179
1782951234434363000,4.58536279296875,0.14164777404963969,0.11975494506284594,0.0837474468100816
1782951234444290000,4.5952900390625,0.2089502089500427,0.1010243794992566,0.08172332057133316
1782951234454217000,4.605217041015625,0.24263269832134246,0.08799158718585967,0.027341888172924517
1782951234464144000,4.615143798828125,0.12917232335805892,0.04097980677261948,-0.0022061317421495914
1782951234474069800,4.62506982421875,-0.019461071795225143,0.03905395327657461,-0.0636561873525381
1782951234483997000,4.634996826171875,-0.0927308906674385,0.0515720740661025,-0.1094083230935037
1782951234493923800,4.644923828125,-0.12873159385323524,0.03671995737105608,-0.0476437216412276
1782951234503851000,4.65485107421875,-0.16355740804076194,0.02783580916970968,-0.00024915245547890664
1782951234513777000,4.66477685546875,-0.1579161872833967,0.05232552278190851,-0.038113165295124055
1782951234523703800,4.674703857421875,-0.10715221472978591,0.01308247667402029,-0.11374606003686785
1782951234533630700,4.684630615234375,-0.010909516549110413,-0.032488018889725204,-0.19354031224176285
1782951234543558000,4.694557861328125,0.06231237152814865,-0.02080503375008702,-0.23404227236956357
1782951234553484800,4.70448486328125,0.14161913247704505,0.022488310661911964,-0.20482158471271394
1782951234563411000,4.714410888671875,0.175043847694993,0.035845512624084946,-0.09686565238460898
1782951234573337900,4.724337890625,0.16886311323344708,0.06538768732026219,-0.039245457260683174
1782951234583264800,4.7342646484375,0.11942542084753513,0.08310600710138678,-0.0002228489704430103
1782951234593192000,4.74419189453125,0.07729074495136737,0.07342340199872852,-0.004850435705855489
1782951234603117800,4.754117919921875,0.053149990907311435,0.07480345818027853,-0.0294095612924546
1782951234613045000,4.764044921875,0.02835164973735809,0.08030600111931561,-0.035997999772056935
1782951234622971600,4.7739716796875,0.04079553624689579,0.0936665640823543,-0.03741539228931069
1782951234632898800,4.78389892578125,0.03200081989467144,0.09263079129382967,-0.02112725144177675
1782951234642825000,4.793824951171875,-0.05776829835772514,0.07473901464194059,-0.02229899863488972
1782951234652752000,4.803751953125,-0.13245616733431814,0.0952624549716711,-0.004978738260641694
1782951234662679000,4.813678955078125,-0.1463099206417799,0.11281389375329016,-0.0008739332903176546
1782951234672606000,4.82360595703125,-0.08626374047994613,0.09200929839462041,-0.001993219643831253
1782951234682532900,4.833532958984375,-0.028185645520687103,0.08460968966260551,0.00180566118247807
1782951234692458800,4.843458740234375,0.04092939175963402,0.08561112179011106,-0.029640812765061853
1782951234702386000,4.853385986328125,0.12276713249087333,0.09005158845558763,-0.011147197762504219
1782951234712312800,4.863312744140625,0.14000292945206164,0.08037146757096052,0.0035880876198410984
1782951234722240000,4.873239990234375,0.09857552504241467,0.09095321347042917,0.008029942524805664
1782951234732166000,4.883165771484375,0.02614449508190155,0.11580693808943032,-0.004435571294650435
1782951234742092300,4.89309228515625,-0.02608428932726383,0.13067059909179807,-0.04436163123063743
1782951234752019200,4.903019287109375,-0.027587679627537727,0.12969167105704546,-0.07539572498500346
1782951234761946000,4.912946044921875,-0.02156125894486904,0.10484481457024812,-0.11966098316907882
1782951234771872300,4.922872314453125,-0.0016138649374246596,0.08490136608555912,-0.14449571082666515
1782951234781799400,4.93279931640625,0.07548515683412552,0.09414002681300043,-0.12058226273246109
1782951234791726300,4.942726318359375,0.12738836255073546,0.08438976330161094,-0.08423428047895432
1782951234801653200,4.9526533203125,0.09605740474164486,0.059211921294778584,-0.08055705327093601
1782951234811580200,4.962580078125,0.03742050685584545,0.07691036733165382,-0.1337695149552077
1782951234821506300,4.97250634765625,0.012455576947331428,0.06586874883547425,-0.14267448674887417
1782951234831433200,4.98243310546875,0.0055991351813077924,0.07497530761584639,-0.14623064486049114
1782951234841360400,4.9923603515625,0.01275134502351284,0.06444017733708024,-0.12503617340140044
1782951234851287300,5.002287353515625,-0.0060930561780929565,0.07068184820562601,-0.09466207792572677
1782951234861213200,5.012213134765625,-0.0593821632951498,0.08510288000702858,-0.08051964386999606
1782951234871140400,5.022140380859375,-0.10125848051607608,0.08581745801717043,-0.07616751307509839
1782951234881067300,5.0320673828125,-0.1078454576909542,0.09712181910276413,-0.07381897718757391
1782951234890994400,5.041994384765625,-0.07224632104337216,0.08875424212142824,-0.06989172074124217
1782951234900920000,5.051920166015625,-0.030869770038127898,0.08771013989597558,-0.07291311438903213
1782951234910847200,5.06184716796875,-0.002003156515955925,0.10912468384653329,-0.04378711927831173
1782951234920774100,5.071774169921875,0.04321136521697044,0.1373489078119397,-0.019396482126414774
1782951234930701300,5.081701416015625,0.07684358570575714,0.15298735257908702,0.005179740725457668
1782951234940628200,5.091628173828125,0.10248773005008698,0.10673311253488063,0.013367284964770078
1782951234950554400,5.101554443359375,0.12274784326851368,0.08092457140907645,0.015379939961433409
1782951234960481300,5.111481201171875,0.140296943962574,0.0679382485859096,-0.0036963702999055384
1782951234970408200,5.121408203125,0.1096270804107189,0.04293605540692806,-0.04581482571363449
1782951234980335400,5.13133544921875,0.06526362254917621,0.050151101352274415,-0.08795242421925067
1782951234990261200,5.14126123046875,0.03471533955037594,0.03781798174083233,-0.10771357493959367
1782951235000188400,5.1511884765625,-0.03378068904876709,0.024078064071387052,-0.10187485884875058
1782951235010115000,5.161114990234375,-0.07842880907058715,0.03282762610763311,-0.0905091229647398
1782951235020042200,5.171042236328125,-0.10654022031128406,0.055599868277460336,-0.043617242604121566
1782951235029968400,5.180968505859375,-0.12448562684655189,0.05838540734276175,-0.0029985242288559674
1782951235039895300,5.190895263671875,-0.132628016769886,0.05955562016591429,-0.039075872847437854
1782951235049822200,5.200822265625,-0.08761866222023963,0.06545505346804857,-0.07341777597554028
1782951235059749400,5.210749267578125,-0.02040975082218647,0.052541065228730435,-0.09348543536178767
1782951235069676300,5.22067626953125,0.058032502251863474,0.0385381127089262,-0.12595913346521556
1782951235079602200,5.230602294921875,0.13752923281490803,0.05933700897917151,-0.14374182371944189
1782951235089529300,5.240529296875,0.18258827172517775,0.06679477763921023,-0.1357205759577453
1782951235099456300,5.250456298828125,0.1915706196039915,0.09525514844805001,-0.07664667489416897
1782951235109383400,5.260383544921875,0.2022930891484022,0.12244301510304212,-0.02842712612636387
1782951235119309300,5.270309326171875,0.15888532457649707,0.10841273618489503,0.019457783859595654
1782951235129236200,5.280236328125,0.07055997539162635,0.07019274951443076,0.023934563947468995
1782951235139163100,5.2901630859375,-0.0561667083799839,0.0766597535714507,0.0015595774669200182
1782951235149090300,5.30009033203125,-0.15878478681147098,0.07037482808306812,-0.041272286913171405
1782951235159016400,5.310016357421875,-0.1893704792112112,0.09022299949973821,-0.05661912832260132
1782951235168943000,5.319943115234375,-0.11195581561923026,0.0729312345676124,-0.035088922103121874
1782951235178870300,5.329870361328125,-0.040997780820727345,0.0523531414411962,0.009028744303807616
1782951235188797200,5.339797119140625,0.03810264390110969,0.06760974728390574,0.02397869535014033
1782951235198724400,5.349724365234375,0.13220248483419417,0.06730550364032388,0.023895400980859995
1782951235208650200,5.359650146484375,0.17391045975089073,0.06099485918879509,0.022576427336782216
1782951235218577200,5.3695771484375,0.18220482536554336,0.041799306461960076,-0.0172870156917721
1782951235228504000,5.379504150390625,0.13655600386857986,0.03672930972129106,-0.08653481250628829
1782951235238431200,5.38943115234375,0.06133914258182049,0.028032646916061638,-0.11653481397256255
1782951235248357400,5.399357421875,-0.08124737362265587,0.026046733795851467,-0.10981281224116682
1782951235258284300,5.4092841796875,-0.1788005698800087,0.058307519800961015,-0.10319690123274922
1782951235268211500,5.41921142578125,-0.20765315487682817,0.09116071874126791,-0.08880085774213076
1782951235278138000,5.42913818359375,-0.15059563513696192,0.09183964091613889,-0.07059022439941763
1782951235288064300,5.439064208984375,-0.07102291672825813,0.049018882451951504,-0.020594094413146375
1782951235297991200,5.4489912109375,-0.008089782953262329,0.04299962216243148,-0.005325578936934471
1782951235307918300,5.45891845703125,0.02031388923227787,0.07679156325757502,-0.08641805425882339
1782951235317845200,5.46884521484375,0.08542261348068714,0.11582885766029358,-0.1013113066818565
1782951235327771100,5.478771240234375,0.18127718912661075,0.08750482658222317,-0.10308438076898455
1782951235337698300,5.4886982421875,0.22652385956346988,0.07182093523815274,-0.08711056656762957
1782951235347625200,5.498625244140625,0.22579671433269977,0.05847410853952169,-0.05612696089148521
1782951235357552400,5.508552490234375,0.21911913626492022,0.03947057125344872,-0.04875460549257695
1782951235367479300,5.518479248046875,0.0852063403815031,0.020469079793989656,-0.04983187933526933
1782951235377405200,5.5284052734375,-0.11905074231624603,0.025296938341856,-0.08977540186271071
1782951235387332000,5.53833203125,-0.27540567163228985,0.07404942494258285,-0.12457695839181541
1782951235397259300,5.54825927734375,-0.2613449975758791,0.08849252244532108,-0.11550408268533646
1782951235407186200,5.558186279296875,-0.16563187622725964,0.06277078282013535,-0.0581629236984998
1782951235417112300,5.5681123046875,-0.0524807133436203,0.0517104596234858,-0.02314129467792809
1782951235427039200,5.578039306640625,0.08402852877378464,0.07023366604670882,-0.008765271062031389
1782951235436966100,5.587966064453125,0.18281448169648645,0.08427695057690143,0.02743709217570722
1782951235446893300,5.597893310546875,0.1840022301763296,0.060280865700542925,0.008210559788718819
1782951235456819200,5.607819091796875,0.11973521744906902,0.050018707144260405,-0.05663505654409527
1782951235466746400,5.617746337890625,0.08397709084749222,0.058969052449613805,-0.10581059086248278
1782951235476673300,5.62767333984375,0.020201076507568357,0.06122837568372488,-0.09913571620844304
1782951235486600200,5.63760009765625,-0.06422843428254127,0.07235445759296417,-0.054959670677781104
1782951235496527000,5.647527099609375,-0.09303075039684772,0.12909209772869945,-0.047830476384982466
1782951235506453200,5.657453369140625,-0.0630851094663143,0.14079744083061813,-0.04599624669514596
1782951235516380400,5.66738037109375,-0.0068920976012945175,0.10202361966967582,-0.00775872436799109
1782951235526307300,5.677307373046875,0.02363923426270485,0.0670363313101232,0.007687485762685537
1782951235536234500,5.687234375,0.018880641558766363,0.06273439633250236,-0.026913725888729093
1782951235546160000,5.69716015625,0.02306055759191513,0.06906608357205987,-0.04442315215952694
1782951235556087300,5.70708740234375,0.012868249401450156,0.08227700893133878,-0.03744257255718112
1782951235566014200,5.71701416015625,0.028313071292638776,0.09267039265185593,-0.030926468661427495
1782951235575941400,5.72694140625,0.013801146337389944,0.07647709048092365,-0.0507774896223098
1782951235585867300,5.7368671875,0.0023047698110342024,0.08029927911758422,-0.07205847032107413
1782951235595794200,5.746794189453125,0.008192658805847167,0.043174101946502924,-0.08327171905711293
1782951235605721300,5.756721435546875,0.0009311433702707291,0.031248686353117224,-0.06380823610909282
1782951235615648300,5.766648193359375,0.013619944551587104,0.051789662339538335,-0.05348696777671575
1782951235625574400,5.776574462890625,0.027293080595135688,0.04852057754099369,-0.0604501578528434
1782951235635501000,5.7865009765625,0.0641571226119995,0.05490048783645034,-0.029557226134836672
1782951235645428200,5.79642822265625,0.047620998352766036,0.04179682224392891,-0.02280680202655494
1782951235655355100,5.806355224609375,0.011101239728927612,0.02014174753576517,-0.057484366849809884
1782951235665282300,5.8162822265625,-0.04054185374677181,0.032106179965287446,-0.061077495970949525
1782951235675208400,5.82620849609375,-0.03828033855557442,0.08070040726438164,-0.05891279221773147
1782951235685135400,5.83613525390625,-0.015334347254037857,0.08289791730865835,-0.022524258758127687
1782951235695062300,5.846062255859375,-0.031818449065089224,0.0885344618909061,-0.0005080956526100635
1782951235704989200,5.8559892578125,-0.04698503853678703,0.08382292319908738,-0.00843618523813784
1782951235714915300,5.865915283203125,-0.03399930023550987,0.07808803280889988,-0.029173122188076377
1782951235724842200,5.87584228515625,-0.011575286981463432,0.06803732504621147,-0.04367898272871971
1782951235734769400,5.885769287109375,0.008752630776166915,0.07237637716382742,-0.04015205071158707
1782951235744697000,5.895697021484375,0.03612111469507217,0.09868220028728246,-0.02212495724223554
1782951235754623000,5.905623046875,0.08482815471887588,0.09648819737434387,-0.002640723767131567
1782951235764550000,5.9155498046875,0.11385901889204979,0.07930851451456546,-0.0021560820553451774
1782951235774477000,5.92547705078125,0.06802958013117313,0.06294950038790703,-0.030767405642196533
1782951235784404000,5.935404052734375,0.018837971460819242,0.06436681983992457,-0.07964176505692303
1782951235794331100,5.9453310546875,0.030775077491998672,0.023538696497678754,-0.09064509736932813
1782951235804257000,5.955257080078125,0.028857261171936988,0.009283668912947178,-0.11154168186038732
1782951235814184000,5.965183837890625,0.04233867403566837,0.022616320955753326,-0.13028357253558934
1782951235824111000,5.975111083984375,0.10809329497218131,0.044457858146727085,-0.10158420533910394
1782951235834038000,5.9850380859375,0.13289514327347277,0.04905570733100176,-0.08956818885281681
1782951235843964200,5.994964111328125,0.11520751089155673,0.06244418121427297,-0.09208082926087081
1782951235853890800,6.004890869140625,0.03474631921052933,0.07493629077970981,-0.07911554922573268
1782951235863818000,6.01481787109375,-0.05751461585760116,0.07756196310818195,-0.05731850876361131
1782951235873745000,6.024744873046875,-0.12246961084902286,0.07613149191364646,-0.009870309694483876
1782951235883671000,6.034671142578125,-0.19829028324782846,0.09922902051508425,0.03662679919488728
1782951235893598000,6.044597900390625,-0.22689853809475896,0.12136442608609795,0.006367562270537018
1782951235903525000,6.054525146484375,-0.14351064531207083,0.10336612031981349,-0.03683277009576559
1782951235913452000,6.0644521484375,-0.048041854113340374,0.05378244359195232,-0.01650112601108849
1782951235923378000,6.0743779296875,0.08759235873520374,0.0349891880556941,-0.0324103505436331
1782951235933305000,6.08430517578125,0.15490823763906955,0.06163476452752947,-0.039104149093851445
1782951235943232000,6.09423193359375,0.17254910826981065,0.09849719910919666,-0.0016281857237219809
1782951235953159200,6.1041591796875,0.1775666441708803,0.1094352111004293,0.007737097058072686
1782951235963086000,6.114086181640625,0.15347089831233024,0.08481675654202699,0.026893925209715962
1782951235973012000,6.124011962890625,0.15270692820250986,0.09788812730014324,-0.0034078356821089983
1782951235982939000,6.13393896484375,0.11649053643941878,0.06672858053520321,-0.009054097940772771
1782951235992866000,6.143865966796875,0.049026188975572586,0.052540188445895905,-0.03288103679530322
1782951236002793000,6.15379296875,-0.028069910186529157,0.054308513292670245,-0.045722471255064005
1782951236012718800,6.16371875,-0.09821312147080898,0.02979863367527723,-0.0902694689899683
1782951236022646000,6.17364599609375,-0.19385083949565887,0.003604454232752323,-0.1052179587315768
1782951236032573000,6.183572998046875,-0.22046704374253748,0.012524696660786866,-0.1414580966964364
1782951236042500000,6.1935,-0.19239011929333208,0.036034313194453715,-0.17738704982027412
1782951236052426000,6.203426025390625,-0.09169511787891388,0.043531098690629,-0.1453743202921003
1782951236062353000,6.213352783203125,0.029274609801173208,0.07998349116668105,-0.1277208093754947
1782951236072279800,6.22327978515625,0.13963935683667658,0.09146759273335336,-0.08536737616211175
1782951236082207000,6.23320703125,0.19175532852113245,0.05810995140224695,-0.04651281791515648
1782951236092133000,6.243133056640625,0.20203356142938136,0.05622223795950412,-0.034291122788935896
1782951236102060000,6.25306005859375,0.1706394752562046,0.08198255602940917,-0.018928499288484453
1782951236111987200,6.2629873046875,0.13544073610305785,0.07966141960546373,-0.030432620729878544
1782951236121913900,6.272913818359375,0.071586395829916,0.1200767243631184,-0.03811382288224995
1782951236131841000,6.282841064453125,0.026470658296346664,0.14177783017009496,-0.016834668814390896
1782951236141767000,6.292766845703125,-0.0014472761988639832,0.10781652385741472,-0.013610226875171064
1782951236151694000,6.302694091796875,-0.03174421478509903,0.08816212144717574,-0.007596884869784116
1782951236161621000,6.31262109375,-0.025113398468494415,0.0880875949062407,0.017781959601864218
1782951236171548200,6.322548095703125,-0.06088672263920307,0.09840762112960219,0.015892711789160966
1782951236181474000,6.33247412109375,-0.06763795046508311,0.09782382989227771,-0.004304492260888219
1782951236191401000,6.34240087890625,-0.0665367112249136,0.058286184751987456,-0.0805860601697117
1782951236201328000,6.352328125,0.0031061493217945098,0.02635068517848849,-0.11913513266406953
1782951236211255000,6.362255126953125,0.038866029489040374,-0.0024050153151154515,-0.17234993243589997
1782951236221181000,6.372180908203125,0.07124912669956683,-0.03130056267082691,-0.1459265473473817
1782951236231107800,6.38210791015625,0.08878945956528186,-0.022455577436089516,-0.09517908753715455
1782951236241035000,6.392034912109375,0.02011164465844631,0.04327157097160816,-0.0943712782856077
1782951236250962000,6.4019619140625,-0.07216857963204383,0.0773807613223791,-0.10227978638783097
1782951236260889000,6.41188916015625,-0.1490758782237768,0.06707315618917345,-0.10136639786995946
1782951236270815000,6.42181494140625,-0.1334253046274185,0.07991948601976037,-0.1317422469113022
1782951236280742000,6.431741943359375,-0.06773965727388859,0.07769976414367556,-0.10606273899264633
1782951236290669000,6.4416689453125,0.0628501316666603,0.07301072954460978,-0.08450337974391878
1782951236300596000,6.451595947265625,0.16245499975681305,0.07637129201889038,0.003860401755198836
1782951236310522000,6.461522216796875,0.15525193651020525,0.11617153361812234,0.06639869099371135
1782951236320449000,6.471448974609375,0.10111176552176475,0.13434081203714013,0.050224604979902505
1782951236330376000,6.4813759765625,0.03660568334162235,0.11978519407063722,0.017520970578119157
1782951236340302800,6.491302734375,0.028331775993108748,0.06216872527375817,0.010860270579904317
1782951236350229000,6.50122900390625,0.025038579666614533,0.05776727544441819,-0.021526114566251635
1782951236360156200,6.51115625,0.012600538375973701,0.08007379979863763,-0.0283915433563292
1782951236370083000,6.5210830078125,0.0014005144476890562,0.08521350077465176,-0.034587548452243204
1782951236380010200,6.53101025390625,-0.056420975401997565,0.07069704577475786,-0.03128792238496244
1782951236389935900,6.540935791015625,-0.0841343272358179,0.08999094430953264,-0.036226036374270916
1782951236399863000,6.550863037109375,-0.08593173204660415,0.09323781727626919,-0.10591229767128825
1782951236409790000,6.5607900390625,-0.026388240709900854,0.08307064352706074,-0.129238885788247
1782951236419717000,6.570717041015625,0.060409752777218814,0.0394400299847126,-0.1253119216028601
1782951236429644000,6.58064404296875,0.1262368544280529,0.024347967053949832,-0.10431428789012133
1782951236439570000,6.59056982421875,0.160536014392972,0.039067835671454665,-0.10502141324616968
1782951236449497000,6.6004970703125,0.15077859048843384,0.04741378534287214,-0.15179514711983502
1782951236459424000,6.610424072265625,0.0750678082048893,0.037090982640534634,-0.13657280887290835
1782951236469351200,6.62035107421875,-0.01921323451399803,0.07335866619944573,-0.11841039858609437
1782951236479276800,6.63027685546875,-0.04012508963942527,0.10239566785246133,-0.14334675998724997
1782951236489204000,6.640203857421875,-0.01316869365274906,0.08280527058914303,-0.1471672681234777
1782951236499131000,6.650130859375,0.011287117689847945,0.03261617531403899,-0.043850101511925456
1782951236509058000,6.66005810546875,0.04281856650710106,0.0891536167025566,-0.014870017677918075
1782951236518984200,6.669984130859375,0.0788362208276987,0.12079890115782618,0.0059372810944914815
1782951236528911000,6.6799111328125,0.057935471618175506,0.10674144197180867,0.022752076164633036
1782951236538838000,6.689838134765625,0.009346505016088484,0.10005758029371499,0.0013360709093511104
1782951236548765000,6.699764892578125,-0.10519055926799774,0.11615604378804564,-0.04098119501210749
1782951236558692000,6.709692138671875,-0.1384749892324209,0.13217384326159953,-0.08284706390425563
1782951236568618000,6.719617919921875,-0.09168751909434796,0.12665551823154092,-0.09066497111357748
1782951236578545200,6.729545166015625,0.020051438903808592,0.10973287887275218,-0.07143215511627495
1782951236588472000,6.73947216796875,0.12279402049779892,0.08845745113193988,-0.06343479968681931
1782951236598399000,6.74939892578125,0.18338380601704118,0.04542568026557565,-0.04259571753665805
1782951236608325000,6.7593251953125,0.1708656852275133,0.06010565526410937,-0.03227897924892604
1782951236618252000,6.769251953125,0.08900923979580402,0.04743205165192484,-0.006789148683473467
1782951236628179200,6.77917919921875,-0.012685294049978256,0.0748154408790171,-0.05734824631474912
1782951236638106000,6.789106201171875,-0.09872224003672599,0.05610328775495291,-0.09005984482727944
1782951236648032000,6.799031982421875,-0.11182605175971984,0.047251142127066846,-0.11693090061806141
1782951236657959000,6.808958984375,-0.05896247657835483,0.04258475775122642,-0.1199896306015551
1782951236667886000,6.818885986328125,0.021161445972323417,0.05777414357662201,-0.10227679071314633
1782951236677813000,6.82881298828125,0.10823065761625766,0.0667446548871696,-0.05774155648127198
1782951236687739000,6.83873876953125,0.14440496380329132,0.07606646385341882,0.0069846712555736296
1782951236697666000,6.848666015625,0.12947919735014438,0.09844780700951813,0.026570392343774438
1782951236707593000,6.858593017578125,0.09456804296672344,0.08743497621640563,0.038687823377922176
1782951236717520000,6.868519775390625,0.059117959401011465,0.06556026740819215,0.06767324097417295
1782951236727447000,6.878447021484375,-0.020229133558273313,0.0318128961071372,0.07275682784877717
1782951236737373200,6.888373291015625,-0.06872866831123828,0.0263088918633759,0.055629240502417084
1782951236747299800,6.8982998046875,-0.09202887987792491,0.06812704915627837,0.00600640080794692
1782951236757227000,6.90822705078125,-0.1328466279566288,0.06378609734252094,-0.013576762996986508
1782951236767154000,6.91815380859375,-0.12447685901820658,0.029437399147450923,-0.005355827944725751
1782951236777080000,6.928080078125,-0.08843173216879367,-0.0040916532278060915,-0.014296236377954482
1782951236787007000,6.938007080078125,-0.04008651119470596,0.012650076606124638,-0.06583426204398274
1782951236796934100,6.94793408203125,-0.021942367216944692,0.03581117196306586,-0.08918167375326157
1782951236806860800,6.95786083984375,0.01516249781847,0.0611252075701952,-0.11945851939953862
1782951236816787000,6.967786865234375,0.12270049699544906,0.0896950301028788,-0.1400329592641443
1782951236826714000,6.977714111328125,0.24660627812743185,0.07159647883251309,-0.09194865424856544
1782951236836641000,6.98764111328125,0.28451661432683467,0.03700169692188501,-0.0390106986567378
1782951236846568200,6.997568115234375,0.19638766449689865,0.03507861990481615,-0.09508768292665482
1782951236856493800,7.007493896484375,0.05887187568545341,0.04656315986290574,-0.12146211430691183
1782951236866421000,7.0174208984375,-0.05416355186402797,0.05170563731789589,-0.12940335563495756
1782951236876348000,7.027347900390625,-0.14445172555446623,0.07111760927438736,-0.14325696281194686
1782951236886275000,7.037275146484375,-0.1884340751439333,0.07774506459012627,-0.13320070209130644
1782951236896202000,7.047201904296875,-0.13840835373699664,0.08793532695397734,-0.11656586669795214
1782951236906128000,7.0571279296875,-0.019296821144223212,0.08833616283982991,-0.10661861930973827
1782951236916055000,7.067054931640625,0.07643442038297653,0.06137479841709136,-0.0295162365373224
1782951236925982000,7.07698193359375,0.1064905359506607,0.0979357658341527,-0.04750065990872681
1782951236935909000,7.0869091796875,0.12462532757818698,0.12210647662505507,-0.08291362633444369
1782951236945835000,7.0968349609375,0.1318050099492073,0.0878304052747786,-0.061827583685889836
1782951236955762000,7.106761962890625,0.056527358385920524,0.058161827719956635,-0.01891322865411639
1782951236965688800,7.116688720703125,-0.05302782583236694,0.06969079134166241,-0.032599078048765655
1782951236975616000,7.126615966796875,-0.09318798678517341,0.10970701377913356,-0.10189224837496876
1782951236985542100,7.136542236328125,-0.06001578502357006,0.07283011228069662,-0.06815196440182626
1782951236995469000,7.146468994140625,0.010568740287423134,0.026365152095258235,-0.025466741950809953
1782951237005396200,7.156396240234375,0.011937690553069114,0.021797551918774843,-0.048012554953619835
1782951237015323000,7.166322998046875,0.029403204616904256,0.021621172438561913,-0.049677127164974806
1782951237025249000,7.1762490234375,-0.00047755438387393946,0.02114230288043618,0.00039243338368833065
1782951237035176000,7.186176025390625,-0.09558394201099872,0.06746288615912199,0.018776085205748676
1782951237045103000,7.19610302734375,-0.16349720228612422,0.11815306282415985,-0.02878923743702471
1782951237055030000,7.206030029296875,-0.0984603742301464,0.12744476891309023,-0.041944706282019614
1782951237064957000,7.21595703125,0.042866497302055356,0.08411927579715847,-0.059350452982634305
1782951237074883000,7.225883056640625,0.167697576585412,0.041963557112962006,-0.05121500425674021
1782951237084810000,7.23581005859375,0.23593173937797546,0.06281681391894817,-0.06280183554552494
1782951237094737200,7.245737060546875,0.21377543714940547,0.06922521965652703,-0.0463779394891113
1782951237104664000,7.2556640625,0.1345242057800293,0.11502397101819514,-0.0072882573120295994
1782951237114590000,7.26558984375,0.061220484638214105,0.1409727973975241,0.009387494613602757
1782951237124516900,7.275516845703125,-0.007073883908987045,0.12360825949013232,-0.021315540555492042
1782951237134444000,7.285444091796875,-0.04704349072575569,0.10351853440254927,-0.0539139610171318
1782951237144371000,7.295370849609375,-0.02027414174377918,0.07542027490437031,-0.06506152410581707
1782951237154297000,7.305297119140625,0.0178682496458292,0.050827685439586635,-0.07909501789435744
1782951237164224000,7.31522412109375,0.08385083411931991,0.039094139156490564,-0.08593370480798185
1782951237174151000,7.32515087890625,0.09346680372655392,0.04452770851254463,-0.05719195977449417
1782951237184078000,7.335078125,0.02046761848926544,0.05725976431369781,-0.023779154190048574
1782951237194005000,7.3450048828125,-0.06800269212424755,0.10371361858323216,-0.02925795092731714
1782951237203931100,7.35493115234375,-0.11876257302463054,0.10481076617017387,-0.043870486712828276
1782951237213858000,7.364858154296875,-0.09736322664320468,0.09452888000011443,-0.0356602191850543
1782951237223785000,7.374784912109375,-0.05736848538517952,0.059778907527774566,-0.03602393793091178
1782951237233711900,7.3847119140625,-0.013251695761084556,0.053447512549161906,-0.029244214662909506
1782951237243638000,7.394637939453125,0.04172960222661495,0.07581891883313656,-0.05726210240125656
1782951237253565200,7.404565185546875,0.08446925827860832,0.08083323986381293,-0.06394866749309003
1782951237263492000,7.4144921875,0.07005787108838558,0.07511179347708821,-0.05103080679625272
1782951237273419000,7.4244189453125,0.015745266142487526,0.06742913001999258,-0.052299949949234724
1782951237283345000,7.434344970703125,0.043722237348556514,0.08318608660027384,-0.08919891714900731
1782951237293272000,7.44427197265625,0.08697568814158439,0.06966331881284714,-0.1171596678726375
1782951237303199000,7.454198974609375,0.12149696642458438,0.048396658900380134,-0.1708306139141321
1782951237313126100,7.464126220703125,0.09782324537038803,0.0017176175728440283,-0.17223975005969405
1782951237323052000,7.474052001953125,0.00911444982588291,0.012190496270358562,-0.18365531643480063
1782951237332979000,7.48397900390625,-0.059146600973606106,0.036986791613698,-0.20102723393104968
1782951237342906000,7.493906005859375,-0.04153028026223182,0.08055062353014945,-0.16716157001256943
1782951237352833000,7.5038330078125,0.02112988179028034,0.07599237570390105,-0.11633308085538446
1782951237362759200,7.51375927734375,0.07127075400948524,0.055943274887651204,-0.07682254291772841
1782951237372685800,7.523685791015625,0.06611877807378769,0.02619169522449374,-0.06990194987431168
1782951237382613000,7.533613037109375,0.04020458461642265,0.02823781409934163,-0.015586495384201407
1782951237392540000,7.543539794921875,-0.02694353650510311,0.03281768923550844,-0.019798852382227776
1782951237402467000,7.553467041015625,-0.13222878831923007,0.0610955430842936,0.0015131810419261454
1782951237412393200,7.563393310546875,-0.1929173580378294,0.10746814881116151,-0.02930113248191774
1782951237422320000,7.573320068359375,-0.1310948158532381,0.10415624778419733,-0.023857187862321733
1782951237432247000,7.5832470703125,0.006817278799414635,0.0780484314508736,0.04156111379191279
1782951237442174000,7.593174072265625,0.13072773610651492,0.050496407658606766,0.09639606211148202
1782951237452100000,7.60310009765625,0.19739011953771113,0.06823635474964976,0.08086363500207662
1782951237462027000,7.613027099609375,0.2310357840299606,0.1180548631466925,0.06503609740361571
1782951237471954200,7.6229541015625,0.21680442958176135,0.09460969015136361,0.04757511338442564
1782951237481880800,7.632880859375,0.13724632422029973,0.041015462607890366,0.046576019344478845
1782951237491807000,7.642806884765625,0.020499767193198203,0.048085254863649604,0.024584771484509108
1782951237501734100,7.652734130859375,-0.09750994163751601,0.07310644500404596,0.007391133164614439
1782951237511661000,7.6626611328125,-0.17466858464181423,0.06698796212375163,0.01643997040838003
1782951237521588000,7.672587890625,-0.259396201595664,0.039049277101457114,0.0008219108421355485
1782951237531515100,7.68251513671875,-0.32113807975947856,0.03788023332208395,-0.001855199412629008
1782951237541441000,7.69244091796875,-0.3268079420894384,0.036798721695691344,-0.030284517496079206
1782951237551368000,7.702367919921875,-0.24988719949424265,0.05295490672662854,-0.09953699048571288
1782951237561295000,7.712295166015625,-0.06655132427215575,0.05710165114253759,-0.16044139491207896
1782951237571222000,7.722221923828125,0.18110884682238101,0.04712430087700486,-0.13480119609050453
1782951237581148000,7.73214794921875,0.35212183156609533,0.03536708145737648,-0.0823818575453013
1782951237591074800,7.74207470703125,0.3718687345653772,0.06660889967828988,-0.07684621605426073
1782951237601002000,7.752001953125,0.2875222258836031,0.0928396117389202,-0.06471176082007586
1782951237610929000,7.761928955078125,0.1618640481263399,0.10548720412701368,-0.05736673181951046
1782951237620855000,7.77185498046875,-0.012834347131848334,0.10997472480461001,-0.10497793943062424
1782951237630782200,7.7817822265625,-0.12354922277927398,0.10301219231560825,-0.14347754676006733
1782951237640708900,7.791708984375,-0.14501286656856535,0.10784458090811967,-0.16838322076201437
1782951237650636000,7.801635986328125,-0.133996967035532,0.10258373777046799,-0.12714571290127932
1782951237660562000,7.81156201171875,-0.09520750991404056,0.09527239184379577,-0.08024543003849685
1782951237670489000,7.821489013671875,-0.02932195607423782,0.1273129592269659,-0.033541473465412856
1782951237680416000,7.831416015625,0.021457798570394513,0.13295023446157575,-0.035122897437959905
1782951237690343000,7.841343017578125,0.08970657441020011,0.11811097724810242,-0.0652837885543704
1782951237700269800,7.851269775390625,0.11513327661156654,0.09786649999022483,-0.10972907948046923
1782951237710196000,7.861196044921875,0.14819909538924694,0.07735884175151586,-0.13017244031131267
1782951237720123100,7.871123046875,0.1327414140164852,0.07299582423642277,-0.15014635699950157
1782951237730050000,7.881050048828125,0.07081774954497813,0.09977160295918583,-0.12568360445946455
1782951237739976400,7.8909765625,-0.00978197382390499,0.08213613915592431,-0.15092194448187946
1782951237749902600,7.900902587890625,-0.03698094639480114,0.052112902944535015,-0.15843348915576935
1782951237759829500,7.91082958984375,-0.04490764774084091,0.05454743661507964,-0.12327004051171242
1782951237769756700,7.920756591796875,0.004523614904284477,0.06455357458367944,-0.1189776770800352
1782951237779683600,7.93068359375,0.06066869597434997,0.04396013775765895,-0.08802154393270611
1782951237789609500,7.940609375,0.08920330106317996,0.055258945885300635,-0.036788127236440774
1782951237799536400,7.950536376953125,0.0573299069404602,0.09912482948824762,-0.03165631730593741
1782951237809463600,7.960463623046875,-0.014448796591162681,0.12785671071484683,0.009116203391551971
1782951237819390500,7.970390380859375,-0.12181085467934608,0.14206117715612054,0.015457023785635828
1782951237829316600,7.980316650390625,-0.16861118429899213,0.14902604773268102,0.0016598229710012673
1782951237839242500,7.990242431640625,-0.1097317098289728,0.11039017373770475,0.024826471285894512
1782951237849168600,8.000168701171875,-0.03075169661641121,0.10317702748849987,0.08570369544439017
1782951237859095600,8.010095458984376,0.06856441766023635,0.11866349656432866,0.09433781440742313
1782951237869022700,8.020022705078125,0.06349719739854336,0.11840966793373227,0.09062025518901645
1782951237878949400,8.029949462890626,0.07286006902754306,0.11864581477716564,0.051153264132142065
1782951237888875500,8.03987548828125,0.07824526919722556,0.07395137139558791,0.018249357917904854
1782951237898802400,8.049802490234375,0.05707797800600528,0.06987623091116547,0.019451281053572893
1782951237908729600,8.0597294921875,0.003952537018060684,0.0720110509827733,-0.06122998311892151
1782951237918656500,8.069656494140625,-0.02204407402575016,0.03840031167343259,-0.17409158847145736
1782951237928582400,8.07958251953125,-0.02589139710366726,-0.011866086621582507,-0.19483429757505655
1782951237938509600,8.089509521484375,0.030606150665879246,0.004446750275790691,-0.11083031872063874
1782951237948436500,8.0994365234375,0.06979834336936473,0.002103109759092331,-0.09527158812619745
1782951237958363600,8.10936376953125,0.06031622927486896,-0.010338877054303884,-0.14176957379840313
1782951237968289500,8.11928955078125,0.05850245785117149,0.003098988928645849,-0.1619532607797533
1782951237978216400,8.129216552734375,0.08929273291230201,0.022566782725602388,-0.15713424312546848
1782951237988143400,8.139143310546874,0.0641442631304264,0.03584273614510894,-0.14424246671795843
1782951237998070500,8.149070556640625,0.050475803261995314,0.028545564874261617,-0.12111439684778451
1782951238007997400,8.15899755859375,0.03428805404901504,0.02743891880661249,-0.045285468077287075
1782951238017923600,8.168923583984375,0.019790742141008375,0.06302811858206987,0.021117972156777978
1782951238027850800,8.178850830078124,0.00154021517932415,0.08248933650776744,0.06705941992476581
1782951238037777400,8.18877734375,0.00405599739253521,0.09654738021567463,0.0651561435867101
1782951238047704600,8.19870458984375,0.009558101940155028,0.09298544995039701,0.0609807575982064
1782951238057630500,8.20863037109375,-0.043160511812567706,0.0848066735394299,0.0008194266241043805
1782951238067557600,8.2185576171875,-0.10649170499444008,0.0675777447104454,-0.07239427814669906
1782951238077484500,8.228484619140625,-0.11871756483912467,0.09315145416706799,-0.0842416600678116
1782951238087411500,8.238411376953126,-0.030582769790291786,0.04777633504495024,-0.08505312258116901
1782951238097337600,8.248337646484375,0.09814414788782597,0.027210663008689878,-0.10059877449832856
1782951238107264500,8.258264404296876,0.19792904872000217,0.008810060051828623,-0.07845489335991442
1782951238117191700,8.268191650390625,0.1904243721783161,0.048675037450343364,-0.006001578502357005
1782951238127118600,8.27811865234375,0.08757891473174095,0.06731470986008643,0.010777779928222299
1782951238137044500,8.28804443359375,-0.030152561679482458,0.06722907740324735,-0.07103884494975209
1782951238146971400,8.297971435546875,-0.1624129141807556,0.042792116891592735,-0.16934512459672987
1782951238156898600,8.307898681640625,-0.24271979208290576,0.01038739237114787,-0.1829524288624525
1782951238166825500,8.317825439453125,-0.21016016926169395,-0.005958031621575355,-0.16435433057211338
1782951238176752600,8.327752685546875,-0.09613573067486286,-0.014536036483198404,-0.10524038975909351
1782951238186678500,8.337678466796875,0.06348842957019805,0.008253741343319415,-0.058903512932732695
1782951238196605400,8.34760546875,0.1922586018681526,0.028227584966272114,-0.011265709575638175
1782951238206533400,8.357533447265626,0.2766536258667707,0.04517009806931019,0.020785160005837678
1782951238216460500,8.36746044921875,0.2723532983243465,0.06789616300985217,0.025123846797272562
1782951238226387500,8.377387451171876,0.16101766043007373,0.07037132095173002,0.0030773616187274454
1782951238236314600,8.387314697265625,-0.0029009821385145187,0.09222674053758383,-0.023256445490196346
1782951238246241500,8.397241455078126,-0.07189268530011177,0.1315666711486876,-0.011935279400274158
1782951238256167400,8.40716748046875,-0.0894154825091362,0.08121785526722669,0.031222309802845117
1782951238266094300,8.41709423828125,-0.14299217439591883,0.09535685525685549,0.011305457064136862
1782951238276021500,8.427021484375,-0.16824059742093087,0.09978723891973496,0.004640007825568318
1782951238285948400,8.436948486328125,-0.11875205163061618,0.07073767004609108,-0.0259402777466923
1782951238295874600,8.44687451171875,-0.061759413820505135,0.05782163598015904,-0.023665683878213165
1782951238305801700,8.4568017578125,-0.0403939697086811,0.046893999252468344,-0.04061754933148622
1782951238315728400,8.466728271484374,0.010280570995807647,0.08961831160485743,-0.08353285421133042
1782951238325655600,8.476655517578125,0.05144494055509567,0.11416443157941103,-0.095885555306077
1782951238335581400,8.48658154296875,0.14703472778499124,0.0873828076377511,-0.07147738249748944
1782951238345508600,8.496508544921875,0.17791794182658194,0.07584916784092784,-0.04576419150494039
1782951238355435500,8.506435546875,0.16424597482681275,0.05944587618112564,-0.06781980983801186
1782951238365362400,8.516362548828125,0.09600888942480086,0.0635508272819221,-0.10532419558502733
1782951238375288600,8.52628857421875,0.057523968207836146,0.06477554677128791,-0.13079554064571858
1782951238385215500,8.536215576171875,0.013840309303998946,0.049181671798229215,-0.1251993280738592
1782951238395142700,8.546142578125,-0.033089784175157545,0.04399053289592266,-0.09097352560609578
1782951238405069600,8.556069580078125,-0.07076689614057541,0.08575959035009145,-0.07066241285279393
1782951238414995500,8.565995361328126,-0.08990648089647292,0.0804321117170155,-0.08488894499540328
1782951238424922400,8.57592236328125,-0.08584113115370273,0.10371332632228732,-0.10243519614525139
1782951238434849500,8.585849609375,-0.03155950586795807,0.11498773066103457,-0.10461400148905813
1782951238444776400,8.5957763671875,0.058524085161089895,0.09447831885665654,-0.07201601941883563
1782951238454703600,8.60570361328125,0.11439327189922333,0.09291150793135165,-0.011310279369726776
1782951238464629500,8.61562939453125,0.13116554300189018,0.07329042326882482,-0.011145736457780003
1782951238474556400,8.625556396484376,0.09282090703845024,0.04662541144415736,-0.03617131051234901
1782951238484483600,8.635483642578125,0.017887538868188856,0.03715761813595891,-0.08762165789492428
1782951238494410500,8.645410400390626,-0.06432663396000862,0.040353345437347886,-0.12957060196064413
1782951238504336600,8.655336669921875,-0.0704752197176218,0.04721957794502377,-0.17315050822906194
1782951238514263600,8.665263671875,0.005234393522143364,0.056512599208205935,-0.19745492840223014
1782951238524190500,8.6751904296875,0.08984042992293834,0.05220218866318464,-0.19672281473539768
1782951238534117400,8.685117431640625,0.15914251420795916,0.05782587376385927,-0.20863741667382418
1782951238544043500,8.69504345703125,0.1879103435307741,0.09026216246634722,-0.20086210649721323
1782951238553970700,8.704970703125,0.16635960597991942,0.0939494726769626,-0.17290975827574728
1782951238563897600,8.714897705078124,0.12849895414114,0.1342716923236847,-0.10390797211155295
1782951238573824500,8.724824462890625,0.07475216638445854,0.15265417510196566,-0.0332866219215095
1782951238583750400,8.73475048828125,-0.023280337822437287,0.1467703777603805,0.018463512125238776
1782951238593677600,8.744677490234375,-0.11721300549507141,0.13435659412816167,0.028838629536703228
1782951238603604500,8.7546044921875,-0.18292495633363723,0.10817512803673744,0.01458535551764071
1782951238613531600,8.76453173828125,-0.12323533452451228,0.09697481184750795,0.028401845554634927
1782951238623457500,8.77445751953125,-0.014163549908995628,0.09887684607654809,0.06813026402667165
1782951238633384400,8.784384521484375,0.06986848599612712,0.09671586865037679,0.10242328651174902
1782951238643311600,8.7943115234375,0.10990589735209941,0.1316186935968697,0.12992847548760472
1782951238653238500,8.804238525390625,0.08888532115519046,0.07796162995025516,0.10217486470863223
1782951238663165700,8.814165771484374,-0.010664017355442047,0.06586407266035675,0.07381181679442525
1782951238673091300,8.82409130859375,-0.14667816943228243,0.052410424586385486,-0.03589322422333061
1782951238683018500,8.8340185546875,-0.18072832307219505,0.04718392210975289,-0.1087474480319768
1782951238692945400,8.8439453125,-0.10295417851805687,0.017247487398982048,-0.15366985495053231
1782951238702872600,8.85387255859375,0.02793079397678375,0.00004939209967851639,-0.16920659290887413
1782951238712798700,8.863798828125,0.12320260129868983,0.014336276127398013,-0.13444010769315062
1782951238722725600,8.8737255859375,0.18070669576227663,0.04742679095491767,-0.08830116459168494
1782951238732652500,8.883652587890625,0.1574889017820358,0.049089755731076,-0.08437295829728245
1782951238742579500,8.893579345703126,0.056796822977066036,0.08239712817966938,-0.05886186574809253
1782951238752505600,8.903505615234375,-0.0002028290957212448,0.09688961778208613,-0.09043883420750498
1782951238762432300,8.913432373046875,-0.05524257927238941,0.051501639178395266,-0.1415648450065404
1782951238772359400,8.923359375,-0.04163198707103729,0.030739129395782945,-0.211150349342823
1782951238782286300,8.933286376953125,0.003660276073217392,0.025825492260605095,-0.21634046533182263
1782951238792212500,8.94321240234375,0.04662848018407821,0.018471768496930597,-0.20488566292487084
1782951238802139600,8.9531396484375,0.05626724614500999,0.030518033991008994,-0.10870185532458126
1782951238812066300,8.96306640625,0.056519759601354594,0.04800298340767622,-0.076095982208848
1782951238821993500,8.972993408203125,0.061931263256072996,0.04933116327151656,-0.04330664228498936
1782951238831919400,8.98291943359375,0.04255611617863178,0.07550956062301993,-0.00533617339618504
1782951238841846500,8.992846435546875,-0.006775777745246887,0.0833674345165491,0.013170081892237066
1782951238851773400,9.0027734375,-0.06718494600057602,0.08109627471417188,0.035927711014822124
1782951238861700600,9.01270068359375,-0.10877017132043838,0.09427461297810077,0.01910056791976094
1782951238871627300,9.022627197265624,-0.12544248917996884,0.04782601940557361,0.009422638992220162
1782951238881553400,9.032553466796875,-0.10032383001446724,0.030815555632859468,0.02789338457584381
1782951238891480300,9.042480224609376,-0.07887772188186645,0.04458747587576508,0.0049962008520960804
1782951238901407500,9.052407470703125,-0.0281377147257328,0.06392565194368362,-0.005229790412262082
1782951238911334400,9.06233447265625,0.05739011269509792,0.055621495587378736,-0.017776333578675984
1782951238921260300,9.07226025390625,0.13693243596553803,0.05303820109590888,0.005277282815799117
1782951238931187500,9.0821875,0.2148720002144575,0.06650938482657075,0.05342734654396772
1782951238941114400,9.0921142578125,0.19445698869526384,0.08570625272765756,0.04992379540242255
1782951238951041500,9.10204150390625,0.09807868143618106,0.08438815586641431,0.03387947324812412
1782951238960967400,9.111967529296875,-0.010343114838004111,0.11015125041529536,0.02407353402674198
1782951238970894300,9.121894287109376,-0.09665186350345611,0.10127703908607363,-0.015234028684720397
1782951238980821200,9.1318212890625,-0.16601766067445278,0.05232581504285335,-0.06338562678284942
1782951238990748400,9.14174853515625,-0.24275895504951475,0.030397330220788714,-0.07430011176802218
1782951239000674600,9.151674560546875,-0.2521417004227638,0.052364101226627824,-0.08496120651401579
1782951239010601500,9.1616015625,-0.14624679227769374,0.09563187280595302,-0.09981485757902264
1782951239020528400,9.1715283203125,0.01220189444720745,0.08042758167237044,-0.10058576888628304
1782951239030455300,9.181455322265625,0.1855798547565937,0.06892009923011064,-0.11533128340169786
1782951239040381400,9.19138134765625,0.28855273797512054,0.07102379351109266,-0.10828706397861242
1782951239050308400,9.201308349609375,0.28796295538842676,0.0698655633866787,-0.1004532285477966
1782951239060235500,9.211235595703124,0.25412322962880135,0.08176146062463521,-0.06929894247986376
1782951239070162400,9.221162353515625,0.19323183081448078,0.09256664001643657,-0.05064414556622505
1782951239080088300,9.23108837890625,0.08155249404907226,0.07544160995334387,-0.05437777913659811
1782951239090015500,9.241015380859375,-0.031410452786087985,0.0810451290488243,-0.07179872340634465
1782951239099942400,9.2509423828125,-0.13569383408129215,0.09075009211376309,-0.07828947366513311
1782951239109869600,9.26086962890625,-0.22336919492483137,0.08565700675845146,-0.08603687292151152
1782951239119795200,9.270795166015626,-0.2537058809995651,0.061199734111130236,-0.03973579806089401
1782951239129722400,9.280722412109375,-0.18851999986171722,0.1016338896997273,-0.01852452159747481
1782951239139649300,9.290649169921876,-0.05796060605943203,0.0885426451973617,-0.057511839378625154
1782951239149576400,9.300576416015625,0.0840472334742546,0.059658349888026714,-0.05696216960661113
1782951239159503400,9.31050341796875,0.17608254309296606,0.038654140304028986,-0.047441111741214986
1782951239169429500,9.320429443359375,0.23333120149075984,0.04523863326087594,-0.04207585838101804
1782951239179356400,9.3303564453125,0.17891045999526978,0.06109905021563172,-0.041716888875514266
1782951239189283300,9.340283447265625,0.06939619230926036,0.09487535535022616,-0.030265885860845446
1782951239199210500,9.35021044921875,-0.008902852901816367,0.09874211378097533,-0.07549670114144683
1782951239209136400,9.360136474609375,-0.03798164786994457,0.05949716797694563,-0.12035576050020753
1782951239219063600,9.3700634765625,-0.03742635207474231,0.044375732821226116,-0.17344415741339325
1782951239228990200,9.379990234375,0.008664952492713927,0.05503492787107825,-0.101160719230026
1782951239238917400,9.38991748046875,0.01988426564335823,0.08356734100282191,-0.08225786583945155
1782951239248843500,9.399843505859375,-0.02218260571360588,0.10198869448676705,-0.05568053229823708
1782951239258770400,9.4097705078125,-0.02588262927532196,0.12857917977049946,-0.048763300255686044
1782951239268697600,9.419697509765625,0.0018231237739324568,0.12076485275775194,-0.0720306324660778
1782951239278624500,9.42962451171875,0.008657353708148002,0.08363251519352197,-0.08087094152569771
1782951239288550400,9.43955029296875,-0.003471475502848625,0.08578881644457578,-0.10129179826378822
1782951239298477300,9.449477294921875,-0.012248656198382377,0.11779197442680596,-0.09309322117380797
1782951239308404500,9.459404541015624,0.039075872847437854,0.10943111944720148,-0.08305603047981858
1782951239318331400,9.469331298828125,0.10081132127046584,0.09537862869724631,-0.04131159601025283
1782951239328257300,9.47925732421875,0.1746083788871765,0.08581833480000495,-0.03887742766588926
1782951239338184400,9.489184326171875,0.2020838303118944,0.03811930277496576,-0.06516323091462255
1782951239348111400,9.499111328125,0.14077800547778604,-0.008991407968103885,-0.020936039718613027
1782951239358038500,9.50903857421875,0.041350832042098044,0.017044950564205647,-0.03594970365092158
1782951239367964400,9.51896435546875,-0.029126725763082503,0.05970803424865007,-0.06094590548053384
1782951239377891600,9.5288916015625,-0.0735077192813158,0.0653695671416819,0.004948489252850413
1782951239387818200,9.538818359375,-0.10856383509337901,0.05378127454817295,0.021406579839810726
1782951239397745400,9.548745361328125,-0.15355857659578323,0.05612403828203678,-0.025318638717010615
1782951239407671600,9.558671630859376,-0.19029402379691598,0.04418883194699883,-0.047211540769040584
1782951239417598500,9.568598388671875,-0.14269582179784773,0.025784721858799455,-0.04654379757530987
1782951239427525600,9.578525634765626,-0.0715560006916523,0.023471184219419954,0.012607917964830994
1782951239437452300,9.588452392578125,-0.037004327270388604,0.03030629093647003,0.041309111792221666
1782951239447379500,9.59837939453125,-0.005444821402430534,0.07062865671366453,0.001545183615386486
1782951239457305300,9.608305419921875,0.03181318836808204,0.07114259758517145,-0.007115019636973738
1782951239467232500,9.618232421875,0.07068272498846054,0.04861819269657135,-0.019214549688249826
1782951239477159400,9.628159423828125,0.09846738849282265,0.05443053223714232,-0.08431056058555841
1782951239487086600,9.638086669921876,0.08522504508197307,0.05907134378030896,-0.1378941936697811
1782951239497012500,9.648012451171875,0.08578618609607219,0.06620207244306803,-0.15367891503982245
1782951239506939400,9.657939453125,0.11469196258485316,0.07114771215170622,-0.17861812598519025
1782951239516866600,9.667866455078125,0.10379939717054366,0.05902808916047215,-0.20883096648454666
1782951239526793500,9.67779345703125,0.13492109614312647,0.04851297875642776,-0.21357414242364464
1782951239536719400,9.68771923828125,0.15610241585969925,0.07458952316865325,-0.1268289751023054
1782951239546646300,9.697646240234375,0.11051321559548377,0.05620718652084469,-0.04651011450141668
1782951239556573400,9.707573486328124,0.0036982699960470197,0.06594619798585773,0.0010581307508051394
1782951239566500400,9.717500244140625,-0.08291384553015231,0.09268237535059451,-0.0052237259976565835
1782951239576426500,9.727426513671874,-0.1286029990375042,0.0860110808931291,-0.024518647445738315
1782951239586353700,9.737353759765625,-0.1269996554940939,0.07480214300602674,-0.011427183747664093
1782951239596280300,9.7472802734375,-0.10421674579977988,0.07370031924396753,-0.03725318746492266
1782951239606207500,9.75720751953125,-0.06716098060309887,0.053012628263235086,-0.08078691650405526
1782951239616133400,9.76713330078125,-0.017667174115777014,0.038716830276697874,-0.062006374318897724
1782951239626060500,9.777060546875,0.017950082710385323,0.05747355319485068,-0.024571912002936003
1782951239635987500,9.786987548828124,0.058659694239497184,0.08710720556676388,-0.003835267313942313
1782951239645914400,9.796914306640625,0.13124971415400505,0.0778039551705122,0.02357924770377576
1782951239655840500,9.806840576171876,0.1634767440199852,0.07010434057861566,0.017935396597906945
1782951239665767400,9.816767333984375,0.16382628811001776,0.08831628909558058,0.020646409122273324
1782951239675694600,9.826694580078126,0.1091220534980297,0.09199600052163004,0.02664703777655959
1782951239685621500,9.83662158203125,0.0019195698857307434,0.11049334185123443,0.08046082635484636
1782951239695547400,9.84654736328125,-0.1330985568910837,0.11257000199481844,0.03651026014313102
1782951239705474300,9.856474365234375,-0.20650983006060122,0.10235007514506578,0.03503594980686903
1782951239715401500,9.8664013671875,-0.23348726883530616,0.04868628949671983,0.02878404980525374
1782951239725328400,9.876328369140625,-0.15623276424109936,0.025354806008934975,-0.053028556484729046
1782951239735255600,9.886255615234376,-0.009582651859521864,0.008847323322296142,-0.09873086173459887
1782951239745182200,9.89618212890625,0.1595107629984617,0.000981119991838932,-0.07712050295099615
1782951239755109400,9.906109375,0.2425041035056114,0.02813844537809491,-0.07026669153347612
1782951239765036300,9.916036376953125,0.2825876920908689,0.046877924900501966,-0.10180449702627957
1782951239774963500,9.92596337890625,0.23054303207695484,0.06470584253594279,-0.0633740094102919
1782951239784889300,9.935889404296875,0.12386603364348411,0.08966521948650479,-0.042279783455282445
1782951239794816300,9.945816162109375,0.018560908085107804,0.09564604746177792,-0.05426708530373871
1782951239804743200,9.9557431640625,-0.03982990608513355,0.09749985863491892,-0.08400025252737105
1782951239814670300,9.96567041015625,-0.09376490989029407,0.07779986351728439,-0.10965557585284114
1782951239824596200,9.97559619140625,-0.08877718460559844,0.08487506260052323,-0.11352123830504715
1782951239834523100,9.985523193359375,-0.0848141261935234,0.08535305537581443,-0.11837094335854052
1782951239844450300,9.9954501953125,-0.14239420850276946,0.07334376089125871,-0.1396090347636491
1782951239854377200,10.005377197265625,-0.14146306513249873,0.09378376072123647,-0.12771934807077048
1782951239864303400,10.015303466796874,-0.0723176327139139,0.08574322373718023,-0.09925576239153742
1782951239874230300,10.025230224609375,0.03388356490135193,0.07644318821132183,-0.050563846871629355
1782951239884157200,10.0351572265625,0.09713993928134441,0.07632993709519505,-0.036064416071772576
1782951239894084000,10.045083984375,0.12772738524675367,0.07865852617323398,-0.03613733517751098
1782951239904010200,10.05501025390625,0.14166706327199935,0.10018427541330456,-0.06256809985488652
1782951239913937400,10.0649375,0.13396306476593017,0.0952637701459229,-0.024777006120979786
1782951239923864300,10.0748642578125,0.1286930154085159,0.08758782869055867,0.019246260000765323
1782951239933791200,10.084791259765625,0.12290215704739094,0.09558364975005387,-0.0039853433091193435
1782951239943717000,10.094717041015626,0.1355605630904436,0.09962795670479535,-0.03933883463256061
1782951239953644300,10.104644287109375,0.09797054488658904,0.05981003331840038,-0.06819711871780455
1782951239963571200,10.1145712890625,-0.043261634099483484,0.048232992771267885,-0.11544643421396612
1782951239973498400,10.124498291015625,-0.21563772388994693,0.06321326589062809,-0.17907829084284602
1782951239983424300,10.13442431640625,-0.26377719315886494,0.08410758535936474,-0.16905527480468152
1782951239993351200,10.14435107421875,-0.21881810749173164,0.05692059548720717,-0.12733027568794786
1782951240003278300,10.1542783203125,-0.09391863914728164,0.06347746978476643,-0.08285188620984554
1782951240013205200,10.164205322265625,0.08004442757368087,0.07687558827921748,-0.05981456336304545
1782951240023132400,10.17413232421875,0.18902911842763423,0.053177755697071546,-0.011790244906395674
1782951240033058000,10.18405810546875,0.20781623648405073,0.04112783694118261,-0.017011852012202143
1782951240042985200,10.193985107421875,0.14188918159008027,0.03369944050610065,-0.06908303470686078
1782951240052912000,10.203912109375,0.006831891846656799,0.06990984091982246,-0.17744740170538426
1782951240062839300,10.21383935546875,-0.029719430959224698,0.08574585408568382,-0.13477233532220123
1782951240072765400,10.223765380859374,0.05602759217023849,0.09340425988435745,-0.03900141937173903
1782951240082692000,10.233692138671875,0.16166121903061867,0.08552417415902018,-0.02362352523691952
1782951240092619300,10.243619384765625,0.21605624156296252,0.10255085841417312,-0.022732713877037167
1782951240102546200,10.253546142578125,0.1816144582569599,0.0979297744847834,0.051313715390861034
1782951240112472300,10.263472412109374,0.026519758135080337,0.0929671836413443,0.0824668324150145
1782951240122399200,10.273399169921875,-0.21704408355653285,0.11897884612381457,-0.06785152015052735
1782951240132326400,10.283326416015624,-0.34193361502885816,0.159474814902246,-0.10767156242877245
1782951240142253000,10.293253173828125,-0.26184827092289925,0.1757430820055306,0.0655167205274105
1782951240152179200,10.30317919921875,-0.050966801649332046,0.13237857205346226,0.1368992643482983
1782951240162106400,10.3131064453125,0.12508008560836315,0.11342881078124045,0.0429390510816127
1782951240172033300,10.323033203125,0.22988895208239554,0.05254705657809972,-0.08519998370595276
1782951240181960400,10.33296044921875,0.17510989866852758,0.011516834792494773,-0.11545242556333542
1782951240191886000,10.342885986328126,0.03628653438985348,0.009041238459199666,-0.13997268044427036
1782951240201813200,10.352813232421875,-0.11572247467637062,0.06497048482149839,-0.19160247604697941
1782951240211740200,10.362740234375,-0.16815876435637472,0.10813596507012843,-0.19596717406250536
1782951240221667300,10.372667236328125,-0.10522036988437175,0.08261924649775028,-0.17730149042867124
1782951240231593500,10.382593505859376,0.05234802687466144,0.009672960491478443,-0.177197445532307
1782951240241520000,10.39252001953125,0.11916004790961741,-0.048100890824198723,-0.14339929389208556
1782951240251447300,10.402447265625,0.12563479688167573,-0.06056611238270997,-0.1737422635771334
1782951240261374200,10.412374267578125,0.06623275984227657,-0.041906566228717565,-0.12114647248648107
1782951240271300400,10.42230029296875,0.01255962184369564,0.004719429737329483,-0.07360080439224839
1782951240281227300,10.432227294921875,-0.01821077947318554,0.033924189172685144,-0.08247180085107683
1782951240291154200,10.442154296875,-0.12428572036027907,0.11750365900471806,0.0943214477945119
1782951240301081000,10.4520810546875,-0.20908874063789842,0.2137980873726308,0.09575060381479561
1782951240311008300,10.46200830078125,-0.15090543173849583,0.19984598825722932,0.00966565396785736
1782951240320934400,10.471934326171874,-0.00772328772842884,0.14251418162062762,0.0014130816683173178
1782951240330861300,10.481861328125,0.1399047297745943,0.05823240873813629,-0.02077639217749238
1782951240340788500,10.49178857421875,0.25667992837429043,0.05624050426855683,0.09344481109045445
1782951240350715100,10.501715087890625,0.26586802795827386,0.04343479870930314,0.054416211450845
1782951240360641300,10.511641357421874,0.1828127281308174,0.10995967336595058,0.023933467968925832
1782951240370568200,10.521568115234375,0.10979133106172084,0.09429287928715348,-0.03618044366687536
1782951240380495400,10.531495361328124,0.08894844951927662,0.06643339698091148,-0.008874357459694147
1782951240390422300,10.54142236328125,0.04725508764982223,0.06461524164304137,0.019074264434725045
1782951240400348200,10.55134814453125,-0.049337154620885844,0.09497662376761436,-0.06582564034610987
1782951240410275300,10.561275390625,-0.11652619227468967,0.026357407180219887,-0.16481186508126555
1782951240420202200,10.5712021484375,-0.20685352893173695,-0.019378654208779333,-0.10829188628420233
1782951240430129400,10.58112939453125,-0.230382288557291,0.043929304227977986,-0.0326831030704081
1782951240440055300,10.59105517578125,-0.14997604193389416,0.03271262142583728,-0.11745645886212587
1782951240449982200,10.600982177734375,-0.10351999570727348,-0.048764469299465416,-0.1296056732740253
1782951240459909000,10.6109091796875,-0.09235387404859065,-0.03164630736857652,-0.11001746796779334
1782951240469836300,10.620836181640625,-0.07009820309877396,0.08414046471565961,-0.03812463653720915
1782951240479762400,10.630762451171876,0.04398994837403297,0.10617445573881268,-0.03213306797221303
1782951240489689300,10.640689453125,0.11306348460018634,0.05162015099152922,0.010979513045400381
1782951240499616300,10.6506162109375,0.14234978483915328,0.1105329432092607,0.07209858313575386
1782951240509543200,10.660543212890625,0.2504588619023561,0.13838205025196074,0.07605660004653036
1782951240519469300,10.67046923828125,0.2696913856387138,0.14887918660789728,0.04430566325969994
1782951240529396200,10.680396240234375,0.23650749343931673,0.18116554544568061,0.0359275648843497
1782951240539323400,10.690323486328126,0.21885493237078188,0.18562617811635135,0.07169803951084613
1782951240549250300,10.700250244140625,0.1577460914134979,0.14723916431590914,0.028563977313786744
1782951240559176200,10.71017626953125,0.08577800278961659,0.11908654428198932,-0.06314589974284171
1782951240569103400,10.720103271484374,0.06478723720908165,0.060538201462477445,-0.20749548009708524
1782951240579030300,10.7300302734375,0.05772796634733677,-0.002518850953131914,-0.29308753186054526
1782951240588957200,10.739957275390625,0.08210136010348797,-0.07712342556044459,-0.32118644894585013
1782951240598883000,10.749883056640625,0.013814005818963051,-0.022800883742421865,-0.3984292631022632
1782951240608810200,10.759810302734374,-0.10274024350643157,0.03332607714906335,-0.3822937555331737
1782951240618737200,10.769737060546875,-0.17507365831136704,0.027263708370178937,-0.17458039490170776
1782951240628664300,10.779664306640624,-0.14967618220448492,-0.01911561935842037,-0.11924560730122029
1782951240638591200,10.78959130859375,-0.04052840974330902,-0.028873189393430948,-0.03650536477230489
