time,seconds_elapsed,z,y,x
1782951229927604500,0.0786044921875,-0.017891790717840195,-0.051520541310310364,-0.0597974956035614
1782951229937531400,0.088531494140625,-0.03121168538928032,-0.04216081649065018,-0.03350557014346123
1782951229947458600,0.09845849609375,-0.02669336460530758,-0.03190578520298004,-0.015176629647612572
1782951229957384700,0.108384765625,-0.008570646867156029,-0.009279785677790642,-0.006127871107310057
1782951229967311600,0.1183115234375,-0.002600373001769185,0.010053964331746101,0.006657698657363653
1782951229977238500,0.128238525390625,-0.002368168206885457,0.015138031914830208,0.01536561455577612
1782951229987165400,0.13816552734375,-0.01110759750008583,0.008323268964886665,0.01925089955329895
1782951229997091600,0.148091552734375,-0.01489958819001913,-0.005566328298300505,0.02743651159107685
1782951230007018500,0.1580185546875,-0.01296906266361475,-0.019228877499699593,0.032691460102796555
1782951230016945700,0.167945556640625,-0.012456503696739674,-0.034662675112485886,0.037570126354694366
1782951230026872600,0.17787255859375,-0.007831125520169735,-0.033026427030563354,0.03963834047317505
1782951230036799700,0.1877998046875,-0.0032363547943532467,-0.02052753046154976,0.03388242423534393
1782951230046725600,0.1977255859375,-0.0050691417418420315,-0.003514458192512393,0.030168911442160606
1782951230056652500,0.207652587890625,-0.010263394564390182,0.004803217947483063,0.028374649584293365
1782951230066579500,0.217579345703125,-0.018226778134703636,0.006735340692102909,0.03321893885731697
1782951230076506600,0.227506591796875,-0.016300205141305923,0.005796103272587061,0.039309386163949966
1782951230086433500,0.23743359375,-0.008984502404928207,0.004460794385522604,0.035022761672735214
1782951230096359400,0.247359375,0.0028933873400092125,0.001367463730275631,0.02671860158443451
1782951230106286600,0.25728662109375,0.0022004328202456236,-0.008412462659180164,0.02293558046221733
1782951230116213500,0.267213623046875,0.0010094030294567347,-0.01572440378367901,0.02111222594976425
1782951230126140700,0.277140625,-0.005254351533949375,-0.01838383637368679,0.025045715272426605
1782951230136066600,0.287066650390625,-0.009050628170371056,-0.012356363236904144,0.028384028002619743
1782951230145993500,0.296993408203125,-0.0079326331615448,-0.008378665894269943,0.020811062306165695
1782951230155920400,0.30692041015625,-0.0030182041227817535,-0.013518322259187698,0.01348202209919691
1782951230165847600,0.31684765625,0.0013712177751585841,-0.013896491378545761,0.010576247237622738
1782951230175774500,0.3267744140625,0.006015107501298189,-0.014027506113052368,0.015192492865025997
1782951230185700600,0.33670068359375,0.010587221942842007,-0.011718545109033585,0.021229879930615425
1782951230195627500,0.34662744140625,0.014830049127340317,0.0012450381182134151,0.02547728829085827
1782951230205554400,0.356554443359375,0.009720775298774242,0.009809497743844986,0.020999448373913765
1782951230215481600,0.366481689453125,0.011393777094781399,0.012821023352444172,0.013948047533631325
1782951230225407500,0.376407470703125,0.005097264889627695,0.01885068789124489,0.01145293191075325
1782951230235334700,0.386334716796875,0.005826434586197138,0.007586556952446699,0.007778451777994633
1782951230245261600,0.396261474609375,0.004532138351351023,-0.009441427886486053,0.008529995568096638
1782951230255188500,0.4061884765625,0.01002112403512001,-0.022382445633411407,0.010660607367753983
1782951230265115400,0.416115478515625,0.006438106298446655,-0.016575954854488373,0.009931167587637901
1782951230275041500,0.42604150390625,0.0031246994622051716,-0.004028229508548975,0.009071745909750462
1782951230284968700,0.43596875,-0.0051385569386184216,0.0009947586804628372,-0.000546526862308383
1782951230294895600,0.4458955078125,-0.008688420057296753,-0.005954239517450333,-0.0028972243890166283
1782951230304822500,0.455822509765625,-0.010883397422730923,-0.000018852297216653824,-0.009386282414197922
1782951230314749400,0.46574951171875,-0.009842727333307266,-0.0024092590902000666,-0.014006463810801506
1782951230324675600,0.475675537109375,-0.005006160121411085,-0.005384009797126055,-0.018406804651021957
1782951230334602500,0.4856025390625,0.0004090363217983395,0.006121842190623283,-0.0145400520414114
1782951230344529700,0.49552978515625,-0.0033140627201646566,0.015606689266860485,-0.00025645416462793946
1782951230354456600,0.50545654296875,-0.011880232952535152,0.02191215381026268,0.012715700082480907
1782951230364382500,0.515382568359375,-0.01286054216325283,0.014620417729020119,0.015057150274515152
1782951230374309600,0.5253095703125,-0.008564125746488571,0.009440626949071884,0.009753433056175709
1782951230384236500,0.535236572265625,-0.005212270189076662,-0.0009307884611189365,-0.004345607943832874
1782951230394163700,0.545163818359375,0.003132973797619343,-0.0192515067756176,-0.015457060188055038
1782951230404090600,0.555090576171875,0.00964333675801754,-0.03272337466478348,-0.03014945425093174
1782951230414016500,0.5650166015625,0.016283130273222923,-0.04493476450443268,-0.03704650700092316
1782951230423943400,0.574943359375,0.01662081852555275,-0.029040487483143806,-0.04011952877044678
1782951230433870600,0.58487060546875,0.007274417672306299,-0.008978663012385368,-0.03908083960413933
1782951230443797500,0.594797607421875,-0.0035028622951358557,0.013602279126644135,-0.02737145684659481
1782951230453724700,0.604724609375,-0.011245334520936012,0.025987854227423668,-0.00898693222552538
1782951230463650600,0.614650634765625,-0.01249329186975956,0.02996714971959591,0.006645023822784424
1782951230473577500,0.624577392578125,-0.008048667572438717,0.025558089837431908,0.01688636839389801
1782951230483504600,0.634504638671875,-0.0060888477601110935,0.016038887202739716,0.016613660380244255
1782951230493431600,0.644431640625,0.0008893958292901516,0.009035271592438221,0.015371616929769516
1782951230503357700,0.654357666015625,0.0004747416533064097,0.017798669636249542,0.018118133768439293
1782951230513284400,0.664284423828125,-0.007762438617646694,0.023347191512584686,0.0186163242906332
1782951230523211500,0.67421142578125,-0.011071949265897274,0.015559041872620583,0.015168596059083939
1782951230533138400,0.684138427734375,-0.00968670379370451,0.0006472161039710045,0.0042628757655620575
1782951230543065600,0.694065673828125,-0.0040700966492295265,-0.0035563174169510603,-0.005603603553026915
1782951230552991700,0.70399169921875,-0.00117451639380306,-0.006475210189819336,-0.018419157713651657
1782951230562918700,0.713918701171875,-0.0033271496649831533,-0.008366321213543415,-0.030844401568174362
1782951230572845600,0.723845458984375,-0.0029157702811062336,0.00010536657646298409,-0.03158902749419212
1782951230582772500,0.7337724609375,-0.0030009914189577103,0.007301227655261755,-0.020531317219138145
1782951230592698600,0.74369873046875,-0.0024618511088192463,0.012221812270581722,0.004930051974952221
1782951230602625500,0.75362548828125,-0.007242491934448481,0.019085578620433807,0.032848235219717026
1782951230612552700,0.763552734375,-0.010412643663585186,0.022729916498064995,0.05783257260918617
1782951230622479400,0.773479248046875,-0.014491807669401169,0.022630315274000168,0.05822964757680893
1782951230632406500,0.783406494140625,-0.019070200622081757,0.025330062955617905,0.041368212550878525
1782951230642332700,0.793332763671875,-0.019345039501786232,0.02373829111456871,0.017126256600022316
1782951230652259600,0.803259521484375,-0.010256585665047169,0.0019828034564852715,-0.00987468846142292
1782951230662186500,0.8131865234375,0.0012658464256674051,-0.03206251561641693,-0.029087798669934273
1782951230672113700,0.82311376953125,0.02157515287399292,-0.07206632941961288,-0.043789446353912354
1782951230682039600,0.83303955078125,0.04108786955475807,-0.10951276868581772,-0.03708546981215477
1782951230691966500,0.842966552734375,0.034830641001462936,-0.1065065860748291,-0.01634751260280609
1782951230701893600,0.8528935546875,-0.00016302926815114915,-0.06132525950670242,0.01789381355047226
1782951230711820500,0.862820556640625,-0.055307094007730484,0.007887771353125572,0.05023316293954849
1782951230721747700,0.872747802734375,-0.10086844861507416,0.07664526253938675,0.07815081626176834
1782951230731673600,0.882673583984375,-0.11544857174158096,0.09785322099924088,0.09817703068256378
1782951230741600300,0.892600341796875,-0.11526668071746826,0.07398490607738495,0.09239637106657028
1782951230751527400,0.90252734375,-0.10945967584848404,0.04636779800057411,0.07204624265432358
1782951230761454300,0.912454345703125,-0.10123796761035919,0.014687898568809032,0.031235160306096077
1782951230771381500,0.922381591796875,-0.08258600533008575,-0.027875980362296104,-0.009511827491223812
1782951230781307400,0.932307373046875,-0.074974425137043,-0.061093054711818695,-0.03695889934897423
1782951230791234600,0.942234619140625,-0.0681794211268425,-0.08206989616155624,-0.0495169535279274
1782951230801161200,0.9521611328125,-0.06672906875610352,-0.09538277238607407,-0.04350965842604637
1782951230811088400,0.96208837890625,-0.076339490711689,-0.09457264840602875,-0.036257531493902206
1782951230821014500,0.9720146484375,-0.0917900800704956,-0.08000755310058594,-0.027346596121788025
1782951230830941400,0.98194140625,-0.10468900948762894,-0.05132666602730751,-0.02651703730225563
1782951230840868400,0.991868408203125,-0.11490755528211594,-0.026264455169439316,-0.03206440433859825
1782951230850795500,1.00179541015625,-0.1257345974445343,-0.00911313109099865,-0.021070929244160652
1782951230860722200,1.01172216796875,-0.1347573846578598,0.0010998258367180824,0.0009552772389724851
1782951230870648300,1.0216484375,-0.13726159930229187,-0.0013271479401737452,0.025338701903820038
1782951230880575500,1.031575439453125,-0.14078442752361298,-0.008383193053305149,0.033272527158260345
1782951230890502400,1.04150244140625,-0.13024811446666718,-0.027291450649499893,0.029851345345377922
1782951230900429600,1.0514296875,-0.11263129115104675,-0.02841636911034584,0.019053025171160698
1782951230910355500,1.06135546875,-0.10306839644908905,-0.017430679872632027,0.008117793127894402
1782951230920282400,1.071282470703125,-0.09430446475744247,-0.017742270603775978,-0.0067319925874471664
1782951230930209300,1.081209228515625,-0.09075747430324554,-0.02032747119665146,-0.01490645483136177
1782951230940136400,1.091136474609375,-0.09702016413211823,-0.006808199919760227,-0.025148440152406693
1782951230950063400,1.1010634765625,-0.09496385604143143,0.007392668630927801,-0.030738674104213715
1782951230959989200,1.1109892578125,-0.08656530827283859,0.02189198136329651,-0.026836344972252846
1782951230969916400,1.12091650390625,-0.06952337175607681,0.022724591195583344,-0.009025286883115768
1782951230979843300,1.13084326171875,-0.05379127338528633,0.012013623490929604,0.00459278654307127
1782951230989770500,1.1407705078125,-0.030926024541258812,0.0015344885177910328,0.002927824854850769
1782951230999696400,1.1506962890625,0.002969091758131981,0.004099378827959299,-0.017477847635746002
1782951231009623300,1.160623291015625,0.035873282700777054,0.011178893968462944,-0.044781431555747986
1782951231019550200,1.17055029296875,0.0631704181432724,0.003983833361417055,-0.06356683373451233
1782951231029477400,1.180477294921875,0.08925051242113113,-0.002282677683979273,-0.0647188276052475
1782951231039404300,1.190404296875,0.1077224612236023,0.00754332123324275,-0.046045273542404175
1782951231049330400,1.200330322265625,0.11682981997728348,0.03672637790441513,-0.012746392749249935
1782951231059257600,1.210257568359375,0.1200874000787735,0.06218753010034561,0.024590592831373215
1782951231069184300,1.220184326171875,0.1274213045835495,0.08608482778072357,0.051078785210847855
1782951231079111400,1.230111328125,0.13783159852027893,0.09603200107812881,0.06812594830989838
1782951231089037300,1.240037353515625,0.14326590299606323,0.09520548582077026,0.07532442361116409
1782951231098964500,1.249964599609375,0.142070934176445,0.07437717169523239,0.07186763733625412
1782951231108891400,1.259891357421875,0.1366206258535385,0.04409926012158394,0.04957575350999832
1782951231118818300,1.269818359375,0.12957124412059784,0.017136350274086,0.020062871277332306
1782951231128745200,1.2797451171875,0.11870306730270386,0.011272002011537552,-0.0024503180757164955
1782951231138671400,1.28967138671875,0.10775081813335419,0.026947900652885437,-0.010778022930026054
1782951231148598500,1.2995986328125,0.09221360087394714,0.040768835693597794,-0.002185224322602153
1782951231158525400,1.309525390625,0.08361265063285828,0.057442888617515564,0.01064242422580719
1782951231168452600,1.31945263671875,0.0794047862291336,0.06506478786468506,0.020409410819411278
1782951231178378200,1.329378173828125,0.07599247246980667,0.07313097268342972,0.027232695370912552
1782951231188305400,1.339305419921875,0.0821852907538414,0.06849575787782669,0.037293870002031326
1782951231198232300,1.349232421875,0.08026435226202011,0.06386399269104004,0.05265418440103531
1782951231208159500,1.359159423828125,0.08415170013904572,0.04906393587589264,0.05998251214623451
1782951231218086400,1.36908642578125,0.08716452866792679,0.03377259522676468,0.06443106383085251
1782951231228012300,1.37901220703125,0.09665088355541229,0.028354443609714508,0.0733671709895134
1782951231237939500,1.388939453125,0.10554717481136322,0.02771928161382675,0.07330724596977234
1782951231247866400,1.398866455078125,0.10914887487888336,0.03238224238157272,0.0787765234708786
1782951231257793500,1.40879345703125,0.10940000414848328,0.033535659313201904,0.07745639979839325
1782951231267719400,1.418719482421875,0.10086354613304138,0.03383795917034149,0.06433228403329849
1782951231277646300,1.428646240234375,0.08309440314769745,0.030263731256127357,0.04807102307677269
1782951231287573200,1.4385732421875,0.06608899682760239,0.029204407706856728,0.035006169229745865
1782951231297500400,1.44850048828125,0.0479494109749794,0.03361620381474495,0.020878897979855537
1782951231307427300,1.45842724609375,0.044314052909612656,0.026635754853487015,0.015862254425883293
1782951231317353500,1.468353515625,0.04059574753046036,0.017058495432138443,0.03144094720482826
1782951231327280400,1.4782802734375,0.045162737369537354,0.0017503323033452034,0.057005926966667175
1782951231337207300,1.488207275390625,0.043483879417181015,-0.01749526709318161,0.07642223685979843
1782951231347134500,1.498134521484375,0.03876195475459099,-0.03397518768906593,0.07687930762767792
1782951231357060400,1.508060302734375,0.03178207576274872,-0.0307634137570858,0.07212769240140915
1782951231366987500,1.517987548828125,0.013144553638994694,-0.028706584125757217,0.049580734223127365
1782951231376914400,1.52791455078125,0.004030417650938034,-0.03539058566093445,0.02800300158560276
1782951231386841300,1.53784130859375,-0.0037314780056476593,-0.03368813171982765,0.0136074498295784
1782951231396768300,1.547768310546875,-0.013228576630353928,-0.02813703939318657,0.012038049288094044
1782951231406694400,1.5576943359375,-0.021646790206432343,-0.015132788568735123,0.01924370788037777
1782951231416621600,1.56762158203125,-0.028113745152950287,-0.011067206971347332,0.03286364674568176
1782951231426548500,1.577548583984375,-0.03506900742650032,-0.0050185080617666245,0.04956907778978348
1782951231436475400,1.587475341796875,-0.04312187433242798,-0.014120659790933132,0.06111600995063782
1782951231446402300,1.59740234375,-0.05390916019678116,-0.025758570060133934,0.06335050612688065
1782951231456328400,1.607328369140625,-0.05705701932311058,-0.039854150265455246,0.051914360374212265
1782951231466255400,1.61725537109375,-0.05817822739481926,-0.048220619559288025,0.03631332144141197
1782951231476182500,1.6271826171875,-0.0588538683950901,-0.049300797283649445,0.027920637279748917
1782951231486109400,1.637109375,-0.056405603885650635,-0.045150887221097946,0.02371213026344776
1782951231496035300,1.647035400390625,-0.06023230031132698,-0.04271888732910156,0.030550595372915268
1782951231505962500,1.65696240234375,-0.05704891309142113,-0.03984072804450989,0.040969401597976685
1782951231515889400,1.666889404296875,-0.05304884538054466,-0.039097703993320465,0.049525871872901917
1782951231525816300,1.67681640625,-0.04768436402082443,-0.03837776184082031,0.04380274564027786
1782951231535743500,1.686743408203125,-0.04315192997455597,-0.04244813695549965,0.040683384984731674
1782951231545669400,1.69666943359375,-0.04089817404747009,-0.04154035449028015,0.03294769302010536
1782951231555596300,1.70659619140625,-0.041687268763780594,-0.04615508019924164,0.023999204859137535
1782951231565523500,1.7165234375,-0.03614402934908867,-0.04878228157758713,0.021599890664219856
1782951231575450400,1.726450439453125,-0.035523246973752975,-0.044367026537656784,0.02132105827331543
1782951231585376500,1.73637646484375,-0.03751824051141739,-0.040162310004234314,0.0248833280056715
1782951231595303400,1.746303466796875,-0.042915139347314835,-0.03913965821266174,0.038214582949876785
1782951231605230300,1.756230224609375,-0.04697297513484955,-0.042140889912843704,0.04603838920593262
1782951231615157200,1.7661572265625,-0.04872027412056923,-0.044119350612163544,0.05441775918006897
1782951231625084400,1.77608447265625,-0.0546480193734169,-0.044061921536922455,0.05096735805273056
1782951231635010600,1.786010498046875,-0.06029818207025528,-0.04973898082971573,0.03804996237158775
1782951231644937200,1.795937255859375,-0.06897424161434174,-0.04025638848543167,0.01779783144593239
1782951231654864400,1.805864501953125,-0.07462333887815475,-0.03261072188615799,-0.010382406413555145
1782951231664791300,1.815791259765625,-0.07019216567277908,-0.024994822219014168,-0.027328137308359146
1782951231674717400,1.825717529296875,-0.07193972915410995,-0.021429648622870445,-0.03162674605846405
1782951231684644400,1.835644287109375,-0.0664759948849678,-0.024615854024887085,-0.026549961417913437
1782951231694571500,1.845571533203125,-0.06074833124876022,-0.037248022854328156,-0.01025807298719883
1782951231704498200,1.855498291015625,-0.06249226629734039,-0.042543940246105194,0.007344760932028294
1782951231714425300,1.86542529296875,-0.05745302885770798,-0.042680561542510986,0.01631242223083973
1782951231724351500,1.8753515625,-0.05872845649719238,-0.02853175438940525,0.02139298990368843
1782951231734278400,1.8852783203125,-0.057350002229213715,-0.02034306712448597,0.01615455187857151
1782951231744205600,1.89520556640625,-0.05312609672546387,-0.012399934232234955,0.00398557772859931
1782951231754132500,1.905132568359375,-0.045706529170274734,-0.013865470886230469,-0.011100963689386845
1782951231764058600,1.91505859375,-0.0354938805103302,-0.024888349696993828,-0.022625861689448357
1782951231773985500,1.924985595703125,-0.0251389779150486,-0.032877564430236816,-0.027933010831475258
1782951231783912400,1.934912353515625,-0.020986059680581093,-0.042587049305438995,-0.02456662245094776
1782951231793839400,1.94483935546875,-0.02006274275481701,-0.04049380496144295,-0.019780922681093216
1782951231803765500,1.954765625,-0.020591627806425095,-0.03572739660739899,-0.017434172332286835
1782951231813692700,1.964692626953125,-0.0259120911359787,-0.025007640942931175,-0.01849064603447914
1782951231823619600,1.97461962890625,-0.023920634761452675,-0.00882725790143013,-0.024465367197990417
1782951231833546500,1.98454638671875,-0.021016990765929222,0.003427810501307249,-0.021218175068497658
1782951231843473400,1.994473388671875,-0.018898487091064453,0.010796988382935524,-0.027207158505916595
1782951231853399600,2.004399658203125,-0.016565557569265366,0.006395315285772085,-0.018101278692483902
1782951231863326500,2.014326416015625,-0.007622300181537867,0.0007318118587136269,-0.010312879458069801
1782951231873253600,2.024253662109375,0.007216833531856537,-0.004999310709536076,-0.00288851885125041
1782951231883180500,2.0341806640625,0.021734047681093216,-0.0017253011465072632,-0.009894846007227898
1782951231893106400,2.0441064453125,0.03259655088186264,0.00442846491932869,-0.01737140491604805
1782951231903033600,2.05403369140625,0.03379904478788376,0.014730462804436684,-0.019843339920043945
1782951231912960500,2.06396044921875,0.032931119203567505,0.025861144065856934,-0.008646346628665924
1782951231922887700,2.0738876953125,0.0346539169549942,0.031401295214891434,-0.009017711505293846
1782951231932814600,2.083814697265625,0.04329853877425194,0.018349943682551384,-0.015642324462532997
1782951231942740500,2.093740478515625,0.04703512787818909,0.009314439259469509,-0.023407578468322754
1782951231952667400,2.10366748046875,0.04861358180642128,0.005511711351573467,-0.02826172299683094
1782951231962594600,2.113594482421875,0.035017386078834534,0.014653045684099197,-0.02182917855679989
1782951231972521500,2.123521484375,0.024547699838876724,0.026421554386615753,-0.020914115011692047
1782951231982447600,2.133447509765625,0.015677370131015778,0.03469116985797882,-0.02154000848531723
1782951231992374500,2.14337451171875,0.0159402247518301,0.04305482655763626,-0.017881091684103012
1782951232002301400,2.153301513671875,0.017163340002298355,0.04051383212208748,-0.016470834612846375
1782951232012228600,2.163228515625,0.022022543475031853,0.03113737888634205,-0.021408868953585625
1782951232022155500,2.173155517578125,0.03246535360813141,0.01892668940126896,-0.037790942937135696
1782951232032081700,2.18308154296875,0.03885454311966896,0.014811839908361435,-0.05622560903429985
1782951232042008300,2.19300830078125,0.04567145183682442,0.014291875064373016,-0.06664791703224182
1782951232051935500,2.202935546875,0.04821477085351944,0.026878774166107178,-0.06421991437673569
1782951232061862400,2.2128623046875,0.04719940200448036,0.02684597112238407,-0.04683360829949379
1782951232071788500,2.22278857421875,0.04684307426214218,0.02232019416987896,-0.019165225327014923
1782951232081715500,2.232715576171875,0.04221773147583008,0.025693655014038086,0.008344107307493687
1782951232091642600,2.242642578125,0.034565672278404236,0.02258255146443844,0.009704450145363808
1782951232101569500,2.252569580078125,0.03949476033449173,0.010978464037179947,-0.007383091375231743
1782951232111496400,2.262496337890625,0.043927326798439026,-0.00010374747216701508,-0.037054967135190964
1782951232121422600,2.272422607421875,0.04184498265385628,-0.01820407249033451,-0.05926809832453728
1782951232131349500,2.282349609375,0.0375482402741909,-0.012572286650538445,-0.07191652059555054
1782951232141276700,2.292276611328125,0.018956715241074562,-0.0006266552954912186,-0.07153981924057007
1782951232151203600,2.30220361328125,0.0038768318481743336,0.013729913160204887,-0.05557470768690109
1782951232161129500,2.31212939453125,-0.007237893063575029,0.03531758859753609,-0.026134885847568512
1782951232171056400,2.322056396484375,-0.018683360889554024,0.051736511290073395,0.005082688760012388
1782951232180983600,2.331983642578125,-0.022923987358808517,0.04336905851960182,0.02494039386510849
1782951232190910500,2.341910400390625,-0.019226454198360443,0.02402411960065365,0.03258739411830902
1782951232200837600,2.351837646484375,-0.0055952551774680614,0.016773201525211334,0.022222260013222694
1782951232210763500,2.361763427734375,0.0007534542819485068,0.014168895781040192,0.0021896967664361
1782951232220690400,2.3716904296875,0.00047928368439897895,0.0068699815310537815,-0.016062084585428238
1782951232230617600,2.38161767578125,0.0026018230710178614,-0.002677717013284564,-0.031634118407964706
1782951232240544500,2.39154443359375,0.010662071406841278,-0.012607915326952934,-0.041704751551151276
1782951232250470400,2.401470458984375,0.020740536972880363,-0.012774895876646042,-0.03891588747501373
1782951232260397300,2.411397216796875,0.02649175189435482,-0.01232149824500084,-0.029411649331450462
1782951232270324500,2.421324462890625,0.029895536601543427,-0.009806408546864986,-0.021253854036331177
1782951232280251400,2.43125146484375,0.036187972873449326,0.004085857421159744,-0.017069093883037567
1782951232290178600,2.441178466796875,0.04138033837080002,0.015323331579566002,-0.014661594294011593
1782951232300104700,2.451104736328125,0.04748110845685005,0.01012406311929226,-0.01093783974647522
1782951232310031400,2.46103125,0.052307020872831345,0.016373436897993088,0.001536406110972166
1782951232319958500,2.47095849609375,0.05229289084672928,0.015698973089456558,0.014810428023338318
1782951232329885400,2.480885498046875,0.053666017949581146,0.00020576780661940575,0.016556929796934128
1782951232339811600,2.4908115234375,0.0620211698114872,-0.016610078513622284,0.016054894775152206
1782951232349738500,2.500738525390625,0.06998961418867111,-0.017587725073099136,0.016426939517259598
1782951232359665700,2.510665771484375,0.06309514492750168,-0.01688818261027336,0.011312980204820633
1782951232369592300,2.52059228515625,0.05576399713754654,-0.023662999272346497,0.005836456082761288
1782951232379519500,2.53051953125,0.051243774592876434,-0.021085914224386215,0.002888005692511797
1782951232389445600,2.540445556640625,0.04117010161280632,-0.016820862889289856,-0.0028417850844562054
1782951232399372500,2.55037255859375,0.035176925361156464,-0.005946909077465534,-0.016085686162114143
1782951232409299700,2.5602998046875,0.027236441150307655,-0.008336030878126621,-0.027604123577475548
1782951232419226400,2.570226318359375,0.021243873983621597,-0.0026871077716350555,-0.028104787692427635
1782951232429152500,2.580152587890625,0.017509857192635536,0.007599351461976767,-0.022139040753245354
1782951232439079400,2.590079345703125,0.013773936778306961,0.007101838011294603,-0.01042533852159977
1782951232449006600,2.600006591796875,0.016319919377565384,-0.0019571706652641296,0.0034867485519498587
1782951232458933500,2.60993359375,0.025859853252768517,-0.002604375360533595,0.0038635218515992165
1782951232468860700,2.619860595703125,0.0341995432972908,-0.005145830102264881,-0.003514233510941267
1782951232478786600,2.62978662109375,0.04618581756949425,-0.01616048812866211,-0.012041688896715641
1782951232488713500,2.63971337890625,0.05488583445549011,-0.030562330037355423,-0.01127762719988823
1782951232498640600,2.649640625,0.05948464572429657,-0.033388249576091766,-0.00895732268691063
1782951232508567600,2.659567626953125,0.06796175241470337,-0.03315681964159012,-0.008727757260203362
1782951232518493400,2.669493408203125,0.06966391205787659,-0.032259613275527954,-0.008524217642843723
1782951232528420400,2.67942041015625,0.06210559234023094,-0.037624016404151917,-0.01689559780061245
1782951232538347500,2.689347412109375,0.05266521871089935,-0.030144529417157173,-0.01654432713985443
1782951232548274400,2.6992744140625,0.04155637323856354,-0.01893129013478756,-0.016456441953778267
1782951232558201600,2.70920166015625,0.024931950494647026,-0.014889475889503956,-0.014276375994086266
1782951232568127700,2.719127685546875,0.008412627503275871,-0.0006567444652318954,-0.0038130823522806168
1782951232578054400,2.729054443359375,-0.0028099112678319216,0.002466780599206686,0.006320076994597912
1782951232587981600,2.738981689453125,-0.003499670187011361,0.0030822372063994408,0.01741507276892662
1782951232597908500,2.748908447265625,-0.001586624071933329,-0.019322959706187248,0.036294203251600266
1782951232607834600,2.758834716796875,-0.00988796353340149,0.007625033613294363,0.056205593049526215
1782951232617761500,2.768761474609375,-0.01628851518034935,0.0038283648900687695,0.04634444788098335
1782951232627688400,2.7786884765625,-0.010652200318872929,-0.018332596868276596,0.01208341121673584
1782951232637615400,2.788615478515625,-0.006609311792999506,-0.0352017804980278,-0.02699386514723301
1782951232647541500,2.79854150390625,-0.00361618516035378,-0.04657774046063423,-0.06590744107961655
1782951232657468700,2.80846875,-0.0026919927913695574,-0.05036281794309616,-0.08048676699399948
1782951232667395600,2.8183955078125,-0.015553728677332401,-0.03670692443847656,-0.07451808452606201
1782951232677322800,2.82832275390625,-0.03226899728178978,-0.016010496765375137,-0.05459387227892876
1782951232687249400,2.83824951171875,-0.0482088178396225,-0.004304040223360062,-0.02927626669406891
1782951232697175600,2.848175537109375,-0.05282820761203766,-0.006989848334342241,-0.013833057135343552
1782951232707102500,2.8581025390625,-0.05242926627397537,-0.014004615135490894,-0.00666222907602787
1782951232717029600,2.868029541015625,-0.04747631773352623,-0.029748689383268356,-0.0060505010187625885
1782951232726956500,2.87795654296875,-0.04820575937628746,-0.041789907962083817,0.0007741153240203857
1782951232736882400,2.88788232421875,-0.05699995160102844,-0.03676401078701019,0.006310278549790382
1782951232746809600,2.8978095703125,-0.05800476297736168,-0.024455150589346886,0.016849739477038383
1782951232756736500,2.907736572265625,-0.05703651160001755,-0.008517798036336899,0.01902112364768982
1782951232766663400,2.917663330078125,-0.06114017590880394,0.0015811747871339321,0.031047161668539047
1782951232776590600,2.927590576171875,-0.07244208455085754,0.0038082399405539036,0.034213509410619736
1782951232786516500,2.9375166015625,-0.08451871573925018,0.0025408416986465454,0.02526901662349701
1782951232796443400,2.947443359375,-0.09724058210849762,0.0010589989833533764,0.014210280030965805
1782951232806370600,2.95737060546875,-0.10842133313417435,-0.009202693589031696,0.000353053561411798
1782951232816297500,2.96729736328125,-0.11194472014904022,-0.01936495304107666,-0.010522328317165375
1782951232826223600,2.9772236328125,-0.10275468230247498,-0.022822270169854164,-0.014810282737016678
1782951232836150500,2.987150634765625,-0.08589517325162888,-0.027874045073986053,-0.01685134507715702
1782951232846077400,2.997077392578125,-0.06689192354679108,-0.026561640202999115,-0.018306761980056763
1782951232856004400,3.00700439453125,-0.05485766381025314,-0.021061714738607407,-0.012934311293065548
1782951232865931500,3.016931640625,-0.059199150651693344,-0.018956752493977547,-0.006942198611795902
1782951232875857700,3.026857666015625,-0.06544116139411926,-0.015952128916978836,-0.0081828273832798
1782951232885784600,3.03678466796875,-0.0701855793595314,-0.011835147626698017,-0.014303036965429783
1782951232895711500,3.04671142578125,-0.06432754546403885,-0.001834056805819273,-0.019234230741858482
1782951232905638400,3.056638427734375,-0.05313774198293686,0.006768752355128527,-0.019292820245027542
1782951232915564500,3.066564453125,-0.04333656653761864,0.002584473229944706,-0.012709133327007294
1782951232925491500,3.076491455078125,-0.02946309745311737,-0.0211259163916111,-0.004578236490488052
1782951232935418600,3.086418701171875,-0.018331291154026985,-0.034670282155275345,0.007190315052866936
1782951232945345300,3.09634521484375,-0.01535068079829216,-0.027974562719464302,0.00484087411314249
1782951232955272400,3.1062724609375,-0.024214232340455055,-0.014430408366024494,-0.002398635260760784
1782951232965198600,3.116198486328125,-0.02851071022450924,0.011156709864735603,-0.0028359261341392994
1782951232975125500,3.12612548828125,-0.029080303385853767,0.04539529234170914,0.009461668320000172
1782951232985052700,3.136052734375,-0.029256071895360947,0.06484968215227127,0.029801562428474426
1782951232994979600,3.1459794921875,-0.02998490445315838,0.0647893026471138,0.042639750987291336
1782951233004905500,3.155905517578125,-0.021160254254937172,0.04434714466333389,0.0368279330432415
1782951233014832400,3.165832275390625,-0.007568391039967537,0.01319204829633236,0.006962614133954048
1782951233024759600,3.175759521484375,0.004362570121884346,-0.009007529355585575,-0.027306145057082176
1782951233034686500,3.1856865234375,0.016415616497397423,-0.027680177241563797,-0.05746421217918396
1782951233044612400,3.1956123046875,0.025139600038528442,-0.031705547124147415,-0.08024702221155167
1782951233054539500,3.20553955078125,0.03774900361895561,-0.027916409075260162,-0.09224715828895569
1782951233064466400,3.215466552734375,0.05276523530483246,-0.017654981464147568,-0.08402491360902786
1782951233074393600,3.2253935546875,0.060403529554605484,0.0031824992038309574,-0.05587276816368103
1782951233084320500,3.235320556640625,0.07321440428495407,0.020536188036203384,-0.02091824822127819
1782951233094246700,3.24524658203125,0.08668884634971619,0.025198474526405334,0.009360158815979958
1782951233104173300,3.25517333984375,0.0997346043586731,0.020519834011793137,0.023620586842298508
1782951233114100500,3.2651005859375,0.10878119617700577,0.01406670082360506,0.02757377177476883
1782951233124027400,3.27502734375,0.10720673203468323,0.016054749488830566,0.027771377936005592
1782951233133953500,3.28495361328125,0.1013132780790329,0.03493402898311615,0.020211685448884964
1782951233143880700,3.294880615234375,0.08717375248670578,0.04587668925523758,0.01773068495094776
1782951233153807400,3.304807373046875,0.08202648907899857,0.04468834027647972,0.015966733917593956
1782951233163734500,3.314734619140625,0.07881578803062439,0.03542346879839897,0.009545319713652134
1782951233173661400,3.324661376953125,0.08582207560539246,0.024515749886631966,-0.01149252150207758
1782951233183587600,3.334587646484375,0.08763887733221054,0.018922580406069756,-0.023597387596964836
1782951233193514500,3.344514404296875,0.08731025457382202,0.00936994981020689,-0.03072468750178814
1782951233203441700,3.354441650390625,0.0826989933848381,0.010920974425971508,-0.021718408912420273
1782951233213368300,3.364368408203125,0.07392692565917969,0.02073855884373188,-0.006593422498553991
1782951233223294500,3.37429443359375,0.06942431628704071,0.024150067940354347,0.0011414625914767385
1782951233233221600,3.3842216796875,0.07243270426988602,0.02396588958799839,-0.0004594959318637848
1782951233243148500,3.3941484375,0.0836121216416359,0.019126126542687416,-0.0029138652607798576
1782951233253075700,3.40407568359375,0.0933830663561821,0.0074410224333405495,-0.015375560149550438
1782951233263002400,3.41400244140625,0.10701871663331985,-0.009867394343018532,-0.024685703217983246
1782951233272928500,3.423928466796875,0.12007929384708405,-0.02695152722299099,-0.02725525014102459
1782951233282855400,3.43385546875,0.13063953816890717,-0.032282110303640366,-0.016515785828232765
1782951233292782600,3.443782470703125,0.12410654872655869,-0.02314518578350544,0.004548458848148584
1782951233302709500,3.45370947265625,0.11014039814472198,0.0025455295108258724,0.03813571482896805
1782951233312635400,3.463635498046875,0.08651871234178543,0.03931993991136551,0.06841742247343063
1782951233322562600,3.4735625,0.06486614793539047,0.05786805972456932,0.07736031711101532
1782951233332489500,3.483489501953125,0.050529662519693375,0.042081210762262344,0.06882178783416748
1782951233342416600,3.493416748046875,0.04609763249754906,0.011644210666418076,0.04078003764152527
1782951233352342500,3.503342529296875,0.05478981137275696,-0.021795611828565598,0.0038938254583626986
1782951233362269400,3.51326953125,0.05851557478308678,-0.046426922082901,-0.02642866037786007
1782951233372196400,3.5231962890625,0.05676690489053726,-0.05813980847597122,-0.04676263779401779
1782951233382123500,3.53312353515625,0.0416388176381588,-0.04266737401485443,-0.04517991840839386
1782951233392050400,3.543050537109375,0.020026065409183502,-0.004417731426656246,-0.021567463874816895
1782951233401976600,3.5529765625,-0.009634624235332012,0.04006877541542053,0.00559597834944725
1782951233411903700,3.56290380859375,-0.032512202858924866,0.06422530114650726,0.020604290068149567
1782951233421830400,3.572830322265625,-0.03752773255109787,0.06316030025482178,0.015948552638292313
1782951233431757600,3.582757568359375,-0.0306769460439682,0.0333971343934536,-0.0028008711524307728
1782951233441683500,3.592683349609375,-0.014041511341929436,-0.023494645953178406,-0.03855913504958153
1782951233451610600,3.602610595703125,0.02273322455585003,-0.0754413828253746,-0.07093030959367752
1782951233461537500,3.61253759765625,0.05202186852693558,-0.11014077812433243,-0.08403812348842621
1782951233471464400,3.62246435546875,0.07988346368074417,-0.12146905809640884,-0.08107222616672516
1782951233481391400,3.632391357421875,0.09751492738723755,-0.09870595484972,-0.05364885553717613
1782951233491317500,3.6423173828125,0.09101448953151703,-0.04047879949212074,-0.004473167005926371
1782951233501244700,3.65224462890625,0.0590624138712883,0.03615685924887657,0.0557427704334259
1782951233511171600,3.662171630859375,0.02549557015299797,0.10430984199047089,0.10701315850019455
1782951233521098500,3.672098388671875,-0.010124743916094303,0.13901188969612122,0.13708584010601044
1782951233531024400,3.6820244140625,-0.02937300316989422,0.12850520014762878,0.1326795071363449
1782951233540951600,3.69195166015625,-0.023380890488624573,0.08147085458040237,0.10084513574838638
1782951233550878500,3.70187841796875,0.005943896248936653,0.00904849823564291,0.04995611310005188
1782951233560805600,3.7118056640625,0.04582899436354637,-0.06260837614536285,-0.003127878997474909
1782951233570731500,3.7217314453125,0.07560481131076813,-0.10406864434480667,-0.04226567968726158
1782951233580658400,3.731658447265625,0.08712244778871536,-0.11359850317239761,-0.05916370078921318
1782951233590585300,3.74158544921875,0.07937020063400269,-0.08808667212724686,-0.05642029643058777
1782951233600512500,3.751512451171875,0.056560222059488297,-0.04928893968462944,-0.03536853939294815
1782951233610439400,3.761439453125,0.029563985764980316,-0.004723391495645046,-0.006617124658077955
1782951233620365600,3.771365478515625,0.011274194344878197,0.036223508417606354,0.02324676513671875
1782951233630292500,3.78129248046875,0.0023445021361112595,0.0469876304268837,0.045485928654670715
1782951233640219400,3.791219482421875,0.006990120280534029,0.023583505302667618,0.04267975315451622
1782951233650146600,3.801146484375,0.018169386312365532,-0.016743550077080727,0.042120445519685745
1782951233660072400,3.811072509765625,0.019751304760575294,-0.04944796487689018,0.036124337464571
1782951233669999600,3.82099951171875,0.0133339399471879,-0.061441875994205475,0.02567228674888611
1782951233679926300,3.83092626953125,0.0008114899974316359,-0.06426776200532913,0.013485128991305828
1782951233689853400,3.840853515625,-0.0192142054438591,-0.0477219894528389,0.006680837366729975
1782951233699780400,3.8507802734375,-0.03901214525103569,-0.020943107083439827,0.004039780702441931
1782951233709706500,3.86070654296875,-0.057406485080718994,0.00500898901373148,0.008788688108325005
1782951233719633700,3.870633544921875,-0.0707491859793663,0.014744173735380173,0.012058783322572708
1782951233729560600,3.880560546875,-0.07733854651451111,0.0036896136589348316,0.018660884350538254
1782951233739488000,3.890488037109375,-0.08877283334732056,-0.005284439772367477,0.01834050752222538
1782951233749414000,3.900413818359375,-0.10058867186307907,-0.006725404877215624,0.009741313755512238
1782951233759341000,3.910341064453125,-0.10610993206501007,-0.011748659424483776,0.0007637982489541173
1782951233769267700,3.920267822265625,-0.11151164770126343,-0.01431370060890913,-0.015002354048192501
1782951233779195000,3.93019482421875,-0.1087198555469513,-0.021635795012116432,-0.015769610181450844
1782951233789121000,3.94012109375,-0.10754251480102539,-0.0285070538520813,-0.020744338631629944
1782951233799048000,3.9500478515625,-0.10115358978509903,-0.03861827403306961,-0.0220402330160141
1782951233808975000,3.95997509765625,-0.0862751305103302,-0.039731450378894806,-0.02621925249695778
1782951233818901800,3.96990185546875,-0.0737185925245285,-0.02837306819856167,-0.025890618562698364
1782951233828829000,3.979828857421875,-0.06313087046146393,-0.004081907216459513,-0.02010485716164112
1782951233838754800,3.9897548828125,-0.04955265298485756,0.012430964037775993,-0.007136602886021137
1782951233848682000,3.999681884765625,-0.04438665136694908,0.018871553242206573,0.010526279918849468
1782951233858609000,4.00960888671875,-0.03545256331562996,0.019857319071888924,0.028446054086089134
1782951233868536000,4.0195361328125,-0.022478442639112473,0.01984267123043537,0.04040711000561714
1782951233878462000,4.0294619140625,-0.005790521390736103,0.019183708354830742,0.033089373260736465
1782951233888388900,4.039388916015625,0.01408385019749403,0.014390818774700165,0.02720857970416546
1782951233898316000,4.04931591796875,0.026871226727962494,-0.0002868669107556343,0.01665602996945381
1782951233908243000,4.059242919921875,0.026887204498052597,-0.0046917349100112915,0.010552598163485527
1782951233918168800,4.0691689453125,0.025600289925932884,0.001965296920388937,0.01087362039834261
1782951233928095700,4.079095703125,0.023757116869091988,0.00951855443418026,0.007294066250324249
1782951233938023000,4.08902294921875,0.015020995400846004,0.014295041561126709,0.007888314314186573
1782951233947949800,4.09894970703125,0.010807341895997524,0.0073761483654379845,0.015416804701089859
1782951233957877000,4.108876953125,0.0033645303919911385,0.013079503551125526,0.02857559733092785
1782951233967803000,4.118802978515625,0.003998629283159971,0.0288627278059721,0.0287092886865139
1782951233977729800,4.128729736328125,0.008805312216281891,0.028126442804932594,0.022693555802106857
1782951233987656700,4.13865673828125,0.021302195265889168,0.02732563205063343,0.012981007806956768
1782951233997584000,4.148583984375,0.025156056508421898,0.024512266740202904,0.002961929887533188
1782951234007510000,4.158510009765625,0.02077116072177887,0.021065603941679,-0.005506389774382114
1782951234017437000,4.16843701171875,0.01283347513526678,0.014979206025600433,-0.01310085691511631
1782951234027363800,4.17836376953125,0.005467970855534077,0.014158420264720917,-0.01880694553256035
1782951234037290800,4.188290771484375,-0.0012939274311065674,0.009714413434267044,-0.023234520107507706
1782951234047217000,4.198216796875,-0.004027928225696087,0.004822452086955309,-0.018590766936540604
1782951234057143800,4.208143798828125,-0.004836940672248602,0.00318452762439847,-0.013810476288199425
1782951234067071000,4.218071044921875,-0.006374116986989975,0.0041946652345359325,-0.010015471838414669
1782951234076998000,4.227997802734375,-0.012469826266169548,0.006489777471870184,-0.003000705037266016
1782951234086924800,4.2379248046875,-0.01615510880947113,0.016876904293894768,0.0005727243842557073
1782951234096851000,4.247850830078125,-0.00994206964969635,0.019395064562559128,0.0024811855982989073
1782951234106777900,4.25777783203125,-0.00295952707529068,0.016500208526849747,0.002812216756865382
1782951234116705000,4.267705078125,0.005158777814358473,0.002148629631847143,0.0019033929565921426
1782951234126632000,4.2776318359375,0.013236944563686848,0.0030114934779703617,0.0015910040820017457
1782951234136557800,4.287557861328125,0.019949937239289284,-0.004921832121908665,0.001273345435038209
1782951234146484700,4.297484619140625,0.02534017525613308,-0.005451801232993603,-0.005451668985188007
1782951234156412000,4.307411865234375,0.030300714075565338,-0.008940799161791801,-0.014387975446879864
1782951234166338800,4.3173388671875,0.03067595325410366,-0.014837570488452911,-0.0222267247736454
1782951234176266000,4.327265869140625,0.029855944216251373,-0.020239943638443947,-0.018563518300652504
1782951234186192000,4.33719189453125,0.02790784277021885,-0.020755797624588013,-0.004469803534448147
1782951234196121000,4.34712109375,0.022991914302110672,-0.01713762804865837,0.015057559125125408
1782951234206047700,4.3570478515625,0.01658373884856701,-0.013253229670226574,0.02041981928050518
1782951234215974000,4.366973876953125,0.012493123300373554,-0.004858147352933884,0.017912985756993294
1782951234225900800,4.37690087890625,0.004601910710334778,-0.001041571144014597,0.005287471693009138
1782951234235828000,4.386827880859375,-0.002485560020431876,0.001084962859749794,-0.009105050005018711
1782951234245755000,4.3967548828125,-0.0017507182201370597,-0.0077721066772937775,-0.02101481892168522
1782951234255680800,4.4066806640625,-0.0054599689319729805,-0.02061307057738304,-0.026237545534968376
1782951234265608000,4.41660791015625,-0.008685474283993244,-0.020265137776732445,-0.01901615597307682
1782951234275534800,4.426534912109375,-0.012610441073775291,-0.015020309016108513,-0.009433038532733917
1782951234285462000,4.4364619140625,-0.023774128407239914,-0.01634509488940239,-0.0035484107211232185
1782951234295389000,4.446388916015625,-0.027208806946873665,-0.017296109348535538,0.008579358458518982
1782951234305314800,4.456314697265625,-0.03373374044895172,-0.013868003152310848,0.006671754643321037
1782951234315241700,4.46624169921875,-0.036881595849990845,-0.012673042714595795,-0.0005267696105875075
1782951234325169000,4.4761689453125,-0.04163737967610359,-0.012070413678884506,-0.011436018161475658
1782951234335095800,4.486095703125,-0.037750493735075,-0.013579893857240677,-0.015098663046956062
1782951234345022000,4.49602197265625,-0.03624371439218521,-0.014904851093888283,-0.010437541641294956
1782951234354949000,4.50594921875,-0.03371477872133255,-0.00863257423043251,-0.0072334930300712585
1782951234364875800,4.515875732421875,-0.02170724794268608,-0.0038830842822790146,-0.007809070870280266
1782951234374803000,4.525802978515625,-0.014412051066756248,0.00024188589304685593,-0.0039136651903390884
1782951234384728800,4.535728759765625,-0.009457524865865707,0.004698002245277166,-0.006724070757627487
1782951234394656000,4.545656005859375,-0.015107153914868832,0.001675581093877554,-0.0017333067953586578
1782951234404583000,4.5555830078125,-0.014041642658412457,-0.00038212770596146584,0.009530028328299522
1782951234414509800,4.565509765625,-0.012425370514392853,0.0026293746195733547,0.026705551892518997
1782951234424436700,4.575436767578125,-0.0067553091794252396,-0.00243576243519783,0.03348847106099129
1782951234434363000,4.58536279296875,-0.0010675962548702955,-0.00827367790043354,0.02249174378812313
1782951234444290000,4.5952900390625,0.006222766824066639,-0.008177857846021652,0.0011293933494016528
1782951234454217000,4.605217041015625,0.008307755924761295,-0.008658025413751602,-0.019046982750296593
1782951234464144000,4.615143798828125,0.008002256043255329,-0.00585559755563736,-0.021298235282301903
1782951234474069800,4.62506982421875,0.00036910391645506024,-0.008659107610583305,-0.009422667324543
1782951234483997000,4.634996826171875,-0.011727659963071346,-0.010971158742904663,0.01118417363613844
1782951234493923800,4.644923828125,-0.004295575898140669,-0.012267053127288818,0.02006634697318077
1782951234503851000,4.65485107421875,0.006347289774566889,-0.004416781943291426,0.02753640152513981
1782951234513777000,4.66477685546875,0.01066746935248375,-0.0009224482346326113,0.03091968037188053
1782951234523703800,4.674703857421875,0.0033665457740426064,0.007697396446019411,0.027005435898900032
1782951234533630700,4.684630615234375,-0.010145002044737339,0.018717290833592415,0.010617941617965698
1782951234543558000,4.694557861328125,-0.027390148490667343,0.028325868770480156,0.003010525368154049
1782951234553484800,4.70448486328125,-0.03392155095934868,0.027782583609223366,-0.009272240102291107
1782951234563411000,4.714410888671875,-0.030765250325202942,0.01158967800438404,-0.009876794181764126
1782951234573337900,4.724337890625,-0.021032461896538734,-0.0050851721316576,-0.009817938320338726
1782951234583264800,4.7342646484375,-0.015671538189053535,-0.014709187671542168,-0.005520101170986891
1782951234593192000,4.74419189453125,-0.016132529824972153,-0.019086359068751335,0.0012421977007761598
1782951234603117800,4.754117919921875,-0.013807740993797779,-0.010403532534837723,-0.007317241281270981
1782951234613045000,4.764044921875,-0.01468658447265625,0.0023956201039254665,-0.015271836891770363
1782951234622971600,4.7739716796875,-0.01471645012497902,0.016104472801089287,-0.02365274913609028
1782951234632898800,4.78389892578125,-0.0162363164126873,0.018684277310967445,-0.02252516709268093
1782951234642825000,4.793824951171875,-0.014264226891100407,0.008167870342731476,-0.010395294055342674
1782951234652752000,4.803751953125,-0.013186978176236153,0.0010255388915538788,0.014952406287193298
1782951234662679000,4.813678955078125,-0.012304083444178104,-0.006480926647782326,0.035111650824546814
1782951234672606000,4.82360595703125,-0.00809389166533947,-0.006017803214490414,0.041498713195323944
1782951234682532900,4.833532958984375,-0.0036733297165483236,0.005238961428403854,0.029604528099298477
1782951234692458800,4.843458740234375,-0.00561264343559742,0.017161933705210686,0.009250788018107414
1782951234702386000,4.853385986328125,-0.0002974312810692936,0.012837296351790428,-0.008311274461448193
1782951234712312800,4.863312744140625,0.006590302102267742,0.00014387303963303566,-0.017664030194282532
1782951234722240000,4.873239990234375,0.013366736471652985,-0.012852983549237251,-0.018353423103690147
1782951234732166000,4.883165771484375,0.017626728862524033,-0.010091018863022327,-0.015699317678809166
1782951234742092300,4.89309228515625,0.022252732887864113,-0.003751142416149378,-0.013973195105791092
1782951234752019200,4.903019287109375,0.017276350408792496,0.005419453140348196,-0.010661820881068707
1782951234761946000,4.912946044921875,0.015472990460693836,0.013789758086204529,-0.012851669453084469
1782951234771872300,4.922872314453125,0.010765853337943554,0.01855415478348732,-0.009896892122924328
1782951234781799400,4.93279931640625,0.009439276531338692,0.009926923550665379,-0.011817745864391327
1782951234791726300,4.942726318359375,0.008644056506454945,-0.0040802378207445145,-0.013367172330617905
1782951234801653200,4.9526533203125,0.010496322065591812,-0.0136508047580719,-0.01564210094511509
1782951234811580200,4.962580078125,-0.00022875957074575126,-0.01133358757942915,-0.010799942538142204
1782951234821506300,4.97250634765625,-0.0062785097397863865,-0.008073186501860619,-0.012349998578429222
1782951234831433200,4.98243310546875,-0.010361135005950928,0.0003740941174328327,-0.020021500065922737
1782951234841360400,4.9923603515625,-0.011567129753530025,0.00026185112074017525,-0.020086973905563354
1782951234851287300,5.002287353515625,-0.012906167656183243,-0.005830662325024605,-0.013599513098597527
1782951234861213200,5.012213134765625,-0.01508756261318922,-0.0011413686443120241,-0.004694435745477676
1782951234871140400,5.022140380859375,-0.011866203509271145,0.00821591354906559,0.004766976460814476
1782951234881067300,5.0320673828125,-0.01041044294834137,0.014687201008200645,0.005580725148320198
1782951234890994400,5.041994384765625,-0.00824795663356781,0.016303740441799164,0.007891017943620682
1782951234900920000,5.051920166015625,-0.008432110771536827,0.014851544052362442,0.010571280494332314
1782951234910847200,5.06184716796875,-0.0043332395143806934,0.011011267080903053,0.013237371109426022
1782951234920774100,5.071774169921875,0.0020942767150700092,0.002945698332041502,0.01485288143157959
1782951234930701300,5.081701416015625,0.006873319391161203,-0.00848592072725296,0.01696743071079254
1782951234940628200,5.091628173828125,0.010337522253394127,-0.01232701726257801,0.012118270620703697
1782951234950554400,5.101554443359375,0.016215652227401733,-0.014028511941432953,0.0026592544745653868
1782951234960481300,5.111481201171875,0.016639912500977516,-0.005835944786667824,-0.01094739604741335
1782951234970408200,5.121408203125,0.01425558514893055,-0.0006212089210748672,-0.021346507593989372
1782951234980335400,5.13133544921875,0.012016075663268566,0.0007663778960704803,-0.028798479586839676
1782951234990261200,5.14126123046875,0.0038441657088696957,0.006840515416115522,-0.023205574601888657
1782951235000188400,5.1511884765625,-0.0029993592761456966,0.014292307198047638,-0.019159700721502304
1782951235010115000,5.161114990234375,-0.005565847735852003,0.009898623451590538,-0.01140324492007494
1782951235020042200,5.171042236328125,0.0017643526662141085,0.007513355929404497,-0.00025556201580911875
1782951235029968400,5.180968505859375,0.004956151358783245,0.004196920897811651,0.01861320063471794
1782951235039895300,5.190895263671875,0.008058788254857063,-0.00014333100989460945,0.033513642847537994
1782951235049822200,5.200822265625,0.008521911688148975,-0.00654104258865118,0.03829720988869667
1782951235059749400,5.210749267578125,0.0021715096663683653,0.003982216119766235,0.03191402554512024
1782951235069676300,5.22067626953125,-0.005213435739278793,0.019621096551418304,0.01735718362033367
1782951235079602200,5.230602294921875,-0.014418821781873703,0.028782876208424568,-0.002574992598965764
1782951235089529300,5.240529296875,-0.014952785335481167,0.03470814228057861,-0.015688132494688034
1782951235099456300,5.250456298828125,-0.01550267357379198,0.026043452322483063,-0.020444750785827637
1782951235109383400,5.260383544921875,-0.005887596867978573,-0.0006520743481814861,-0.020911335945129395
1782951235119309300,5.270309326171875,0.0012969841482117772,-0.024864692240953445,-0.016052523627877235
1782951235129236200,5.280236328125,0.008031852543354034,-0.03787370026111603,-0.01735427789390087
1782951235139163100,5.2901630859375,0.0040157511830329895,-0.027322690933942795,-0.01113718282431364
1782951235149090300,5.30009033203125,0.0011581795988604426,-0.0028857910074293613,-0.003292042762041092
1782951235159016400,5.310016357421875,-0.0002841721579898149,0.023358460515737534,-0.0004008021205663681
1782951235168943000,5.319943115234375,0.0019616715144366026,0.03248697519302368,0.001304686302319169
1782951235178870300,5.329870361328125,0.009201493114233017,0.03058243729174137,0.006451482884585857
1782951235188797200,5.339797119140625,0.008428644388914108,0.014992823824286461,0.013465451076626778
1782951235198724400,5.349724365234375,0.013643934391438961,0.006273538805544376,0.008530179038643837
1782951235208650200,5.359650146484375,0.019345229491591454,-0.00029621366411447525,-0.002970149740576744
1782951235218577200,5.3695771484375,0.017101380974054337,-0.007526705972850323,-0.01876848191022873
1782951235228504000,5.379504150390625,0.014428899623453617,-0.005026796367019415,-0.02750231884419918
1782951235238431200,5.38943115234375,0.007599792908877134,-0.004568430595099926,-0.024107113480567932
1782951235248357400,5.399357421875,0.005442366469651461,-0.004519961308687925,-0.010660013183951378
1782951235258284300,5.4092841796875,-0.0005723449867218733,0.003870629705488682,0.011602358892560005
1782951235268211500,5.41921142578125,0.001674563973210752,0.012445475906133652,0.021287743002176285
1782951235278138000,5.42913818359375,0.002929332200437784,0.012689580209553242,0.02331138215959072
1782951235288064300,5.439064208984375,0.008451662957668304,0.01171619538217783,0.020983779802918434
1782951235297991200,5.4489912109375,0.007764376234263182,0.012969017028808594,0.008783726021647453
1782951235307918300,5.45891845703125,0.008867723867297173,0.02840176783502102,0.006752533372491598
1782951235317845200,5.46884521484375,0.0029393392615020275,0.027889201417565346,-0.0017786237876862288
1782951235327771100,5.478771240234375,-0.004544942174106836,0.017515389248728752,-0.004887598101049662
1782951235337698300,5.4886982421875,0.0006757465307600796,-0.004827511962503195,-0.010056933388113976
1782951235347625200,5.498625244140625,0.0013420693576335907,-0.021070662885904312,-0.01559257972985506
1782951235357552400,5.508552490234375,0.004269965458661318,-0.03425237908959389,-0.025770805776119232
1782951235367479300,5.518479248046875,0.002352755982428789,-0.034173015505075455,-0.027728229761123657
1782951235377405200,5.5284052734375,-0.0009863697923719883,-0.010229503735899925,-0.016340872272849083
1782951235387332000,5.53833203125,-0.006362759508192539,0.017439940944314003,0.0003108087694272399
1782951235397259300,5.54825927734375,-0.008348565548658371,0.028804020956158638,0.018601231276988983
1782951235407186200,5.558186279296875,-0.01134834997355938,0.02032984420657158,0.033965274691581726
1782951235417112300,5.5681123046875,-0.009150691330432892,0.013959446921944618,0.03447071462869644
1782951235427039200,5.578039306640625,-0.0017708054510876536,0.006621106527745724,0.025174150243401527
1782951235436966100,5.587966064453125,0.007285120896995068,-0.003202122636139393,0.005016248673200607
1782951235446893300,5.597893310546875,0.008497125469148159,-0.0036135809496045113,-0.00916401855647564
1782951235456819200,5.607819091796875,-0.000024931126972660422,0.001922536175698042,-0.013243138790130615
1782951235466746400,5.617746337890625,-0.004868155810981989,-0.0019622170366346836,-0.01381145790219307
1782951235476673300,5.62767333984375,-0.009666851721704006,-0.006367182359099388,-0.0110097611322999
1782951235486600200,5.63760009765625,-0.011748111806809902,0.0017735688015818596,-0.0003145059454254806
1782951235496527000,5.647527099609375,-0.010923044756054878,0.010713419876992702,0.012198060750961304
1782951235506453200,5.657453369140625,-0.0072430893778800964,0.01316113118082285,0.009247012436389923
1782951235516380400,5.66738037109375,-0.0015222568763419986,0.008877407759428024,0.003113742917776108
1782951235526307300,5.677307373046875,-0.0032357345335185528,0.006231025326997042,0.0005555106326937675
1782951235536234500,5.687234375,-0.002718987176194787,0.00207804748788476,-0.001161038875579834
1782951235546160000,5.69716015625,-0.003675594460219145,-0.001124403439462185,0.0009452552767470479
1782951235556087300,5.70708740234375,-0.0029313541017472744,-0.000028354115784168243,-0.0027217469178140163
1782951235566014200,5.71701416015625,0.0006452710367739201,-0.0015623345971107483,-0.0013869706308469176
1782951235575941400,5.72694140625,0.0019595411140471697,0.00009548291563987732,0.0020346587989479303
1782951235585867300,5.7368671875,-0.00021253310842439532,-0.0031778081320226192,0.011549866758286953
1782951235595794200,5.746794189453125,-0.0016018286114558578,-0.006158079952001572,0.012296503409743309
1782951235605721300,5.756721435546875,-0.005776067264378071,0.0006819828413426876,0.010590216144919395
1782951235615648300,5.766648193359375,-0.007997085340321064,0.004713146947324276,0.007785951718688011
1782951235625574400,5.776574462890625,-0.011082356795668602,0.005025535821914673,0.0033563163597136736
1782951235635501000,5.7865009765625,-0.00771648483350873,-0.0009833280928432941,-0.004315439611673355
1782951235645428200,5.79642822265625,-0.007118605077266693,0.000573023222386837,-0.013426113873720169
1782951235655355100,5.806355224609375,-0.009893694892525673,-0.00023133819922804832,-0.008902220986783504
1782951235665282300,5.8162822265625,-0.011678013019263744,0.003996696323156357,-0.00041339482413604856
1782951235675208400,5.82620849609375,-0.015149824321269989,0.0048072547651827335,0.005500592291355133
1782951235685135400,5.83613525390625,-0.005536078941076994,0.002611478790640831,0.006087286397814751
1782951235695062300,5.846062255859375,-0.0020793334115296602,0.00034562544897198677,0.013225147500634193
1782951235704989200,5.8559892578125,-0.0039992062374949455,-0.002200356451794505,0.02043272741138935
1782951235714915300,5.865915283203125,-0.0038894277531653643,-0.00023450283333659172,0.023986758664250374
1782951235724842200,5.87584228515625,-0.0023045805282890797,0.0015205200761556625,0.02624964714050293
1782951235734769400,5.885769287109375,-0.007413454353809357,0.002951989881694317,0.026155441999435425
1782951235744697000,5.895697021484375,-0.008281911723315716,-0.0015807105228304863,0.021272800862789154
1782951235754623000,5.905623046875,0.0018487159395590425,-0.009430945850908756,0.013800295069813728
1782951235764550000,5.9155498046875,0.005687662400305271,-0.014010251499712467,0.007795398589223623
1782951235774477000,5.92547705078125,0.008407034911215305,-0.010113629512488842,0.00407866295427084
1782951235784404000,5.935404052734375,0.005831758491694927,-0.004132702015340328,0.0027188528329133987
1782951235794331100,5.9453310546875,0.0028616292402148247,-0.0019510844722390175,0.0017783488146960735
1782951235804257000,5.955257080078125,-0.0054703364148736,0.0042415643110871315,-0.0005713581922464073
1782951235814184000,5.965183837890625,-0.01031869649887085,0.005539516918361187,-0.001605616183951497
1782951235824111000,5.975111083984375,-0.010031341575086117,0.0033386806026101112,-0.012469981797039509
1782951235834038000,5.9850380859375,-0.011269636452198029,0.003724377602338791,-0.022074785083532333
1782951235843964200,5.994964111328125,-0.014698456041514874,-0.010463878512382507,-0.03324568271636963
1782951235853890800,6.004890869140625,-0.015837183222174644,-0.017128121107816696,-0.023582860827445984
1782951235863818000,6.01481787109375,-0.014904278330504894,-0.0243130624294281,-0.012170683592557907
1782951235873745000,6.024744873046875,-0.008678494952619076,-0.033140551298856735,0.004388550762087107
1782951235883671000,6.034671142578125,-0.00016809749649837613,-0.01770433783531189,0.0154348099604249
1782951235893598000,6.044597900390625,0.003952554892748594,0.0049307458102703094,0.02536342665553093
1782951235903525000,6.054525146484375,0.004760557785630226,0.020738204941153526,0.025514693930745125
1782951235913452000,6.0644521484375,0.00019924828666262329,0.02542632631957531,0.021257802844047546
1782951235923378000,6.0743779296875,-0.0013821368338540196,0.021166067570447922,0.01808997243642807
1782951235933305000,6.08430517578125,-0.0031524167861789465,0.011486189439892769,0.012438724748790264
1782951235943232000,6.09423193359375,0.0021488715428858995,0.0016878875903785229,0.010113785974681377
1782951235953159200,6.1041591796875,0.00767152663320303,-0.012336117215454578,0.009526606649160385
1782951235963086000,6.114086181640625,0.009732280857861042,-0.015505545772612095,-0.0008991365320980549
1782951235973012000,6.124011962890625,0.012825960293412209,-0.016505418345332146,-0.006440869998186827
1782951235982939000,6.13393896484375,0.012105308473110199,-0.01900799199938774,-0.020718077197670937
1782951235992866000,6.143865966796875,0.01649085059762001,-0.016818750649690628,-0.02360152080655098
1782951236002793000,6.15379296875,0.014795483089983463,-0.014022697694599628,-0.025613538920879364
1782951236012718800,6.16371875,0.013786106370389462,-0.01901163160800934,-0.01575392484664917
1782951236022646000,6.17364599609375,0.007737268693745136,-0.011990208178758621,-0.003779554506763816
1782951236032573000,6.183572998046875,0.0010739249410107732,0.002005112823098898,0.013543548062443733
1782951236042500000,6.1935,-0.009208539500832558,0.01581653207540512,0.023411359637975693
1782951236052426000,6.203426025390625,-0.010785301215946674,0.03266233205795288,0.02493733912706375
1782951236062353000,6.213352783203125,-0.008503505028784275,0.03459338843822479,0.024492591619491577
1782951236072279800,6.22327978515625,-0.002700401470065117,0.016536161303520203,0.01838025636970997
1782951236082207000,6.23320703125,-0.0005581547738984227,-0.005506822373718023,0.012863253243267536
1782951236092133000,6.243133056640625,-0.0006150139961391687,-0.027338091284036636,0.007702645380049944
1782951236102060000,6.25306005859375,-0.003871793858706951,-0.03289637714624405,-0.004459477961063385
1782951236111987200,6.2629873046875,-0.00222801323980093,-0.023928094655275345,-0.015497995540499687
1782951236121913900,6.272913818359375,0.00016616840730421245,-0.00556000554934144,-0.028379173949360847
1782951236131841000,6.282841064453125,0.004534341860562563,0.010740591213107109,-0.036757029592990875
1782951236141767000,6.292766845703125,0.003913825377821922,0.010316882282495499,-0.03222299739718437
1782951236151694000,6.302694091796875,0.0033516697585582733,0.009437542408704758,-0.02290731854736805
1782951236161621000,6.31262109375,0.009510496631264687,-0.001210042741149664,-0.00976142194122076
1782951236171548200,6.322548095703125,0.018334880471229553,-0.010338826104998589,0.006743518635630608
1782951236181474000,6.33247412109375,0.01993410848081112,-0.011544173583388329,0.014746051281690598
1782951236191401000,6.34240087890625,0.013838322833180428,-0.011238247156143188,0.016744067892432213
1782951236201328000,6.352328125,0.004452545195817947,-0.003728132229298353,0.012265428900718689
1782951236211255000,6.362255126953125,-0.0020595884416252375,-0.002898068865761161,0.00230692932382226
1782951236221181000,6.372180908203125,-0.009028015658259392,-0.0011718077585101128,-0.007759552914649248
1782951236231107800,6.38210791015625,-0.007028856314718723,0.0018550688400864601,-0.022077925503253937
1782951236241035000,6.392034912109375,-0.004233069717884064,-0.00366726191714406,-0.020491214469075203
1782951236250962000,6.4019619140625,-0.005604045931249857,-0.002562963869422674,-0.009282795712351799
1782951236260889000,6.41188916015625,-0.004274063743650913,0.0011968868784606457,0.009464260190725327
1782951236270815000,6.42181494140625,-0.008446590974926949,0.00382313784211874,0.026597268879413605
1782951236280742000,6.431741943359375,-0.014307675883173943,0.005419435910880566,0.03127404674887657
1782951236290669000,6.4416689453125,-0.019366750493645668,0.012295445427298546,0.018167097121477127
1782951236300596000,6.451595947265625,-0.009504797868430614,0.016204433515667915,-0.00400504982098937
1782951236310522000,6.461522216796875,0.0008542900905013084,0.028131060302257538,-0.02100548893213272
1782951236320449000,6.471448974609375,0.0056293378584086895,0.03387469798326492,-0.028619732707738876
1782951236330376000,6.4813759765625,0.0036587133072316647,0.023352675139904022,-0.020459312945604324
1782951236340302800,6.491302734375,-0.005014935974031687,0.008077581413090229,-0.010511074215173721
1782951236350229000,6.50122900390625,-0.00616292841732502,-0.004663008730858564,-0.0037892672698944807
1782951236360156200,6.51115625,-0.006112594623118639,-0.005533862393349409,-0.0006027949275448918
1782951236370083000,6.5210830078125,-0.002071971073746681,-0.002080736681818962,-0.003956626635044813
1782951236380010200,6.53101025390625,0.004039983730763197,0.01074611209332943,-0.003183511085808277
1782951236389935900,6.540935791015625,0.004969235975295305,0.021250490099191666,0.005050869658589363
1782951236399863000,6.550863037109375,0.0034975733142346144,0.028159795328974724,0.01517061609774828
1782951236409790000,6.5607900390625,0.0036499626003205776,0.0240177009254694,0.019609488546848297
1782951236419717000,6.570717041015625,-0.006242349278181791,0.006317800376564264,0.017906129360198975
1782951236429644000,6.58064404296875,-0.002603615401312709,-0.008189050480723381,0.009007357060909271
1782951236439570000,6.59056982421875,-0.0035517006181180477,-0.011002413928508759,-0.0017989519983530045
1782951236449497000,6.6004970703125,-0.009974770247936249,-0.006671248935163021,-0.012887606397271156
1782951236459424000,6.610424072265625,-0.015432119369506836,-0.002332692965865135,-0.017502864822745323
1782951236469351200,6.62035107421875,-0.012797052972018719,0.010955436155200005,-0.00885471235960722
1782951236479276800,6.63027685546875,-0.014987236820161343,0.015535807237029076,-0.0020620538853108883
1782951236489204000,6.640203857421875,-0.021946553140878677,0.008665304630994797,0.005328931845724583
1782951236499131000,6.650130859375,-0.021708998829126358,0.0029032891616225243,0.006445062812417746
1782951236509058000,6.66005810546875,-0.015230897814035416,0.0032595843076705933,0.00005832687020301819
1782951236518984200,6.669984130859375,-0.008821734227240086,-0.00220415648072958,-0.009963680990040302
1782951236528911000,6.6799111328125,-0.00431330781430006,-0.0068242596462368965,-0.015278360806405544
1782951236538838000,6.689838134765625,-0.002425392856821418,-0.005623706616461277,-0.009354425594210625
1782951236548765000,6.699764892578125,0.00208750506862998,0.001473128329962492,0.0005755801685154438
1782951236558692000,6.709692138671875,0.0015146592631936073,0.017402559518814087,0.015400865115225315
1782951236568618000,6.719617919921875,-0.002162157790735364,0.018187206238508224,0.01898716390132904
1782951236578545200,6.729545166015625,-0.005522800609469414,0.016432184725999832,0.012232321314513683
1782951236588472000,6.73947216796875,-0.008139394223690033,0.008871699683368206,0.0018393920036032796
1782951236598399000,6.74939892578125,-0.0017150508938357234,-0.004175126552581787,-0.01307271234691143
1782951236608325000,6.7593251953125,0.0006497022695839405,-0.015571067109704018,-0.026775941252708435
1782951236618252000,6.769251953125,0.005335534457117319,-0.01543551217764616,-0.026706699281930923
1782951236628179200,6.77917919921875,0.007349892519414425,-0.014505989849567413,-0.018246814608573914
1782951236638106000,6.789106201171875,0.0018523288890719414,-0.003498877864331007,-0.004577874671667814
1782951236648032000,6.799031982421875,-0.004994296468794346,0.0029946649447083473,0.008297832682728767
1782951236657959000,6.808958984375,-0.01501417439430952,0.0021794713102281094,0.0171605683863163
1782951236667886000,6.818885986328125,-0.015922006219625473,0.011315230280160904,0.010801812633872032
1782951236677813000,6.82881298828125,-0.01274059433490038,0.012532560154795647,-0.0012066465569660068
1782951236687739000,6.83873876953125,-0.012622236274182796,0.012658102437853813,-0.016188962385058403
1782951236697666000,6.848666015625,-0.00008966695168055594,0.013989681378006935,-0.021567216143012047
1782951236707593000,6.858593017578125,-0.000025960587663576007,0.00834849663078785,-0.022852541878819466
1782951236717520000,6.868519775390625,0.005236445926129818,-0.0047342823818326,-0.019429581239819527
1782951236727447000,6.878447021484375,0.008273951709270477,-0.009040318429470062,-0.012111741118133068
1782951236737373200,6.888373291015625,0.0124122379347682,-0.006823237054049969,-0.006220029667019844
1782951236747299800,6.8982998046875,0.010715329088270664,0.0027662082575261593,0.0003971767146140337
1782951236757227000,6.90822705078125,0.012265820987522602,0.0098307766020298,0.004366085398942232
1782951236767154000,6.91815380859375,0.013926816172897816,0.014101801440119743,0.002797778695821762
1782951236777080000,6.928080078125,0.014874102547764778,0.014749748632311821,0.010376069694757462
1782951236787007000,6.938007080078125,0.01184165570884943,0.010045498609542847,0.018165405839681625
1782951236796934100,6.94793408203125,0.007344109006226063,0.00284404493868351,0.028498204424977303
1782951236806860800,6.95786083984375,0.003115713596343994,0.009472960606217384,0.03347073495388031
1782951236816787000,6.967786865234375,0.0014046326978132129,-0.002310460899025202,0.02895321696996689
1782951236826714000,6.977714111328125,0.005601793527603149,-0.017632806673645973,0.0072662681341171265
1782951236836641000,6.98764111328125,0.010019444860517979,-0.02501535415649414,-0.011897573247551918
1782951236846568200,6.997568115234375,0.005125659983605146,-0.019366737455129623,-0.030248545110225677
1782951236856493800,7.007493896484375,-0.00041984018753282726,-0.0052269501611590385,-0.03597034513950348
1782951236866421000,7.0174208984375,-0.00367156183347106,-0.00018826639279723167,-0.027900032699108124
1782951236876348000,7.027347900390625,-0.0029618293046951294,-0.0006175683811306953,-0.011166059412062168
1782951236886275000,7.037275146484375,-0.004174595233052969,0.002989453263580799,0.010921075940132141
1782951236896202000,7.047201904296875,-0.008599703200161457,0.0013348315842449665,0.027139993384480476
1782951236906128000,7.0571279296875,-0.010786481201648712,-0.00529289897531271,0.026327814906835556
1782951236916055000,7.067054931640625,-0.010639741085469723,-0.006935270503163338,0.01471163984388113
1782951236925982000,7.07698193359375,-0.008734687231481075,0.0034235836938023567,0.0017347108805552125
1782951236935909000,7.0869091796875,-0.008439076133072376,0.009422088041901588,-0.009413281455636024
1782951236945835000,7.0968349609375,-0.0053541469387710094,-0.00009931717067956924,-0.01663006655871868
1782951236955762000,7.106761962890625,-0.00457677012309432,-0.01265186071395874,-0.012851041741669178
1782951236965688800,7.116688720703125,-0.004372125491499901,-0.006071613635867834,-0.002246239921078086
1782951236975616000,7.126615966796875,-0.007075766567140818,-0.0027913982048630714,0.007331551983952522
1782951236985542100,7.136542236328125,-0.0037862288299947977,-0.006345904432237148,0.010233999229967594
1782951236995469000,7.146468994140625,-0.003687159391120076,-0.005873726215213537,0.0018991038668900728
1782951237005396200,7.156396240234375,-0.009787073358893394,0.0015329779125750065,-0.008685448206961155
1782951237015323000,7.166322998046875,-0.011220119893550873,0.0006781029514968395,-0.017448049038648605
1782951237025249000,7.1762490234375,-0.007214839104562998,0.00032060034573078156,-0.01386353000998497
1782951237035176000,7.186176025390625,0.0004641193663701415,0.006874373182654381,-0.0010665080044418573
1782951237045103000,7.19610302734375,0.0017254289705306292,0.019144374877214432,0.02327885664999485
1782951237055030000,7.206030029296875,0.0011909325839951634,0.01455787941813469,0.03623247146606445
1782951237064957000,7.21595703125,-0.0012438809499144554,0.004564756061881781,0.03486676514148712
1782951237074883000,7.225883056640625,-0.003485463559627533,-0.004332066513597965,0.01601264998316765
1782951237084810000,7.23581005859375,-0.007826683111488819,-0.004883353598415852,-0.008144221268594265
1782951237094737200,7.245737060546875,-0.004988552536815405,0.0025479309260845184,-0.021606767550110817
1782951237104664000,7.2556640625,0.001115032471716404,0.002455144189298153,-0.026679914444684982
1782951237114590000,7.26558984375,0.006406201049685478,-0.00021014735102653503,-0.018497087061405182
1782951237124516900,7.275516845703125,0.009603518061339855,0.000833223108202219,-0.005258266814053059
1782951237134444000,7.285444091796875,0.00014130663475953043,-0.0051389154978096485,0.004903556779026985
1782951237144371000,7.295370849609375,-0.00328483316116035,-0.005681532435119152,0.009271513670682907
1782951237154297000,7.305297119140625,-0.0066742380149662495,0.0000016530975699424744,0.002899368293583393
1782951237164224000,7.31522412109375,-0.008687092922627926,0.004962286911904812,-0.016405031085014343
1782951237174151000,7.32515087890625,-0.010404831729829311,0.0055431220680475235,-0.028735732659697533
1782951237184078000,7.335078125,0.00026396213797852397,0.005110121797770262,-0.023969998583197594
1782951237194005000,7.3450048828125,-0.0014681577449664474,0.00332367280498147,-0.011849951930344105
1782951237203931100,7.35493115234375,0.0006341802654787898,0.0020645800977945328,0.003091259393841028
1782951237213858000,7.364858154296875,0.0036909563932567835,-0.0016462686471641064,0.010620282031595707
1782951237223785000,7.374784912109375,0.004570940975099802,0.0018108529038727283,0.013235657475888729
1782951237233711900,7.3847119140625,0.007013326045125723,0.005109710618853569,0.0048980992287397385
1782951237243638000,7.394637939453125,0.009287572465837002,0.012774083763360977,-0.004953728057444096
1782951237253565200,7.404565185546875,0.009736315347254276,0.006670384202152491,-0.012006310746073723
1782951237263492000,7.4144921875,0.010743786580860615,0.0023395344614982605,-0.011049565859138966
1782951237273419000,7.4244189453125,0.011936349794268608,-0.00023228023201227188,-0.00017135142115876079
1782951237283345000,7.434344970703125,0.010041054338216782,-0.0014178480487316847,-0.00020715163554996252
1782951237293272000,7.44427197265625,0.00843596737831831,-0.0039039088878780603,-0.0029147875029593706
1782951237303199000,7.454198974609375,0.0016215088544413447,-0.008723141625523567,-0.014147665351629257
1782951237313126100,7.464126220703125,-0.006295536179095507,-0.0034892307594418526,-0.017444124445319176
1782951237323052000,7.474052001953125,-0.013982237316668034,0.001976501662284136,-0.012774904258549213
1782951237332979000,7.48397900390625,-0.023215416818857193,0.011670142412185669,-0.009784706868231297
1782951237342906000,7.493906005859375,-0.023390844464302063,0.014543764293193817,-0.007851632311940193
1782951237352833000,7.5038330078125,-0.02524466998875141,0.005169704556465149,-0.010464459657669067
1782951237362759200,7.51375927734375,-0.02338557317852974,-0.008581699803471565,-0.01735037937760353
1782951237372685800,7.523685791015625,-0.016742317005991936,-0.014953844249248505,-0.025736406445503235
1782951237382613000,7.533613037109375,-0.0183157529681921,-0.018231716006994247,-0.028697382658720016
1782951237392540000,7.543539794921875,-0.01764357089996338,-0.013570385053753853,-0.03171341493725777
1782951237402467000,7.553467041015625,-0.01282070018351078,0.008008288219571114,-0.021674592047929764
1782951237412393200,7.563393310546875,-0.009899212047457695,0.024526279419660568,-0.0027965072076767683
1782951237422320000,7.573320068359375,-0.01199243776500225,0.02215541899204254,0.015611499547958374
1782951237432247000,7.5832470703125,-0.006533490493893623,0.00800444558262825,0.026409287005662918
1782951237442174000,7.593174072265625,-0.0024988583754748106,-0.00735765416175127,0.015889354050159454
1782951237452100000,7.60310009765625,0.00703685637563467,-0.0028025833889842033,-0.002166611608117819
1782951237462027000,7.613027099609375,0.012486026622354984,-0.0004961998201906681,-0.023837532848119736
1782951237471954200,7.6229541015625,0.014222141355276108,-0.0022229934111237526,-0.0435907319188118
1782951237481880800,7.632880859375,0.01402746420353651,-0.005567124579101801,-0.04841877520084381
1782951237491807000,7.642806884765625,0.012936633080244064,-0.011291056871414185,-0.04072623327374458
1782951237501734100,7.652734130859375,0.021145731210708618,-0.011595427989959717,-0.02943522110581398
1782951237511661000,7.6626611328125,0.020040519535541534,-0.012747776694595814,-0.015302624553442001
1782951237521588000,7.672587890625,0.025516094639897346,0.0018709683790802956,-0.0001561995013616979
1782951237531515100,7.68251513671875,0.031107135117053986,0.009523561224341393,0.018590856343507767
1782951237541441000,7.69244091796875,0.03195074945688248,0.02424651011824608,0.039322078227996826
1782951237551368000,7.702367919921875,0.02324061281979084,0.03714952617883682,0.05372791737318039
1782951237561295000,7.712295166015625,0.015497643500566483,0.035552188754081726,0.05610160157084465
1782951237571222000,7.722221923828125,0.01192953996360302,0.021649956703186035,0.03743444010615349
1782951237581148000,7.73214794921875,0.013257981278002262,0.004538801498711109,0.0049744173884391785
1782951237591074800,7.74207470703125,0.016907310113310814,-0.0040821172297000885,-0.02005263976752758
1782951237601002000,7.752001953125,0.019433854147791862,-0.006347387097775936,-0.032558709383010864
1782951237610929000,7.761928955078125,0.018967533484101295,-0.01503115613013506,-0.03461919724941254
1782951237620855000,7.77185498046875,0.018598323687911034,-0.00604723347350955,-0.02214188314974308
1782951237630782200,7.7817822265625,0.0020326627418398857,0.007166040129959583,-0.007509411312639713
1782951237640708900,7.791708984375,-0.0049278694204986095,0.009701691567897797,0.007219748571515083
1782951237650636000,7.801635986328125,-0.009217689745128155,0.0173561479896307,0.021605078130960464
1782951237660562000,7.81156201171875,-0.0036061047576367855,0.017237938940525055,0.03168588504195213
1782951237670489000,7.821489013671875,0.00018250811262987554,0.008808769285678864,0.030733272433280945
1782951237680416000,7.831416015625,0.010052944533526897,0.008092876523733139,0.027730349451303482
1782951237690343000,7.841343017578125,0.011552836745977402,0.004549007397145033,0.021654080599546432
1782951237700269800,7.851269775390625,0.0005521548446267843,-0.0023573325015604496,0.010575540363788605
1782951237710196000,7.861196044921875,-0.006929729599505663,-0.006209595128893852,-0.0011863101972267032
1782951237720123100,7.871123046875,-0.009221113286912441,-0.006386162713170052,-0.010890869423747063
1782951237730050000,7.881050048828125,-0.013228105381131172,-0.01032258104532957,-0.011692480184137821
1782951237739976400,7.8909765625,-0.019172262400388718,-0.002687945496290922,-0.00956491008400917
1782951237749902600,7.900902587890625,-0.01942845806479454,0.001812264323234558,-0.008935871534049511
1782951237759829500,7.91082958984375,-0.020010093227028847,-0.0006650080904364586,-0.004031393676996231
1782951237769756700,7.920756591796875,-0.024277541786432266,-0.004064267035573721,-0.0023426832631230354
1782951237779683600,7.93068359375,-0.02443712390959263,-0.012614812701940536,-0.007083159871399403
1782951237789609500,7.940609375,-0.017736343666911125,-0.01462070643901825,-0.012115202844142914
1782951237799536400,7.950536376953125,-0.018420927226543427,-0.006578370928764343,-0.021558541804552078
1782951237809463600,7.960463623046875,-0.008475619368255138,0.006126771681010723,-0.02288879081606865
1782951237819390500,7.970390380859375,-0.00505910674110055,0.020526817068457603,-0.0150759257376194
1782951237829316600,7.980316650390625,-0.0024505406618118286,0.029431095346808434,-0.000758772250264883
1782951237839242500,7.990242431640625,-0.003268740139901638,0.022452741861343384,0.011037016287446022
1782951237849168600,8.000168701171875,0.0006209401763044298,0.010117518715560436,0.0146207669749856
1782951237859095600,8.010095458984376,0.013083201833069324,-0.001658979570493102,0.009878477081656456
1782951237869022700,8.020022705078125,0.0155929084867239,-0.0006069513037800789,0.005914181005209684
1782951237878949400,8.029949462890626,0.017200658097863197,0.003895388450473547,0.0008379298960790038
1782951237888875500,8.03987548828125,0.01831606775522232,0.0034275436773896217,-0.009094709530472755
1782951237898802400,8.049802490234375,0.015756236389279366,0.006541311740875244,-0.010756256058812141
1782951237908729600,8.0597294921875,0.006432908121496439,0.02184143103659153,-0.00938386470079422
1782951237918656500,8.069656494140625,0.008700057864189148,0.033242158591747284,-0.005695653147995472
1782951237928582400,8.07958251953125,0.003961076959967613,0.02076909691095352,0.006994806230068207
1782951237938509600,8.089509521484375,0.005138993263244629,-0.006554136052727699,0.0176093652844429
1782951237948436500,8.0994365234375,0.004631415009498596,-0.01937442645430565,0.021131234243512154
1782951237958363600,8.10936376953125,-0.000395567825762555,-0.015280349180102348,0.01475722435861826
1782951237968289500,8.11928955078125,-0.007823828607797623,-0.0004029092378914356,-0.0021678379271179438
1782951237978216400,8.129216552734375,-0.013084903359413147,0.01716223545372486,-0.016743052750825882
1782951237988143400,8.139143310546874,-0.017220698297023773,0.023023277521133423,-0.024083131924271584
1782951237998070500,8.149070556640625,-0.019863352179527283,0.01922374591231346,-0.0271883774548769
1782951238007997400,8.15899755859375,-0.01734841614961624,0.009428213350474834,-0.0199735127389431
1782951238017923600,8.168923583984375,-0.009511531330645084,-0.005957400891929865,-0.012327046133577824
1782951238027850800,8.178850830078124,0.0016968382988125086,-0.012449460104107857,-0.009843533858656883
1782951238037777400,8.18877734375,0.009715350344777107,-0.012309111654758453,-0.014345075003802776
1782951238047704600,8.19870458984375,0.017301173880696297,-0.0032574881333857775,-0.01919986493885517
1782951238057630500,8.20863037109375,0.016204217448830605,0.011416795663535595,-0.01961292140185833
1782951238067557600,8.2185576171875,0.0057457368820905685,0.02888488583266735,-0.006877182051539421
1782951238077484500,8.228484619140625,-0.0011385343968868256,0.03376166522502899,0.010098871774971485
1782951238087411500,8.238411376953126,-0.00046121564810164273,0.02579464018344879,0.011137258261442184
1782951238097337600,8.248337646484375,0.000024544919142499566,0.016051465645432472,-0.000017391983419656754
1782951238107264500,8.258264404296876,0.010250074788928032,-0.003046939615160227,-0.016682740300893784
1782951238117191700,8.268191650390625,0.009623432531952858,-0.020994514226913452,-0.03310059383511543
1782951238127118600,8.27811865234375,0.02112269587814808,-0.023395100608468056,-0.03667442873120308
1782951238137044500,8.28804443359375,0.02131763845682144,-0.008053962141275406,-0.03482033312320709
1782951238146971400,8.297971435546875,0.016034215688705444,0.009511896409094334,-0.019609985873103142
1782951238156898600,8.307898681640625,0.006433253176510334,0.024426396936178207,0.0026838681660592556
1782951238166825500,8.317825439453125,-0.0006528876256197691,0.02673986926674843,0.022063028067350388
1782951238176752600,8.327752685546875,-0.0063009196892380714,0.025819214060902596,0.025972548872232437
1782951238186678500,8.337678466796875,-0.0036486967001110315,0.013529641553759575,0.020376477390527725
1782951238196605400,8.34760546875,0.0028131974395364523,0.0018309061415493488,0.007016463205218315
1782951238206533400,8.357533447265626,0.007753361016511917,-0.015410931780934334,-0.00877395085990429
1782951238216460500,8.36746044921875,0.014299866743385792,-0.02654249779880047,-0.021850626915693283
1782951238226387500,8.377387451171876,0.01889435201883316,-0.027916688472032547,-0.020900411531329155
1782951238236314600,8.387314697265625,0.014263211749494076,-0.02097518928349018,-0.004309455864131451
1782951238246241500,8.397241455078126,0.011812037788331509,-0.01952456496655941,0.0031987938564270735
1782951238256167400,8.40716748046875,0.01553998701274395,-0.01202093344181776,-0.00013890501577407122
1782951238266094300,8.41709423828125,0.024300988763570786,0.00955679640173912,-0.0032851635478436947
1782951238276021500,8.427021484375,0.023850247263908386,0.02437729388475418,-0.00476807402446866
1782951238285948400,8.436948486328125,0.024218829348683357,0.029700953513383865,-0.0005672037950716913
1782951238295874600,8.44687451171875,0.027075907215476036,0.024309419095516205,0.005701553076505661
1782951238305801700,8.4568017578125,0.024764548987150192,0.010340074077248573,0.02134709246456623
1782951238315728400,8.466728271484374,0.023660534992814064,0.006064641289412975,0.03173469007015228
1782951238325655600,8.476655517578125,0.022939352318644524,-0.00543169304728508,0.03897582367062569
1782951238335581400,8.48658154296875,0.02206771820783615,-0.016411222517490387,0.032574884593486786
1782951238345508600,8.496508544921875,0.02381102368235588,-0.023179644718766212,0.019876934587955475
1782951238355435500,8.506435546875,0.023472782224416733,-0.018803156912326813,0.0013717220863327384
1782951238365362400,8.516362548828125,0.017845788970589638,-0.0035576263908296824,-0.009251361712813377
1782951238375288600,8.52628857421875,0.010223176330327988,0.003797904122620821,-0.01639552228152752
1782951238385215500,8.536215576171875,0.0011662982869893312,0.004268484655767679,-0.010217521339654922
1782951238395142700,8.546142578125,0.0038081356324255466,0.004128530155867338,-0.00461512990295887
1782951238405069600,8.556069580078125,0.00005361111834645271,0.005493666511029005,0.006863093934953213
1782951238414995500,8.565995361328126,0.002578762825578451,0.013894673436880112,0.016706353053450584
1782951238424922400,8.57592236328125,0.00014383465168066323,0.023712683469057083,0.025429537519812584
1782951238434849500,8.585849609375,-0.003829124616459012,0.026253165677189827,0.025791414082050323
1782951238444776400,8.5957763671875,-0.0017811538418754935,0.015153111889958382,0.019610218703746796
1782951238454703600,8.60570361328125,0.0033938614651560783,0.003513182047754526,0.011639567092061043
1782951238464629500,8.61562939453125,0.007346791680902243,-0.010929140262305737,0.0005989010678604245
1782951238474556400,8.625556396484376,0.007174523081630468,-0.016040509566664696,-0.006422047968953848
1782951238484483600,8.635483642578125,0.003426390001550317,-0.010342409834265709,-0.006426042411476374
1782951238494410500,8.645410400390626,-0.0027711468283087015,0.002278353087604046,-0.004311082884669304
1782951238504336600,8.655336669921875,-0.011462905444204807,0.014883892610669136,-0.0018370063044130802
1782951238514263600,8.665263671875,-0.013957394286990166,0.012673426419496536,-0.003408681135624647
1782951238524190500,8.6751904296875,-0.023343972861766815,0.008351116441190243,-0.008592523634433746
1782951238534117400,8.685117431640625,-0.029957134276628494,0.0036506373435258865,-0.01739906519651413
1782951238544043500,8.69504345703125,-0.03743449226021767,0.004914307035505772,-0.030967870727181435
1782951238553970700,8.704970703125,-0.04012840986251831,0.00841555930674076,-0.038514140993356705
1782951238563897600,8.714897705078124,-0.04258064925670624,0.00799398124217987,-0.043515291064977646
1782951238573824500,8.724824462890625,-0.03593488037586212,0.003293621353805065,-0.03947397693991661
1782951238583750400,8.73475048828125,-0.02980002574622631,-0.0008180327713489532,-0.03127890080213547
1782951238593677600,8.744677490234375,-0.02535208873450756,-0.0020759275648742914,-0.01756044663488865
1782951238603604500,8.7546044921875,-0.022326737642288208,0.003911124542355537,0.0006622321670874953
1782951238613531600,8.76453173828125,-0.024479618296027184,0.011475997045636177,0.007802010513842106
1782951238623457500,8.77445751953125,-0.01813570223748684,0.013068567961454391,-0.0010165151907131076
1782951238633384400,8.784384521484375,-0.003316733753308654,0.012110168114304543,-0.012661834247410297
1782951238643311600,8.7943115234375,0.002852212404832244,0.0011944035068154335,-0.018810540437698364
1782951238653238500,8.804238525390625,0.011835530400276184,-0.00936867855489254,-0.022148193791508675
1782951238663165700,8.814165771484374,0.018263602629303932,-0.0141573091968894,-0.01213044673204422
1782951238673091300,8.82409130859375,0.013793086633086205,-0.004818675573915243,0.009937901049852371
1782951238683018500,8.8340185546875,0.0019329652423039079,-0.0006106146611273289,0.02502737194299698
1782951238692945400,8.8439453125,-0.007479064166545868,0.011873606592416763,0.029175208881497383
1782951238702872600,8.85387255859375,-0.00993369985371828,0.011825136840343475,0.014723033644258976
1782951238712798700,8.863798828125,-0.01074294000864029,0.00727854622527957,-0.00148537487257272
1782951238722725600,8.8737255859375,-0.005225135944783688,-0.0014108153991401196,-0.013336441479623318
1782951238732652500,8.883652587890625,0.001233790535479784,-0.01352157723158598,-0.014811509288847446
1782951238742579500,8.893579345703126,0.0077260443940758705,-0.03125476837158203,-0.003080284222960472
1782951238752505600,8.903505615234375,0.005761982407420874,-0.039824146777391434,0.0077881719917058945
1782951238762432300,8.913432373046875,-0.0026197845581918955,-0.028151512145996094,0.00836767628788948
1782951238772359400,8.923359375,-0.014019863680005074,-0.003680391004309058,0.008762194775044918
1782951238782286300,8.933286376953125,-0.028092272579669952,0.010576842352747917,0.00003874395042657852
1782951238792212500,8.94321240234375,-0.03836283087730408,0.016174720600247383,-0.009780085645616055
1782951238802139600,8.9531396484375,-0.04248753562569618,0.00437718303874135,-0.00514911487698555
1782951238812066300,8.96306640625,-0.04601806402206421,-0.004459818359464407,-0.004660585429519415
1782951238821993500,8.972993408203125,-0.04615148901939392,-0.0058984579518437386,-0.003741262014955282
1782951238831919400,8.98291943359375,-0.04136893153190613,-0.006200020667165518,-0.009125595912337303
1782951238841846500,8.992846435546875,-0.030207622796297073,-0.00012881215661764145,-0.011534159071743488
1782951238851773400,9.0027734375,-0.018374912440776825,0.0031379726715385914,-0.006408668588846922
1782951238861700600,9.01270068359375,-0.013692276552319527,-0.0025449469685554504,0.004996585194021463
1782951238871627300,9.022627197265624,-0.010951959528028965,-0.006821257062256336,0.013011750765144825
1782951238881553400,9.032553466796875,-0.010611341334879398,-0.003197227604687214,0.014178748242557049
1782951238891480300,9.042480224609376,-0.010412859730422497,0.010464595630764961,0.012821485288441181
1782951238901407500,9.052407470703125,-0.00850736815482378,0.019991787150502205,0.01431471947580576
1782951238911334400,9.06233447265625,-0.006834769155830145,0.02427867241203785,0.006594809703528881
1782951238921260300,9.07226025390625,-0.004433130379766226,0.012224139645695686,0.000007214373908936977
1782951238931187500,9.0821875,-0.00043294919305481017,-0.004496929235756397,-0.008410537615418434
1782951238941114400,9.0921142578125,0.007066778838634491,-0.012971640564501286,-0.018721232190728188
1782951238951041500,9.10204150390625,0.015587658621370792,-0.01737840287387371,-0.019737767055630684
1782951238960967400,9.111967529296875,0.021724114194512367,-0.021129466593265533,-0.014009041711688042
1782951238970894300,9.121894287109376,0.023101290687918663,-0.015783514827489853,-0.0013713629450649023
1782951238980821200,9.1318212890625,0.01735525391995907,-0.01709858328104019,0.014419318176805973
1782951238990748400,9.14174853515625,0.016601676121354103,-0.011862052604556084,0.033354513347148895
1782951239000674600,9.151674560546875,0.012439953163266182,0.0073113758116960526,0.04904639348387718
1782951239010601500,9.1616015625,0.011483041569590569,0.016616957262158394,0.052519477903842926
1782951239020528400,9.1715283203125,0.010721110738813877,0.023349961265921593,0.04015761986374855
1782951239030455300,9.181455322265625,0.006032559555023909,0.019057024270296097,0.02340109460055828
1782951239040381400,9.19138134765625,0.0017075857613235712,0.008467230014503002,0.002321109874173999
1782951239050308400,9.201308349609375,-0.0014838514616712928,0.0014814496971666813,-0.010532515123486519
1782951239060235500,9.211235595703124,-0.000284097419353202,-0.009099289774894714,-0.01842239685356617
1782951239070162400,9.221162353515625,0.0021578886080533266,-0.025378651916980743,-0.02218843623995781
1782951239080088300,9.23108837890625,0.00207160203717649,-0.030806707218289375,-0.021672049537301064
1782951239090015500,9.241015380859375,0.006886597257107496,-0.026338202878832817,-0.010001951828598976
1782951239099942400,9.2509423828125,-0.0022176853381097317,-0.019112247973680496,0.009127534925937653
1782951239109869600,9.26086962890625,-0.00015590392285957932,-0.005596463102847338,0.027630308642983437
1782951239119795200,9.270795166015626,0.0013985831756144762,0.008657041005790234,0.0416148342192173
1782951239129722400,9.280722412109375,0.0035976506769657135,0.019586069509387016,0.0454002320766449
1782951239139649300,9.290649169921876,-0.000639971112832427,0.02550627663731575,0.03872928023338318
1782951239149576400,9.300576416015625,-0.003044120967388153,0.02032020501792431,0.021670982241630554
1782951239159503400,9.31050341796875,-0.0029908576980233192,0.008732257410883904,0.0035806624218821526
1782951239169429500,9.320429443359375,-0.0037973388098180294,-0.003984407987445593,-0.009647411294281483
1782951239179356400,9.3303564453125,0.0011865010019391775,-0.013348348438739777,-0.013704204000532627
1782951239189283300,9.340283447265625,0.004690821282565594,-0.015738554298877716,-0.005837033968418837
1782951239199210500,9.35021044921875,0.0030875978991389275,-0.01997378095984459,-0.00038607593160122633
1782951239209136400,9.360136474609375,-0.0035528417211025953,-0.01134523469954729,0.00904821790754795
1782951239219063600,9.3700634765625,-0.00864187628030777,-0.0038028964772820473,0.008040211163461208
1782951239228990200,9.379990234375,-0.01764827035367489,-0.00472473818808794,0.0014627731870859861
1782951239238917400,9.38991748046875,-0.018772123381495476,0.00863101426512003,-0.01249991450458765
1782951239248843500,9.399843505859375,-0.015317450277507305,0.02549668774008751,-0.020376382395625114
1782951239258770400,9.4097705078125,-0.008750095032155514,0.02917185053229332,-0.022564435377717018
1782951239268697600,9.419697509765625,-0.008327871561050415,0.022462401539087296,-0.02014045976102352
1782951239278624500,9.42962451171875,-0.010869858786463737,0.008498650044202805,-0.00998635869473219
1782951239288550400,9.43955029296875,-0.013598722405731678,-0.008868005126714706,0.008524231612682343
1782951239298477300,9.449477294921875,-0.016544710844755173,-0.007582763209939003,0.02132711187005043
1782951239308404500,9.459404541015624,-0.016722705215215683,-0.007208812981843948,0.01764090731739998
1782951239318331400,9.469331298828125,-0.011691194958984852,0.0040214709006249905,0.00472484203055501
1782951239328257300,9.47925732421875,-0.009817643091082573,0.006430717650800943,-0.01996428705751896
1782951239338184400,9.489184326171875,-0.008877813816070557,-0.00030122045427560806,-0.029681095853447914
1782951239348111400,9.499111328125,-0.01002078503370285,-0.006990361958742142,-0.03183727711439133
1782951239358038500,9.50903857421875,-0.009830103255808353,-0.014364921487867832,-0.026639321818947792
1782951239367964400,9.51896435546875,-0.01275904756039381,-0.01266662310808897,-0.01368463970720768
1782951239377891600,9.5288916015625,-0.0067506893537938595,-0.019113603979349136,-0.0023462316021323204
1782951239387818200,9.538818359375,-0.005130308214575052,-0.022738590836524963,0.005398068577051163
1782951239397745400,9.548745361328125,-0.0014964251313358545,-0.014207685366272926,0.01862971857190132
1782951239407671600,9.558671630859376,-0.008041790686547756,0.0009850068017840385,0.026904597878456116
1782951239417598500,9.568598388671875,-0.014468264766037464,0.00920618511736393,0.03209349885582924
1782951239427525600,9.578525634765626,-0.007621923927217722,0.008310176432132721,0.02323213592171669
1782951239437452300,9.588452392578125,0.004495725035667419,0.017011789605021477,0.01504264771938324
1782951239447379500,9.59837939453125,0.009543633088469505,0.018458830192685127,0.012883390299975872
1782951239457305300,9.608305419921875,0.010644850321114063,0.011395061388611794,0.009251105599105358
1782951239467232500,9.618232421875,0.010599709115922451,0.00006145192310214043,0.012949108146131039
1782951239477159400,9.628159423828125,0.010683598928153515,-0.013756358996033669,0.017949724569916725
1782951239487086600,9.638086669921876,0.0028331901412457228,-0.01477295346558094,0.02393656224012375
1782951239497012500,9.648012451171875,-0.003745084162801504,-0.016255268827080727,0.02701570838689804
1782951239506939400,9.657939453125,-0.014731175266206264,-0.013210108503699303,0.017788013443350792
1782951239516866600,9.667866455078125,-0.024213360622525215,0.002712399233132601,0.00445116963237524
1782951239526793500,9.67779345703125,-0.026892157271504402,0.012344605289399624,-0.014431685209274292
1782951239536719400,9.68771923828125,-0.03289039805531502,0.00756609532982111,-0.030573369935154915
1782951239546646300,9.697646240234375,-0.019809214398264885,-0.004153677262365818,-0.03458568826317787
1782951239556573400,9.707573486328124,-0.012187513522803783,-0.012354615144431591,-0.02999759465456009
1782951239566500400,9.717500244140625,-0.005027910228818655,-0.018073270097374916,-0.011483114212751389
1782951239576426500,9.727426513671874,-0.0024755364283919334,-0.0201374851167202,0.005855928640812635
1782951239586353700,9.737353759765625,0.0006202360382303596,-0.017338648438453674,0.013162010349333286
1782951239596280300,9.7472802734375,-0.006673629395663738,-0.008555278182029724,0.01780043914914131
1782951239606207500,9.75720751953125,-0.015167782083153725,0.009683115407824516,0.014256037771701813
1782951239616133400,9.76713330078125,-0.02181742712855339,0.0317964069545269,0.0051850443705916405
1782951239626060500,9.777060546875,-0.015582987107336521,0.03747677803039551,0.003724329639226198
1782951239635987500,9.786987548828124,-0.017124425619840622,0.025533299893140793,0.006658866535872221
1782951239645914400,9.796914306640625,-0.016278263181447983,0.005850480403751135,0.003452837932854891
1782951239655840500,9.806840576171876,-0.008760158903896809,0.000028011389076709747,-0.005236257798969746
1782951239665767400,9.816767333984375,-0.009475884027779102,-0.00288709020242095,-0.017381807789206505
1782951239675694600,9.826694580078126,-0.0022765600588172674,-0.0022103809751570225,-0.03298979625105858
1782951239685621500,9.83662158203125,0.008452992886304855,0.004658522550016642,-0.0318799689412117
1782951239695547400,9.84654736328125,0.01641291379928589,0.010195767506957054,-0.013785652816295624
1782951239705474300,9.856474365234375,0.020684758201241493,-0.00037937331944704056,0.01412234641611576
1782951239715401500,9.8664013671875,0.022019268944859505,-0.005888388026505709,0.044901296496391296
1782951239725328400,9.876328369140625,0.01626320742070675,-0.012869907543063164,0.05980127304792404
1782951239735255600,9.886255615234376,0.00950170774012804,-0.004914246499538422,0.050203241407871246
1782951239745182200,9.89618212890625,0.006202526390552521,0.0023520011454820633,0.020455019548535347
1782951239755109400,9.906109375,0.0038426988758146763,0.015486178919672966,-0.00955347903072834
1782951239765036300,9.916036376953125,0.010467312298715115,0.017632953822612762,-0.031969573348760605
1782951239774963500,9.92596337890625,0.011938176117837429,-0.00034871045500040054,-0.0339706689119339
1782951239784889300,9.935889404296875,0.011496586725115776,-0.029407572001218796,-0.01879206858575344
1782951239794816300,9.945816162109375,0.010709090158343315,-0.042162515223026276,0.004469310864806175
1782951239804743200,9.9557431640625,0.010948831215500832,-0.03942698612809181,0.011532601900398731
1782951239814670300,9.96567041015625,0.012515568174421787,-0.024989457800984383,0.014754228293895721
1782951239824596200,9.97559619140625,0.010138622485101223,-0.00759134953841567,0.009672366082668304
1782951239834523100,9.985523193359375,0.004519619047641754,0.002431989647448063,0.01211102306842804
1782951239844450300,9.9954501953125,-0.004919899627566338,0.011653358116745949,0.020675262436270714
1782951239854377200,10.005377197265625,-0.009701073169708252,0.016520284116268158,0.03125573694705963
1782951239864303400,10.015303466796874,-0.011475994251668453,0.015217538923025131,0.038099680095911026
1782951239874230300,10.025230224609375,-0.010652810335159302,0.007858159020543098,0.03294513002038002
1782951239884157200,10.0351572265625,-0.00560026103630662,0.00008865306153893471,0.02138647623360157
1782951239894084000,10.045083984375,-0.00454857898876071,0.0073449681513011456,0.006003526039421558
1782951239904010200,10.05501025390625,-0.004193579312413931,0.005936155561357737,-0.0030075456015765667
1782951239913937400,10.0649375,-0.005274556577205658,0.003200822975486517,-0.01604398526251316
1782951239923864300,10.0748642578125,-0.0004556239873636514,0.002065062988549471,-0.027569526806473732
1782951239933791200,10.084791259765625,0.0022831708192825317,0.0022259182296693325,-0.03604210540652275
1782951239943717000,10.094717041015626,0.0018171375850215554,0.0002857046201825142,-0.04494335129857063
1782951239953644300,10.104644287109375,0.003751924028620124,-0.01066308282315731,-0.043204307556152344
1782951239963571200,10.1145712890625,0.003864327445626259,-0.019391456618905067,-0.022677890956401825
1782951239973498400,10.124498291015625,-0.0027672098949551582,-0.012442735955119133,0.011878488585352898
1782951239983424300,10.13442431640625,-0.015755217522382736,-0.008034984581172466,0.0364612452685833
1782951239993351200,10.14435107421875,-0.01831078715622425,0.00461076945066452,0.0417550764977932
1782951240003278300,10.1542783203125,-0.012400490231812,0.022108348086476326,0.027774633839726448
1782951240013205200,10.164205322265625,-0.007714125793427229,0.030606497079133987,0.0008673856500536203
1782951240023132400,10.17413232421875,-0.007730105426162481,0.02161673828959465,-0.026594456285238266
1782951240033058000,10.18405810546875,-0.004367598332464695,0.009144889190793037,-0.03992011770606041
1782951240042985200,10.193985107421875,-0.00972861796617508,0.008070485666394234,-0.04329037293791771
1782951240052912000,10.203912109375,-0.01658359356224537,0.012792803347110748,-0.027235768735408783
1782951240062839300,10.21383935546875,-0.02094040997326374,0.002783689182251692,-0.005588175728917122
1782951240072765400,10.223765380859374,-0.021674910560250282,-0.014080511406064034,-0.003678422886878252
1782951240082692000,10.233692138671875,-0.01385992206633091,-0.011800756677985191,-0.02184361405670643
1782951240092619300,10.243619384765625,-0.006903212983161211,-0.010423902422189713,-0.04897749423980713
1782951240102546200,10.253546142578125,-0.005683161783963442,-0.01848217472434044,-0.07387521117925644
1782951240112472300,10.263472412109374,-0.0039270734414458275,-0.007145363837480545,-0.07488694787025452
1782951240122399200,10.273399169921875,-0.007050409913063049,0.033177442848682404,-0.05005006492137909
1782951240132326400,10.283326416015624,-0.00046121663763187826,0.04117891192436218,-0.011771122924983501
1782951240142253000,10.293253173828125,-0.0019776395056396723,0.0253225639462471,0.014747864566743374
1782951240152179200,10.30317919921875,0.005278675816953182,0.008022936061024666,0.01596865803003311
1782951240162106400,10.3131064453125,0.026937860995531082,0.01295480690896511,-0.015139934606850147
1782951240172033300,10.323033203125,0.032729968428611755,0.0065813311375677586,-0.04395214095711708
1782951240181960400,10.33296044921875,0.02756691724061966,-0.009325312450528145,-0.04612690955400467
1782951240191886000,10.342885986328126,0.009333319030702114,-0.01699415221810341,-0.02627783641219139
1782951240201813200,10.352813232421875,-0.0006499968003481627,-0.00421303603798151,-0.0005299774929881096
1782951240211740200,10.362740234375,-0.005533435381948948,0.019625451415777206,0.016445010900497437
1782951240221667300,10.372667236328125,-0.009365095756947994,0.035299453884363174,0.010507486760616302
1782951240231593500,10.382593505859376,-0.009496389888226986,0.03382086753845215,0.0005696351872757077
1782951240241520000,10.39252001953125,-0.020646989345550537,0.019964629784226418,-0.016728481277823448
1782951240251447300,10.402447265625,-0.021176425740122795,0.010987114161252975,-0.019888853654265404
1782951240261374200,10.412374267578125,-0.02685694769024849,0.0038136118091642857,-0.021470114588737488
1782951240271300400,10.42230029296875,-0.02926311269402504,0.004546246957033873,-0.027052100747823715
1782951240281227300,10.432227294921875,-0.01614871807396412,0.006967519875615835,-0.02955535426735878
1782951240291154200,10.442154296875,-0.01142906490713358,0.004328326787799597,-0.008405327796936035
1782951240301081000,10.4520810546875,-0.018312688916921616,0.02145044133067131,0.012018154375255108
1782951240311008300,10.46200830078125,-0.009176981635391712,0.04003771021962166,0.024131542071700096
1782951240320934400,10.471934326171874,-0.0028054257854819298,0.04387432336807251,0.018141772598028183
1782951240330861300,10.481861328125,0.004266598727554083,0.029296716675162315,0.011555509641766548
1782951240340788500,10.49178857421875,0.0030419626273214817,0.008387062698602676,-0.005487747490406036
1782951240350715100,10.501715087890625,0.01327595766633749,0.0019896174781024456,-0.023251032456755638
1782951240360641300,10.511641357421874,0.018443670123815536,0.010446328669786453,-0.029632408171892166
1782951240370568200,10.521568115234375,0.019083894789218903,-0.0002984609454870224,-0.025002501904964447
1782951240380495400,10.531495361328124,0.02134971134364605,-0.021198948845267296,-0.020055148750543594
1782951240390422300,10.54142236328125,0.027588432654738426,-0.03055010549724102,-0.017103832215070724
1782951240400348200,10.55134814453125,0.025088656693696976,-0.011995045468211174,-0.02139703929424286
1782951240410275300,10.561275390625,0.021653711795806885,0.008262021467089653,-0.022895334288477898
1782951240420202200,10.5712021484375,0.020553121343255043,0.007949844934046268,-0.005158697254955769
1782951240430129400,10.58112939453125,0.004966439213603735,0.014760347083210945,0.012289002537727356
1782951240440055300,10.59105517578125,-0.006724209990352392,0.030743267387151718,0.008852045983076096
1782951240449982200,10.600982177734375,0.006165755912661552,0.0583309531211853,-0.014488163404166698
1782951240459909000,10.6109091796875,0.019157227128744125,0.08500280976295471,-0.021129081025719643
1782951240469836300,10.620836181640625,0.012892140075564384,0.08681109547615051,-0.007985582575201988
1782951240479762400,10.630762451171876,0.014939996413886547,0.06389688700437546,0.004341301508247852
1782951240489689300,10.640689453125,0.02467784471809864,0.048715800046920776,0.04291798919439316
1782951240499616300,10.6506162109375,0.025991352275013924,-0.011588236317038536,0.062432654201984406
1782951240509543200,10.660543212890625,0.03750446438789368,-0.04272298514842987,0.0608198419213295
1782951240519469300,10.67046923828125,0.04690029099583626,-0.027739068493247032,0.04699067398905754
1782951240529396200,10.680396240234375,0.05840328335762024,-0.03573068231344223,0.03397846594452858
1782951240539323400,10.690323486328126,0.06511929631233215,-0.044186823070049286,0.015289261005818844
1782951240549250300,10.700250244140625,0.06404151767492294,-0.04280970245599747,-0.009337522089481354
1782951240559176200,10.71017626953125,0.0602850504219532,-0.008491748943924904,-0.055081725120544434
1782951240569103400,10.720103271484374,0.0527629517018795,0.040244098752737045,-0.09756500273942947
1782951240579030300,10.7300302734375,0.04046459123492241,0.0445268377661705,-0.14027643203735352
1782951240588957200,10.739957275390625,0.016109447926282883,0.05047820508480072,-0.1856740117073059
1782951240598883000,10.749883056640625,-0.023029794916510582,0.058597687631845474,-0.2034163624048233
1782951240608810200,10.759810302734374,-0.01723608747124672,0.10130973160266876,-0.19338209927082062
1782951240618737200,10.769737060546875,-0.017904046922922134,0.11543350666761398,-0.14164109528064728
1782951240628664300,10.779664306640624,-0.02600005641579628,0.026866091415286064,-0.07384339720010757
1782951240638591200,10.78959130859375,-0.02367357537150383,-0.0648866668343544,-0.01526536326855421
