time,seconds_elapsed,z,y,x
1782969326476237600,0.077237548828125,5.688726020383834,1.5311111047618091,-0.045611466894950714
1782969326486163700,0.087163818359375,6.093764034101366,1.562171575066447,-0.0008088504311628639
1782969326496089300,0.09708935546875,6.6688108239561315,1.6972982767842708,-0.02419441132689826
1782969326506015500,0.107015380859375,7.220196752238273,1.6274828361496327,-0.13377920523216016
1782969326515941600,0.116941650390625,7.7794538522869345,1.58545527388975,-0.1632370900452137
1782969326525868300,0.126868408203125,8.634227684104442,1.9049504087477922,0.02778627093955874
1782969326535794400,0.13679443359375,10.06364790828228,2.25064279178828,0.3742309336520731
1782969326545720600,0.146720458984375,11.996058570885658,2.300517122025788,0.7109406765528022
1782969326555646500,0.156646484375,13.62812201282382,2.1299485200487074,0.9367988387491554
1782969326565573400,0.166573486328125,14.504391637134551,2.0859141480110583,1.2368220150917768
1782969326575499500,0.17649951171875,14.744377620339392,2.1176989870674907,1.4151010453157127
1782969326585425700,0.18642578125,14.338139583182334,2.223262032909691,1.3067428157970309
1782969326595351600,0.1963515625,13.400847042632103,2.361731761445105,1.001696623660624
1782969326605277400,0.20627734375,12.03363514508605,2.3132710973978043,0.570937527905032
1782969326615204600,0.21620458984375,10.141085368227959,2.1466073939047754,0.02607252582423389
1782969326625130500,0.226130615234375,7.498936536729335,1.9705679593011736,-0.6887509104460477
1782969326635056400,0.236056396484375,4.7611803823441265,1.7308309824213384,-1.4957069061644375
1782969326644982500,0.245982421875,3.431332877552509,1.176428921188414,-2.225162459703535
1782969326654909700,0.25590966796875,3.622918110203743,0.6948182476609945,-2.0647871888302265
1782969326664835300,0.26583544921875,3.9680145731776952,0.2826496514111757,-1.5637817867420614
1782969326674761500,0.275761474609375,2.805306426566839,-0.6437874408647417,-1.2000101416535676
1782969326684687600,0.2856875,-1.3827555036365986,-1.5785492938935757,-1.3342755503669381
1782969326694613500,0.295613525390625,-8.77244899083674,-1.5341880279891191,-2.1559344635680318
1782969326704540400,0.30554052734375,-18.36612785580754,-1.1403526685483754,-2.4778157629102466
1782969326714466600,0.315466552734375,-29.021044205427167,-0.6227192991990596,-2.7937571508094665
1782969326724392400,0.325392333984375,-37.632244065165516,0.17031002410613,-3.905576237182319
1782969326734318600,0.335318603515625,-41.97197305912971,0.44139483686462044,-5.769579426252841
1782969326744246500,0.34524658203125,-41.15117339310646,-0.47659956736713643,-7.870072865366935
1782969326754172700,0.355172607421875,-36.143897020244594,-2.3649369872272015,-10.011344889593124
1782969326764098300,0.365098388671875,-28.704817863106726,-4.003647904355824,-11.772218251317739
1782969326774024400,0.3750244140625,-21.3705013952136,-5.023049111533164,-11.882684705162047
1782969326783950600,0.38495068359375,-16.13232250931263,-4.787413432492316,-10.646862807023524
1782969326793877200,0.394877197265625,-11.817526881074905,-3.532401680715382,-8.266375199443102
1782969326803803400,0.404803466796875,-7.580907548451423,-2.07962162373811,-5.551397278577089
1782969326813729500,0.4147294921875,-4.156472613719106,-0.6185065768748521,-3.185030843068659
1782969326823655400,0.424655517578125,-1.2521826658308506,0.6899231690958142,-1.2809747528120874
1782969326833582300,0.434582275390625,1.4559686238855123,1.8143460087150334,0.11129881301522254
1782969326843508500,0.444508544921875,3.84825305224359,2.6201684703588484,0.93407430915609
1782969326853434600,0.4544345703125,5.797181134405732,3.2427938807293772,1.3608951156146825
1782969326863360500,0.464360595703125,7.357400406360626,3.657431789702177,1.4810095416396856
1782969326873286400,0.474286376953125,8.589196117722988,3.999454836580157,1.003701533742249
1782969326883213600,0.484213623046875,9.60060194223225,4.240616293305158,0.12648761431872843
1782969326893139500,0.494139404296875,10.435955618786812,4.521126886861026,-0.9473326538536697
1782969326903065300,0.5040654296875,11.374101561295985,5.0191865908861155,-1.7703842635221778
1782969326912991500,0.513991455078125,12.668392015016078,5.881681372344493,-2.0287971531689166
1782969326922918700,0.523918701171875,14.151502912849187,6.472150772258639,-2.1327026410624383
1782969326932844300,0.53384423828125,16.470309432542322,6.356451678457856,-1.6986346399545669
1782969326942770400,0.5437705078125,20.11921772404909,5.935804592198133,-1.251085518243909
1782969326952696600,0.553696533203125,24.27948680744171,5.4103240895450115,-0.6002785540059209
1782969326962622500,0.56362255859375,27.918675668966767,5.312209752273559,-0.8858770452853292
1782969326972549400,0.57354931640625,29.900059913575646,3.9618388071522115,-0.03712766138911247
1782969326982475500,0.5834755859375,27.57025152287483,3.90797014658153,-1.0343278504133224
1782969326992401400,0.5934013671875,23.395049074244497,4.617862921516597,-2.430731063391268
1782969327002327600,0.60332763671875,19.45223499329686,5.371332972371578,-1.7032104234375058
1782969327012254500,0.61325439453125,14.140734850597381,6.404317591482401,1.1588514711827038
1782969327022180600,0.6231806640625,14.830496399390697,6.988356666088104,1.1608264975827187
1782969327032106500,0.6331064453125,12.55135904226303,6.3850330452978605,2.212459191605449
1782969327042032400,0.643032470703125,11.45524138289094,5.684270794540644,1.8147518130369484
1782969327051958500,0.65295849609375,10.923407127296924,4.696292899630963,1.1200126950267701
1782969327061885400,0.662885498046875,10.409484960490465,3.51182504889369,0.2004896016567014
1782969327071811300,0.672811279296875,9.782468913945555,2.341643205401301,-0.94200042598024
1782969327081737500,0.682737548828125,8.906312102359532,0.8186400037713348,-2.103878113116324
1782969327091663400,0.692663330078125,6.386621191272139,-0.8005868990778923,-3.3605870241999622
1782969327101590300,0.70259033203125,1.8719687611222267,-2.699389306589961,-1.8642293990418315
1782969327111516400,0.712516357421875,-5.78948239659667,-2.116106311048567,-1.163700372518599
1782969327121442600,0.722442626953125,-15.387758526229858,-0.758309965166822,-0.8320064119532704
1782969327131368400,0.732368408203125,-25.310524968659877,-1.2157528505127877,-0.7800431466124952
1782969327141294600,0.742294677734375,-34.23268813562393,-2.1825950914785266,-1.8684129683367907
1782969327151221500,0.752221435546875,-41.175512884593005,-3.2091359412774443,-4.634280680093169
1782969327161147400,0.7621474609375,-45.66858301301002,-3.849451906639337,-6.8913494132757185
1782969327171073500,0.772073486328125,-46.384093920087814,-3.102719347345829,-8.90592514886856
1782969327180999400,0.78199951171875,-43.047137946844096,-2.222599331217259,-10.343499453407526
1782969327190926600,0.791926513671875,-36.00373802344799,-2.3898094165466723,-10.390942757105826
1782969327200852500,0.8018525390625,-27.35131768004894,-2.056636615600437,-10.469981807029246
1782969327210778400,0.8117783203125,-18.992656995618344,-1.61376176931113,-9.798967044281959
1782969327220704500,0.82170458984375,-12.313649187296628,-1.1892596150584518,-8.521393916606902
1782969327230630400,0.83163037109375,-7.951812406420707,-0.2613274619191885,-7.082246079140901
1782969327240557300,0.841557373046875,-5.119408714091778,1.0452126709125935,-5.235439816325902
1782969327250483500,0.8514833984375,-2.9060587111264464,2.313100855397433,-3.3160400264650582
1782969327260409300,0.861409423828125,-0.9838719208955764,3.3667619134426117,-1.819525311049074
1782969327270335500,0.87133544921875,0.8430582595825195,4.033792867250741,-0.7943425978608429
1782969327280262400,0.881262451171875,2.6558178758889435,4.448055220909416,-0.14170739528238774
1782969327290188500,0.8911884765625,4.36709806240499,4.732285419510305,0.2664931741192937
1782969327300114400,0.901114501953125,5.975974690023064,4.878947806851565,0.5030995248232036
1782969327310040600,0.91104052734375,7.380352827402949,5.066262814837694,0.6716772452440113
1782969327319966500,0.920966552734375,8.632885621845722,5.183661113771796,0.6666681118451059
1782969327329893400,0.930893310546875,9.844777193820477,5.268838228058815,0.5716953605350107
1782969327339819500,0.940819580078125,10.958165136945247,5.3237523060292,0.5849122041784226
1782969327349745400,0.950745361328125,12.11498539456129,5.29001487160027,0.5473417309252545
1782969327359671300,0.96067138671875,13.321873459160328,5.196223073703051,0.6736258950937539
1782969327369598500,0.970598388671875,14.523736973595618,4.9669209815979,0.8201740084055811
1782969327379524400,0.9805244140625,15.546099660927057,4.797259411463141,0.8025308727525174
1782969327389450500,0.990450439453125,16.259074912047385,4.7421065563008185,0.8443105246659368
1782969327399376400,1.00037646484375,16.595801606082915,4.63285240085572,0.8332419450975954
1782969327409302500,1.010302490234375,16.54517616521716,4.6039653290674085,0.7576426603645086
1782969327419229400,1.0202294921875,16.13933209581375,4.4801565785691135,0.7314637515563518
1782969327429155300,1.0301552734375,15.694450147485732,4.250746057653427,0.6484376778233796
1782969327439081500,1.04008154296875,15.327608885693548,3.8956656685426827,0.5014285228710621
1782969327449007600,1.050007568359375,15.094735364842414,3.408220297512412,0.47715917401127517
1782969327458934500,1.0599345703125,14.980052170085907,2.9122882531657814,0.4669806020852178
1782969327468860400,1.0698603515625,14.528063604623078,2.4465043865844605,0.34034302136916667
1782969327478786600,1.07978662109375,14.000167857521772,1.9368594587057828,0.46341783156972377
1782969327488712400,1.08971240234375,13.689021010422707,1.7695049964696168,0.6151522980108857
1782969327498638300,1.099638427734375,13.32496441091299,1.824455314797163,0.8927771069973707
1782969327508565500,1.1095654296875,12.623738049775362,1.7782548507668077,1.1764752445481717
1782969327518491400,1.119491455078125,11.470557025444506,1.4125176046937704,0.809639974105358
1782969327528417300,1.129417236328125,9.813132347756623,0.5419610973328352,-0.25208237145096063
1782969327538343400,1.139343505859375,8.351372865509987,-0.862992209586501,-0.8347380288742482
1782969327548269600,1.14926953125,7.289388361886143,-1.8115395729921757,-0.998352573929727
1782969327558196500,1.159196533203125,5.374605125910043,-2.696487155407667,-1.2877061068937181
1782969327568122400,1.169122314453125,1.0701689791232347,-3.783379305794835,-1.0351023419171572
1782969327578048500,1.179048583984375,-5.7517485860079525,-3.659162266756594,-0.8648698400266468
1782969327587974700,1.188974609375,-15.60271528211832,-1.784174011682719,-1.1892299505725503
1782969327597901600,1.198901611328125,-26.6070295912981,-0.6829291454900056,-1.8579349750727414
1782969327607827500,1.208827392578125,-36.65841890650987,-1.4481670102238655,-4.6392210591048
1782969327617753600,1.218753662109375,-45.47289443669319,-2.2189090983971953,-10.274942050009965
1782969327627679200,1.22867919921875,-49.4649217536211,-2.3779199490495024,-16.06467462197542
1782969327637605400,1.23860546875,-46.1402126830101,-3.029995471918583,-19.72599815841913
1782969327647532500,1.248532470703125,-36.76815938416719,-3.8011014249682424,-20.21539495577812
1782969327657458400,1.25845849609375,-25.14136199569702,-3.744682203131914,-17.307451161557434
1782969327667384300,1.26838427734375,-14.827384404850005,-2.6756422280386087,-13.008256422555446
1782969327677310500,1.278310546875,-8.272175994676351,-1.3008166406184434,-8.95568199020624
1782969327687237400,1.2882373046875,-5.155986340382695,0.08348726150393486,-5.7112523249685765
1782969327697163500,1.29816357421875,-3.137534640139341,1.2706538498058915,-3.0536420127049086
1782969327707089400,1.30808935546875,-1.0327198306947947,2.305112779252976,-0.9043839581608771
1782969327717015600,1.318015625,1.0405863262861967,3.1918989752724767,0.7046405534952879
1782969327726941400,1.32794140625,2.9048224473297592,3.698206283161044,1.7779947385258972
1782969327736868400,1.337868408203125,4.374985600784421,3.862718799969554,2.147277548251301
1782969327746794500,1.34779443359375,5.530938427916169,3.952460445693135,1.9984603209637104
1782969327756720600,1.357720703125,6.470344015097618,4.114009728781879,1.8580486645802854
1782969327766646500,1.367646484375,7.353509244140982,4.171021948075294,1.7475933166518807
1782969327776573400,1.377573486328125,8.315077563291787,4.067154746365547,1.4497279759302735
1782969327786499600,1.38749951171875,9.320543476358056,3.947100964486599,1.252015784831345
1782969327796425500,1.397425537109375,10.20691656153202,3.8600004809215664,1.0866754388965665
1782969327806351400,1.407351318359375,10.944868432998657,3.6673791832208633,1.1812994498342275
1782969327816277500,1.417277587890625,11.571694509929419,3.5953356912732124,1.4869313329041003
1782969327826204400,1.427204345703125,12.097378426200152,3.641024552519619,1.7893216037042439
1782969327836130600,1.437130615234375,12.522588874852657,3.6255171867862344,1.9316421624489128
1782969327846056400,1.447056396484375,12.84433310381174,3.636194940406084,2.0343930734798312
1782969327855982600,1.456982666015625,13.013031966394186,3.6800624314442274,2.1676301620587703
1782969327865908700,1.46690869140625,13.068589602965115,3.7162279698029157,2.180633289886266
1782969327875835400,1.47683544921875,13.03249303818941,3.6819714799359438,1.964244893759489
1782969327885761500,1.486761474609375,13.110409806084633,3.483877888303995,1.7677619521945713
1782969327895687700,1.496687744140625,13.384358849167823,3.248870278033614,1.7477692577406763
1782969327905613300,1.50661328125,13.854100513464212,2.882668775449693,1.7820479594394563
1782969327915540500,1.51654052734375,14.501740245842933,2.557764913415909,1.8143790342018007
1782969327925466600,1.526466552734375,14.836201333034039,2.4378788893193004,1.559580243398994
1782969327935392500,1.536392578125,14.632224236321449,2.2205980743974445,1.2365398371495306
1782969327945318400,1.546318359375,14.211817388558387,1.3727509731031953,1.384207748271525
1782969327955244500,1.55624462890625,13.671300644814968,1.4036357945799827,0.7484862710930407
1782969327965171500,1.56617138671875,12.957823873913288,1.5733863581724463,0.7621529043305665
1782969327975097300,1.576097412109375,12.103044781398772,1.5647241821587086,0.9559267330672592
1782969327985023500,1.5860234375,11.422973436492681,1.3172235855400563,0.8299925879128277
1782969327994949600,1.59594970703125,10.544190368056297,0.9399696508049964,0.3045309726232663
1782969328004876500,1.60587646484375,9.185845667576789,0.3888464651122689,-0.022797084350138903
1782969328014802400,1.615802490234375,6.93705668696165,-0.21702698629125952,0.11558481977134942
1782969328024728600,1.625728515625,2.5752222441732884,-0.594025777221471,0.0115831780269742
1782969328034654700,1.63565478515625,-5.2235471339583395,-0.5177322996791451,-0.7291358200654388
1782969328044580400,1.645580322265625,-16.865965285408496,-0.09456398784611374,-2.234996602106094
1782969328054507500,1.655507568359375,-31.107368833935258,0.7996268218740821,-5.722627120941877
1782969328064433700,1.66543359375,-43.7407596781969,1.8085053198628127,-11.285179415261744
1782969328074359300,1.675359375,-48.83377372183799,1.1733788129027931,-16.591561484295127
1782969328084285400,1.685285400390625,-45.358758354425426,-0.9972683588895946,-20.991008741641043
1782969328094212600,1.695212646484375,-37.14587275310755,-3.97268665664196,-22.73060199944973
1782969328104138500,1.705138427734375,-28.11043158200979,-4.98808885731101,-21.71271791883707
1782969328114064400,1.715064453125,-19.032319143921136,-4.570092870081961,-17.72166090824604
1782969328123990500,1.724990478515625,-11.892537406134604,-3.231506470778584,-12.272635624384879
1782969328133916700,1.734916748046875,-7.7303902539104214,-1.5838988382279873,-7.42891665956378
1782969328143843300,1.74484326171875,-5.728786812615394,0.0482330658365041,-3.7636929008111357
1782969328153769500,1.75476953125,-4.373913587638736,1.5248783478520809,-0.9662053313016891
1782969328163695600,1.764695556640625,-2.7586504738539457,2.5853373954743146,1.3409773860931395
1782969328173621500,1.77462158203125,-1.1307634408175944,3.2126056632146236,2.8919483527094125
1782969328183547400,1.78454736328125,0.4157932164877653,3.4778213647440075,3.580309971576929
1782969328193474600,1.794474609375,2.09447637078166,3.520097787198424,3.6055627785161137
1782969328203400700,1.804400634765625,3.7757407737404107,3.3758447990864515,3.0306466293036936
1782969328213326300,1.814326416015625,5.358231498736143,3.0728052705973385,1.9654365877620874
1782969328223252500,1.82425244140625,6.998729007020592,2.88415784496367,0.9027880672715604
1782969328233179600,1.8341796875,8.530643390989303,2.8256980572104453,0.2028001618877053
1782969328243105500,1.84410546875,9.67561422085762,2.704432269193232,-0.6499450867116451
1782969328253031400,1.854031494140625,10.467388867926598,2.546346570561826,-1.1217900068975983
1782969328262957600,1.86395751953125,11.1983545337677,2.614253401096165,-0.8507641577847301
1782969328272883500,1.873883544921875,11.90772796100378,2.973953851222992,-0.2752233738679439
1782969328282810400,1.883810302734375,12.36405718601942,3.3162109991177915,0.22142427140213547
1782969328292736500,1.893736572265625,12.696159142863749,3.4875635910794136,0.667697162631899
1782969328302662700,1.90366259765625,13.192981706309318,3.5864375145465135,0.9664283994678408
1782969328312588500,1.913588623046875,13.792790012454986,3.5709441773384807,1.088181459545344
1782969328322515500,1.923515380859375,14.500068513238428,3.4289138337120413,1.143161150097847
1782969328332441600,1.933441650390625,15.434653548395632,3.3224344036772844,1.303918259895593
1782969328342367500,1.943367431640625,16.42281352187395,3.304654416836798,1.442657453022152
1782969328352293400,1.95329345703125,16.970536251473426,3.261849002072215,1.6923380240283905
1782969328362219500,1.963219482421875,16.716481995427607,3.1762182987987995,1.977431561460346
1782969328372146700,1.973146728515625,15.919575246167183,2.9458573452904817,1.9653052164673803
1782969328382072600,1.983072509765625,14.88025090264082,2.7542662674203515,1.6583040908709168
1782969328391998500,1.99299853515625,14.190367773294447,2.4142510532334445,1.425724292269349
1782969328401924600,2.002924560546875,13.751027092480658,1.8129355573952197,1.1063414586793632
1782969328411850500,2.0128505859375,13.518387380385398,1.331894646579772,0.7044234036132693
1782969328421777400,2.02277734375,12.981314639616011,1.4150745957002042,0.5351736291497945
1782969328431703600,2.03270361328125,12.339731723058224,1.2876320187442003,0.682988912853226
1782969328441629400,2.04262939453125,11.33104801698923,0.8619919465027749,0.6887050254777074
1782969328451555600,2.0525556640625,9.747204123818873,0.1787378799073398,0.7051151122044772
1782969328461482500,2.062482421875,7.09539606809318,-0.4392170544341206,0.7866571579247713
1782969328471408600,2.07240869140625,3.516017239886522,-0.7818192163743078,1.014020317856595
1782969328481334500,2.08233447265625,-0.8245119645446538,-0.964626683808118,1.6886852006092667
1782969328491260400,2.092260498046875,-5.486234778314828,-1.2149500827625392,2.44192670340538
1782969328501186600,2.1021865234375,-10.541457143700121,-1.8433944085448979,2.033818488462269
1782969328511113500,2.112113525390625,-17.995512920695543,-2.9538661719620225,0.2613761233665049
1782969328521039400,2.122039306640625,-29.290020136272904,-3.4261715492665767,-2.5502827409669755
1782969328530965500,2.131965576171875,-40.904734288239474,-2.648407015110552,-6.616626463210582
1782969328540891400,2.141891357421875,-47.37567685375213,-1.793241699757427,-10.535684405517577
1782969328550818600,2.151818603515625,-47.766548979473114,-0.9865627674147486,-13.920524411964415
1782969328560744400,2.161744384765625,-42.348377099037165,-0.2245332702681422,-17.000224118250607
1782969328570670600,2.171670654296875,-31.855229520475863,-1.2658368049129842,-16.813057871085405
1782969328580596500,2.181596435546875,-20.207520276880263,-2.474723642113805,-14.189164827245474
1782969328590522600,2.191522705078125,-11.493186205881834,-2.470467153713107,-10.877457861548661
1782969328600449500,2.201449462890625,-6.612885523116589,-1.5825073838695882,-7.46569302329719
1782969328610375400,2.21137548828125,-3.819056768375635,-0.31687004705145955,-4.281702336931229
1782969328620301600,2.221301513671875,-1.7372259441554545,0.8948622427083551,-1.7330417903386055
1782969328630227500,2.2312275390625,-0.1722422342777252,1.749157204967737,0.20875848577022552
1782969328640153300,2.2411533203125,0.9487795647263526,2.4038299047231675,1.366377054157108
1782969328650080500,2.25108056640625,1.96608906032145,2.907491958799958,1.8023830375902354
1782969328660006400,2.26100634765625,2.9067344184309243,3.186150494748354,1.790819587177038
1782969328669932500,2.2709326171875,3.6278140655517577,3.459948146662116,1.6512173474803566
1782969328679858400,2.2808583984375,4.1688060255914925,3.8821079755723473,1.6210025342196226
1782969328689785600,2.29078564453125,4.7996951141774655,4.2196112069383265,1.603688995847106
1782969328699711500,2.30071142578125,5.548773359814286,4.387680831706524,1.4482389064162968
1782969328709637400,2.310637451171875,6.412364704337715,4.40971321529448,1.1877378123186528
1782969328719563500,2.3205634765625,7.433649533304572,4.420667740029097,0.8732001537375151
1782969328729489700,2.33048974609375,8.443997957715391,4.2986017415449025,0.46583588902950285
1782969328739415800,2.340415771484375,9.477835978785157,4.105276971749961,0.21259923297688363
1782969328749342000,2.350342041015625,10.629294417107104,4.157622660537064,0.3409799675658345
1782969328759267800,2.360267822265625,12.108817519581317,4.301930009184778,0.6456826800268143
1782969328769194000,2.370194091796875,13.884246645402907,4.367441176754236,0.842156634567678
1782969328779121000,2.380120849609375,15.618948624038696,4.2249741952762,1.0932083477966488
1782969328789046800,2.390046875,16.656320664453506,4.338465842160582,0.782640323498845
1782969328798973000,2.399972900390625,17.569975139784813,3.778994807100296,1.129610252194479
1782969328808898800,2.40989892578125,17.9623541629374,3.4094887100130316,1.512991656833887
1782969328818824700,2.41982470703125,17.557227886414527,3.7252535723015665,1.0490038798891008
1782969328828752000,2.429751953125,16.712067686116693,3.58079278665781,0.6450795265018939
1782969328838677800,2.439677734375,15.942140129196643,3.263902719731629,0.8638902544047683
1782969328848604000,2.44960400390625,15.650658936554192,3.258458190590143,1.09294955072999
1782969328858529800,2.45952978515625,15.573972002714871,3.2661227338686585,1.2262458221502601
1782969328868456000,2.4694560546875,15.175511613821982,3.466948673073947,1.297669282503426
1782969328878382800,2.4793828125,14.222362163448333,3.658447688746452,1.2869320537813007
1782969328888308700,2.489308837890625,12.600564094936846,3.65923562425375,1.3076938329115508
1782969328898235000,2.49923486328125,10.902412270063161,3.4246535459190603,1.5157809952914714
1782969328908161000,2.5091611328125,9.384025476187468,3.216427851851284,1.54360043784827
1782969328918088000,2.519087890625,8.360994680336118,2.4718895877316593,0.8524524031326174
1782969328928013800,2.529013916015625,7.236642275604606,1.2925991396322845,-0.23290099337995052
1782969328937940000,2.53893994140625,5.071988791269064,-0.05149798591658473,-1.7857373154766856
1782969328947865900,2.548865966796875,1.6820780574291943,-1.614478831539303,-1.635898343925923
1782969328957791700,2.558791748046875,-3.525120583796501,-2.2465150443337856,-1.264260203246027
1782969328967719000,2.568718994140625,-10.305957950520515,-1.3094681491076945,-2.188847137610614
1782969328977644800,2.578644775390625,-19.4887150044322,-1.2023793550029396,-2.5633757390350103
1782969328987571000,2.588571044921875,-30.991675585353374,-1.3323235395163298,-4.786615267851948
1782969328997496800,2.598496826171875,-39.59339450004101,-1.4575325122013687,-9.232680483987927
1782969329007423000,2.608423095703125,-42.026768479156495,-2.5146464871793985,-13.262314185732603
1782969329017350000,2.618349853515625,-39.08839330631494,-4.098879964189231,-16.327538791942594
1782969329027275800,2.62827587890625,-32.57258050246239,-5.510502958130836,-16.969322784030435
1782969329037202000,2.638201904296875,-25.241018301713464,-5.4232087055593725,-15.73253759381771
1782969329047128000,2.648128173828125,-18.600456836163996,-4.363351861613989,-13.086961125957965
1782969329057055000,2.658054931640625,-13.089970244646072,-2.8431489582270384,-9.591495675712823
1782969329066980900,2.66798095703125,-8.994463264021277,-1.30758818057999,-6.127940444469451
1782969329076907000,2.677906982421875,-6.4159109986424445,-0.11835954518169164,-3.4496427334859967
1782969329086833000,2.6878330078125,-4.814642507940531,0.8524591251343488,-1.5705461663104592
1782969329096758800,2.6977587890625,-3.4342543179571625,1.642665499973297,-0.2653171160772443
1782969329106686000,2.70768603515625,-2.122346959003806,2.0368835751213132,0.5262139314942061
1782969329116611800,2.71761181640625,-0.8908668894618749,2.1451034190826115,0.8651810979329049
1782969329126537700,2.727537841796875,0.19877952806949614,2.0470517717838286,0.8041758634805679
1782969329136464000,2.7374638671875,1.1970973229467867,1.836213118738681,0.4400876997888088
1782969329146391000,2.74739111328125,2.2390356483638287,1.6171090339124201,0.1061428915567696
1782969329156317000,2.75731689453125,3.426269164422154,1.5512470070786772,-0.06214271404966712
1782969329166242800,2.767242919921875,4.563097604367137,1.538818902660161,-0.1754002599172294
1782969329176169000,2.7771689453125,5.649948253700137,1.5725348559096455,-0.1885273063853383
1782969329186095000,2.78709521484375,6.686070586314797,1.75304953623116,-0.07984101395606995
1782969329196021800,2.797021728515625,7.652720738774538,2.01601117522344,0.2079104906387627
1782969329205948000,2.806947998046875,8.477614396113157,2.4694994777247308,0.7430443723000586
1782969329215874000,2.8168740234375,9.018204789614677,2.994824789816141,1.3488186011128127
1782969329225799700,2.826799560546875,9.632036360415816,3.3555271104618907,1.7846030507497488
1782969329235725800,2.836725830078125,10.511402197176217,3.566960660660267,1.9829634766243398
1782969329245653000,2.846653076171875,11.577349174690246,3.557961069385707,2.0003639626279472
1782969329255579000,2.856578857421875,12.819811241495609,3.3158737299874423,1.8739079124912619
1782969329265504800,2.8665048828125,14.089367066931723,3.027988516010344,1.5885725291274486
1782969329275431000,2.876430908203125,14.972951398169993,2.59763632055521,1.065070998397097
1782969329285358000,2.886358154296875,15.421097316730021,2.01791320945248,0.7793922814883292
1782969329295283700,2.89628369140625,15.552364566540717,1.9339324653431773,0.8306039247442036
1782969329305209900,2.9062099609375,15.014095893985033,2.1773342483408746,1.1264275305051357
1782969329315136000,2.916135986328125,13.918700703668593,2.5015064350992438,1.51324709289968
1782969329325062000,2.926061767578125,12.910717254823446,2.7193103971123693,1.8126865510702133
1782969329334988800,2.93598876953125,12.250359495168924,2.7193495600789785,1.924524293267727
1782969329344915000,2.9459150390625,11.857618068444728,2.728472485472262,1.916656190241128
1782969329354841000,2.955841064453125,11.519355250883102,2.5447654388502237,1.8872760742388666
1782969329364766700,2.9657666015625,11.189985349351167,2.018565389750898,1.724638265261054
1782969329374692900,2.97569287109375,11.013665490370988,1.5189268921017647,1.5443407348215579
1782969329384620000,2.9856201171875,10.7814127317667,1.0969729610271752,1.377234109866619
1782969329394546000,2.9955458984375,10.007082555973529,0.7346496150508522,1.2604206250831484
1782969329404471800,3.005471923828125,8.595565068233013,0.39650019473582504,1.179367458858341
1782969329414398000,3.01539794921875,7.057281149232387,0.10779182780757546,1.5074001204371452
1782969329424324900,3.025324951171875,5.100967632994055,-0.03143061879128217,1.960970840524882
1782969329434250800,3.035250732421875,1.8708762897104023,-0.0809181416682899,2.0476938690796493
1782969329444177000,3.045177001953125,-2.5769875002801417,-0.9294261910893022,2.728370194141567
1782969329454103000,3.05510302734375,-9.432465974229574,-1.363718502472341,1.9661155099369585
1782969329464029000,3.06502880859375,-19.553079047793148,-1.5299036286681889,0.5486103260889649
1782969329473955800,3.074955810546875,-30.486466301834582,-1.568933178155869,-1.7130033570468424
1782969329483882000,3.084882080078125,-38.317432314693924,-1.155747952209413,-5.261357516914606
1782969329493807900,3.094807861328125,-40.50430406057834,-1.8215239375203847,-9.487537288588285
1782969329503733800,3.104733642578125,-37.32344348893165,-3.5650045581564305,-13.461602247846125
1782969329513660000,3.114659912109375,-30.949578318858144,-6.107832891464233,-15.391182655459641
1782969329523587000,3.124587158203125,-23.915257189452646,-6.92687431564331,-15.36125045853257
1782969329533512700,3.1345126953125,-17.589734317743776,-6.17641484478116,-12.755214558422566
1782969329543438800,3.14443896484375,-12.774779675114154,-4.353133542199433,-8.68859640315175
1782969329553365000,3.154364990234375,-9.79400620700419,-2.233281468751281,-4.667829606212675
1782969329563292000,3.1642919921875,-8.40651490701735,-0.4213735008381307,-1.3279055769436061
1782969329573217800,3.1742177734375,-7.8335986994504925,0.9946741776779293,0.8272847902588546
1782969329583144000,3.18414404296875,-7.0221326789617535,2.1018758333832026,1.9963465436801313
1782969329593069800,3.19406982421875,-5.613361275058985,2.8591648580044504,2.5105063186347483
1782969329602996000,3.203995849609375,-3.764454825094342,3.2883237520217894,2.369642826830596
1782969329612923000,3.2139228515625,-1.7452748105764389,3.4767060969784853,1.743928802794963
1782969329622849000,3.22384912109375,0.3205179020345211,3.4959523569792506,0.9928943085238336
1782969329632775000,3.23377490234375,2.305526182359457,3.3713436882749197,0.07391688460409641
1782969329642700800,3.24370068359375,4.210310586890578,3.2573923149242994,-0.751585406152159
1782969329652627000,3.253626953125,6.224771171671152,3.3900036728203293,-0.9297519159123301
1782969329662553900,3.263553955078125,8.373852408343554,3.7413843306303023,-0.5427442105345428
1782969329672479700,3.273479736328125,10.34492685586214,4.263301003322005,0.014281477200239897
1782969329682406000,3.283406005859375,12.159067697393894,4.750142270979285,0.6440567593254148
1782969329692331800,3.293331787109375,13.789292233467101,5.133291108971834,1.2379615405157207
1782969329702259000,3.303259033203125,15.090851801407336,5.3995776546031236,1.6974381236463785
1782969329712184800,3.313184814453125,16.113863308036326,5.485628044593334,2.069438960158825
1782969329722111000,3.323111083984375,16.961216634464265,5.515450351405144,2.5202614044517277
1782969329732036900,3.333036865234375,17.572596135938166,5.478824209797382,2.843737279509008
1782969329741963300,3.34296337890625,17.9111079598248,5.359532644462585,2.710956118004024
1782969329751890200,3.35289013671875,17.786536992782352,5.134517435896396,2.151678559689224
1782969329761816000,3.362816162109375,17.54349629818201,4.787189852869511,1.6558260103195905
1782969329771742200,3.3727421875,17.174099506688115,4.644499291768669,1.3613966353960334
1782969329781668000,3.382668212890625,16.503426104724408,4.522374256573618,1.1885435757435858
1782969329791595300,3.39259521484375,15.616504153496026,4.376086547763645,1.059110409492254
1782969329801521200,3.402521240234375,14.785366633331774,4.049039536221325,0.9797304371766745
1782969329811447000,3.412447021484375,14.083931013357638,3.7478392058581114,0.8897009874876588
1782969329821373200,3.422373291015625,13.122904545998573,3.316497122582793,0.7140549361158162
1782969329831299000,3.432299072265625,12.159786659318208,2.8368431360810993,0.5072215731892734
1782969329841226000,3.44222607421875,11.440545333540438,2.491347736917436,0.5036062322363257
1782969329851152100,3.452152099609375,10.910535955286026,2.223346204061806,0.1826452626094222
1782969329861078000,3.462078125,9.875857391738892,1.938335960999131,-0.38557533448711034
1782969329871004200,3.472004150390625,7.950030783700942,0.7157850478440523,-0.2798478918634355
1782969329880930300,3.481930419921875,4.75511246060729,-0.2715782222986221,-0.5684758870318531
1782969329890857200,3.491857177734375,-0.6018792672008275,-0.6183705294050276,-0.996757998214662
1782969329900783000,3.501783203125,-8.656098739650846,-0.5857752507485449,-1.092118214472383
1782969329910709200,3.511709228515625,-18.712266521310806,-0.11262465479150414,-1.1036467397026717
1782969329920635100,3.52163525390625,-28.71034744018316,0.7843185589093714,-2.691915609708428
1782969329930561000,3.53156103515625,-35.70707445973158,0.9939319079432636,-6.1561225828588
1782969329940488200,3.54148828125,-38.697876569902895,-0.25867972388938065,-11.019150643783806
1782969329950414000,3.5514140625,-38.21169464293718,-3.0449741376027464,-16.796477323162556
1782969329960340000,3.561340087890625,-35.26739008004665,-5.8495870289474725,-20.995020899891852
1782969329970266000,3.57126611328125,-30.249582960820195,-7.082073060661554,-21.837258490741252
1782969329980193000,3.581193115234375,-24.311761768102645,-6.494283109089732,-19.370259305399657
1782969329990119200,3.591119140625,-18.88001261321306,-4.835471360957622,-14.793781410455702
1782969330000045000,3.601045166015625,-14.337798222398757,-2.7850129956007,-9.510893614256382
1782969330009971200,3.61097119140625,-10.70651443490982,-1.0355974319577217,-4.705362049010396
1782969330019897300,3.6208974609375,-7.766860328173637,0.2668335119895637,-0.9948515800714492
1782969330029824000,3.630823974609375,-5.333541878637671,0.9866215118646621,1.4359965338282286
1782969330039750100,3.640750244140625,-3.0948014138281343,1.250083647724986,2.714491306392848
1782969330049676300,3.65067626953125,-1.0250707772463559,1.2639819708265363,3.056860974751413
1782969330059602000,3.660601806640625,0.8353525075107813,1.2459312042206525,2.912158197045326
1782969330069528000,3.670528076171875,2.4354098688572643,1.2337041753321885,2.4680340813472865
1782969330079455200,3.680455322265625,3.9846050579726695,1.0375823221646248,1.8613911068759859
1782969330089381000,3.690381103515625,5.6334729197174305,0.8774179175630211,1.5602115270398556
1782969330099307000,3.70030712890625,7.339636201611161,1.1543937611214816,1.5930005747027693
1782969330109233200,3.710233154296875,8.988163871616125,1.7872737312637268,1.828674832188338
1782969330119160000,3.72016015625,10.685796641051768,2.3786150917068123,2.1625760935395957
1782969330129086000,3.7300859375,12.614033817362785,2.849454780372977,2.4760385241046547
1782969330139012000,3.74001220703125,15.007504825156927,3.244343155997991,3.171549137943983
1782969330148938200,3.749938232421875,17.557452342820167,3.5446956373602148,3.9183804814368486
1782969330158864100,3.759864013671875,19.860258160305023,3.900727043585479,4.393828832942247
1782969330168791000,3.769791015625,21.31664354829788,4.3024093171343205,4.471745893098413
1782969330178717200,3.77971728515625,21.215586727833745,4.135737576465308,3.9370658926844593
1782969330188643300,3.789643310546875,19.472901349228618,3.5783433476790782,3.355782254266739
1782969330198569000,3.79956884765625,17.46570812510252,3.1987995484411713,2.8158596770241853
1782969330208495000,3.8094951171875,16.04355000088215,2.8878771577477456,2.456589142747223
1782969330218422300,3.81942236328125,14.94106689813137,2.4137831434607504,2.461294251698255
1782969330228348000,3.829347900390625,14.099716611510514,2.133167920486629,2.607291160868108
1782969330238274000,3.839274169921875,13.603817592650651,2.135729879929125,2.814698524290323
1782969330248200200,3.8492001953125,13.301950615072249,2.1624885613866147,3.1063992049023508
1782969330258127000,3.859127197265625,12.864267638337612,2.1295228419825434,3.34425431355834
1782969330268053000,3.869052978515625,12.204938637208938,2.122364202399552,3.378640567284822
1782969330277979100,3.878979248046875,11.320074203032254,1.9841025636568663,3.092595428216457
1782969330287905300,3.8889052734375,10.455402662056684,1.440109083713591,2.7717636379271746
1782969330297831200,3.8988310546875,9.990369906103611,0.6814832575306295,2.3462797791607675
1782969330307758000,3.908758056640625,9.728883454230427,-0.2880104477919638,1.8099375446230173
1782969330317684200,3.918684326171875,9.172852915012836,-1.1264729040168224,1.456406284650415
1782969330327610000,3.928610107421875,8.072347249814868,-1.7243914508931337,1.0962025611765682
1782969330337536000,3.938535888671875,5.31918368293941,-1.7643667567983268,0.7477098798930645
1782969330347462100,3.948462158203125,-0.525236172503233,-1.2128365977399052,0.08511194009631871
1782969330357389300,3.958389404296875,-9.163168556344509,-0.3001586392905563,-0.9309525238737464
1782969330367315000,3.96831494140625,-18.829533302819726,0.5208859779370948,-1.4556038822263477
1782969330378480000,3.979480224609375,-28.61243534748554,1.2875102920606731,-3.4288343387350437
1782969330388406000,3.989406005859375,-35.83414484237432,1.5996365055859088,-7.90203101516366
1782969330398332200,3.999332275390625,-40.084860504889484,0.7228801206715405,-15.623478668683767
1782969330408258300,4.00925830078125,-39.40269072639942,-0.4144395368564874,-23.28280450481176
1782969330418184000,4.019183837890625,-34.78516419723034,-3.313880802604556,-25.028841531932354
1782969330428111000,4.029111083984375,-29.384462507033348,-3.5881180149793623,-23.01551199700832
1782969330438037200,4.039037353515625,-24.422418776082992,-2.000279937606305,-18.966877242195604
1782969330447963100,4.048963134765625,-19.835778383564946,-0.20656466552037744,-13.41949796708822
1782969330457889000,4.058888916015625,-15.211467893344164,1.5665616267189382,-7.958214674678445
1782969330467815200,4.068815185546875,-11.139738678669929,2.6455902041241526,-3.699015553717315
1782969330477742000,4.0787421875,-7.459564311283827,2.9860894024357196,-0.6171057701662183
1782969330487668000,4.08866796875,-4.329488754978776,3.092790074005723,1.3988219645574689
1782969330497594000,4.098593994140625,-1.6661282086253166,3.141628631454706,2.7080492906466125
1782969330507520300,4.108520263671875,0.723280956557393,3.1360666134133934,3.225913473077118
1782969330517447200,4.118447265625,2.7889357220023867,2.974579874166846,3.185985951836407
1782969330527373000,4.128373046875,4.5934857283681625,2.7350018872410056,2.8564383556500075
1782969330537299200,4.13829931640625,6.221913444152474,2.5920143890202043,2.388497895556688
1782969330547225300,4.148225341796875,7.745432924741506,2.3348244652971624,1.9253888011425733
1782969330557151000,4.15815087890625,9.151412652099133,1.9575303446821868,1.4770654801890253
1782969330567078100,4.168078125,10.823268006199598,1.7024898540779947,1.364913119084388
1782969330577004300,4.17800439453125,12.930458897125721,1.6684635197050868,1.9379371709398925
1782969330586930000,4.187929931640625,14.982439357483386,1.83195823777318,2.5965555395811797
1782969330596856000,4.19785595703125,16.208158379280565,2.0590375392623246,3.151161014431715
1782969330606782200,4.2077822265625,16.628160737895964,2.3148142351865766,3.4772429803341627
1782969330616709000,4.217709228515625,16.55871719931364,2.655054490301013,3.466470241907239
1782969330626635000,4.227635009765625,16.29455772883892,3.076036799864471,3.278499984882772
1782969330636561200,4.23756103515625,16.09778544893861,3.3841669294908643,3.1096576221764085
1782969330646487300,4.2474873046875,15.870940686857699,3.514963346919417,2.9298090045481917
1782969330656414000,4.2574140625,15.480019461297989,3.6091488203093407,2.6710104765847325
1782969330666340000,4.267340087890625,15.23206059951782,3.610286007645726,2.392990384670347
1782969330676266200,4.277266357421875,15.180550192511081,3.3880841029345987,2.043570943930745
1782969330686192000,4.287192138671875,15.228420197188854,3.060935676844418,1.7711327438019215
1782969330696118000,4.297117919921875,15.297117885839938,2.542809044085443,1.4007634540140628
1782969330706045200,4.307045166015625,15.416699374032019,1.8262018662035464,0.8327049886766821
1782969330715971300,4.316971435546875,15.397055931407213,1.027093076854199,0.4707490147080272
1782969330725897000,4.32689697265625,15.080411071413755,0.4582257062867284,0.40499417457580567
1782969330735823000,4.336822998046875,14.223138408517837,0.2855707995548844,0.2926896916493773
1782969330745748700,4.346748779296875,13.29389356534481,0.2859038309015334,0.45848026556968685
1782969330755678000,4.356677978515625,9.835401462709903,0.18214476574137806,0.8546033706214279
1782969330765603800,4.366603759765625,6.41466830510497,-0.3916467633552849,0.6406269310072064
1782969330775530000,4.376530029296875,1.0340525406032801,-0.8126005774766206,0.08066102510206401
1782969330785457000,4.386456787109375,-6.024822015300392,-1.6479652138166128,-0.9280611863464117
1782969330795382800,4.3963828125,-13.739875583869217,-2.2588876191727816,-2.2110056317962705
1782969330805309000,4.406308837890625,-21.93543244924545,-1.9818145988501608,-3.9403947448462247
1782969330815234800,4.41623486328125,-28.911869544959067,-1.5889909006699918,-6.350437532734871
1782969330825160700,4.42616064453125,-33.2981779192686,-1.8194501999862491,-9.217799141198396
1782969330835088000,4.436087890625,-37.099524843430515,-1.4503727035745977,-11.711263139617442
1782969330845013800,4.446013671875,-39.17560163416862,-0.5620538911603391,-13.140453062170744
1782969330854940000,4.45593994140625,-36.95033849056959,1.7635758986815808,-14.558696058773993
1782969330864865800,4.46586572265625,-29.970838500154017,2.2013301870867608,-13.32554074949622
1782969330874792000,4.4757919921875,-21.190688433420657,0.8699862331923097,-10.83160095025897
1782969330884718800,4.48571875,-14.572942026269436,0.6052041007746011,-9.557200607401132
1782969330894644700,4.495644775390625,-10.459051247692107,0.5012955441411584,-7.907159610223769
1782969330904571000,4.50557080078125,-7.659676549261808,0.8696914880294352,-5.642890151882171
1782969330914497000,4.5154970703125,-5.47897677001059,1.5763304488003254,-3.191433111326396
1782969330924424000,4.525423828125,-4.008061336883903,2.1883852191872895,-0.9465484446734189
1782969330934349800,4.535349853515625,-3.143556969168782,2.457714055123925,0.47485389274358747
1782969330944276000,4.54527587890625,-2.2761580490559337,2.4267244580984113,1.1210951565012335
1782969330954201900,4.555201904296875,-1.2092547937303781,2.102628113055229,1.1829149222068487
1782969330964127700,4.565127685546875,0.05413724837899208,1.7238108745262026,1.0275593791916966
1782969330974055000,4.575054931640625,1.4232944347739218,1.340723119071126,0.659879182357341
1782969330983980800,4.584980712890625,2.8617759172856805,0.7818409898146986,0.17943945230543612
1782969330993906700,4.59490673828125,4.476989931231737,0.2984910714045167,-0.008869973545521498
1782969331003832800,4.604832763671875,6.164034671157598,0.11596212865114211,-0.018225538650900125
1782969331013759000,4.614759033203125,8.137140916764736,0.17804755955561993,0.5906050089925527
1782969331023686000,4.624685791015625,10.323867701220511,0.3740355572104454,1.6777616555348038
1782969331033611800,4.63461181640625,11.921831305158138,0.5140837871089577,2.5487925024092197
1782969331043538000,4.644537841796875,12.689534171766041,0.5879547867447138,3.0674642018303273
1782969331053463800,4.6544638671875,13.039098135542869,0.6635191462948918,3.31009690015167
1782969331063389700,4.6643896484375,13.212185588473082,0.7160983515769243,3.391354502907395
1782969331073316900,4.67431689453125,13.293996441197395,0.8443081135131418,3.3235978944987057
1782969331083243000,4.684242919921875,13.308134856665134,1.106555905147642,3.1229961194381115
1782969331093168600,4.694168701171875,13.226292439758776,1.3702743538565934,3.019732144318521
1782969331103094800,4.7040947265625,13.027544475871323,1.5990356170833109,2.8742458150193095
1782969331113022000,4.71402197265625,12.774386876404284,1.7743340240612624,2.584053493143618
1782969331122947800,4.72394775390625,12.424412578260897,1.9948995597422121,2.1015847414821387
1782969331132873700,4.733873779296875,11.93546001753807,2.1510747485771775,1.2161838623411954
1782969331142800000,4.7437998046875,11.631066736352443,1.8338047424226998,0.5065129134632647
1782969331152726000,4.75372607421875,12.390599155986308,1.589102544350922,0.2247776369506493
1782969331162652700,4.763652587890625,14.005600403964518,1.5844479965433478,-0.004486716959998012
1782969331172578800,4.773578857421875,14.98985343313217,1.5480967263542116,-0.03560198619179428
1782969331182505000,4.7835048828125,15.025530311191082,1.8112364983923732,0.06997936249207705
1782969331192430800,4.793430908203125,14.714552975440025,2.4879005190730092,0.15209248609859496
1782969331202356700,4.803356689453125,14.289570490324497,3.0746833394289017,0.43716289838328953
1782969331212284000,4.813283935546875,13.728057720303534,3.541329668058455,0.6243290724832564
1782969331222210000,4.8232099609375,13.257093236213922,3.9695936590626832,0.4630004829404875
1782969331232135700,4.8331357421875,12.545191167283058,3.951488385790586,0.16873188806921244
1782969331242061800,4.843061767578125,11.13421611585617,3.7037256311044096,-0.26649580446779725
1782969331251989000,4.852989013671875,8.030296160548925,3.052377107335627,-1.2112103117123245
1782969331261914600,4.86291455078125,2.135225145277381,2.0770457819007335,-2.3370117462083697
1782969331271840800,4.8728408203125,-7.236028527620435,2.179403309699893,-4.084459516909718
1782969331281767000,4.882766845703125,-19.376264683294295,3.5418303110569713,-7.232727732509375
1782969331291692800,4.89269287109375,-31.918173175644874,3.6355832382485267,-12.364836938220261
1782969331301619700,4.90261962890625,-42.26969577651024,2.1076476947829126,-18.305570218992234
1782969331311545900,4.9125458984375,-46.821129246568674,-0.0019149667758494614,-22.48637706350088
1782969331321472000,4.922471923828125,-42.62484660050869,-2.219373793299496,-24.391541991782187
1782969331331398000,4.93239794921875,-34.002269606709476,-5.387057780247926,-22.432430369257926
1782969331341323800,4.94232373046875,-25.82501879787445,-6.2454784441351885,-18.45106590064168
1782969331351251000,4.9522509765625,-18.89950524919033,-5.0960810299962755,-12.631373074698448
1782969331361176800,4.9621767578125,-13.248226039147376,-3.0098928873494266,-6.3627060626775025
1782969331371102700,4.972102783203125,-8.45707429690957,-1.0692654544122517,-1.5385951769068835
1782969331381028900,4.98202880859375,-4.7953375034898515,-0.10467435337416828,1.5781640939682722
1782969331390954800,4.991954833984375,-2.258023841950297,0.2524642103753984,3.1521406731188297
1782969331400881700,5.001881591796875,-0.39414895543456074,0.3296102130938321,3.6056945882022378
1782969331410807800,5.011807861328125,1.2638222502201795,0.40655981645733114,3.354317442411184
1782969331420734000,5.02173388671875,2.9015765972763297,0.5306177924763411,2.863338344296813
1782969331430659800,5.031659912109375,4.413602039426565,0.5763820570465177,2.2445444749131798
1782969331440586800,5.041586669921875,5.776164649862051,0.743879069558531,1.7682316155329345
1782969331450513000,5.051512939453125,6.966872564032673,1.0815881987601519,1.5806887901403008
1782969331460438800,5.061438720703125,7.979497116681933,1.4349053775906562,1.6323104024365542
1782969331470365000,5.071364990234375,8.767240316277741,1.8153985865078865,1.7290341621324419
1782969331480290800,5.081290771484375,9.465120289596914,2.08754715604037,1.8831753609217703
1782969331490218000,5.091218017578125,10.38239470899105,2.3428386987961827,2.0770190400242803
1782969331500143900,5.101143798828125,11.220624817764758,2.5472926192402836,2.1464123097240924
1782969331510069800,5.11106982421875,11.839307335728407,2.731250425752997,2.252358655795455
1782969331519996000,5.120995849609375,12.293660876756906,2.946426377350092,2.250038396154344
1782969331529921800,5.130921875,12.736278387284278,2.9700156349912286,2.011722391988337
1782969331539848700,5.1408486328125,13.263748602449892,2.953932222935557,1.5130238055378198
1782969331549774800,5.15077490234375,13.560227457249164,2.850497859685123,1.0631604886006563
1782969331559700700,5.16070068359375,13.823558075684309,2.6665876917064186,0.8134615051548928
1782969331569627000,5.170626953125,14.01470024074316,2.5449200448900458,0.5225396268956363
1782969331579552800,5.180552734375,14.131304174429177,2.329766743516177,0.05413016105107963
1782969331589480000,5.19047998046875,14.145112919551133,1.8606261138528584,-0.42231560399383306
1782969331599405800,5.20040576171875,14.039039732229709,1.3922441936023533,-0.6253988936718553
1782969331609332000,5.21033203125,13.983022661453484,1.2237858617775141,-0.6079990652553737
1782969331619257900,5.2202578125,13.910089527189731,1.2762936092585324,-0.33953955949917436
1782969331629183700,5.230183837890625,13.643513643223047,1.4956142594449222,0.058693742639571424
1782969331639111000,5.24011083984375,12.90106679842472,1.7659211466334759,0.3040549160767346
1782969331649036800,5.250036865234375,11.769973687261343,1.8798260504938662,0.4228372897803783
1782969331658962700,5.259962646484375,10.492679961049555,2.1227999634683132,0.011882234038785099
1782969331668888800,5.269888916015625,9.66951590398252,1.278688979962468,0.20675942090749738
1782969331678815700,5.279815673828125,8.153554875949025,0.2560182495951652,0.08741904799491167
1782969331688742000,5.289741943359375,4.631820427459478,-0.32269875320494174,-0.09908464360833168
1782969331698667800,5.299667724609375,-1.3370493989944456,-1.0204743893668056,-0.32051351812034845
1782969331708594000,5.309593994140625,-8.661488031473755,-1.758084461658448,-1.7389907618708909
1782969331718519800,5.319519775390625,-17.984024727475642,-2.225026266103238,-4.220576837100088
1782969331728446700,5.32944677734375,-29.452484488379955,-1.5621519935831427,-8.25815331454277
1782969331738372900,5.339372802734375,-40.37067300424575,-1.5462899691931902,-13.663249440306425
1782969331748298500,5.349298583984375,-47.24624032649994,-3.310820245990157,-18.55300534915924
1782969331758224400,5.359224365234375,-48.07716858782768,-4.841001522555947,-21.968701097118853
1782969331768150500,5.369150634765625,-42.40802171266078,-5.149380658507347,-22.35717434500456
1782969331778077700,5.37907763671875,-32.50987065604925,-4.807533552718162,-19.582742364650965
1782969331788003300,5.38900341796875,-22.830515495097636,-3.6634359985530374,-15.53536783903241
1782969331797929500,5.398929443359375,-16.37882006636858,-2.3393191463679073,-11.492497639095783
1782969331807855600,5.408855712890625,-12.620021659600734,-0.8890922810047864,-7.761572158637643
1782969331817781500,5.418781494140625,-9.455615963670612,0.8593165898136794,-4.585516649185121
1782969331827708400,5.42870849609375,-6.137392747947573,2.406693477460742,-1.8894664238899945
1782969331837634600,5.438634521484375,-2.8778841715216634,3.389972693160176,0.00940203459560871
1782969331847560400,5.448560546875,0.18800269798934457,3.925677360446751,0.9447226905509829
1782969331857486600,5.458486572265625,2.9888872164607045,4.046515570701659,1.2797992792919277
1782969331867413500,5.46841357421875,5.468211045846343,3.9397579082474112,1.3198705929175019
1782969331877339600,5.478339599609375,7.489250424495339,3.9629520290911193,1.4362633680708705
1782969331887265500,5.488265625,9.057691581350564,4.109712031587958,1.7067758608341217
1782969331897191400,5.49819140625,10.264882428288459,4.3327512639060615,2.0900987402193247
1782969331907117600,5.50811767578125,11.156507442641258,4.644525595253706,2.455487611246109
1782969331917044500,5.51804443359375,11.819480353230237,5.050101953631639,2.6549244341805576
1782969331926970400,5.527970458984375,12.255719560897349,5.447473962765931,2.8144328590914607
1782969331936896500,5.537896484375,12.613418900334834,5.636427677869796,2.898379847061634
1782969331946822400,5.547822509765625,13.231906187987327,5.660345729073882,2.8109470628023145
1782969331956748500,5.55774853515625,14.08538296573162,5.6336091133177275,2.5825223380535838
1782969331966675500,5.567675537109375,15.308518400776386,5.562506701612472,2.5358663853406904
1782969331976601600,5.5776015625,16.827209146034715,5.417965544208884,2.6297505376964807
1782969331986527500,5.587527587890625,17.98654752395153,5.438016398590803,2.651654326468706
1782969331996453600,5.59745361328125,18.374906205546853,5.351887098145484,2.8517607192277907
1782969332006379500,5.607379638671875,18.07084025661945,5.074193607836961,3.210810596491396
1782969332016306400,5.617306396484375,17.158810752141473,5.437283408141136,2.7975191336914897
1782969332026232600,5.627232666015625,16.124164921820164,5.6131999470174305,2.693876096126437
1782969332036158500,5.637158447265625,15.297304932844638,5.270165677270293,2.7694264271512625
1782969332046084400,5.64708447265625,14.962173983567952,4.897226390863954,2.5681758327931163
1782969332056010500,5.657010498046875,15.354093572515248,3.932973362673819,2.9239889200925826
1782969332065937400,5.6669375,15.978689113914966,3.351934638927877,2.6135794473573566
1782969332075863600,5.676863525390625,16.528789678561687,2.8725059856146573,2.2556499524258076
1782969332085789400,5.68678955078125,16.564712055814265,2.1083573043569923,1.7271161996819078
1782969332095715600,5.696715576171875,16.24192737789154,1.1994403789415955,1.4518344466902315
1782969332105641700,5.706641845703125,15.20910408682227,1.081168219782412,1.0991508165229111
1782969332115568400,5.716568359375,14.004662830853462,1.1183351902686058,1.189315144637972
1782969332125494500,5.72649462890625,12.501473606109618,1.3229537997551262,1.3485786548770964
1782969332135420700,5.736420654296875,10.76138233565092,1.2163545427329838,1.372743958840519
1782969332145346300,5.74634619140625,8.428269642707704,0.8244719247952104,1.4695597807340324
1782969332155273500,5.7562734375,5.139889192062616,0.1286091365173459,2.6171508761033415
1782969332165199600,5.76619970703125,-0.5372960281312466,-0.17277539130635558,3.5658307798475026
1782969332175125500,5.77612548828125,-10.072906735014914,-0.035856764670461415,3.0010598848134276
1782969332185051400,5.786051513671875,-21.260875483846664,-0.8552676066838204,0.8469872695945203
1782969332194977500,5.7959775390625,-31.64175978827476,-2.320201335052401,-3.9043925803557036
1782969332204904400,5.805904541015625,-42.01970277855396,-3.1927769271507858,-11.998768414366245
1782969332214830300,5.815830322265625,-52.236397222256656,-4.062515396127105,-20.536482182133195
1782969332224756500,5.825756591796875,-56.746315609622,-4.883066640347242,-29.392304452705382
1782969332234682600,5.8356826171875,-52.11081853947639,-6.171313137727975,-32.74341988420486
1782969332244608500,5.8456083984375,-39.67962784538269,-6.812724789372086,-27.885790467453003
1782969332254535400,5.855535400390625,-25.200863985979556,-4.60619089616239,-21.35008287656307
1782969332264461600,5.865461669921875,-14.330679914826154,-1.9969637987956403,-14.50625743100643
1782969332274387700,5.8753876953125,-7.979963565149903,0.20401574822254478,-8.729468511766195
1782969332284313300,5.885313232421875,-4.461139451149106,1.8550956599935888,-4.697950603710114
1782969332294239500,5.895239501953125,-1.372683606955409,2.9031302564591166,-1.6452233677625656
1782969332304166700,5.905166748046875,1.9026631745934486,3.450087262383103,0.6259438872687518
1782969332314092300,5.91509228515625,4.612414300721883,3.6099978383541105,2.075139802148938
1782969332324018400,5.925018310546875,6.401109150829911,3.7023829843237994,2.571852475479245
1782969332333944600,5.934944580078125,7.494101956179738,3.8094635951220988,2.628875216166675
1782969332343870500,5.944870361328125,8.205700073727964,3.752979491356015,2.4950550670027734
1782969332353797400,5.95479736328125,8.473315822136401,3.818984287661314,2.4256993528343735
1782969332363723500,5.9647236328125,8.456445935878158,4.013135863669216,2.44336769599393
1782969332373649700,5.974649658203125,8.35028507027328,4.292117347961664,2.5145617315053936
1782969332383575600,5.984575439453125,8.305781911680102,4.658637122714519,2.685000715753436
1782969332393501400,5.99450146484375,8.326606673043965,4.922602531921863,2.8963433727979657
1782969332403428600,6.0044287109375,8.501432494074106,4.8917801081568,2.897557424762845
1782969332413354500,6.0143544921875,8.888407612356543,4.893962128371,2.4466357578791675
1782969332423280400,6.0242802734375,9.590238953649997,4.945377258309722,1.857398383978009
1782969332433206500,6.03420654296875,10.627889226484298,4.754548981505632,1.5199115192249417
1782969332443133700,6.0441337890625,12.136790399134158,4.611600938512384,1.3873974842235446
1782969332453059300,6.054059326171875,13.991812701630591,4.579647172629833,1.4718918769434093
1782969332462985500,6.0639853515625,15.976203726840017,4.643623385716975,1.7218503881081937
1782969332472911600,6.07391162109375,17.87311988221407,4.640234620061516,1.801035422373563
1782969332482837500,6.08383740234375,18.673187725853918,4.772657761909067,1.141198544787988
1782969332492764400,6.093764404296875,18.73383537904024,3.9750788124755023,1.477385652054101
1782969332502690600,6.103690673828125,17.925390167677403,3.648300681002438,0.7971732912421226
1782969332512616400,6.113616455078125,17.106082201516628,3.4029657379850744,0.14943112140223383
1782969332522542600,6.12354248046875,16.486035409462453,2.7412203233644363,-0.2072712063545361
1782969332532468500,6.133468505859375,16.249654757273195,2.063269623874128,-0.8519140584722161
1782969332542395600,6.143395751953125,15.458043776333332,1.479725347048044,-1.3410542507216334
1782969332552321500,6.153321533203125,13.914464089012146,0.8566983701393007,-1.7298543924741445
1782969332562247400,6.163247314453125,12.27238895614743,0.3902373349487781,-1.7934436520703136
1782969332572173600,6.173173583984375,11.16202182214856,0.24602000267207622,-1.3884250737056136
1782969332582099500,6.183099365234375,11.19096851516962,0.7928057436823844,-0.30574078680444505
1782969332592026400,6.1930263671875,12.320519657588004,1.4838143699273467,0.35206586359515785
1782969332601952500,6.202952392578125,12.980956912219524,1.6015204196363686,1.2707963270165026
1782969332611878400,6.21287841796875,9.77026292784512,1.0401615250028668,1.7910114564873276
1782969332621804500,6.222804443359375,1.085496896636486,1.4691656668499111,-0.5131031055085361
1782969332631730400,6.23273046875,-9.964601843118666,-0.3298349617604166,-3.1164459671422837
1782969332641657600,6.24265771484375,-22.240146048426627,-2.9211452210992572,-5.736415992319584
1782969332651583500,6.25258349609375,-39.278931075739855,-2.449663142876327,-10.712682309889793
1782969332661509600,6.262509521484375,-55.146741063356394,0.21253489903640002,-17.42736115105152
1782969332671435500,6.272435546875,-59.332558429503436,2.9100848979026077,-23.823594804799555
1782969332681362400,6.282362548828125,-50.825754179263114,0.378060501877591,-24.117122993099688
1782969332691288600,6.29228857421875,-37.03971188750267,-2.296895862788707,-21.31507702963352
1782969332701214500,6.30221435546875,-24.485210455560683,-3.048233431659639,-18.53711570611
1782969332711140400,6.312140380859375,-15.557701251393556,-3.055772594992816,-14.326110122692585
1782969332721066500,6.32206640625,-9.283336319991946,-1.3104583291888237,-9.46486719161868
1782969332730993400,6.331993408203125,-4.722945636495948,0.8682884162984787,-5.143064314967393
1782969332740919600,6.34191943359375,-1.7618126884013414,2.3387448536112903,-1.5087018506854772
1782969332750846700,6.3518466796875,0.012443886509537696,3.0875837375342843,1.2039502575814722
1782969332760772600,6.361772705078125,1.3421668881386517,3.544548337844014,2.7916698231413957
1782969332770698500,6.371698486328125,2.4252602307647466,3.9115515121996403,3.7874294579684733
1782969332780625700,6.381625732421875,3.4343121856242416,4.171484889411926,4.258763359892368
1782969332790551600,6.391551513671875,4.412727010157704,4.312875181569159,4.153140838947892
1782969332800477400,6.4014775390625,5.246555669102072,4.345740217077732,3.904415376709401
1782969332810403600,6.411403564453125,5.916660331267118,4.341198774255812,3.4702690496683117
1782969332820329700,6.421329833984375,6.66249155780673,4.123100505471229,2.9830875902712344
1782969332830256600,6.431256591796875,7.5691452144652605,3.869917187041044,2.5977643308490515
1782969332840182500,6.4411826171875,8.760068817213178,3.690417821241915,2.161640858516097
1782969332850108700,6.451108642578125,10.302060358560084,3.660572425815463,1.9455483765959738
1782969332860034800,6.461034912109375,11.80431551732421,3.7650600975111126,1.9274454414114355
1782969332869960400,6.47096044921875,13.322864808285235,3.817359901329875,1.9882788264282047
1782969332879887600,6.4808876953125,14.903397969472408,3.667680211994052,1.9647483132369816
1782969332889813800,6.490813720703125,16.59958463175297,3.480729945667088,1.811545564341545
1782969332899739400,6.500739501953125,18.135621648609636,3.2726088810175655,1.8928154420569538
1782969332909665500,6.51066552734375,18.85392423223257,3.361156640781462,1.6490921720199285
1782969332919591700,6.520591796875,18.820676627147197,3.0352830569326876,2.271175146076828
1782969332929518600,6.5305185546875,17.826147703158853,3.2467382344409823,2.543366970229149
1782969332939444500,6.540444580078125,16.601029569864274,3.6354178185537456,2.4911101287692783
1782969332949370600,6.55037060546875,15.365843631541727,3.646536301678419,2.7456904545158145
1782969332959296800,6.560296875,14.456061029207705,3.4568174474209545,2.8113065437644718
1782969332969222700,6.57022265625,13.914168320935964,3.111245768150687,2.6511408239886163
1782969332979149600,6.580149658203125,13.745560643768309,2.6000802065759894,2.281195166440308
1782969332989075700,6.59007568359375,13.58132869746685,1.97161892965883,1.7418191171646118
1782969332999001600,6.600001708984375,13.20452250649929,1.3062620465427637,1.1030999194748698
1782969333008927500,6.609927490234375,12.631784578108787,0.9336870634041726,0.6823283300526439
1782969333018853600,6.619853515625,11.827975794374941,0.5321823383793235,0.19200616147704422
1782969333028780800,6.62978076171875,10.301031600034236,0.03658580959737301,-0.010963219497725368
1782969333038706400,6.63970654296875,7.679501778194308,-0.06706526514366269,-0.34806261930316684
1782969333048632600,6.649632568359375,3.725998545449972,-1.005899482177943,0.1866695496894419
1782969333058558700,6.659558837890625,-2.1335639340668915,-0.4638283485993743,-1.1306365995675325
1782969333068485400,6.6694853515625,-9.081158381655811,0.015502251166850327,-3.6731419845312834
1782969333078411500,6.67941162109375,-18.23548370633125,-0.5958153275193646,-6.657916504976153
1782969333088337700,6.689337646484375,-33.52116132974624,0.43745384415388106,-10.388516991263627
1782969333098263600,6.699263671875,-48.71577511892318,2.816302744616568,-14.60543910524845
1782969333108189700,6.709189697265625,-53.92867694022655,5.013531341603398,-19.389296014302968
1782969333118116600,6.71911669921875,-46.96563241004944,2.664192321002483,-21.20167043068409
1782969333128042800,6.729042724609375,-33.22535584416389,-1.4180188324585556,-20.39119108314514
1782969333137968600,6.73896875,-20.689582493567464,-3.2110598950773475,-19.11483259195685
1782969333147894500,6.74889453125,-12.731901487374305,-3.710282213141024,-15.770697520864008
1782969333157820700,6.758820556640625,-8.098557795870304,-2.8047183975458143,-11.208951915627717
1782969333167747600,6.76874755859375,-4.787689619085192,-1.270324763981998,-6.841259394460916
1782969333177673500,6.778673583984375,-2.1230010389983653,0.06875221358360722,-3.364927683752775
1782969333187599600,6.788599609375,0.10625322006344795,0.8298535447683185,-0.6393848219916224
1782969333197525500,6.798525390625,1.7988275370657443,0.9986275914788245,1.2285077757328748
1782969333207451600,6.80845166015625,2.9863059677958486,0.9027863137058914,2.1706556473597884
1782969333217378600,6.818378662109375,3.734799107021093,0.8023328659623861,2.4639105716764926
1782969333227304700,6.8283046875,4.191902239018678,0.7651455833405256,2.3867298629708587
1782969333237230600,6.838230712890625,4.557285118696093,0.8462500413611531,2.2819237729758024
1782969333247156700,6.84815673828125,4.992389184853434,0.9047710577823221,2.153442354491353
1782969333257082600,6.85808251953125,5.534459587779641,1.010647918814048,1.9192193187274038
1782969333267009500,6.868009521484375,6.123651222842931,1.298982118667662,1.7074451383978126
1782969333276935700,6.877935791015625,6.570781242358684,1.6063140836536884,1.5925075304888188
1782969333286861600,6.887861572265625,6.869084389975667,1.8175404208421706,1.4631746097415685
1782969333296787500,6.897787353515625,7.227834699770808,1.9670865469262002,1.182764261689782
1782969333306713600,6.907713623046875,7.750131896212697,2.064936680303514,1.0651144722126424
1782969333316640500,6.917640625,8.586213887041806,2.150529243523627,1.1499683458946646
1782969333326566700,6.927566650390625,9.726052614718675,2.3158982310310003,1.0346678960226476
1782969333336492500,6.937492431640625,11.181431456017494,2.4004862933836875,0.8872272177852689
1782969333346418700,6.947418701171875,12.794798380792141,2.4225669000275434,0.7439961931321769
1782969333356345600,6.957345703125,14.420421560549736,2.3588214269563554,0.6577910509716719
1782969333366271500,6.967271484375,16.120952389514446,2.2694493451975286,0.7533644715886563
1782969333376197600,6.97719775390625,17.851757945233583,2.053367823062837,0.8499507955752312
1782969333386123800,6.987123779296875,18.835138867741822,1.8081513918586074,0.8698904446676373
1782969333396049400,6.99704931640625,18.75897215838432,1.6594612980820238,0.8167473218925296
1782969333405976600,7.0069765625,17.708304583066703,1.4815591383464632,0.610254662162438
1782969333415902700,7.01690283203125,16.406430542349813,1.239997722518444,0.5309412522770464
1782969333425828600,7.02682861328125,15.046429306834936,1.1120596171304582,0.72151241251491
1782969333435754500,7.03675439453125,14.181043480110167,0.819456580851227,0.6741217157866806
1782969333445680600,7.0466806640625,13.178843290841579,0.3082606241382658,0.5752488152328878
1782969333455607600,7.056607666015625,11.242152758961915,-0.3196311823278665,0.49143411187287417
1782969333465533400,7.066533447265625,8.262171902534366,-0.8923867925055324,0.6803147982731461
1782969333475459600,7.07645947265625,3.8152041846007108,-1.1191412459544836,0.729317898634076
1782969333485385700,7.0863857421875,-1.5219085382610558,-0.9577096709612757,0.9425903546974063
1782969333495311600,7.0963115234375,-7.718350272026657,-0.5729613618828356,1.0598615201205015
1782969333505238500,7.106238525390625,-13.964240804094075,-0.7857630586292594,-0.045734892345219845
1782969333515164700,7.11616455078125,-18.75683280826807,-1.240952539025247,-2.161640273994207
1782969333525090800,7.1260908203125,-25.16431733934879,-1.1871252333782614,-4.340869103910029
1782969333535016400,7.136016357421875,-35.40448384405374,-0.2508497243834659,-6.931019744884967
1782969333544942600,7.145942626953125,-42.1560740735054,1.1644350434686987,-9.407523256152867
1782969333554869800,7.155869873046875,-41.085688236761094,3.645968730923533,-11.209500197160244
1782969333564795400,7.16579541015625,-33.414560903680325,3.662465107694268,-10.23645829783678
1782969333574721500,7.175721435546875,-23.604831642365454,1.6681643906280397,-8.439593585276603
1782969333584647700,7.185647705078125,-15.66047305908203,0.7814253947511315,-8.316444175469876
1782969333594573600,7.195573486328125,-10.591810197365284,0.21441439264006912,-7.645342318961024
1782969333604500500,7.20550048828125,-7.37048492886126,0.06012421383410692,-6.2624289944142095
1782969333614426600,7.215426513671875,-4.545032370844483,0.480925321611762,-4.68766418749541
1782969333624352800,7.225352783203125,-1.9923896227478979,1.0779799451351164,-3.0165567291527986
1782969333634278700,7.235278564453125,0.20490122582018375,1.544251741363853,-1.5994726933263241
1782969333644204500,7.24520458984375,1.8784610457509754,1.6838750238485634,-0.6258033097542822
1782969333654131700,7.255131591796875,2.7588147245049477,1.5472178976930677,-0.43579263294339177
1782969333664057600,7.2650576171875,3.0612013420432804,1.4099535994246601,-0.5552316439248621
1782969333673983500,7.2749833984375,3.413535939577222,1.3454706058591603,-0.6678709117636085
1782969333683909600,7.28490966796875,3.9689796188175674,1.2822178847409784,-0.6787433111727237
1782969333693836800,7.2948369140625,4.68948234283328,1.247756373821199,-0.5621032101947814
1782969333703762400,7.304762451171875,5.366885929834843,1.2507283753693104,-0.3699048140812665
1782969333713688600,7.3146884765625,5.8410296284824605,1.270307812847197,-0.1725203205667436
1782969333723614700,7.32461474609375,6.234555483582615,1.190471328935772,-0.09323949777670204
1782969333733540600,7.33454052734375,6.835382026860118,1.146784601292014,0.06804872322306037
1782969333743467500,7.344467529296875,7.660434089630842,1.2863587839379906,0.5280722727119922
1782969333753393400,7.354393310546875,8.650022634607552,1.3733591681294142,0.992939097513631
1782969333763319300,7.3643193359375,9.386869759702682,1.4672263693504035,1.3081209722824394
1782969333773245400,7.374245361328125,9.92524481524229,1.8246774331152438,1.2548895867019891
1782969333783171300,7.38417138671875,10.41907930278778,2.3823497481904923,1.0675294974651186
1782969333793098500,7.394098388671875,10.962436822915077,3.0395591268166897,0.8973797784872353
1782969333803024400,7.4040244140625,11.616268980193137,3.575609538801014,0.6330107569150626
1782969333812950300,7.4139501953125,12.296416312944888,4.013366749815643,0.005833199665509164
1782969333822876400,7.42387646484375,12.807692933678625,4.344936207218468,-0.9748799284055828
1782969333832802300,7.43380224609375,13.267172731679677,4.564254080925882,-1.20188243833147
1782969333842729200,7.443729248046875,13.976528623259068,5.0175885080397125,-1.2435425555184483
1782969333852655400,7.4536552734375,14.842263994073868,5.616046568620205,-1.833231910970807
1782969333862581200,7.463581298828125,15.718431911575793,6.100878250020742,-1.6675366141185164
1782969333872507400,7.47350732421875,16.841534608507157,6.058986735230684,-1.204690408424288
1782969333882433500,7.48343359375,17.78337356031537,5.836734561637043,-1.4016522195473313
1782969333892360400,7.4933603515625,18.84954499423504,5.183189404606819,-2.4087793438240883
1782969333902286300,7.503286376953125,21.319977661156653,2.6667639250561592,-4.10530765914917
1782969333912212500,7.51321240234375,19.37694389773011,2.9369395870804786,-3.026336364889145
1782969333922138400,7.523138427734375,18.709827895987033,2.693756269139051,-3.81094448132962
1782969333932064300,7.533064208984375,18.73812576971054,1.3435524972781538,-4.685191659902036
1782969333941991400,7.542991455078125,15.621368544661998,0.17348112842291594,-3.781631293083727
1782969333951917300,7.552917236328125,10.68939261971712,0.12028291445970535,-2.497600952093303
1782969333961843200,7.56284326171875,-0.8110083398491144,1.3613995580054818,-1.548180459114909
1782969333971769300,7.572769287109375,-19.588834251785276,1.9764720687784254,-1.7480704326443373
1782969333981695500,7.582695556640625,-39.3136142665863,2.7814222776323554,-4.582044296899437
1782969333991622400,7.592622314453125,-49.67888482229709,2.5990394653514026,-8.835605411973596
1782969334001548300,7.60254833984375,-50.22820914187431,0.0617982845261693,-14.107992272424697
1782969334011474400,7.612474365234375,-52.227194509625434,-4.839945876023173,-20.882180118131636
1782969334021400600,7.622400634765625,-43.74275640497208,-9.640416650748252,-20.81462341620922
1782969334031327200,7.6323271484375,-35.54317919803857,-9.32570129751265,-18.541450520443917
1782969334041253400,7.64225341796875,-28.263517864918708,-6.579078530582785,-13.844773882192372
1782969334051179500,7.652179443359375,-19.06520902161002,-2.740083720549941,-5.928228019464016
1782969334061105200,7.662105224609375,-10.595177043449878,0.08577931796386837,-0.12886530323550105
1782969334071031300,7.67203125,-5.079147430852055,-0.09983721554130315,0.9986308063492179
1782969334080958500,7.68195849609375,-1.4125240344345569,-1.0392812350369989,0.9200622234817594
1782969334090884400,7.69188427734375,1.6833949852466583,-1.480717572955787,0.8606676390964537
1782969334100810200,7.701810302734375,3.8306209494411942,-1.052563910458237,0.7678083728089928
1782969334110736400,7.711736328125,5.144547247001529,-0.09727437931597233,0.772024821460247
1782969334120662500,7.72166259765625,5.985533376485109,0.6522318824745714,0.6413352254070341
1782969334130589200,7.731589111328125,6.536948530861735,1.1993392566546797,0.3830043149553239
1782969334140515300,7.741515380859375,6.880892316669225,1.4180878060415387,-0.305013312780112
1782969334150441500,7.75144140625,7.069473691329359,1.5095098060674965,-1.0556097809601575
1782969334160367400,7.761367431640625,7.541625923898816,1.3442659062445164,-1.5498732345074415
1782969334170293200,7.771293212890625,8.07195094397366,1.181041091158986,-1.9134129705362022
1782969334180220400,7.781220458984375,8.613276081490516,1.2149509595453738,-2.049890356210619
1782969334190146600,7.791146484375,9.062645988887548,1.4015413065187632,-1.9533381536893546
1782969334200072200,7.801072265625,9.724133629354833,1.8217790813252328,-1.4598311445325611
1782969334209998300,7.810998291015625,10.55586210114956,2.2220906510427594,-0.9679337625294924
1782969334219924500,7.820924560546875,11.038415316224098,2.6310098901078103,-0.42190716932341454
1782969334229851100,7.83085107421875,11.126329746520518,2.8565649046391246,-0.24264988691816106
1782969334239777300,7.84077734375,10.576736546874045,3.123967010296881,-0.10601674442645162
1782969334249703400,7.850703369140625,10.558492449653148,3.189091224375367,-0.05025014127995819
1782969334259629300,7.86062939453125,10.64088197904825,3.2192972698077558,0.0922381387144327
1782969334269555500,7.870555419921875,11.014636965751647,3.2302383505389094,0.1440234902050346
1782969334279482400,7.880482421875,11.20070431176424,3.0230639190897346,0.06741919314786791
1782969334289408500,7.890408447265625,11.274961972630024,2.839210741995275,-0.01852455813009292
1782969334299334400,7.90033447265625,11.312011308085918,2.7391335802182555,-0.15087120067533105
1782969334309260300,7.91026025390625,11.143631594455242,2.582564715890586,-0.11331165067497641
1782969334319186400,7.9201865234375,10.912490596485137,2.444095571877062,-0.001687660825997591
1782969334329113300,7.93011328125,10.683528696119785,2.3230638848766683,0.12301635801158844
1782969334339039200,7.940039306640625,10.475675050234795,2.1029054686918855,0.1793887815641239
1782969334348965400,7.94996533203125,10.34873443145156,1.7964748364597558,0.23607567789331077
1782969334358891300,7.959891357421875,10.448507641845941,1.366245682862401,0.37446401175558564
1782969334368817400,7.9698173828125,10.701577563029527,0.807185858951509,0.630948782883957
1782969334378741200,7.9797412109375,10.715573355156183,0.7588508671104908,0.6975589246712625
1782969334388668400,7.98966845703125,10.874426531028748,0.0045960956186056135,0.9511829726062715
1782969334398594300,7.99959423828125,10.915312668168545,-0.9706693249732256,1.0243648939993233
1782969334408520200,8.009520263671876,10.19134256030321,-2.102576528998464,0.9718877608522772
1782969334418446300,8.0194462890625,6.626619449436665,-2.6517893510252235,1.5425655418425797
1782969334428372500,8.02937255859375,-0.9292810835301876,-2.0516122115671633,1.4579755797937513
1782969334438299400,8.03929931640625,-13.51650054372549,-0.4431102624803781,0.27188421950787306
1782969334448225300,8.049225341796875,-29.193092378437516,1.690154104118049,-2.5421476575672624
1782969334458151400,8.0591513671875,-39.342181020379066,1.7862427807807921,-4.730035887017846
1782969334468077300,8.069077392578125,-42.72398618917465,0.011103431686013937,-7.318855279389023
1782969334478003200,8.079003173828125,-39.71997856047153,-1.082120917397365,-10.420094032788276
1782969334487930400,8.088930419921875,-33.44177624286413,-0.5792362774338573,-10.427314047169684
1782969334497856300,8.098856201171875,-28.00688937447071,0.6222138338949531,-8.642450153526664
1782969334507782400,8.108782470703124,-22.469996422064302,1.13379995896928,-6.85952979516685
1782969334517708300,8.118708251953125,-16.26596525608301,1.122707194807753,-5.827738185232877
1782969334527634400,8.128634521484376,-10.653690022695065,1.081147469255328,-4.948901925304532
1782969334537561300,8.138561279296875,-6.688425040486455,1.0069982372000812,-4.083531296148896
1782969334547487200,8.1484873046875,-3.823699041223526,0.8117525823451578,-3.2438352064758535
1782969334557413400,8.158413330078124,-1.3041612748712301,0.821537040387094,-2.551715696379542
1782969334567339500,8.168339599609375,0.5174778134614229,1.220484043753147,-1.601965533055365
1782969334577265200,8.17826513671875,1.9680232432544231,1.7068883812978863,-0.8319351002827287
1782969334587192300,8.1881923828125,3.2469384331881996,2.093483414221555,-0.36391112662442027
1782969334597118500,8.198118408203126,4.382768509745597,2.2755247195884585,-0.1665908574525267
1782969334607044400,8.20804443359375,5.436792409753799,2.7278309726983307,-0.050273412557691334
1782969334616970200,8.21797021484375,6.563596883812546,3.3692984461829063,-0.13631284276247024
1782969334626896400,8.227896484375,7.445690099710226,3.968479268079996,-0.12365714013315736
1782969334636823300,8.2378232421875,8.112169557115434,4.442951175768673,-0.03498725182693451
1782969334646749200,8.247749267578126,8.89954626148641,5.036947873026132,-0.036822029506042596
1782969334656675300,8.25767529296875,10.021049122005701,5.88000847069621,-0.1131567341079004
1782969334666601500,8.2676015625,11.883460950231552,6.5555065163373945,0.042419319790136065
1782969334676527400,8.27752734375,14.13099905400276,7.228164954638481,0.922457228859514
1782969334686454300,8.287454345703125,15.984127505576609,8.039618115645647,1.9018753852166235
1782969334696380400,8.29738037109375,16.905937230312823,8.76178205087185,2.5800124010592698
1782969334706306600,8.307306640625,16.68235059324503,8.974415916770695,2.4860224502414465
1782969334716232200,8.317232177734375,16.25332321665287,8.954145866680145,1.442215554473549
1782969334726159400,8.327159423828125,16.21516095151901,8.935157673093675,0.21816490428000687
1782969334736085500,8.33708544921875,16.204707362043855,8.502736562409996,-1.049902290033549
1782969334746011100,8.34701123046875,16.56104827260971,7.9168381236732,-1.9359506732977925
1782969334755936500,8.3569365234375,17.168381713563203,7.352874453368782,-2.0304582182489335
1782969334765862700,8.366862548828125,17.44905158933401,6.388593952649831,-1.9014463461495934
1782969334775789800,8.376789794921875,17.704437386244535,5.379245645192265,-1.9049349189177154
1782969334785715700,8.3867158203125,18.369198933815955,4.349466836385429,-1.8669541478306053
1782969334795642600,8.396642578125,18.76100629456043,3.8960754183873534,-2.4914964977383613
1782969334805568800,8.40656884765625,18.930564404320716,2.5053292082577943,-1.3125655306011437
1782969334815494700,8.41649462890625,18.30026042214632,0.9376964451760053,0.3966923563070595
1782969334825420500,8.426420654296875,16.67744060937166,0.9981962143242359,-0.011417319940775631
1782969334835347700,8.43634765625,13.714654633373021,1.0478697612926364,-0.09846563492715359
1782969334845273900,8.44627392578125,9.375033775958418,1.1097216757021844,0.408489469345659
1782969334855199700,8.45619970703125,2.9393858111888167,1.4689856341078877,0.8346750466406345
1782969334865125600,8.466125732421874,-6.439996807628869,2.280413368412852,0.33617782798111434
1782969334875051800,8.4760517578125,-16.95055027902126,2.3007537072606383,-0.8053893309235572
1782969334884978700,8.485978759765626,-25.444298648333547,1.076923056493327,-2.184922949904203
1782969334894904600,8.495904541015625,-33.426529573893546,-0.32796229975633323,-6.084626787921786
1782969334904830700,8.505830810546875,-41.47533052842617,-1.3590527026183903,-13.438240076959133
1782969334914756900,8.5157568359375,-45.19070597305298,-2.6248811780944465,-21.233641439962387
1782969334924682500,8.5256826171875,-43.978935981631274,-3.860035844495892,-26.955598698818683
1782969334934609700,8.535609619140626,-39.77584950077534,-6.540664336514473,-27.931291989433763
1782969334944535800,8.545535888671875,-33.25803763206005,-8.064569017028807,-25.249615449666976
1782969334954461700,8.555461669921876,-26.469033325493335,-6.742301007580757,-20.795549297904966
1782969334964387600,8.5653876953125,-20.428904435467718,-4.182439414146542,-15.167101512873172
1782969334974313700,8.575313720703125,-15.382930375421047,-1.453653040419519,-9.451446569031477
1782969334984241000,8.585240966796874,-12.168076348757744,0.5840324256692081,-4.661809323009848
1782969334994166500,8.59516650390625,-10.043507622051239,1.6358783240512011,-1.223348493273556
1782969335004092700,8.6050927734375,-7.371298583331703,2.3234042227469383,1.01973847630769
1782969335014018800,8.615018798828125,-4.219441987851262,2.560722301916778,2.52555366564095
1782969335023944700,8.62494482421875,-0.7979939599752426,2.1285545814722777,3.2869077477440234
1782969335033871600,8.63487158203125,2.5116286006629465,1.8437758090779184,3.68409592474401
1782969335043797800,8.6447978515625,5.372530073201656,1.8960310431025922,3.7587037142217157
1782969335053724000,8.654723876953126,8.133252677154541,1.3621895393393932,4.629944404454529
1782969335063649500,8.6646494140625,10.401001209783553,1.4168372214585543,4.929669401568174
1782969335073576700,8.67457666015625,11.814127301764488,1.4954694441467522,4.887795130173862
1782969335083502800,8.6845029296875,12.909154243290423,1.3970438489690422,4.589967198853194
1782969335093428700,8.6944287109375,14.63516555047035,1.6565221758902071,3.667030515913665
1782969335103354600,8.704354736328124,16.904961078757047,2.401268968193978,3.36176658937335
1782969335113280800,8.71428076171875,19.842979693245887,2.9067981313169002,3.4322307031750676
1782969335123207700,8.724207763671876,23.623349295830725,2.539406834426522,4.51760251212716
1782969335133133600,8.734133544921875,26.674268313312528,2.467408350664377,5.08872482201457
1782969335143059700,8.744059814453125,27.162902894127367,3.0533792701154945,4.956113171857595
1782969335152985900,8.75398583984375,24.088857852602004,3.8950457830786704,4.881034257736802
1782969335162911700,8.763911865234375,19.819762483787535,4.029352546715736,4.977165896758437
1782969335172838700,8.773838623046874,16.90601672528982,4.045815021216869,4.881211952391267
1782969335182764800,8.783764892578125,15.405505779844521,4.088053157487511,4.606294356536865
1782969335192690700,8.793690673828126,15.094632488989829,3.557065874111652,4.1901282150834795
1782969335202616600,8.803616455078124,15.068230804276466,2.6345693361550566,3.4590547049537297
1782969335212542700,8.813542724609375,14.376068039560318,1.7964833120271562,2.3353093262046576
1782969335222470000,8.823469970703124,12.924356488597391,0.8963272006943821,1.2291910818219185
1782969335232395800,8.833395751953125,11.020613117551802,0.1908893593415618,0.825624528896436
1782969335242321700,8.84332177734375,9.274984671232104,-0.5563366825573146,0.7504238150268793
1782969335252247800,8.853247802734375,8.394815701395272,-0.99147691600658,0.7650052980870008
1782969335262173700,8.863173583984375,7.996464033573865,-1.2459396797880529,0.6624052667688578
1782969335272100600,8.8731005859375,6.70766224039793,-1.3574471671178936,0.7238010349087417
1782969335282026800,8.88302685546875,3.148439480513334,-0.6173053843915463,1.1039446997359394
1782969335291952600,8.89295263671875,-3.5140713665157555,0.9747557905692606,1.0956142398945987
1782969335301878800,8.902878662109375,-11.924868480896949,2.221365843899548,0.15897037251144647
1782969335311804700,8.9128046875,-21.683000825965404,2.1319988767072555,-2.305469775997102
1782969335321731800,8.92273193359375,-33.60707435709238,1.6555612219035625,-7.464360313388704
1782969335331657700,8.93265771484375,-45.14501038980484,1.7133777433171868,-14.898644637465477
1782969335341583600,8.94258349609375,-52.85387679417133,1.9522326766654847,-23.73967850422859
1782969335351509800,8.952509765625,-53.51834257366657,2.086308408025652,-29.110048184525965
1782969335361435600,8.962435546875,-45.14342516644001,1.6852596100747583,-27.014993137073514
1782969335371362600,8.972362548828125,-31.595566192376612,0.7998452869303524,-22.08862628418207
1782969335381288700,8.982288818359375,-18.265214827728272,0.5971103357659653,-17.698111690354345
1782969335391214600,8.992214599609374,-9.437072006720303,0.30296054496876895,-13.244275840216874
1782969335401140700,9.002140625,-4.67551402323544,0.23497188136987388,-8.66350989269018
1782969335411067600,9.012067626953124,-1.3795780426442623,1.0861878015100956,-4.323674808003008
1782969335420993800,9.021993896484375,1.252744975888729,1.9296724698111414,-0.43575259319394827
1782969335430919700,9.031919677734376,3.4058523993372916,2.359482521213591,2.3813670207634567
1782969335440845800,9.041845703125,4.848482818222045,2.7800194250971075,3.962426836173236
1782969335450771700,9.051771728515625,5.6044426400661465,3.0842677448540923,4.8850797337353224
1782969335460698600,9.06169873046875,6.457630079475045,2.7539728374317285,5.2073021016001695
1782969335470624800,9.071624755859375,7.660560346359014,2.0287055293627083,5.168471143424511
1782969335480550700,9.081550537109376,9.142896752688289,1.3732491318836808,5.1218870869040485
1782969335490476500,9.0914765625,10.645710129857063,0.9836828280642628,4.963646489971876
1782969335500402700,9.101402587890625,12.196124047112464,0.796235279739648,4.754950840304792
1782969335510329600,9.11132958984375,13.780190058600901,0.7636037607260048,4.569235668730736
1782969335520255700,9.121255859375,15.067620563423633,0.9008414632484316,4.022314610902965
1782969335530181600,9.131181640625,16.413867998874185,0.8763317297615111,3.937631709873676
1782969335540107800,9.141107666015625,17.776273957443237,0.9074522596903145,4.055597287301719
1782969335550034000,9.151033935546875,18.86828476601839,1.1069948810867964,3.8151393026709552
1782969335559960600,9.160960693359375,19.221131404727696,1.5919273925133048,3.3117046276092528
1782969335569886700,9.17088671875,18.361666784745452,1.940277450455725,2.901191981872916
1782969335579812900,9.180812744140624,16.842343586802482,1.9301009243562817,2.7265800958544015
1782969335589738500,9.190738525390625,15.461267999076842,2.0318438273884354,2.684371770200133
1782969335599664600,9.20066455078125,14.604887316584586,2.217614236281067,2.7713290459021924
1782969335609591800,9.210591796875,14.470122287786007,1.9362999251268802,2.717858444738388
1782969335619517700,9.220517578125,14.711936655461788,1.411796304681897,2.1632687519788742
1782969335629443600,9.230443603515624,15.08413096871972,0.7390979727618396,1.4630232185721397
1782969335639369700,9.24036962890625,15.134322694343327,0.2727304610736668,0.9184859140757471
1782969335649296000,9.2502958984375,14.480404027825593,0.039143969647586346,0.5268199345633388
1782969335659222500,9.260222412109375,13.323054193377494,0.0457359152585268,0.4683124352108687
1782969335669148700,9.270148681640626,11.669396174746751,0.33172552474737166,0.8991398469623177
1782969335679074800,9.28007470703125,9.653367902258038,0.9435539390325546,1.6609283018946646
1782969335689000700,9.290000732421875,7.3686483610838645,1.2591377456657589,2.3911124619692563
1782969335698926600,9.299926513671876,5.175251012822986,0.9760844818897545,2.5306685244366527
1782969335708853800,9.309853759765625,2.845241546592116,0.11301906093657016,2.106044351239502
1782969335718780000,9.31977978515625,0.226361362478137,-1.2731085494816303,1.3855471801817416
1782969335728705500,9.32970556640625,-3.1338568284094332,-2.4842186156898736,0.399840445074439
1782969335738631700,9.339631591796875,-7.918319886663555,-3.166106654629111,-0.47449864956513044
1782969335748558800,9.349558837890624,-15.686394266802072,-3.0371389139324423,-1.6369596895471215
1782969335758485200,9.3594853515625,-26.596297769403456,-1.921819710484147,-4.310701344661414
1782969335768411100,9.3694111328125,-37.542858977794644,-0.07640234474427998,-7.696687306272983
1782969335778337300,9.379337158203125,-44.5736004951477,0.8879102316133678,-11.069563318681716
1782969335788263400,9.389263427734376,-46.162326315140724,1.6111429651148617,-15.588794308793544
1782969335798190000,9.399190185546875,-42.383738335275645,-0.08149616075195372,-18.211346459418536
1782969335808116200,9.4091162109375,-35.6258282551527,-1.6812044894650577,-18.921757997530698
1782969335818042400,9.41904248046875,-28.067922812104225,-1.790724894630909,-17.488506816887856
1782969335827968000,9.428968017578125,-20.3736180170536,-0.9836066210228949,-13.701459636235237
1782969335837894100,9.43889404296875,-14.117585445678234,0.3114018447734415,-9.625883683004975
1782969335847821300,9.4488212890625,-9.634999886396526,1.3262122170291841,-6.238114052847028
1782969335857747200,9.458747314453126,-6.4231736831218,1.9859343091286719,-3.6446588173687458
1782969335867673000,9.468673095703124,-3.8984360100388527,2.4332965299651024,-1.5742818457074463
1782969335877599200,9.47859912109375,-1.5912743354320524,2.8727155367121098,-0.05658566444441676
1782969335887525400,9.488525390625,0.4717641100347042,3.345158568921685,0.7305268360324203
1782969335897452000,9.4984521484375,2.2923171566963196,3.8130093049049374,1.1324107696332038
1782969335907378200,9.508378173828126,4.000136389103532,4.143249559530616,1.2706243314504622
1782969335917304300,9.51830419921875,5.685319426810741,4.198414981913566,1.0966595111638306
1782969335927230200,9.528230224609375,7.267295188021659,4.196178016641736,0.6509257683120667
1782969335937156000,9.538156005859374,8.753025328442455,3.970777023628354,0.13994973796010016
1782969335947083300,9.548083251953125,10.260323157548903,3.8134295761436223,-0.1705585920397192
1782969335957009400,9.558009521484376,12.031242112469672,3.9089354844823476,-0.2708762115091085
1782969335966935000,9.56793505859375,13.786516923534869,4.0881925659582015,-0.029396482615172862
1782969335976861200,9.577861083984375,15.419598602604864,4.507754779590666,0.5340793311070651
1782969335986787300,9.587787353515624,17.080704599153993,5.031048878115415,1.215058073181659
1782969335996714200,9.59771435546875,18.224128784102202,5.374608633041381,1.390462424752116
1782969336006640000,9.60764013671875,18.633670538979768,5.4265808123409744,1.4530148886464536
1782969336016566300,9.617566162109375,18.310019599616528,5.421947307321429,1.3656694904096425
1782969336026492200,9.6274921875,17.282067713975906,5.526252315926551,1.3874828244194388
1782969336036418300,9.637418212890625,15.82483593828678,5.399821400231122,1.2226952169965952
1782969336046345200,9.64734521484375,14.533777890616655,5.119027605819702,0.8395610651165246
1782969336056271400,9.657271240234374,13.601480674135685,4.750796643234789,0.4497371332742274
1782969336066197200,9.667197265625,12.996860583794117,4.270860040399432,0.03925062662614509
1782969336076123100,9.677123046875,12.667853085833787,3.6802632147133347,-0.38574901055358346
1782969336086049300,9.68704931640625,12.537999209952353,3.0223586934298274,-0.7831618631549179
1782969336095976200,9.69697607421875,12.533425910687447,2.287073118562996,-1.1133725263599306
1782969336105902000,9.706902099609374,12.536594019329547,1.5851181508898735,-1.260574354340136
1782969336115828200,9.716828125,12.209755097579956,1.0191609686806797,-1.122085482712835
1782969336125754000,9.726754150390626,11.828637473154068,0.5229699811369181,-0.8552082777120172
1782969336135680300,9.73668017578125,11.590443634063005,0.24616321053504941,-0.3281589183069765
1782969336145607200,9.746607177734376,10.924926884210109,0.11523761376887559,0.5352730709362775
1782969336155533300,9.756533203125,9.698139940920472,-0.17372019787579773,1.594483360606432
1782969336165459200,9.766459228515625,6.889376067376136,-0.3987498733587563,1.989364429707825
1782969336175385300,9.77638525390625,1.7514561295598745,-1.308257750404626,3.197873373506963
1782969336185312300,9.786312255859375,-5.9370548845201725,-0.7201695465385913,1.8547566372975706
1782969336195238100,9.796238037109376,-13.976212981438636,-0.5686784238666296,0.13469064838811753
1782969336205164300,9.806164306640625,-21.06219883162975,-0.4857933660395443,-2.056749866716564
1782969336215090200,9.816090087890625,-26.160878061425684,-0.22429646583758292,-5.5718684041976925
1782969336225016000,9.82601611328125,-29.54673279787302,0.19421506969816982,-9.570934533721209
1782969336234943200,9.835943115234375,-31.84288441816568,1.6176435791805386,-11.742590005773305
1782969336244869000,9.845869140625,-32.00148858771324,2.801809816622734,-11.583560304290055
1782969336254795300,9.855795166015625,-29.00817069532871,2.5152055823668835,-10.106191749501228
1782969336264721200,9.86572119140625,-23.884195696234702,1.63855689561069,-8.94606192894578
1782969336274647300,9.875647216796875,-18.03813041167259,1.0252449647694826,-7.997885590809584
1782969336284574200,9.88557421875,-12.210899591439961,0.710906262826547,-6.660633947241306
1782969336294500000,9.8955,-7.43072400124669,0.4540419177960604,-5.7684711727499955
1782969336304426200,9.90542626953125,-2.334716621008515,-1.1213121602527796,-6.076521222877502
1782969336314352400,9.915352294921876,-0.4815145196765661,-1.6283372610218823,-3.621699966585636
1782969336324278000,9.925278076171875,-0.6942816565662622,-0.7245130556356162,-3.3795559285640713
1782969336334205200,9.935205078125,1.1214929236471651,-0.6411892410650849,-2.102448226443678
1782969336344131300,9.94513134765625,1.9870418319791554,-0.8631001269403844,-1.2534594077683985
1782969336354057200,9.95505712890625,2.826349214595556,-0.5844051314391195,-1.320022422478348
1782969336363983000,9.964983154296876,4.033442446377873,-0.09694894675388932,-0.48856429205760354
1782969336373909200,9.9749091796875,5.064284208241105,0.37879809543713927,0.029348990211635825
1782969336383836200,9.984836181640626,5.73590161305666,0.5617359112523496,0.4273251027189195
1782969336393762000,9.994761962890625,6.487564614489674,0.621667963515222,0.8138499930158257
1782969336403688200,10.004688232421875,7.452706115952133,0.6626886868201196,0.9236829712621867
1782969336413614300,10.0146142578125,8.031856249472499,0.7230550388470292,1.2821189544111489
1782969336423540200,10.024540283203125,8.435033145493268,0.9748052557341754,1.8297930225633083
1782969336433467100,10.034467041015626,9.01543824751079,1.348549428782612,2.1773823252663016
1782969336443393300,10.044393310546875,9.58016471888125,1.5957780765920877,2.3241300528034565
1782969336453319400,10.0543193359375,10.1416780734241,1.618950277864933,2.2979458102330566
1782969336463245000,10.0642451171875,10.884805301702022,1.4358574176184833,2.024578074169159
1782969336473172200,10.074172119140625,11.514373955339194,1.0930347447954119,1.640271006052196
1782969336483098400,10.084098388671874,11.48660916557908,0.6217629483222961,1.275852587492764
1782969336493024000,10.09402392578125,10.647068558728694,0.11232245697453618,0.712767015197128
1782969336502950100,10.1039501953125,9.724035429677366,-0.5074165843047201,0.2540432962603867
1782969336512876300,10.113876220703125,8.72565567547977,-1.022088546565175,-0.12588541064187883
1782969336522803200,10.12380322265625,7.592272407552599,-1.30652069747895,-0.3943288420461118
1782969336532729000,10.13372900390625,5.358845246720314,-1.156505930969864,-0.48273280942514535
1782969336542655200,10.1436552734375,2.0694120721518994,-0.7370718737617135,-0.5919457560770214
1782969336552581400,10.153581298828126,-1.534123876711726,-0.2434761634081602,-0.9397485554002225
1782969336562507300,10.16350732421875,-4.959657128074765,-0.024895225673168896,-1.2968345852449537
1782969336572434200,10.17343408203125,-7.576688469451666,-0.10509265185147523,-1.8401866985447703
1782969336582360300,10.1833603515625,-8.968090805402397,-0.31427374694794413,-2.193287458145618
1782969336592286200,10.1932861328125,-9.317928909945488,-0.6008309271916746,-2.276259025212377
1782969336602212000,10.203212158203126,-8.896201042711734,-0.6740987002372741,-2.316811254222691
1782969336612138200,10.21313818359375,-7.752302810510993,-0.5062793969683349,-2.1445780800342558
1782969336622065400,10.2230654296875,-6.21746406352818,-0.4731387593887746,-1.8163443429253994
1782969336631991000,10.232990966796875,-4.7993701200068,-0.5850453290387988,-1.651081592271477
1782969336641917200,10.242917236328125,-3.5631957551687954,-0.5657030613176525,-1.2619016574211417
1782969336651843300,10.25284326171875,-2.7034873895585534,-0.4141257216669619,-0.7507298122361302
1782969336661769200,10.262769287109375,-2.104282310003042,-0.28793372929394245,-0.47288405397534367
1782969336671696100,10.272696044921876,-1.7026725171685217,-0.24135537186190484,-0.4403745539061725
1782969336681622300,10.282622314453125,-1.180589840260148,-0.35580636529773474,-0.4952500534318387
1782969336691548200,10.292548095703125,-0.6782073045998811,-0.3455450835242867,-0.4869043960213661
1782969336701474300,10.302474365234374,-0.47864510172009467,-0.21641221539378164,-0.4003837581709027
1782969336711400200,10.312400146484375,-0.31774376114606856,-0.06704553752988576,-0.25262897248305377
1782969336721327400,10.322327392578124,0.06300970614254474,0.10954524734616279,-0.09331628933995961
1782969336731253200,10.332253173828125,0.3846498902052641,0.12405293451771139,-0.02748056599125266
1782969336741179100,10.34217919921875,0.5251309585630893,0.13003259344920515,0.10618081241436302
1782969336751105500,10.35210546875,0.743233026739955,0.22169556262418627,0.23745536874867973
1782969336761031700,10.36203173828125,0.8874544506698846,0.2956922344662249,0.41615642377696926
1782969336770958600,10.37195849609375,0.9644248776257037,0.34642055118456483,0.5085612242951989
1782969336780884700,10.381884765625,1.1959154196858406,0.3142024352774024,0.45306934643685814
1782969336790810600,10.391810546875,1.5095365479439495,0.23545257755890486,0.46891748843193054
1782969336800736800,10.40173681640625,1.741348577043414,0.26585487621575593,0.572961508013308
1782969336810662700,10.41166259765625,1.8551748627096414,0.25417759016454217,0.7382151255127042
1782969336820589600,10.421589599609375,2.391338087418675,0.5356809941500426,0.84094988912642
1782969336830515700,10.431515625,2.5700199993550776,0.585114010360837,1.013917076677829
1782969336840441600,10.441441650390624,2.823760951668024,0.5379997924864292,1.0451046074282377
1782969336850367500,10.451367431640625,3.1733535570174456,0.71966861127913,1.002059538688883
1782969336860293600,10.461293701171876,3.373874375796318,0.7174956511542201,0.9520624588545411
1782969336870220500,10.471220458984375,3.3924878908514975,0.763450323729962,0.7408120832033455
1782969336880146700,10.481146728515625,3.55990489692986,0.659618193333596,0.5947250845972448
1782969336890072600,10.491072509765624,4.099397558322549,0.7427363292641938,0.6089838385090232
