time,seconds_elapsed,z,y,x
1782969326461347600,0.06234765625,-0.15047365427017212,0.7942899465560913,0.06043431535363197
1782969326471273500,0.0722734375,-0.15947620570659637,0.8336791396141052,0.10852860659360886
1782969326481200400,0.082200439453125,-0.15120869874954224,0.8562257289886475,0.17175258696079254
1782969326491126500,0.09212646484375,-0.15441380441188812,0.8601594567298889,0.2554836869239807
1782969326501052700,0.102052734375,-0.19059871137142181,0.8374909162521362,0.36320003867149353
1782969326510978600,0.111978515625,-0.2050868421792984,0.7958939671516418,0.5018308758735657
1782969326520905500,0.121905517578125,-0.15269100666046143,0.6777758002281189,0.6376894116401672
1782969326530831600,0.13183154296875,-0.059313125908374786,0.3946879208087921,0.7099582552909851
1782969326540757500,0.141757568359375,0.024088025093078613,-0.04308568686246872,0.6586423516273499
1782969326550683400,0.151683349609375,0.10869105905294418,-0.5738300085067749,0.5233372449874878
1782969326560609500,0.161609619140625,0.20828929543495178,-1.1019420623779297,0.33908697962760925
1782969326570536700,0.17153662109375,0.3162815272808075,-1.5740128755569458,0.14824619889259338
1782969326580462300,0.18146240234375,0.439267635345459,-1.933982491493225,-0.01715688221156597
1782969326590388500,0.191388427734375,0.5435964465141296,-2.1568427085876465,-0.12651586532592773
1782969326600314600,0.201314697265625,0.6125501990318298,-2.265702724456787,-0.1231195330619812
1782969326610241500,0.211241455078125,0.5956671237945557,-2.317080020904541,0.06796333938837051
1782969326620167400,0.22116748046875,0.5085386037826538,-2.310457706451416,0.47152572870254517
1782969326630093600,0.231093505859375,0.34527164697647095,-2.0981826782226562,0.8511694669723511
1782969326640019500,0.24101953125,0.18332481384277344,-1.687643051147461,0.8625989556312561
1782969326649945600,0.250945556640625,0.12056050449609756,-1.181588888168335,0.3143147826194763
1782969326659872500,0.26087255859375,0.13222408294677734,-0.6424817442893982,-0.6872425675392151
1782969326669798700,0.270798583984375,0.14465172588825226,-0.18210110068321228,-1.8129929304122925
1782969326679724500,0.280724609375,0.14387141168117523,-0.12193416059017181,-2.6484503746032715
1782969326689650400,0.290650390625,0.18348726630210876,-0.6849884390830994,-2.8706469535827637
1782969326699577600,0.30057763671875,0.34924453496932983,-1.746659278869629,-2.235165596008301
1782969326709503500,0.31050341796875,0.6354196071624756,-2.823866367340088,-0.905046820640564
1782969326719429400,0.320429443359375,0.975142240524292,-3.2941603660583496,0.6591403484344482
1782969326729355500,0.33035546875,1.265763759613037,-2.8854265213012695,1.9467954635620117
1782969326739283500,0.340283447265625,1.3763858079910278,-1.8082104921340942,2.624329090118408
1782969326749209300,0.350209228515625,1.2135138511657715,-0.273094117641449,2.623488426208496
1782969326759135500,0.360135498046875,0.833697497844696,1.1363623142242432,2.157489061355591
1782969326769061600,0.3700615234375,0.33669254183769226,2.086383581161499,1.6725256443023682
1782969326778987500,0.379987548828125,-0.14598676562309265,2.6150643825531006,1.426076889038086
1782969326788914400,0.38991455078125,-0.4876154661178589,2.7287185192108154,1.336242437362671
1782969326798840600,0.399840576171875,-0.6859237551689148,2.5743215084075928,1.338868498802185
1782969326808766500,0.409766357421875,-0.7468174695968628,2.3397839069366455,1.4322192668914795
1782969326818692400,0.4196923828125,-0.6922010779380798,2.0942955017089844,1.5446642637252808
1782969326828618500,0.429618408203125,-0.5567793846130371,1.8493355512619019,1.6486881971359253
1782969326838545700,0.439545654296875,-0.38575994968414307,1.6578038930892944,1.7320107221603394
1782969326848471300,0.44947119140625,-0.19611437618732452,1.5238929986953735,1.7929702997207642
1782969326858397400,0.4593974609375,-0.05567577853798866,1.4882255792617798,1.8344208002090454
1782969326868323600,0.469323486328125,-0.008476574905216694,1.5748597383499146,1.8665251731872559
1782969326878250200,0.479250244140625,-0.09139249473810196,1.7392008304595947,1.937865138053894
1782969326888176400,0.48917626953125,-0.27867743372917175,1.9528520107269287,2.0536372661590576
1782969326898102500,0.4991025390625,-0.4855366051197052,2.2002811431884766,2.143273115158081
1782969326908028400,0.5090283203125,-0.6582884192466736,2.463468551635742,2.161864757537842
1782969326917954600,0.51895458984375,-0.7607431411743164,2.768134832382202,2.0559616088867188
1782969326927881500,0.528881591796875,-0.7990990281105042,2.992450714111328,1.656842827796936
1782969326937807600,0.5388076171875,-0.7666934728622437,3.00947642326355,0.8661805987358093
1782969326947733500,0.5487333984375,-0.8394606113433838,2.7542672157287598,-0.19960178434848785
1782969326957659400,0.558659423828125,-0.9322166442871094,2.1472396850585938,-1.4251680374145508
1782969326967586600,0.568586669921875,-1.164760947227478,1.1298900842666626,-2.384644031524658
1782969326977512400,0.578512451171875,-1.5922744274139404,0.06382878124713898,-2.866001605987549
1782969326987438300,0.588438232421875,-1.9309728145599365,-0.8469512462615967,-3.025477647781372
1782969326997364500,0.598364501953125,-1.878240704536438,-1.356866717338562,-2.769765853881836
1782969327007290400,0.608290283203125,-1.5917375087738037,-1.759803295135498,-2.7483572959899902
1782969327017217300,0.61821728515625,-1.1473734378814697,-1.8313530683517456,-2.645275831222534
1782969327027143400,0.628143310546875,-0.6599891185760498,-1.9930311441421509,-2.47180438041687
1782969327037069600,0.638069580078125,-0.26391392946243286,-2.3116321563720703,-2.230740785598755
1782969327046995500,0.647995361328125,-0.003305781865492463,-2.7055625915527344,-2.0278244018554688
1782969327056922400,0.65792236328125,0.08949126303195953,-3.0586087703704834,-1.8812143802642822
1782969327066848500,0.6678486328125,-0.00983398873358965,-3.323787212371826,-1.892960786819458
1782969327076774400,0.6777744140625,-0.3791038990020752,-3.582965850830078,-2.0374910831451416
1782969327086700500,0.687700439453125,-0.6782477498054504,-3.9129319190979004,-2.376253366470337
1782969327096626400,0.69762646484375,-0.8107218742370605,-4.1214165687561035,-2.7066755294799805
1782969327106553600,0.7075537109375,-0.6970917582511902,-3.784104585647583,-2.805654287338257
1782969327116479500,0.7174794921875,-0.3251922130584717,-3.0644466876983643,-2.6598739624023438
1782969327126405400,0.7274052734375,0.1929694563150406,-2.4865193367004395,-2.1496706008911133
1782969327136331500,0.73733154296875,0.6694957613945007,-2.2218875885009766,-1.3072962760925293
1782969327146258400,0.747258544921875,0.9951726794242859,-2.116624593734741,-0.1996167004108429
1782969327156184300,0.757184326171875,1.2483136653900146,-1.96238374710083,1.0449386835098267
1782969327166110500,0.7671103515625,1.4166847467422485,-1.5397294759750366,2.2165544033050537
1782969327176036400,0.777036376953125,1.490838646888733,-0.9744317531585693,3.0925967693328857
1782969327185962500,0.78696240234375,1.3917921781539917,-0.09868982434272766,3.4157392978668213
1782969327195889400,0.796889404296875,1.1459025144577026,0.8283810615539551,3.330054521560669
1782969327205815600,0.806815673828125,0.7966209650039673,1.4605590105056763,2.9348554611206055
1782969327215741400,0.816741455078125,0.3977881073951721,1.8361488580703735,2.431663751602173
1782969327225667600,0.82666748046875,0.0467403419315815,2.104933977127075,1.9741054773330688
1782969327235594500,0.836594482421875,-0.16453035175800323,2.2589852809906006,1.6253529787063599
1782969327245520400,0.846520263671875,-0.24054443836212158,2.276181697845459,1.4093397855758667
1782969327255446500,0.856446533203125,-0.23301221430301666,2.1705379486083984,1.3126296997070312
1782969327265372400,0.866372314453125,-0.1757204234600067,1.9779305458068848,1.3104851245880127
1782969327275298300,0.87629833984375,-0.09461519122123718,1.771919846534729,1.335587739944458
1782969327285225500,0.8862255859375,-0.019949473440647125,1.615981101989746,1.3414312601089478
1782969327295151400,0.8961513671875,0.05041284114122391,1.5392307043075562,1.3063790798187256
1782969327305077500,0.906077392578125,0.09099622070789337,1.5293998718261719,1.2378556728363037
1782969327315003400,0.91600341796875,0.09552652388811111,1.5726165771484375,1.1441794633865356
1782969327324930300,0.925930419921875,0.09501785784959793,1.6173456907272339,1.0475841760635376
1782969327334856400,0.9358564453125,0.09946800023317337,1.6094307899475098,0.9540870189666748
1782969327344782300,0.9457822265625,0.10469046235084534,1.552782416343689,0.8374770879745483
1782969327354708500,0.95570849609375,0.11198991537094116,1.4230955839157104,0.674690842628479
1782969327364634600,0.965634521484375,0.10329656302928925,1.2263907194137573,0.4813770055770874
1782969327374561500,0.9755615234375,0.10181717574596405,0.9988414645195007,0.25117817521095276
1782969327384487400,0.9854873046875,0.08880577236413956,0.7874442934989929,-0.020493557676672935
1782969327394413600,0.99541357421875,0.04517573490738869,0.6334635019302368,-0.309815376996994
1782969327404339500,1.00533935546875,-0.01575765758752823,0.5408368706703186,-0.5723791122436523
1782969327414266400,1.015266357421875,-0.09631668031215668,0.44530928134918213,-0.7711158990859985
1782969327424192500,1.025192626953125,-0.19573648273944855,0.3327726423740387,-0.9119846224784851
1782969327434118400,1.035118408203125,-0.3202515244483948,0.17841021716594696,-0.994493305683136
1782969327444044300,1.045044189453125,-0.45460426807403564,-0.046914245933294296,-1.0608222484588623
1782969327453970400,1.054970458984375,-0.589509904384613,-0.34618112444877625,-1.0927340984344482
1782969327463897300,1.0648974609375,-0.7026761174201965,-0.6926921606063843,-1.0708684921264648
1782969327473823500,1.074823486328125,-0.7395345568656921,-1.0561941862106323,-1.0509190559387207
1782969327483749400,1.084749267578125,-0.6993966698646545,-1.3798739910125732,-1.087883710861206
1782969327493675500,1.094675537109375,-0.5701095461845398,-1.583126425743103,-1.2126402854919434
1782969327503602400,1.1046025390625,-0.4176635444164276,-1.6326005458831787,-1.3992050886154175
1782969327513528300,1.1145283203125,-0.40567001700401306,-1.6770974397659302,-1.522458553314209
1782969327523454500,1.124454345703125,-0.5732827186584473,-1.7941819429397583,-1.5510088205337524
1782969327533380600,1.134380615234375,-0.8382986783981323,-1.9683412313461304,-1.6393218040466309
1782969327543306200,1.14430615234375,-1.1376041173934937,-2.192377805709839,-1.9139177799224854
1782969327553233400,1.1542333984375,-1.456703543663025,-2.5554323196411133,-2.2365190982818604
1782969327563159600,1.16415966796875,-1.6556172370910645,-3.2752723693847656,-2.4246060848236084
1782969327573085400,1.17408544921875,-1.5334899425506592,-4.194967746734619,-2.3867197036743164
1782969327583011300,1.18401123046875,-0.9224955439567566,-4.831161975860596,-2.0463056564331055
1782969327592937500,1.1939375,0.0016676714876666665,-5.211678504943848,-1.435538649559021
1782969327602864400,1.203864501953125,0.8432816863059998,-5.101047515869141,-0.4278421401977539
1782969327612790500,1.21379052734375,1.3355158567428589,-4.163676738739014,0.8795179724693298
1782969327622716400,1.22371630859375,1.3193625211715698,-2.5123355388641357,2.084474802017212
1782969327632642600,1.233642578125,0.8712350130081177,-0.5174431204795837,2.681147813796997
1782969327642569500,1.243569580078125,0.25937509536743164,1.4277260303497314,2.5132482051849365
1782969327652495400,1.253495361328125,-0.25546345114707947,3.002016067504883,1.8089321851730347
1782969327662421500,1.26342138671875,-0.5891935229301453,3.91251802444458,0.957359790802002
1782969327672347600,1.27334765625,-0.7752605676651001,4.153087139129639,0.427984356880188
1782969327682273300,1.283273193359375,-0.8291240930557251,3.824331045150757,0.35465288162231445
1782969327692200400,1.293200439453125,-0.7585899829864502,3.1658124923706055,0.5455216765403748
1782969327702126600,1.303126708984375,-0.555598258972168,2.4112753868103027,0.8155808448791504
1782969327712052500,1.313052490234375,-0.2531355917453766,1.6947650909423828,1.0569337606430054
1782969327721978400,1.322978271484375,0.07608065009117126,1.0892544984817505,1.2425286769866943
1782969327731905500,1.332905517578125,0.3499883711338043,0.6312743425369263,1.3743655681610107
1782969327741831400,1.34283154296875,0.5369412302970886,0.36149829626083374,1.4363412857055664
1782969327751757600,1.352757568359375,0.6562039256095886,0.28415876626968384,1.4200941324234009
1782969327761683500,1.362683349609375,0.6896130442619324,0.3510302007198334,1.327034831047058
1782969327771609600,1.372609619140625,0.6469963192939758,0.5193204283714294,1.147586703300476
1782969327781536500,1.38253662109375,0.5381593108177185,0.761669933795929,0.9124628901481628
1782969327791462400,1.39246240234375,0.4045730531215668,0.9991224408149719,0.6613084077835083
1782969327801388500,1.402388427734375,0.2698216140270233,1.178595781326294,0.4201141893863678
1782969327811314700,1.412314697265625,0.16821298003196716,1.3004907369613647,0.19391220808029175
1782969327821241600,1.42224169921875,0.08843772113323212,1.3662312030792236,-0.011230284348130226
1782969327831167500,1.43216748046875,0.019479958340525627,1.3810352087020874,-0.18753713369369507
1782969327841093600,1.44209375,-0.03349803760647774,1.3459967374801636,-0.3250585198402405
1782969327851019500,1.45201953125,-0.06542561203241348,1.3210642337799072,-0.44585469365119934
1782969327860945400,1.4619453125,-0.11674632132053375,1.300898551940918,-0.5232682824134827
1782969327870872600,1.47187255859375,-0.1904865950345993,1.2366540431976318,-0.5277128219604492
1782969327880798500,1.481798583984375,-0.25629544258117676,1.092682957649231,-0.48344576358795166
1782969327890724400,1.491724365234375,-0.30148208141326904,0.8948801755905151,-0.46526941657066345
1782969327900650500,1.501650390625,-0.33377692103385925,0.6831463575363159,-0.5155634880065918
1782969327910577400,1.511577392578125,-0.3520033061504364,0.48784422874450684,-0.6632104516029358
1782969327920503600,1.521503662109375,-0.43232399225234985,0.3166804909706116,-0.8124158978462219
1782969327930429400,1.531429443359375,-0.4263225495815277,0.09891912341117859,-0.9312996864318848
1782969327940355600,1.54135546875,-0.5072834491729736,-0.22303441166877747,-0.9930405616760254
1782969327950281700,1.55128173828125,-0.5831071138381958,-0.464335173368454,-1.0867843627929688
1782969327960208400,1.56120849609375,-0.5945019721984863,-0.6329033970832825,-1.1842454671859741
1782969327970134500,1.571134521484375,-0.5818831324577332,-0.8021292090415955,-1.307846188545227
1782969327980060700,1.581060791015625,-0.6166695952415466,-1.0029040575027466,-1.4799284934997559
1782969327989986300,1.590986328125,-0.700103223323822,-1.363647699356079,-1.6803693771362305
1782969327999912400,1.600912353515625,-0.7692335844039917,-1.987637996673584,-1.9625742435455322
1782969328009839600,1.610839599609375,-0.7549132108688354,-2.875938892364502,-2.309816360473633
1782969328019765500,1.620765625,-0.6292303800582886,-4.207966327667236,-2.55614972114563
1782969328029691400,1.63069140625,-0.2709321677684784,-5.891683101654053,-2.492418050765991
1782969328039617500,1.640617431640625,0.33403363823890686,-7.258954048156738,-1.9335886240005493
1782969328049544400,1.65054443359375,1.0413892269134521,-7.564454078674316,-0.7167256474494934
1782969328059470300,1.66047021484375,1.6018080711364746,-6.465689659118652,0.7286621928215027
1782969328069396500,1.670396484375,1.681447148323059,-4.385161399841309,1.780608892440796
1782969328079322600,1.680322509765625,1.2952113151550293,-1.8551523685455322,1.9948807954788208
1782969328089248500,1.69024853515625,0.5155339241027832,0.6313018202781677,1.6082006692886353
1782969328099175400,1.700175537109375,-0.3334067165851593,2.788449764251709,0.8581437468528748
1782969328109101600,1.7101015625,-0.962509274482727,4.260311126708984,0.04109417274594307
1782969328119027700,1.72002783203125,-1.3018505573272705,4.870292663574219,-0.5666266679763794
1782969328128953300,1.729953369140625,-1.4095765352249146,4.854068756103516,-0.758600115776062
1782969328138880500,1.739880615234375,-1.3026186227798462,4.430166244506836,-0.534152626991272
1782969328148806700,1.749806640625,-0.9942496418952942,3.711970329284668,-0.05086185038089752
1782969328158732300,1.759732177734375,-0.5378035306930542,2.8738861083984375,0.5083111524581909
1782969328168658400,1.769658447265625,-0.011165834963321686,2.07131028175354,1.0831397771835327
1782969328178584600,1.77958447265625,0.5089921355247498,1.356559157371521,1.6046488285064697
1782969328188511500,1.789511474609375,0.9512297511100769,0.7728296518325806,2.0161044597625732
1782969328198437400,1.799437255859375,1.246730923652649,0.32045629620552063,2.3164098262786865
1782969328208363500,1.809363525390625,1.3522682189941406,0.04000946879386902,2.459123134613037
1782969328218289700,1.81928955078125,1.301077961921692,-0.009878196753561497,2.3966684341430664
1782969328228215600,1.829215576171875,1.1183966398239136,0.11378861963748932,2.164109230041504
1782969328238142500,1.839142578125,0.836158275604248,0.3650410771369934,1.8582491874694824
1782969328248068600,1.849068603515625,0.5421295762062073,0.6872748136520386,1.5161570310592651
1782969328257994500,1.858994384765625,0.3091341555118561,1.0377379655838013,1.1342575550079346
1782969328267920400,1.86892041015625,0.13900822401046753,1.327872633934021,0.780348002910614
1782969328277847600,1.87884765625,0.02400253899395466,1.5099643468856812,0.5070013999938965
1782969328287773700,1.888773681640625,-0.0632556676864624,1.5743728876113892,0.3273909091949463
1782969328297699300,1.89869921875,-0.13817918300628662,1.5242860317230225,0.22776125371456146
1782969328307625500,1.90862548828125,-0.21376581490039825,1.3703473806381226,0.17563067376613617
1782969328317551600,1.918551513671875,-0.2621309459209442,1.1749078035354614,0.12949194014072418
1782969328327478500,1.928478515625,-0.27805477380752563,0.9465652108192444,0.006406500469893217
1782969328337404400,1.938404296875,-0.2290765941143036,0.7356899976730347,-0.2037115842103958
1782969328347330600,1.94833056640625,-0.12006914615631104,0.5363355875015259,-0.42826026678085327
1782969328357256400,1.95825634765625,0.00971814151853323,0.2691885828971863,-0.5651155710220337
1782969328367183400,1.968183349609375,0.131225124001503,0.005330583080649376,-0.5930002331733704
1782969328377109500,1.978109619140625,0.22921720147132874,-0.2281503528356552,-0.5608276128768921
1782969328387035600,1.98803564453125,0.2779211103916168,-0.45513102412223816,-0.5300609469413757
1782969328396961500,1.99796142578125,0.267225056886673,-0.6943992972373962,-0.5472761392593384
1782969328406887400,2.007887451171875,0.20975376665592194,-0.9116559624671936,-0.600350558757782
1782969328416814600,2.017814697265625,0.18231308460235596,-1.0445111989974976,-0.7261966466903687
1782969328426740500,2.027740478515625,0.14626958966255188,-1.098043441772461,-0.9228596091270447
1782969328436666400,2.037666259765625,0.071344755589962,-1.1656872034072876,-1.1616787910461426
1782969328446592500,2.047592529296875,-0.02436073310673237,-1.2030643224716187,-1.409114956855774
1782969328456518400,2.057518310546875,-0.09810446202754974,-1.1793256998062134,-1.6359524726867676
1782969328466445600,2.067445556640625,-0.09692201763391495,-1.1778484582901,-1.7867584228515625
1782969328476371500,2.077371337890625,0.07971400022506714,-1.3639112710952759,-1.8979872465133667
1782969328486297600,2.087297607421875,0.4470387399196625,-1.8205758333206177,-2.12463116645813
1782969328496223500,2.097223388671875,0.8526091575622559,-2.7398805618286133,-2.430168867111206
1782969328506150400,2.107150390625,1.208986759185791,-4.265778541564941,-2.2714595794677734
1782969328516076500,2.11707666015625,1.5399601459503174,-5.722267150878906,-1.2140240669250488
1782969328526002400,2.12700244140625,1.7795207500457764,-6.22871208190918,0.32745084166526794
1782969328535928600,2.136928466796875,1.9493484497070312,-5.434210300445557,1.7589778900146484
1782969328545854500,2.1468544921875,1.7574889659881592,-3.2571558952331543,2.754312038421631
1782969328555781600,2.15678173828125,1.2866394519805908,-0.32431069016456604,2.967350482940674
1782969328565707500,2.16670751953125,0.6967657804489136,2.222073793411255,2.431262493133545
1782969328575633400,2.17663330078125,0.08727684617042542,3.846958637237549,1.5870383977890015
1782969328585559600,2.1865595703125,-0.40764686465263367,4.528838634490967,0.8833012580871582
1782969328595486500,2.196486572265625,-0.703382670879364,4.484207630157471,0.542830228805542
1782969328605412600,2.20641259765625,-0.7971727848052979,3.9449644088745117,0.4906376302242279
1782969328615338500,2.21633837890625,-0.7103444337844849,3.1093366146087646,0.5952508449554443
1782969328625264400,2.226264404296875,-0.5211877822875977,2.2091522216796875,0.7808156609535217
1782969328635190500,2.2361904296875,-0.2865212559700012,1.416194200515747,0.9938163161277771
1782969328645117400,2.246117431640625,-0.07169841974973679,0.804100751876831,1.1678060293197632
1782969328655043600,2.256043701171875,0.08961883187294006,0.3941427767276764,1.2777564525604248
1782969328664969500,2.265969482421875,0.2107468545436859,0.21406222879886627,1.3369231224060059
1782969328674895600,2.2758955078125,0.3176370859146118,0.2201392948627472,1.3586441278457642
1782969328684821500,2.285821533203125,0.40716058015823364,0.3251509368419647,1.3651065826416016
1782969328694748400,2.29574853515625,0.46495410799980164,0.5098342299461365,1.3641046285629272
1782969328704674600,2.305674560546875,0.4762254059314728,0.7334715723991394,1.3364837169647217
1782969328714600400,2.315600341796875,0.4205656051635742,0.958995521068573,1.321431279182434
1782969328724526300,2.3255263671875,0.31515049934387207,1.1349564790725708,1.3446459770202637
1782969328734453500,2.33545361328125,0.17979826033115387,1.2357919216156006,1.3901368379592896
1782969328744379000,2.34537890625,0.07571260631084442,1.2851206064224243,1.3843082189559937
1782969328754304800,2.3553046875,-0.002011485630646348,1.2686665058135986,1.2660835981369019
1782969328764231000,2.36523095703125,-0.08114731311798096,1.217658281326294,0.9956728219985962
1782969328774156800,2.37515673828125,-0.18601301312446594,1.1155539751052856,0.6148895621299744
1782969328784084000,2.385083984375,-0.33514896035194397,1.0617331266403198,0.17290359735488892
1782969328794009900,2.395009765625,-0.424842894077301,1.0081532001495361,-0.3289288878440857
1782969328803935700,2.404935791015625,-0.5582869648933411,0.8936095833778381,-0.7609029412269592
1782969328813862000,2.41486181640625,-0.7414882183074951,0.7223326563835144,-1.0193156003952026
1782969328823788000,2.4247880859375,-0.9162033200263977,0.4687730669975281,-1.1278364658355713
1782969328833715000,2.43471484375,-1.0614830255508423,0.12630920112133026,-1.1789989471435547
1782969328843640800,2.444640869140625,-1.1283634901046753,-0.2067824751138687,-1.2658464908599854
1782969328853567000,2.45456689453125,-1.1149710416793823,-0.45638030767440796,-1.4331516027450562
1782969328863492900,2.464492919921875,-1.0240951776504517,-0.5664117336273193,-1.6499431133270264
1782969328873420000,2.474419921875,-0.8860451579093933,-0.5650830864906311,-1.8095217943191528
1782969328883346000,2.484345947265625,-0.7077142596244812,-0.6033215522766113,-1.839991807937622
1782969328893271800,2.494271728515625,-0.5011411309242249,-0.7215307354927063,-1.7417877912521362
1782969328903197700,2.50419775390625,-0.30379557609558105,-0.8962906002998352,-1.6243211030960083
1782969328913123800,2.514123779296875,-0.23418612778186798,-1.1585512161254883,-1.5804574489593506
1782969328923051000,2.524051025390625,-0.3422697186470032,-1.5993499755859375,-1.594609260559082
1782969328932977000,2.533976806640625,-0.6057373285293579,-2.1717796325683594,-1.7051570415496826
1782969328942902800,2.54390283203125,-0.635619580745697,-2.8076729774475098,-1.9066888093948364
1782969328952829000,2.553828857421875,-0.5067936778068542,-3.3394079208374023,-2.0943782329559326
1782969328962755800,2.563755859375,-0.11922359466552734,-3.874253988265991,-2.1506240367889404
1782969328972682000,2.573681884765625,0.4599819779396057,-4.452065944671631,-1.6235731840133667
1782969328982608000,2.58360791015625,0.9647144079208374,-4.472071170806885,-0.5212863683700562
1782969328992534000,2.593533935546875,1.195770502090454,-3.759486436843872,0.6238039135932922
1782969329002459600,2.603459716796875,1.0598677396774292,-2.4667675495147705,1.3447307348251343
1782969329012386800,2.61338671875,0.6468554735183716,-0.8560089468955994,1.4753947257995605
1782969329022313000,2.62331298828125,0.06079410761594772,0.6166722774505615,1.2190542221069336
1782969329032238800,2.63323876953125,-0.5562829375267029,1.8735276460647583,0.8224576711654663
1782969329042164700,2.643164794921875,-1.027422547340393,2.7077443599700928,0.4593777060508728
1782969329052091000,2.6530908203125,-1.24674391746521,3.03202223777771,0.19586004316806793
1782969329062017800,2.663017822265625,-1.2600603103637695,2.9154162406921387,0.08040349930524826
1782969329071944000,2.67294384765625,-1.1412025690078735,2.4742727279663086,0.14766615629196167
1782969329081869800,2.682869873046875,-0.9228489398956299,1.8986629247665405,0.312276154756546
1782969329091796000,2.6927958984375,-0.6427163481712341,1.292464017868042,0.5075694918632507
1782969329101723000,2.702722900390625,-0.3608247637748718,0.7394602298736572,0.6708806157112122
1782969329111648800,2.712648681640625,-0.10838799178600311,0.300814151763916,0.7909426093101501
1782969329121575000,2.722574951171875,0.0667492002248764,0.004029096569865942,0.8707807064056396
1782969329131501000,2.7325009765625,0.1591757982969284,-0.13158546388149261,0.9090436697006226
1782969329141426700,2.7424267578125,0.18865327537059784,-0.14033767580986023,0.8892659544944763
1782969329151353900,2.752353759765625,0.17246204614639282,-0.03939986974000931,0.8081596493721008
1782969329161280000,2.762280029296875,0.109115831553936,0.14693191647529602,0.6889318227767944
1782969329171206000,2.772205810546875,0.013005014508962631,0.3724673092365265,0.541630744934082
1782969329181131800,2.7821318359375,-0.0928439199924469,0.5969022512435913,0.3996904194355011
1782969329191058000,2.792057861328125,-0.15367397665977478,0.7932280898094177,0.28890371322631836
1782969329200984800,2.80198486328125,-0.14296726882457733,0.9436575770378113,0.22011372447013855
1782969329210910700,2.81191064453125,-0.06561922281980515,1.0486348867416382,0.221425861120224
1782969329220836900,2.8218369140625,0.04320233315229416,1.0949959754943848,0.27776849269866943
1782969329230763000,2.831762939453125,0.15980404615402222,1.0558712482452393,0.33912134170532227
1782969329240690000,2.84168994140625,0.25226420164108276,0.9487114548683167,0.35187840461730957
1782969329250615800,2.85161572265625,0.29121798276901245,0.840274453163147,0.24866440892219543
1782969329260542000,2.8615419921875,0.2365638017654419,0.6767502427101135,0.08430023491382599
1782969329270468000,2.871468017578125,0.08396147936582565,0.4293348491191864,-0.0662810206413269
1782969329280393700,2.881393798828125,-0.08598095178604126,0.1464512199163437,-0.2382085770368576
1782969329290321000,2.89132080078125,-0.22949817776679993,-0.06293049454689026,-0.41065678000450134
1782969329300247000,2.9012470703125,-0.2877548336982727,-0.21176205575466156,-0.5205560922622681
1782969329310172700,2.911172607421875,-0.2736387252807617,-0.30303123593330383,-0.5305890440940857
1782969329320098800,2.921098876953125,-0.20608365535736084,-0.37367746233940125,-0.488534539937973
1782969329330026000,2.93102587890625,-0.11935462057590485,-0.37970152497291565,-0.43667158484458923
1782969329339951900,2.940951904296875,-0.02720312587916851,-0.342617005109787,-0.40559330582618713
1782969329349877800,2.950877685546875,0.029818348586559296,-0.32102009654045105,-0.37666258215904236
1782969329359804000,2.960803955078125,0.03698411583900452,-0.3406859338283539,-0.3839644491672516
1782969329369730000,2.97072998046875,-0.002382996492087841,-0.3832552433013916,-0.45965519547462463
1782969329379656700,2.98065673828125,-0.0778692290186882,-0.45425963401794434,-0.5856813192367554
1782969329389582800,2.990582763671875,-0.18606361746788025,-0.5227699875831604,-0.7088426351547241
1782969329399509000,3.000509033203125,-0.278361052274704,-0.617684006690979,-0.84616619348526
1782969329409435000,3.010434814453125,-0.303056001663208,-0.7867473363876343,-1.0425852537155151
1782969329419360800,3.02036083984375,-0.25402694940567017,-1.0553830862045288,-1.2936121225357056
1782969329429288000,3.030287841796875,-0.06752258539199829,-1.4866294860839844,-1.5661698579788208
1782969329439214000,3.040214111328125,0.21534134447574615,-2.306215286254883,-1.7930877208709717
1782969329449139700,3.0501396484375,0.597068727016449,-3.423293352127075,-1.6550813913345337
1782969329459065900,3.06006591796875,1.1168609857559204,-4.464934825897217,-0.9279089570045471
1782969329468993000,3.069992919921875,1.6498165130615234,-4.85457181930542,0.21709370613098145
1782969329478919000,3.0799189453125,2.0527191162109375,-4.170912265777588,1.286057472229004
1782969329488844800,3.0898447265625,2.033522605895996,-2.6387877464294434,1.8484904766082764
1782969329498771000,3.09977099609375,1.6221556663513184,-0.8551692366600037,1.8070544004440308
1782969329508696800,3.10969677734375,0.7852444648742676,0.8365724086761475,1.3797088861465454
1782969329518623700,3.119623779296875,-0.14776308834552765,2.2113840579986572,0.7967458963394165
1782969329528550000,3.1295498046875,-0.8809958100318909,3.070305585861206,0.2690437138080597
1782969329538476000,3.13947607421875,-1.243295669555664,3.3176329135894775,-0.08681345731019974
1782969329548402000,3.14940185546875,-1.2827144861221313,3.037245273590088,-0.16928249597549438
1782969329558327800,3.159327880859375,-1.0855913162231445,2.401620626449585,0.04222947731614113
1782969329568255000,3.1692548828125,-0.7583438754081726,1.6438229084014893,0.4695054292678833
1782969329578180900,3.179180908203125,-0.3657130002975464,0.9656334519386292,0.9483660459518433
1782969329588106800,3.189106689453125,0.025618277490139008,0.48134079575538635,1.337741732597351
1782969329598033000,3.199032958984375,0.33682116866111755,0.22069428861141205,1.6172189712524414
1782969329607960000,3.2089599609375,0.5323094129562378,0.17164233326911926,1.7731562852859497
1782969329617886000,3.218885986328125,0.5734305381774902,0.2735806703567505,1.8310151100158691
1782969329627811800,3.228811767578125,0.44542860984802246,0.5004753470420837,1.8111604452133179
1782969329637738000,3.238738037109375,0.1960560530424118,0.8339561223983765,1.7337669134140015
1782969329647663900,3.248663818359375,-0.07320763170719147,1.1840260028839111,1.6024339199066162
1782969329657590800,3.2585908203125,-0.2851089835166931,1.4660214185714722,1.4167907238006592
1782969329667517000,3.268516845703125,-0.4235834777355194,1.6726619005203247,1.1961513757705688
1782969329677442800,3.27844287109375,-0.48205533623695374,1.7973918914794922,0.9290863275527954
1782969329687369000,3.288368896484375,-0.48638349771499634,1.8252054452896118,0.665352463722229
1782969329697294800,3.298294921875,-0.45190274715423584,1.7506673336029053,0.4521717131137848
1782969329707222000,3.308221923828125,-0.3871799409389496,1.5307170152664185,0.3024839758872986
1782969329717148000,3.31814794921875,-0.2856397330760956,1.209006905555725,0.1876620352268219
1782969329727073800,3.32807373046875,-0.18200655281543732,0.8438897132873535,0.08671092987060547
1782969329737000000,3.338,-0.13313542306423187,0.4565635323524475,0.017653562128543854
1782969329746927000,3.347927001953125,-0.14604508876800537,0.09211927652359009,-0.03496623784303665
1782969329756853000,3.35785302734375,-0.19784703850746155,-0.20615608990192413,-0.132829949259758
1782969329766779100,3.367779052734375,-0.235806405544281,-0.3830278217792511,-0.2763306498527527
1782969329776705000,3.377705078125,-0.2571455240249634,-0.45156851410865784,-0.4180971086025238
1782969329786631200,3.387631103515625,-0.27651333808898926,-0.4621495306491852,-0.55476975440979
1782969329796558000,3.39755810546875,-0.2820862829685211,-0.4211874306201935,-0.709074079990387
1782969329806484200,3.407484130859375,-0.286388099193573,-0.3561301529407501,-0.8851015567779541
1782969329816410000,3.41741015625,-0.2981898784637451,-0.2740802764892578,-1.0518980026245117
1782969329826336300,3.427336181640625,-0.30674609541893005,-0.17569220066070557,-1.2262461185455322
1782969329836262100,3.43726220703125,-0.3104199171066284,-0.06167055293917656,-1.4635164737701416
1782969329846189000,3.44718896484375,-0.36854127049446106,-0.05083148926496506,-1.763561725616455
1782969329856115200,3.457115234375,-0.40102386474609375,-0.22039096057415009,-2.083106756210327
1782969329866041000,3.467041015625,-0.4544370174407959,-0.7215949296951294,-2.3320119380950928
1782969329875967000,3.476967041015625,-0.4901619851589203,-1.579073190689087,-2.4655380249023438
1782969329885894100,3.48689404296875,-0.34353551268577576,-2.6475613117218018,-2.3353092670440674
1782969329895820000,3.496820068359375,0.13650856912136078,-3.69696044921875,-1.9291340112686157
1782969329905746200,3.50674609375,0.946441650390625,-4.4494428634643555,-1.190624475479126
1782969329915672000,3.516672119140625,1.828019380569458,-4.683767318725586,-0.24982582032680511
1782969329925598200,3.52659814453125,2.472972869873047,-4.456890106201172,0.6367117166519165
1782969329935525000,3.536525146484375,2.5573182106018066,-3.939173460006714,1.2883808612823486
1782969329945451000,3.546450927734375,1.9786040782928467,-3.079676866531372,1.5635919570922852
1782969329955377200,3.556377197265625,0.9625673294067383,-1.6674730777740479,1.352512240409851
1782969329965303300,3.56630322265625,-0.1565219610929489,0.10504093021154404,0.7230561971664429
1782969329975229000,3.57622900390625,-1.0809136629104614,1.7206531763076782,0.02774960547685623
1782969329985156000,3.586156005859375,-1.6571162939071655,2.741572141647339,-0.4447076916694641
1782969329995082200,3.596082275390625,-1.8445810079574585,3.0231213569641113,-0.5722211599349976
1782969330005008100,3.606008056640625,-1.721731185913086,2.7393579483032227,-0.4564945697784424
1782969330014934000,3.61593408203125,-1.39767587184906,2.111987352371216,-0.1713927835226059
1782969330024861200,3.625861083984375,-0.9918267130851746,1.3677114248275757,0.16092389822006226
1782969330034787000,3.635787109375,-0.6072337627410889,0.6944258809089661,0.4527168869972229
1782969330044713000,3.645712890625,-0.2965903878211975,0.2409532219171524,0.6422215700149536
1782969330054639000,3.65563916015625,-0.08194626867771149,0.09196454286575317,0.721325159072876
1782969330064565200,3.665565185546875,-0.001204547705128789,0.1258002668619156,0.7742024660110474
1782969330074492200,3.6754921875,-0.04842585697770119,0.26164865493774414,0.8356781005859375
1782969330084418000,3.68541796875,-0.15822665393352509,0.4590434730052948,0.8774253129959106
1782969330094344200,3.69534423828125,-0.2714354991912842,0.7216495275497437,0.8971718549728394
1782969330104270300,3.705270263671875,-0.3474176228046417,1.0238362550735474,0.9058316349983215
1782969330114196000,3.715196044921875,-0.3781888484954834,1.2527309656143188,0.913718044757843
1782969330124123100,3.725123046875,-0.36719104647636414,1.277144432067871,0.9545168876647949
1782969330134049300,3.73504931640625,-0.3129342198371887,0.9996031522750854,0.9951119422912598
1782969330143975000,3.744974853515625,-0.21611258387565613,0.5122659802436829,0.9318179488182068
1782969330153901000,3.754901123046875,-0.06254087388515472,0.12185107171535492,0.6083267331123352
1782969330163828200,3.764828125,0.0455070324242115,0.020564397796988487,0.08750907331705093
1782969330173754000,3.774754150390625,0.0724736675620079,-0.008400142192840576,-0.38095107674598694
1782969330183680000,3.784679931640625,0.028370121493935585,-0.02316550724208355,-0.6602271795272827
1782969330193606100,3.794606201171875,-0.06701871752738953,0.03423919528722763,-0.8351494669914246
1782969330203532300,3.8045322265625,-0.21334050595760345,0.035051461309194565,-0.9033716917037964
1782969330213459000,3.814458984375,-0.348071426153183,-0.06757185608148575,-0.884950578212738
1782969330223385000,3.824385009765625,-0.4268469214439392,-0.16532211005687714,-0.8380496501922607
1782969330233311200,3.834311279296875,-0.4277920722961426,-0.24214951694011688,-0.8114907145500183
1782969330243237000,3.844237060546875,-0.348373144865036,-0.2660950720310211,-0.8213809132575989
1782969330253163000,3.8541630859375,-0.21982529759407043,-0.23099540174007416,-0.8630149364471436
1782969330263090200,3.864090087890625,-0.07964396476745605,-0.17815960943698883,-0.8927621841430664
1782969330273016300,3.874016357421875,0.03431669622659683,-0.15566149353981018,-0.8673502802848816
1782969330282942000,3.88394189453125,0.0888742133975029,-0.14832289516925812,-0.8407484889030457
1782969330292868000,3.8938681640625,0.04169098660349846,-0.21363265812397003,-0.9061501622200012
1782969330302794200,3.903794189453125,-0.08663848787546158,-0.35773682594299316,-1.1157790422439575
1782969330312721000,3.913720947265625,-0.24703001976013184,-0.5760683417320251,-1.5042753219604492
1782969330322647000,3.92364697265625,-0.3825758695602417,-0.9100822806358337,-2.0381832122802734
1782969330332573200,3.9335732421875,-0.42443224787712097,-1.4319050312042236,-2.47222900390625
1782969330342499000,3.9434990234375,-0.32831236720085144,-2.32550048828125,-2.461688995361328
1782969330352426000,3.953426025390625,0.041138116270303726,-3.5923051834106445,-1.976891040802002
1782969330362352000,3.96335205078125,0.7767093181610107,-4.847980976104736,-1.162515640258789
1782969330372278300,3.9732783203125,1.6305347681045532,-5.48559045791626,-0.19178222119808197
1782969330382202000,3.9832021484375,2.2116878032684326,-5.131933689117432,0.6528454422950745
1782969330392128300,3.993128173828125,1.9539865255355835,-4.044039249420166,1.2122820615768433
1782969330402054100,4.00305419921875,1.1380805969238281,-2.4021267890930176,1.2200433015823364
1782969330411980000,4.01297998046875,0.17094963788986206,-0.6567416191101074,0.7404306530952454
1782969330421907200,4.0229072265625,-0.6782288551330566,1.1744539737701416,0.0958263948559761
1782969330431833000,4.0328330078125,-1.2743334770202637,2.7347185611724854,-0.3582894504070282
1782969330441759200,4.04275927734375,-1.5195099115371704,3.6566498279571533,-0.5305081009864807
1782969330451685000,4.05268505859375,-1.4588184356689453,3.8841285705566406,-0.43817922472953796
1782969330461612300,4.0626123046875,-1.2252658605575562,3.5175364017486572,-0.1326483190059662
1782969330471538200,4.0725380859375,-0.902289867401123,2.7610597610473633,0.31434327363967896
1782969330481464000,4.082464111328125,-0.5305386781692505,1.8995147943496704,0.8037254810333252
1782969330491390200,4.09239013671875,-0.15633633732795715,1.1494098901748657,1.230832576751709
1782969330501316000,4.102316162109375,0.14729250967502594,0.6221378445625305,1.5494292974472046
1782969330511243000,4.112242919921875,0.3583669364452362,0.3608146607875824,1.7454997301101685
1782969330521169200,4.122169189453125,0.4665093719959259,0.3963300287723541,1.8208950757980347
1782969330531095000,4.132094970703125,0.4740314781665802,0.6403807997703552,1.8030273914337158
1782969330541021200,4.142021240234375,0.370303750038147,0.972080409526825,1.7335516214370728
1782969330550948000,4.151947998046875,0.18818429112434387,1.3041486740112305,1.6442985534667969
1782969330560874200,4.161874267578125,0.029889987781643867,1.5479892492294312,1.4961439371109009
1782969330570800000,4.171800048828125,-0.07256288081407547,1.6475297212600708,1.249778389930725
1782969330580726300,4.181726318359375,-0.14039625227451324,1.6100060939788818,0.9575629830360413
1782969330590652200,4.191652099609375,-0.14937111735343933,1.4618724584579468,0.7101020812988281
1782969330600579000,4.2015791015625,-0.13959410786628723,1.244554042816162,0.5507270693778992
1782969330610505200,4.211505126953125,-0.10420443117618561,1.0788817405700684,0.4445284605026245
1782969330620431000,4.22143115234375,-0.05994082987308502,1.0264222621917725,0.336006224155426
1782969330630357000,4.23135693359375,0.0070765516720712185,1.0699795484542847,0.19911442697048187
1782969330640283100,4.241283203125,0.07004512846469879,1.1492173671722412,0.07364492863416672
1782969330650210000,4.2512099609375,0.1442924588918686,1.220725417137146,0.0027052389923483133
1782969330660136200,4.26113623046875,0.21049810945987701,1.236135721206665,-0.03438114374876022
1782969330670062000,4.27106201171875,0.2766744792461395,1.1558542251586914,-0.04942374303936958
1782969330679988200,4.28098828125,0.32239827513694763,0.9969279766082764,-0.057914432138204575
1782969330689914000,4.2909140625,0.31845173239707947,0.7842130661010742,-0.10008558630943298
1782969330699841000,4.300841064453125,0.2506846785545349,0.5001690983772278,-0.16572532057762146
1782969330709767200,4.31076708984375,0.1297428160905838,0.1514883190393448,-0.2938673198223114
1782969330719693000,4.320693115234375,0.010627344250679016,-0.13019342720508575,-0.47917723655700684
1782969330729619000,4.330618896484375,-0.058880627155303955,-0.2992149293422699,-0.7340377569198608
1782969330739546000,4.340546142578125,-0.04309846833348274,-0.4055198132991791,-1.0820649862289429
1782969330749472000,4.350471923828125,0.03507116809487343,-0.5094730854034424,-1.4841625690460205
1782969330759397600,4.360397705078125,0.09746823459863663,-0.7344750761985779,-1.9156972169876099
1782969330769323800,4.37032373046875,0.1330062597990036,-1.2197829484939575,-2.2708046436309814
1782969330779250000,4.38025,0.13298840820789337,-2.12951397895813,-2.4030208587646484
1782969330789176800,4.3901767578125,0.10709955543279648,-3.410733461380005,-2.3471522331237793
1782969330799102700,4.400102783203125,0.1834625005722046,-4.6696367263793945,-2.1594748497009277
1782969330809028900,4.41002880859375,0.3843013346195221,-5.339262962341309,-1.825737476348877
1782969330818955000,4.419955078125,0.5251250267028809,-5.368266582489014,-1.403507947921753
1782969330828881000,4.429880859375,0.4990636110305786,-4.884701728820801,-0.8127512335777283
1782969330838807800,4.439807861328125,0.41569867730140686,-3.623657464981079,0.030187463387846947
1782969330848734000,4.44973388671875,0.1909177601337433,-1.6505824327468872,0.8941997289657593
1782969330858659800,4.459659912109375,-0.01834838092327118,0.4957013726234436,1.462990164756775
1782969330868585700,4.469585693359375,-0.06551962345838547,1.8944646120071411,1.431899905204773
1782969330878511900,4.479511962890625,-0.2402419000864029,2.525446891784668,1.0430855751037598
1782969330888439000,4.48943896484375,-0.5248240828514099,2.6222550868988037,0.6129670143127441
1782969330898364700,4.49936474609375,-0.8209827542304993,2.3805582523345947,0.2886275351047516
1782969330908290800,4.509290771484375,-1.0017116069793701,1.9604761600494385,0.08056408166885376
1782969330918217000,4.519217041015625,-0.990371823310852,1.476800799369812,-0.028796760365366936
1782969330928143600,4.5291435546875,-0.8295853137969971,1.0487382411956787,-0.0271298885345459
1782969330938069800,4.53906982421875,-0.6034445762634277,0.7160624861717224,0.07728014141321182
1782969330947996000,4.548995849609375,-0.398508220911026,0.4963684678077698,0.2321469485759735
1782969330957921800,4.558921875,-0.24676238000392914,0.41128236055374146,0.38527417182922363
1782969330967848000,4.568847900390625,-0.16715463995933533,0.4322209358215332,0.5121594071388245
1782969330977774800,4.57877490234375,-0.20915615558624268,0.5065260529518127,0.6303920745849609
1782969330987701000,4.588700927734375,-0.35680660605430603,0.6173689365386963,0.7360721826553345
1782969330997627000,4.598626953125,-0.5585298538208008,0.8033233880996704,0.7669848203659058
1782969331007552800,4.608552734375,-0.7510221004486084,1.072784662246704,0.71706223487854
1782969331017479000,4.61847900390625,-0.8555338382720947,1.2966222763061523,0.564795196056366
1782969331027405800,4.62840576171875,-0.8941302299499512,1.4199700355529785,0.35152101516723633
1782969331037331700,4.638331787109375,-0.8753810524940491,1.469232439994812,0.15638108551502228
1782969331047257900,4.6482578125,-0.8201273679733276,1.4859110116958618,0.04531395062804222
1782969331057183700,4.658183837890625,-0.7473759651184082,1.4838416576385498,0.002113218419253826
1782969331067110000,4.66810986328125,-0.6585627198219299,1.435638189315796,0.008979912847280502
1782969331077036800,4.678036865234375,-0.5510131120681763,1.3517327308654785,0.04230564460158348
1782969331086963000,4.687962890625,-0.40992680191993713,1.2734898328781128,0.08352711796760559
1782969331096888800,4.697888916015625,-0.23806369304656982,1.2007695436477661,0.13157346844673157
1782969331106815000,4.70781494140625,-0.059542689472436905,1.1210424900054932,0.1984395831823349
1782969331116742000,4.717741943359375,0.10620339959859848,1.045512318611145,0.29256394505500793
1782969331126667800,4.727667724609375,0.2334819883108139,0.9682055115699768,0.46535012125968933
1782969331136594000,4.737593994140625,0.2625679671764374,0.8080571293830872,0.7807503938674927
1782969331146519800,4.747519775390625,0.22583100199699402,0.5493131875991821,1.0956729650497437
1782969331156445700,4.75744580078125,0.15523405373096466,0.24561189115047455,1.195603847503662
1782969331166372900,4.767372802734375,0.08789097517728806,-0.03429751843214035,1.0516167879104614
1782969331176298800,4.777298828125,0.053289853036403656,-0.25373268127441406,0.7595356702804565
1782969331186225000,4.787224853515625,0.08401021361351013,-0.37419116497039795,0.38299238681793213
1782969331196150800,4.79715087890625,0.17394010722637177,-0.39708876609802246,-0.06109051778912544
1782969331206077000,4.807076904296875,0.30764251947402954,-0.3993133008480072,-0.5278782248497009
1782969331216003800,4.81700390625,0.46939200162887573,-0.42738568782806396,-1.0004936456680298
1782969331225929700,4.8269296875,0.6154296398162842,-0.6604900360107422,-1.4701114892959595
1782969331235856000,4.83685595703125,0.7432302236557007,-1.2083379030227661,-1.9390467405319214
1782969331245782000,4.846781982421875,0.7994902729988098,-2.186818838119507,-2.3194968700408936
1782969331255709000,4.856708984375,0.7463911175727844,-3.8507730960845947,-2.484915018081665
1782969331265634800,4.866634765625,0.7572887539863586,-6.100718021392822,-2.314117431640625
1782969331275561000,4.87656103515625,1.044414758682251,-8.131078720092773,-1.7727349996566772
1782969331285486800,4.88648681640625,1.4661096334457397,-9.046746253967285,-0.9128775596618652
1782969331295412700,4.896412841796875,1.6496410369873047,-8.361943244934082,0.06421174108982086
1782969331305340000,4.90633984375,1.52945077419281,-5.827095031738281,0.8468817472457886
1782969331315265800,4.916265869140625,1.0756888389587402,-2.1908655166625977,0.854544460773468
1782969331325191700,4.926191650390625,0.3571554720401764,1.2814686298370361,0.12951138615608215
1782969331335117800,4.936117919921875,-0.5552403330802917,3.6810522079467773,-0.6917440891265869
1782969331345044000,4.9460439453125,-1.3944308757781982,4.943154811859131,-1.1442292928695679
1782969331354971000,4.955970947265625,-1.8805533647537231,5.251769542694092,-1.156945824623108
1782969331364896800,4.965896728515625,-1.9505388736724854,4.8723273277282715,-0.904749870300293
1782969331374823000,4.975822998046875,-1.7244290113449097,4.03154182434082,-0.5323808193206787
1782969331384749000,4.9857490234375,-1.361348032951355,2.956850051879883,-0.06879264861345291
1782969331394674700,4.9956748046875,-0.9777138233184814,1.8906289339065552,0.42121753096580505
1782969331404601900,5.005601806640625,-0.6517713665962219,1.0650993585586548,0.8475691080093384
1782969331414528000,5.015528076171875,-0.407806396484375,0.571426510810852,1.127045750617981
1782969331424453600,5.02545361328125,-0.2743673622608185,0.383410781621933,1.2429777383804321
1782969331434379800,5.0353798828125,-0.23267719149589539,0.444866418838501,1.21475350856781
1782969331444307000,5.045306884765625,-0.24512293934822083,0.7032856941223145,1.0775543451309204
1782969331454232800,5.05523291015625,-0.2704988718032837,1.0729238986968994,0.8773821592330933
1782969331464158700,5.06515869140625,-0.27147412300109863,1.4384241104125977,0.6778269410133362
1782969331474084900,5.0750849609375,-0.25290656089782715,1.7053394317626953,0.5539358854293823
1782969331484011000,5.085010986328125,-0.21048720180988312,1.8171485662460327,0.49723586440086365
1782969331493937700,5.094937744140625,-0.13030926883220673,1.7021790742874146,0.4984090030193329
1782969331503863800,5.10486376953125,-0.007583351340144873,1.469565510749817,0.532821536064148
1782969331513790000,5.1147900390625,0.1566721647977829,1.1781864166259766,0.5881513953208923
1782969331523715800,5.1247158203125,0.3253711760044098,0.8833955526351929,0.6496381759643555
1782969331533641700,5.134641845703125,0.46617117524147034,0.6135169267654419,0.6816312670707703
1782969331543569000,5.14456884765625,0.5592347979545593,0.3992230296134949,0.6902889609336853
1782969331553495000,5.1544951171875,0.6430221199989319,0.2143099009990692,0.6726681590080261
1782969331563420700,5.164420654296875,0.7129748463630676,0.0629347562789917,0.616635262966156
1782969331573346800,5.174346923828125,0.7472302913665771,-0.013363742269575596,0.5123181343078613
1782969331583273000,5.18427294921875,0.7221150398254395,-0.06988587230443954,0.39068201184272766
1782969331593199600,5.19419970703125,0.62657630443573,-0.1532398909330368,0.2666415572166443
1782969331603125800,5.204125732421875,0.5032730102539062,-0.24545982480049133,0.1271747350692749
1782969331613052000,5.214052001953125,0.3980403244495392,-0.28123992681503296,-0.06520536541938782
1782969331622977800,5.223977783203125,0.3486732840538025,-0.2790156602859497,-0.2956486940383911
1782969331632904000,5.233904052734375,0.3507463037967682,-0.2833928167819977,-0.5185124278068542
1782969331642830800,5.243830810546875,0.38433223962783813,-0.30940312147140503,-0.6788280606269836
1782969331652757000,5.253757080078125,0.3926370143890381,-0.37418612837791443,-0.7654281854629517
1782969331662683000,5.263682861328125,0.4075011909008026,-0.5111554265022278,-0.8365873098373413
1782969331672608800,5.27360888671875,0.4153503179550171,-0.902513325214386,-1.0060138702392578
1782969331682536000,5.283535888671875,0.3959271013736725,-1.5830193758010864,-1.2495423555374146
1782969331692461800,5.2934619140625,0.4449196755886078,-2.4447081089019775,-1.4052859544754028
1782969331702387700,5.3033876953125,0.5673601031303406,-3.4887096881866455,-1.4017231464385986
1782969331712313900,5.31331396484375,0.6933702230453491,-4.824016094207764,-1.2624709606170654
1782969331722239700,5.32323974609375,0.9197189211845398,-6.029167652130127,-0.8488868474960327
1782969331732166700,5.333166748046875,1.1455382108688354,-6.310786247253418,-0.13591761887073517
1782969331742092800,5.3430927734375,1.1404448747634888,-5.427648067474365,0.6897997260093689
1782969331752018400,5.353018310546875,0.8370083570480347,-3.546806812286377,1.439215064048767
1782969331761944600,5.362944580078125,0.3094728887081146,-1.0685616731643677,1.8294979333877563
1782969331771870700,5.37287060546875,-0.2981845438480377,1.2261638641357422,1.7569571733474731
1782969331781797400,5.38279736328125,-0.8079937696456909,2.7441489696502686,1.325429916381836
1782969331791723500,5.3927236328125,-1.1801904439926147,3.3715782165527344,0.850877046585083
1782969331801649700,5.402649658203125,-1.4359564781188965,3.3366401195526123,0.703163206577301
1782969331811575300,5.4125751953125,-1.5384786128997803,2.938601493835449,0.8522980809211731
1782969331821501400,5.42250146484375,-1.4747859239578247,2.495103120803833,1.1115320920944214
1782969331831428600,5.4324287109375,-1.2785903215408325,2.125243902206421,1.3344264030456543
1782969331841354500,5.4423544921875,-1.043964147567749,1.8651049137115479,1.4878712892532349
1782969331851280400,5.4522802734375,-0.8540025353431702,1.6898998022079468,1.5502678155899048
1782969331861206500,5.46220654296875,-0.7636665105819702,1.5554388761520386,1.5374537706375122
1782969331871133400,5.472133544921875,-0.75278240442276,1.4390326738357544,1.4720652103424072
1782969331881059300,5.482059326171875,-0.7651970386505127,1.3484735488891602,1.3539396524429321
1782969331890985500,5.4919853515625,-0.7702527642250061,1.2992843389511108,1.1957966089248657
1782969331900911600,5.50191162109375,-0.7369049191474915,1.292966604232788,1.0145823955535889
1782969331910837500,5.51183740234375,-0.6665838956832886,1.315989375114441,0.852149248123169
1782969331920764400,5.521764404296875,-0.5491344928741455,1.3361891508102417,0.7369696497917175
1782969331930690600,5.531690673828125,-0.40472057461738586,1.3230440616607666,0.6896545886993408
1782969331940616700,5.54161669921875,-0.2737170457839966,1.2555142641067505,0.6723302006721497
1782969331950542300,5.551542236328125,-0.18169096112251282,1.124807596206665,0.6590410470962524
1782969331960468500,5.561468505859375,-0.12662771344184875,0.9408769607543945,0.6042789816856384
1782969331970395600,5.571395751953125,-0.10281399637460709,0.7001828551292419,0.43189069628715515
1782969331980321300,5.5813212890625,-0.09798648208379745,0.40855473279953003,0.11660277843475342
1782969331990247400,5.591247314453125,-0.13062192499637604,0.11852505058050156,-0.2331392467021942
1782969332000173600,5.601173583984375,-0.04903119057416916,-0.13786226511001587,-0.5649172067642212
1782969332010099500,5.611099365234375,0.013577061705291271,-0.29735472798347473,-0.8223093152046204
1782969332020026400,5.6210263671875,0.10182303190231323,-0.27082642912864685,-0.999718964099884
1782969332029952500,5.630952392578125,0.20184071362018585,-0.14751727879047394,-1.0668727159500122
1782969332039878700,5.640878662109375,0.25310975313186646,-0.061406634747982025,-1.0491912364959717
1782969332049804500,5.650804443359375,0.3286561667919159,-0.009156214073300362,-1.0070387125015259
1782969332059730400,5.66073046875,0.363610178232193,-0.055502939969301224,-1.0082650184631348
1782969332069657600,5.67065771484375,0.3539138734340668,-0.10129492729902267,-1.1341454982757568
1782969332079583500,5.68058349609375,0.2560533583164215,-0.14997564256191254,-1.3150053024291992
1782969332089509400,5.69050927734375,0.1352800577878952,-0.1988459825515747,-1.5807783603668213
1782969332099435500,5.700435546875,-0.04523006081581116,-0.3079226613044739,-1.8196945190429688
1782969332109361400,5.710361328125,-0.21792353689670563,-0.4640156030654907,-1.9856464862823486
1782969332119288300,5.720288330078125,-0.3362421989440918,-0.5795616507530212,-2.1415460109710693
1782969332129214500,5.73021435546875,-0.4152049124240875,-0.6150906085968018,-2.3170974254608154
1782969332139140600,5.740140625,-0.4972097873687744,-0.6684086918830872,-2.52774715423584
1782969332149066500,5.75006640625,-0.46905723214149475,-0.8166365027427673,-2.7745249271392822
1782969332158993400,5.759993408203125,-0.2519933581352234,-1.3665624856948853,-2.9798543453216553
1782969332168919600,5.76991943359375,0.194619283080101,-2.457129716873169,-2.83634352684021
1782969332178845400,5.779845458984375,0.873667299747467,-4.197329998016357,-2.141150712966919
1782969332188771600,5.789771484375,1.7039743661880493,-6.200699329376221,-1.212063193321228
1782969332198697500,5.799697509765625,2.4518117904663086,-7.471003532409668,-0.3559810221195221
1782969332208624600,5.809624755859375,2.919529914855957,-7.22492790222168,0.4907265901565552
1782969332218550500,5.819550537109375,2.7425224781036377,-5.412337779998779,1.4437272548675537
1782969332228476400,5.829476318359375,1.6944750547409058,-2.511228084564209,2.2714054584503174
1782969332238402600,5.839402587890625,0.4454112946987152,0.30168500542640686,2.628164529800415
1782969332248328400,5.849328369140625,-0.6321108937263489,2.774430513381958,2.2079360485076904
1782969332258255400,5.85925537109375,-1.360008716583252,4.611088752746582,1.3999511003494263
1782969332268181500,5.869181396484375,-1.7116996049880981,5.442082405090332,0.7827509641647339
1782969332278107400,5.879107421875,-1.7607614994049072,5.3902130126953125,0.6424401998519897
1782969332288033500,5.889033447265625,-1.6106572151184082,4.745514392852783,0.8959798216819763
1782969332297959700,5.898959716796875,-1.3074027299880981,3.7216973304748535,1.2534180879592896
1782969332307886600,5.908886474609375,-0.9154285788536072,2.5696213245391846,1.500852346420288
1782969332317812500,5.9188125,-0.565159261226654,1.544201135635376,1.595810055732727
1782969332327738600,5.928738525390625,-0.29849615693092346,0.8011331558227539,1.5447617769241333
1782969332337664500,5.93866455078125,-0.1633114218711853,0.3812253773212433,1.3516056537628174
1782969332347590400,5.94859033203125,-0.13236656785011292,0.2384732961654663,1.0747700929641724
1782969332357517600,5.958517578125,-0.13409389555454254,0.266631156206131,0.786774218082428
1782969332367443500,5.968443359375,-0.13154950737953186,0.4125705361366272,0.5413370132446289
1782969332377369300,5.978369384765625,-0.08999913185834885,0.6549496054649353,0.3613065481185913
1782969332387295500,5.98829541015625,0.014194115996360779,0.9214550852775574,0.2623767554759979
1782969332397221600,5.9982216796875,0.15765726566314697,1.1216648817062378,0.2688756585121155
1782969332407148500,6.0081484375,0.2777826189994812,1.2498494386672974,0.3808152675628662
1782969332417074400,6.018074462890625,0.3419607877731323,1.351779580116272,0.56037837266922
1782969332427000600,6.02800048828125,0.34273549914360046,1.3702062368392944,0.7872389554977417
1782969332436926700,6.0379267578125,0.3144783079624176,1.265730381011963,0.9963412880897522
1782969332446853400,6.047853271484375,0.28466901183128357,1.0690072774887085,1.1101090908050537
1782969332456779500,6.057779541015625,0.30059126019477844,0.9021064043045044,1.0338428020477295
1782969332466705700,6.06770556640625,0.37062811851501465,0.8110721111297607,0.7227278351783752
1782969332476631300,6.07763134765625,0.3875991106033325,0.7654889225959778,0.2620060443878174
1782969332486557400,6.087557373046875,0.4426128566265106,0.790063202381134,-0.20678487420082092
1782969332496484600,6.097484619140625,0.45318666100502014,0.6844712495803833,-0.5383790731430054
1782969332506410500,6.107410400390625,0.3881687819957733,0.5321709513664246,-0.7366636395454407
1782969332516336400,6.11733642578125,0.29276368021965027,0.35903114080429077,-0.8436316251754761
1782969332526262500,6.127262451171875,0.13183100521564484,0.19365787506103516,-1.0042314529418945
1782969332536188700,6.137188720703125,-0.06712310761213303,0.17636118829250336,-1.263909935951233
1782969332546115300,6.147115234375,-0.2902613878250122,0.2532983124256134,-1.5266286134719849
1782969332556041500,6.15704150390625,-0.5424851179122925,0.3112902343273163,-1.6532642841339111
1782969332565967600,6.166967529296875,-0.7904158234596252,0.2545097768306732,-1.6183308362960815
1782969332575893500,6.1768935546875,-0.9647343754768372,0.06323063373565674,-1.4863227605819702
1782969332585819400,6.1868193359375,-1.0028934478759766,-0.351471483707428,-1.482761263847351
1782969332595746600,6.19674658203125,-0.9265978932380676,-0.8310266137123108,-1.9565587043762207
1782969332605672700,6.206672607421875,-0.6183044910430908,-1.6891272068023682,-2.8248441219329834
1782969332615598300,6.216598388671875,-0.34967437386512756,-3.133483648300171,-3.466874837875366
1782969332625524500,6.2265244140625,-0.16487523913383484,-5.081042766571045,-3.5479016304016113
1782969332635450600,6.23645068359375,-0.030550451949238777,-7.388978004455566,-3.302438259124756
1782969332645377300,6.246377197265625,0.24605929851531982,-9.192129135131836,-2.6190357208251953
1782969332655303400,6.256303466796875,0.6744258403778076,-8.874654769897461,-1.1253104209899902
1782969332665229600,6.2662294921875,0.6478578448295593,-6.116967678070068,0.6249768137931824
1782969332675155500,6.276155517578125,0.2539076507091522,-2.3039348125457764,1.6877338886260986
1782969332685082400,6.286082275390625,-0.20149822533130646,0.8316628336906433,1.7654377222061157
1782969332695008500,6.296008544921875,-0.8540440797805786,2.9427947998046875,1.284379482269287
1782969332704934700,6.3059345703125,-1.6592968702316284,4.043183326721191,0.7155109643936157
1782969332714860500,6.315860595703125,-2.3502628803253174,4.418096542358398,0.340602844953537
1782969332724786400,6.325786376953125,-2.7234973907470703,4.320624828338623,0.1161806657910347
1782969332734713600,6.335713623046875,-2.785768985748291,3.8637356758117676,0.048836514353752136
1782969332744639500,6.345639404296875,-2.590059518814087,3.151320695877075,0.16909341514110565
1782969332754566700,6.355566650390625,-2.2432024478912354,2.271270513534546,0.43248218297958374
1782969332764492500,6.365492431640625,-1.820789098739624,1.382368564605713,0.742912769317627
1782969332774418700,6.375418701171875,-1.3585737943649292,0.6545554399490356,0.99440997838974
1782969332784345600,6.385345703125,-0.9452874064445496,0.13234871625900269,1.1598691940307617
1782969332794271700,6.395271728515625,-0.5889554023742676,-0.14338405430316925,1.2485666275024414
1782969332804197600,6.40519775390625,-0.3156264126300812,-0.22212015092372894,1.3093242645263672
1782969332814123500,6.41512353515625,-0.14021915197372437,-0.18835152685642242,1.3948907852172852
1782969332824049400,6.42504931640625,-0.04953799024224281,-0.053400639444589615,1.4957000017166138
1782969332833976600,6.4349765625,-0.0467991977930069,0.15073998272418976,1.5828790664672852
1782969332843902500,6.44490234375,-0.09953165054321289,0.3997785449028015,1.5735173225402832
1782969332853828600,6.45482861328125,-0.1786014288663864,0.7176095247268677,1.4571994543075562
1782969332863754500,6.46475439453125,-0.25165992975234985,1.0782958269119263,1.245532751083374
1782969332873680600,6.4746806640625,-0.33209776878356934,1.4059780836105347,0.9535259008407593
1782969332883607600,6.484607666015625,-0.4259268045425415,1.615688443183899,0.58802330493927
1782969332893533700,6.49453369140625,-0.5289661288261414,1.6473963260650635,0.17004309594631195
1782969332903459600,6.50445947265625,-0.6580511331558228,1.490318775177002,-0.2499174326658249
1782969332913385700,6.5143857421875,-0.7325727343559265,1.2542040348052979,-0.6164003610610962
1782969332923311400,6.524311279296875,-0.7268224358558655,0.9538638591766357,-0.8693998456001282
1782969332933238500,6.534238525390625,-0.673956573009491,0.6323087215423584,-0.9927484393119812
1782969332943164700,6.54416455078125,-0.5546640157699585,0.3398646116256714,-1.0040298700332642
1782969332953090600,6.554090576171875,-0.36869335174560547,0.05040804669260979,-0.9461258053779602
1782969332963016400,6.564016357421875,-0.1661468893289566,-0.19966889917850494,-0.8792865872383118
1782969332972942600,6.573942626953125,0.020373981446027756,-0.3808179199695587,-0.870614767074585
1782969332982869500,6.583869384765625,0.16016755998134613,-0.5141618847846985,-0.9435688853263855
1782969332992795600,6.593795654296875,0.21644149720668793,-0.5932303071022034,-1.0863734483718872
1782969333002721500,6.603721435546875,0.23780137300491333,-0.6703474521636963,-1.2586727142333984
1782969333012647700,6.613647705078125,0.21990200877189636,-0.7718123197555542,-1.467523455619812
1782969333022573800,6.62357373046875,0.16594795882701874,-0.9884436726570129,-1.7343356609344482
1782969333032500500,6.63350048828125,0.062374427914619446,-1.5315775871276855,-2.0346481800079346
1782969333042426600,6.643426513671875,0.03267352283000946,-2.46308970451355,-2.373096466064453
1782969333052352800,6.653352783203125,0.10947669297456741,-3.8745462894439697,-2.717729091644287
1782969333062278400,6.6632783203125,0.2988237142562866,-5.3191609382629395,-3.037306547164917
1782969333072205600,6.67320556640625,0.5789211392402649,-6.6283278465271,-3.2816126346588135
1782969333082131700,6.683131591796875,0.9442972540855408,-7.804358005523682,-2.9293549060821533
1782969333092057600,6.6930576171875,1.500704288482666,-7.543150424957275,-1.4354925155639648
1782969333101983500,6.7029833984375,1.7817127704620361,-5.5211567878723145,0.628297746181488
1782969333111909600,6.71290966796875,1.5996809005737305,-2.589613914489746,2.323158025741577
1782969333121836500,6.72283642578125,1.1833505630493164,0.10664868354797363,2.701702117919922
1782969333131762400,6.732762451171875,0.4837634861469269,2.2291736602783203,2.0253915786743164
1782969333141688600,6.7426884765625,-0.34874227643013,3.8046395778656006,0.9194867014884949
1782969333151614700,6.75261474609375,-1.088996410369873,4.683867454528809,0.09546446800231934
1782969333161540600,6.76254052734375,-1.548154354095459,4.8285017013549805,-0.31477099657058716
1782969333171467500,6.772467529296875,-1.7178752422332764,4.483184814453125,-0.39829304814338684
1782969333181393700,6.7823935546875,-1.6567847728729248,3.8686368465423584,-0.3333563804626465
1782969333191319800,6.79231982421875,-1.4388465881347656,3.139019727706909,-0.2107338011264801
1782969333201245400,6.802245361328125,-1.1515828371047974,2.347120761871338,-0.05529787763953209
1782969333211171600,6.812171630859375,-0.8680525422096252,1.6127557754516602,0.11253000795841217
1782969333221098800,6.8220986328125,-0.6390715837478638,1.010789155960083,0.2845158874988556
1782969333231024400,6.8320244140625,-0.45706847310066223,0.590347170829773,0.4483729898929596
1782969333240950500,6.841950439453125,-0.30054810643196106,0.34953856468200684,0.5968247652053833
1782969333250876700,6.851876708984375,-0.1847994029521942,0.27145814895629883,0.7124749422073364
1782969333260802600,6.861802490234375,-0.10077641159296036,0.35072073340415955,0.76995849609375
1782969333270729500,6.8717294921875,-0.010188189335167408,0.5422960519790649,0.7995786666870117
1782969333280655600,6.881655517578125,0.06893033534288406,0.7536037564277649,0.8680394887924194
1782969333290581800,6.891581787109375,0.12988023459911346,0.9608176350593567,1.0103580951690674
1782969333300507600,6.901507568359375,0.13932965695858002,1.1194427013397217,1.232381820678711
1782969333310433500,6.91143359375,0.1367163062095642,1.1928846836090088,1.47783362865448
1782969333320360700,6.921360595703125,0.127131849527359,1.2387917041778564,1.6744792461395264
1782969333330286600,6.93128662109375,0.10500337928533554,1.3150620460510254,1.7659863233566284
1782969333340212500,6.94121240234375,0.06444849818944931,1.402021884918213,1.734871745109558
1782969333350138600,6.951138671875,0.02328960970044136,1.5235941410064697,1.5806233882904053
1782969333360065800,6.961065673828125,-0.013219664804637432,1.6766090393066406,1.2782267332077026
1782969333369991400,6.970991455078125,-0.026142654940485954,1.79036545753479,0.7992665767669678
1782969333379917600,6.98091748046875,-0.04262149706482887,1.7708401679992676,0.23202364146709442
1782969333389843700,6.99084375,-0.04994438961148262,1.578023910522461,-0.29978883266448975
1782969333399769600,7.00076953125,-0.06016666814684868,1.2037930488586426,-0.6473087072372437
1782969333409696500,7.010696533203125,-0.0817747563123703,0.6283661723136902,-0.7777343988418579
1782969333419622700,7.02062255859375,-0.07397648692131042,-0.011380219832062721,-0.7575318813323975
1782969333429548500,7.030548583984375,-0.04121960699558258,-0.588178277015686,-0.7348902225494385
1782969333439474700,7.040474609375,-0.021409951150417328,-1.1121206283569336,-0.8279083371162415
1782969333449400600,7.050400634765625,-0.03490046039223671,-1.6239439249038696,-1.0182729959487915
1782969333459327700,7.06032763671875,-0.0709679126739502,-2.063572406768799,-1.2522956132888794
1782969333469253600,7.070253662109375,-0.09564024209976196,-2.4451305866241455,-1.483952522277832
1782969333479179500,7.080179443359375,-0.08377532660961151,-2.778872489929199,-1.7299209833145142
1782969333489105700,7.090105712890625,0.01781867817044258,-3.177696466445923,-1.985615611076355
1782969333499031600,7.100031494140625,0.18613338470458984,-3.6949918270111084,-2.132307291030884
1782969333508958500,7.10995849609375,0.3056209087371826,-4.294111251831055,-2.2017836570739746
1782969333518884600,7.119884521484375,0.3320317268371582,-5.044089317321777,-2.1675257682800293
1782969333528810500,7.129810546875,0.3163158893585205,-5.438757419586182,-1.483812928199768
1782969333538736600,7.139736572265625,0.3066678047180176,-4.809360980987549,-0.04362870380282402
1782969333548662800,7.149662841796875,0.12154560536146164,-3.09397554397583,1.5034830570220947
1782969333558589700,7.159589599609375,0.04880642145872116,-0.7154318690299988,2.4102513790130615
1782969333568515600,7.169515625,0.23832468688488007,1.4071635007858276,2.389800786972046
1782969333578441700,7.179441650390625,0.3205263614654541,2.8863608837127686,1.8433133363723755
1782969333588367600,7.18936767578125,0.20982620120048523,3.727030038833618,1.2544913291931152
1782969333598293500,7.19929345703125,0.013175190426409245,3.911231756210327,0.9312978386878967
1782969333608220700,7.209220703125,-0.20242367684841156,3.632350206375122,0.8501180410385132
1782969333618146600,7.219146484375,-0.3335702419281006,3.0945732593536377,0.8690014481544495
1782969333628072400,7.229072509765625,-0.3519252836704254,2.5189449787139893,0.8729570508003235
1782969333637998600,7.23899853515625,-0.28134459257125854,1.9594649076461792,0.7980028986930847
1782969333647924700,7.2489248046875,-0.19263869524002075,1.5101779699325562,0.64951491355896
1782969333657851600,7.2588515625,-0.152683824300766,1.2491376399993896,0.5047270655632019
1782969333667777500,7.268777587890625,-0.14995621144771576,1.183010220527649,0.39425569772720337
1782969333677703700,7.27870361328125,-0.1669357270002365,1.2356820106506348,0.31000953912734985
1782969333687629800,7.2886298828125,-0.20422637462615967,1.357670783996582,0.2284366339445114
1782969333697556500,7.298556396484375,-0.24432797729969025,1.481730341911316,0.1740596741437912
1782969333707482600,7.308482666015625,-0.2768036425113678,1.5908472537994385,0.19351141154766083
1782969333717408800,7.31840869140625,-0.2923855185508728,1.6434435844421387,0.332004576921463
1782969333727334400,7.32833447265625,-0.31159356236457825,1.6071420907974243,0.5676407814025879
1782969333737260500,7.338260498046875,-0.28407034277915955,1.5255305767059326,0.8465531468391418
1782969333747187700,7.348187744140625,-0.20363834500312805,1.388774037361145,1.0953677892684937
1782969333757113300,7.35811328125,-0.09520135074853897,1.238374948501587,1.301121711730957
1782969333767039200,7.368039306640625,0.027692614123225212,1.129197359085083,1.4725621938705444
1782969333776965400,7.37796533203125,0.14117656648159027,1.1213325262069702,1.5922513008117676
1782969333786891300,7.387891357421875,0.24100036919116974,1.2560615539550781,1.6455464363098145
1782969333796818200,7.397818115234375,0.32428300380706787,1.4516464471817017,1.6265956163406372
1782969333806744300,7.407744384765625,0.35561269521713257,1.6343529224395752,1.575122356414795
1782969333816670500,7.41767041015625,0.30570825934410095,1.7565326690673828,1.5261281728744507
1782969333826596400,7.427596435546875,0.20294885337352753,1.8061009645462036,1.5219051837921143
1782969333836522200,7.437522216796875,0.16837356984615326,1.7608219385147095,1.5050798654556274
1782969333846449400,7.447449462890625,0.1754101663827896,1.6586041450500488,1.4069604873657227
1782969333856375600,7.45737548828125,0.2756459712982178,1.5691022872924805,1.2272017002105713
1782969333866301200,7.46730126953125,0.4835032820701599,1.4016249179840088,0.9271158576011658
1782969333876227300,7.477227294921875,0.7213970422744751,1.049540638923645,0.572407603263855
1782969333886153500,7.487153564453125,0.9108951091766357,0.48913612961769104,0.19792692363262177
1782969333896080100,7.497080078125,0.8598542809486389,-0.5612295269966125,-0.2657821476459503
1782969333906006300,7.50700634765625,0.8023361563682556,-1.1462911367416382,-0.698228120803833
1782969333915932400,7.516932373046875,0.7968436479568481,-1.7419472932815552,-1.1954418420791626
1782969333925858300,7.5268583984375,0.5775226950645447,-2.5948712825775146,-1.864269733428955
1782969333935784400,7.536784423828125,0.3000248074531555,-3.370816230773926,-2.606802463531494
1782969333945711400,7.54671142578125,0.16634877026081085,-4.407199859619141,-3.5399131774902344
1782969333955637500,7.556637451171875,0.14793460071086884,-5.953211307525635,-4.360724925994873
1782969333965563400,7.5665634765625,0.3241572976112366,-8.025501251220703,-4.222625732421875
1782969333975489300,7.5764892578125,0.7016074061393738,-9.309961318969727,-2.5568854808807373
1782969333985415400,7.58641552734375,1.2549669742584229,-8.838476181030273,-0.52451491355896
1782969333995342300,7.59634228515625,1.563094973564148,-6.620118618011475,0.6352150440216064
1782969334005268200,7.606268310546875,1.4972707033157349,-2.4060604572296143,0.5850512385368347
1782969334015194400,7.6161943359375,0.7850684523582458,1.3561737537384033,-0.7750083804130554
1782969334025120300,7.626120361328125,-0.23115065693855286,3.5452780723571777,-1.3717747926712036
1782969334035047200,7.636047119140625,-1.2911055088043213,4.882666110992432,-1.271228551864624
1782969334044973300,7.645973388671875,-1.7714385986328125,5.535691261291504,-0.75345778465271
1782969334054899500,7.6558994140625,-1.4845935106277466,5.6868672370910645,-0.4337426424026489
1782969334064825300,7.665825439453125,-0.9973644614219666,5.2824907302856445,-0.23862828314304352
1782969334074751500,7.67575146484375,-0.6501668095588684,4.243278503417969,0.10785296559333801
1782969334084678400,7.685678466796875,-0.44924837350845337,2.8984274864196777,0.5626463294029236
1782969334094604300,7.695604248046875,-0.33911600708961487,1.4749525785446167,0.9952262043952942
1782969334104530400,7.705530517578125,-0.24600498378276825,0.39802512526512146,1.3167587518692017
1782969334114456300,7.715456298828125,-0.1330893486738205,-0.27482038736343384,1.4914252758026123
1782969334124382200,7.72538232421875,-0.012480105273425579,-0.5527846217155457,1.5469906330108643
1782969334134309400,7.735309326171875,0.08311885595321655,-0.4832383096218109,1.471417784690857
1782969334144235300,7.7452353515625,0.11546321213245392,-0.11325864493846893,1.2957719564437866
1782969334154161400,7.755161376953125,0.09382236748933792,0.38408562541007996,1.0735764503479004
1782969334164087300,7.76508740234375,0.0185270793735981,0.8415759205818176,0.8588931560516357
1782969334174013400,7.775013427734375,-0.0683140754699707,1.2123713493347168,0.6855554580688477
1782969334183940400,7.7849404296875,-0.16129274666309357,1.486654281616211,0.5463573336601257
1782969334193866200,7.7948662109375,-0.22677801549434662,1.6582857370376587,0.4350728988647461
1782969334203792400,7.80479248046875,-0.2381443828344345,1.6956892013549805,0.3169979155063629
1782969334213718500,7.814718505859375,-0.18119721114635468,1.6054861545562744,0.20609138906002045
1782969334223644200,7.82464404296875,-0.0910060703754425,1.3863476514816284,0.1246497854590416
1782969334233571300,7.8345712890625,0.012930446304380894,1.1712925434112549,0.1384316384792328
1782969334243497500,7.84449755859375,0.10958082228899002,0.9000994563102722,0.17405861616134644
1782969334253423400,7.85442333984375,0.1884354203939438,0.6501604318618774,0.21005390584468842
1782969334263349200,7.864349365234375,0.2661302089691162,0.4420738220214844,0.22034728527069092
1782969334273275400,7.874275390625,0.31129103899002075,0.22808776795864105,0.19054996967315674
1782969334283202300,7.884202392578125,0.3265773057937622,0.073316290974617,0.12235387414693832
1782969334293128200,7.894128173828125,0.3119800090789795,-0.028129639104008675,0.021512748673558235
1782969334303054300,7.904054443359375,0.2860676944255829,-0.11602433770895004,-0.06234193593263626
1782969334312980500,7.91398046875,0.2594315707683563,-0.20169609785079956,-0.12311474233865738
1782969334322906400,7.92390625,0.2489006370306015,-0.2765415906906128,-0.1649354249238968
1782969334332833300,7.933833251953125,0.2624622583389282,-0.3545064330101013,-0.18918031454086304
1782969334342759400,7.943759521484375,0.29710012674331665,-0.4290408492088318,-0.2058735340833664
1782969334352685600,7.953685546875,0.339476078748703,-0.48897475004196167,-0.238703653216362
1782969334362611200,7.963611083984375,0.3657318949699402,-0.522566556930542,-0.3198182284832001
1782969334372537300,7.973537353515625,0.36804911494255066,-0.5825806260108948,-0.48090803623199463
1782969334382464500,7.983464599609375,0.35566994547843933,-0.7975344657897949,-0.7876450419425964
1782969334392390100,7.99339013671875,0.3050296902656555,-1.3184503316879272,-1.36380136013031
1782969334402316300,8.00331640625,0.22462458908557892,-2.1621837615966797,-2.1259589195251465
1782969334412242400,8.013242431640625,0.1609089970588684,-3.24458909034729,-2.846817970275879
1782969334422168300,8.023168212890624,0.0913379043340683,-4.236072540283203,-3.219966173171997
1782969334432095200,8.03309521484375,0.11194650828838348,-4.306038856506348,-2.957767963409424
1782969334442021400,8.043021484375,0.28850528597831726,-3.5378780364990234,-2.3093085289001465
1782969334451947500,8.052947509765625,0.45091578364372253,-2.4303202629089355,-1.471695065498352
1782969334461873400,8.062873291015626,0.3589688241481781,-1.3990557193756104,-0.7527036070823669
1782969334471799300,8.07279931640625,0.17630526423454285,-0.8631792664527893,-0.16109994053840637
1782969334481726500,8.0827265625,0.10440070927143097,-0.4798007011413574,0.47878921031951904
1782969334491652400,8.09265234375,0.16304270923137665,-0.10483613610267639,1.089966058731079
1782969334501578200,8.102578125,0.22252388298511505,0.2898624539375305,1.4617146253585815
1782969334511504400,8.11250439453125,0.24282196164131165,0.6760618090629578,1.522645354270935
1782969334521431600,8.122431640625,0.20593266189098358,0.9946981072425842,1.3995503187179565
1782969334531357200,8.132357177734375,0.1250990629196167,1.2655410766601562,1.2286778688430786
1782969334541283300,8.142283447265624,-0.0018018947448581457,1.4160351753234863,1.0655664205551147
1782969334551209500,8.15220947265625,-0.13002750277519226,1.5415939092636108,0.9481534957885742
1782969334561135400,8.16213525390625,-0.19713516533374786,1.6426968574523926,0.8745959401130676
1782969334571062300,8.172062255859375,-0.23457229137420654,1.6825976371765137,0.8680570721626282
1782969334580988400,8.181988525390626,-0.26634514331817627,1.6744211912155151,0.9460917115211487
1782969334590914300,8.191914306640625,-0.28092992305755615,1.6169638633728027,1.0900959968566895
1782969334600840400,8.20184033203125,-0.24997441470623016,1.5169719457626343,1.261669635772705
1782969334610766300,8.211766357421874,-0.1630547046661377,1.4219940900802612,1.434431791305542
1782969334620693500,8.221693603515625,-0.053945790976285934,1.3757565021514893,1.605832815170288
1782969334630619400,8.231619384765626,0.052394233644008636,1.3421645164489746,1.7475314140319824
1782969334640545300,8.241545166015625,0.18843302130699158,1.2531245946884155,1.8869798183441162
1782969334650471400,8.251471435546875,0.34397628903388977,0.9983594417572021,2.045133352279663
1782969334660397300,8.261397216796874,0.5396469831466675,0.5132095217704773,2.1163859367370605
1782969334670324200,8.27132421875,0.8046440482139587,-0.224654421210289,2.094714403152466
1782969334680250400,8.28125048828125,1.1231895685195923,-0.9593726396560669,2.0258920192718506
1782969334690176300,8.29117626953125,1.4640440940856934,-1.5228698253631592,1.9530763626098633
1782969334700102400,8.301102294921876,1.7380234003067017,-1.7554398775100708,1.8552347421646118
1782969334710028300,8.3110283203125,1.874954342842102,-1.653407335281372,1.7017359733581543
1782969334719955500,8.32095556640625,1.840223789215088,-1.313814640045166,1.4907680749893188
1782969334729881300,8.33088134765625,1.6620324850082397,-0.8375707864761353,1.230435848236084
1782969334739807500,8.340807373046875,1.4362648725509644,-0.2851150929927826,0.8440590500831604
1782969334749732600,8.350732666015626,1.175387978553772,0.19763131439685822,0.3419269919395447
1782969334759658800,8.36065869140625,0.8938236832618713,0.5315973162651062,-0.22271695733070374
1782969334769585700,8.370585693359375,0.5936385989189148,0.7267960906028748,-0.8742089867591858
1782969334779511800,8.38051171875,0.2651083767414093,0.7004446387290955,-1.5673112869262695
1782969334789439700,8.390439697265625,-0.11324506253004074,0.48698189854621887,-2.2058496475219727
1782969334799365600,8.40036572265625,-0.24279187619686127,0.03718012571334839,-2.861956834793091
1782969334809291500,8.41029150390625,-0.3638570308685303,-0.5446555614471436,-3.4673664569854736
1782969334819217700,8.4202177734375,-0.47653618454933167,-1.1076164245605469,-3.9736599922180176
1782969334829143800,8.430143798828125,-0.49691441655158997,-1.7673618793487549,-4.358915328979492
1782969334839070700,8.44007080078125,-0.34415125846862793,-2.6551501750946045,-4.551750183105469
1782969334848996600,8.44999658203125,-0.03519820049405098,-3.755582094192505,-4.306723117828369
1782969334858922800,8.4599228515625,0.45819127559661865,-4.982429027557373,-3.453342914581299
1782969334868849000,8.469848876953124,1.1807007789611816,-6.184113502502441,-2.3693840503692627
1782969334878774500,8.4797744140625,2.1068849563598633,-7.125555038452148,-1.440241813659668
1782969334888701700,8.48970166015625,2.9416208267211914,-7.084133148193359,-0.5635890364646912
1782969334898627800,8.4996279296875,3.292036294937134,-5.812333106994629,0.20886826515197754
1782969334908553700,8.5095537109375,2.905886650085449,-3.810079336166382,0.6304506659507751
1782969334918479600,8.519479736328124,2.016467571258545,-1.6997936964035034,0.7790846228599548
1782969334928406800,8.52940673828125,0.9244934916496277,-0.03380803018808365,0.6962792277336121
1782969334938332700,8.539332763671876,-0.15996091067790985,1.2665530443191528,0.40893158316612244
1782969334948258600,8.549258544921875,-1.0150891542434692,2.3780555725097656,0.04775979742407799
1782969334958184700,8.559184814453126,-1.4693259000778198,3.0671751499176025,-0.274435818195343
1782969334968110800,8.56911083984375,-1.5575138330459595,3.2642600536346436,-0.4089358448982239
1782969334978037800,8.579037841796875,-1.4229083061218262,3.0269014835357666,-0.17695985734462738
1782969334987963600,8.588963623046874,-1.172928810119629,2.482607841491699,0.34271368384361267
1782969334997889800,8.598889892578125,-0.89316725730896,1.8616046905517578,0.922990620136261
1782969335007815700,8.608815673828126,-0.6829053163528442,1.2775969505310059,1.442484736442566
1782969335017741600,8.618741455078125,-0.5895019173622131,0.820546567440033,1.8200764656066895
1782969335027668700,8.628668701171875,-0.6405299305915833,0.613723874092102,2.0265986919403076
1782969335037595000,8.638594970703124,-0.6810674667358398,0.7006276249885559,1.9922410249710083
1782969335047520500,8.6485205078125,-0.7227907180786133,1.0272626876831055,1.7477729320526123
1782969335057446700,8.65844677734375,-0.811502993106842,1.493379831314087,1.424928069114685
1782969335067372800,8.668372802734375,-0.8894790410995483,2.0427322387695312,1.2068604230880737
1782969335077299700,8.6782998046875,-1.0455846786499023,2.4508132934570312,1.101843237876892
1782969335087225600,8.6882255859375,-1.25324285030365,2.712470531463623,1.0072511434555054
1782969335097151700,8.69815185546875,-1.4581904411315918,2.9376516342163086,0.7975165843963623
1782969335107077600,8.70807763671875,-1.5530327558517456,3.0072171688079834,0.35205498337745667
1782969335117003800,8.718003662109375,-1.585572361946106,2.793961763381958,-0.34706899523735046
1782969335126930700,8.7279306640625,-1.6048732995986938,2.332501173019409,-1.1559756994247437
1782969335136856800,8.73785693359375,-1.6350815296173096,1.8100701570510864,-1.7276756763458252
1782969335146782700,8.74778271484375,-1.5395933389663696,1.2363616228103638,-1.7886199951171875
1782969335156708600,8.75770849609375,-1.3547612428665161,0.5809986591339111,-1.4569700956344604
1782969335166634800,8.767634765625,-1.0878970623016357,0.043898746371269226,-1.005929708480835
1782969335176562000,8.77756201171875,-0.787141740322113,-0.2472742348909378,-0.7067957520484924
1782969335186487600,8.787487548828125,-0.5182327628135681,-0.3120732009410858,-0.6682076454162598
1782969335196413700,8.79741357421875,-0.35813283920288086,-0.17400455474853516,-0.8471198678016663
1782969335206339600,8.807339599609374,-0.31964537501335144,-0.0019377160351723433,-1.0530439615249634
1782969335216265700,8.817265625,-0.3640913963317871,0.12243030965328217,-1.1689133644104004
1782969335226192600,8.827192626953124,-0.4443782567977905,0.15306757390499115,-1.1532070636749268
1782969335236118800,8.837118896484375,-0.5237920880317688,0.0772244781255722,-1.0982847213745117
1782969335246044700,8.847044677734376,-0.5759458541870117,-0.07540367543697357,-1.1569573879241943
1782969335255970800,8.856970703125,-0.5864751935005188,-0.3767920136451721,-1.3805962800979614
1782969335265896700,8.866896728515625,-0.49029675126075745,-0.9474179744720459,-1.7654073238372803
1782969335275823900,8.876823974609374,-0.19839857518672943,-1.8288640975952148,-2.1504318714141846
1782969335285749800,8.886749755859375,0.33890536427497864,-3.0483105182647705,-2.33101224899292
1782969335295675600,8.896675537109376,1.0747828483581543,-4.801054000854492,-2.275585889816284
1782969335305601500,8.9066015625,1.855675458908081,-6.7791361808776855,-1.789637565612793
1782969335315528700,8.91652880859375,2.501331329345703,-8.070656776428223,-0.7898882627487183
1782969335325454600,8.92645458984375,2.7334046363830566,-8.033774375915527,0.5935512185096741
1782969335335380700,8.936380615234375,2.195504665374756,-6.065106391906738,2.0476603507995605
1782969335345306600,8.946306640625,1.4742136001586914,-2.8376078605651855,2.873831033706665
1782969335355232800,8.956232666015625,0.8203673362731934,0.2722006142139435,2.903775453567505
1782969335365159700,8.96615966796875,0.19065649807453156,2.705178737640381,2.1716909408569336
1782969335375085800,8.9760859375,-0.4196840822696686,4.048984527587891,1.1745057106018066
1782969335385011700,8.98601171875,-0.9692897200584412,4.262393951416016,0.5469746589660645
1782969335394937900,8.995937744140624,-1.354828119277954,3.72416353225708,0.33901986479759216
1782969335404863700,9.00586376953125,-1.4847290515899658,2.8731448650360107,0.354646772146225
1782969335414790700,9.015790771484374,-1.3880501985549927,1.9486690759658813,0.43782928586006165
1782969335424716800,9.025716796875,-1.1547436714172363,1.187490701675415,0.5226368308067322
1782969335434642700,9.035642578125,-0.8278350830078125,0.7296299934387207,0.6283488869667053
1782969335444568600,9.045568603515624,-0.5020971894264221,0.556793749332428,0.7804105877876282
1782969335454494700,9.05549462890625,-0.2662724256515503,0.5855782628059387,0.9533120393753052
1782969335464421600,9.065421630859374,-0.15330485999584198,0.7330401539802551,1.091905951499939
1782969335474347800,9.07534765625,-0.12565939128398895,0.9689685106277466,1.1713147163391113
1782969335484273700,9.085273681640626,-0.1479780077934265,1.2604118585586548,1.1881415843963623
1782969335494199800,9.09519970703125,-0.22721052169799805,1.539171576499939,1.1503255367279053
1782969335504126000,9.1051259765625,-0.34407588839530945,1.734334945678711,1.06703519821167
1782969335514052600,9.115052490234374,-0.5030103921890259,1.8123104572296143,0.9827783107757568
1782969335523978800,9.124978759765625,-0.5754228234291077,1.7878133058547974,0.8018199801445007
1782969335533905000,9.13490478515625,-0.627396821975708,1.6680285930633545,0.521906852722168
1782969335543830500,9.14483056640625,-0.6641702651977539,1.5124530792236328,0.1336430162191391
1782969335553757700,9.1547578125,-0.7357001304626465,1.4260252714157104,-0.27848702669143677
1782969335563683800,9.164683837890625,-0.819793701171875,1.3412270545959473,-0.5806940197944641
1782969335573609700,9.174609619140625,-0.8958972096443176,1.1978157758712769,-0.6756975054740906
1782969335583535600,9.18453564453125,-0.9055173993110657,1.012345314025879,-0.6116663217544556
1782969335593461800,9.194461669921875,-0.8589789271354675,0.7650079131126404,-0.4878554344177246
1782969335603388000,9.204387939453126,-0.8390302062034607,0.44625818729400635,-0.3897309899330139
1782969335613314600,9.214314453125,-0.8912391066551208,0.16024427115917206,-0.408180832862854
1782969335623240700,9.22424072265625,-0.9996659755706787,-0.034932948648929596,-0.5638045072555542
1782969335633166800,9.234166748046874,-1.1455835103988647,-0.11783289164304733,-0.8126630783081055
1782969335643092700,9.2440927734375,-1.286428451538086,-0.09617393463850021,-1.0637391805648804
1782969335653019600,9.25401953125,-1.3662357330322266,-0.09341517090797424,-1.2579835653305054
1782969335662945800,9.26394580078125,-1.3062576055526733,-0.05384006351232529,-1.3885290622711182
1782969335672872000,9.273871826171876,-1.0747804641723633,0.03194328397512436,-1.4585329294204712
1782969335682797600,9.283797607421874,-0.7495277523994446,0.04121934249997139,-1.4558790922164917
1782969335692723700,9.2937236328125,-0.45931166410446167,-0.22432471811771393,-1.3520094156265259
1782969335702651000,9.30365087890625,-0.2777634263038635,-0.9249855875968933,-1.1798884868621826
1782969335712576500,9.313576416015625,-0.21547529101371765,-2.003462791442871,-1.0848019123077393
1782969335722502700,9.323502685546876,-0.19178462028503418,-3.220381259918213,-1.1972062587738037
1782969335732428800,9.3334287109375,-0.1255725771188736,-4.502251625061035,-1.3716193437576294
1782969335742354700,9.343354736328125,0.018002701923251152,-5.647637367248535,-1.1503583192825317
1782969335752282000,9.3532822265625,0.29724979400634766,-6.152795791625977,-0.40105581283569336
1782969335762208300,9.363208251953125,0.712138295173645,-5.581875801086426,0.5918284058570862
1782969335772134400,9.373134521484374,0.94435054063797,-3.9811768531799316,1.4209357500076294
1782969335782060000,9.38306005859375,0.827721118927002,-1.7052342891693115,1.8515419960021973
1782969335791986200,9.392986083984376,0.4540311396121979,0.4394274353981018,1.8258256912231445
1782969335801913300,9.402913330078125,-0.18707002699375153,2.180647611618042,1.6384440660476685
1782969335811839000,9.4128388671875,-0.7684902548789978,3.342865467071533,1.3643478155136108
1782969335821765000,9.42276513671875,-1.1122037172317505,3.8279170989990234,1.035650610923767
1782969335831691300,9.432691162109375,-1.2388769388198853,3.7893011569976807,0.8253682255744934
1782969335841617200,9.4426171875,-1.2343016862869263,3.3478126525878906,0.8039204478263855
1782969335851544000,9.4525439453125,-1.1364789009094238,2.6886210441589355,0.9512100219726562
1782969335861470200,9.46247021484375,-0.9672678112983704,1.9729235172271729,1.172262191772461
1782969335871396400,9.472396240234374,-0.7664250135421753,1.3511749505996704,1.3911703824996948
1782969335881322200,9.482322265625,-0.5671148300170898,0.9622586965560913,1.5725218057632446
1782969335891248000,9.492248046875,-0.37541118264198303,0.8088382482528687,1.702051043510437
1782969335901175300,9.50217529296875,-0.2255130112171173,0.8420417308807373,1.762133240699768
1782969335911101200,9.51210107421875,-0.142861008644104,1.0172487497329712,1.759830117225647
1782969335921027000,9.522027099609375,-0.1757230907678604,1.2651727199554443,1.7312089204788208
1782969335930953200,9.531953125,-0.29629212617874146,1.5403106212615967,1.6640961170196533
1782969335940880400,9.54188037109375,-0.46508753299713135,1.779928207397461,1.5588374137878418
1782969335950806000,9.551805908203125,-0.6489740014076233,1.9693751335144043,1.4083805084228516
1782969335960732200,9.561732177734376,-0.7598882913589478,2.02657151222229,1.2399427890777588
1782969335970658300,9.571658203125,-0.7482864856719971,1.9238039255142212,1.0259993076324463
1782969335980584200,9.581584228515625,-0.6455371975898743,1.7051631212234497,0.7402370572090149
1782969335990511000,9.591510986328124,-0.5033049583435059,1.452746868133545,0.40482020378112793
1782969336000437200,9.601437255859375,-0.3155291974544525,1.220656394958496,0.08149272948503494
1782969336010363100,9.611363037109374,-0.09485087543725967,0.9853025078773499,-0.15752197802066803
1782969336020289300,9.621289306640625,0.14857375621795654,0.7280927896499634,-0.25392869114875793
1782969336030215200,9.631215087890626,0.3676307499408722,0.4510105848312378,-0.21245314180850983
1782969336040142300,9.641142333984375,0.5595421195030212,0.16419319808483124,-0.09054401516914368
1782969336050068200,9.651068115234375,0.6935142874717712,-0.09840913116931915,0.04544444754719734
1782969336059994000,9.660994140625,0.7625354528427124,-0.2786036729812622,0.14403067529201508
1782969336069920300,9.670920166015625,0.7453623414039612,-0.3656908869743347,0.15733583271503448
1782969336079846100,9.68084619140625,0.6591270565986633,-0.34595340490341187,0.05938609316945076
1782969336089773000,9.69077294921875,0.5086997151374817,-0.24831978976726532,-0.16842682659626007
1782969336099699200,9.70069921875,0.3048893213272095,-0.13319720327854156,-0.47327300906181335
1782969336109625000,9.710625,0.07685776054859161,0.001377919572405517,-0.8144361972808838
1782969336119551200,9.72055126953125,-0.12600213289260864,0.137406587600708,-1.2101435661315918
1782969336129477400,9.730477294921876,-0.25515827536582947,0.22623713314533234,-1.6868449449539185
1782969336139404300,9.740404296875,-0.2565239369869232,0.2121143937110901,-2.25308895111084
1782969336149330200,9.750330078125,-0.2704080641269684,-0.19061948359012604,-2.865128517150879
1782969336159256300,9.76025634765625,-0.16361103951931,-1.2383613586425781,-3.3543615341186523
1782969336169182200,9.77018212890625,-0.17266978323459625,-3.0481252670288086,-3.3517792224884033
1782969336179108000,9.780108154296874,-0.22825980186462402,-5.118997097015381,-2.844491481781006
1782969336189035300,9.79003515625,-0.18121638894081116,-6.840907573699951,-2.1563751697540283
1782969336198961200,9.799961181640626,-0.06926482170820236,-7.565193176269531,-1.5639700889587402
1782969336208887000,9.809886962890625,-0.0302007794380188,-7.091111660003662,-1.2004581689834595
1782969336218813200,9.819813232421875,-0.09972605854272842,-5.549692630767822,-1.0387835502624512
1782969336228739300,9.8297392578125,-0.10606677830219269,-3.0889892578125,-0.860072910785675
1782969336238666200,9.839666259765625,0.04990710690617561,-0.5051952600479126,-0.6513029336929321
1782969336248592100,9.849592041015624,0.2432752400636673,1.4661670923233032,-0.4118298888206482
1782969336258518300,9.859518310546875,0.28574785590171814,2.6120641231536865,-0.13889263570308685
1782969336268444400,9.8694443359375,0.23827728629112244,3.06724214553833,0.0927368625998497
1782969336278370000,9.8793701171875,0.1734388917684555,2.983426094055176,0.24174098670482635
1782969336288297200,9.889297119140625,-0.17745521664619446,2.518429756164551,0.25360217690467834
1782969336298223400,9.899223388671874,-0.2947240471839905,1.9147357940673828,0.19032999873161316
1782969336308149000,9.90914892578125,-0.3299480676651001,1.5887113809585571,0.33918899297714233
1782969336318075100,9.9190751953125,-0.3519306182861328,1.211607575416565,0.4404420852661133
1782969336328002300,9.929002197265625,-0.3059183657169342,1.0051199197769165,0.54692542552948
1782969336337928200,9.93892822265625,-0.2761876583099365,0.9071051478385925,0.6591187715530396
1782969336347854000,9.94885400390625,-0.2465977966785431,0.8670980930328369,0.7548106908798218
1782969336357780200,9.9587802734375,-0.19693037867546082,0.9692979454994202,0.7598158121109009
1782969336367706400,9.968706298828126,-0.17825601994991302,1.1462639570236206,0.7159985899925232
1782969336377633300,9.97863330078125,-0.19450317323207855,1.280896544456482,0.6772775650024414
1782969336387559200,9.98855908203125,-0.24499431252479553,1.3061294555664062,0.6386443972587585
1782969336397485300,9.9984853515625,-0.3085618317127228,1.239632487297058,0.6346738934516907
1782969336407411200,10.0084111328125,-0.31948530673980713,1.1317728757858276,0.6852611899375916
1782969336417337000,10.018337158203124,-0.27892830967903137,1.0095657110214233,0.7379382252693176
1782969336427264300,10.02826416015625,-0.19014278054237366,0.8655904531478882,0.7719672918319702
1782969336437190400,10.0381904296875,-0.07389473170042038,0.6967527270317078,0.7930006980895996
1782969336447116000,10.048115966796875,0.04999206215143204,0.5337566137313843,0.7446866631507874
1782969336457042200,10.058042236328125,0.15763384103775024,0.3813886344432831,0.584810197353363
1782969336466968300,10.06796826171875,0.2247055470943451,0.22290657460689545,0.331148624420166
1782969336476895200,10.077895263671875,0.23785783350467682,0.08499238640069962,0.07282866537570953
1782969336486821000,10.087821044921874,0.21405556797981262,-0.026558905839920044,-0.17923472821712494
1782969336496747300,10.097747314453125,0.1682337522506714,-0.16590668261051178,-0.42633187770843506
1782969336506673200,10.107673095703126,0.11951734125614166,-0.4151945412158966,-0.7099326848983765
1782969336516599300,10.117599365234375,0.08113959431648254,-0.7489525079727173,-0.9913294911384583
1782969336526526200,10.127526123046875,0.05739058926701546,-1.0726933479309082,-1.1325709819793701
1782969336536452400,10.137452392578124,0.04055514931678772,-1.3576971292495728,-1.11244797706604
1782969336546378200,10.147378173828125,0.03615693747997284,-1.4607830047607422,-0.9795522093772888
1782969336556304100,10.15730419921875,0.05583050847053528,-1.2546995878219604,-0.767122209072113
1782969336566230300,10.167230224609375,0.06331212818622589,-0.8419434428215027,-0.5710728168487549
1782969336576157400,10.177157470703126,0.06220265477895737,-0.3936881721019745,-0.39379018545150757
1782969336586083000,10.1870830078125,0.04893451929092407,0.00950855016708374,-0.20857957005500793
1782969336596009200,10.19700927734375,0.029039906337857246,0.33358490467071533,-0.010942928493022919
1782969336605935000,10.20693505859375,0.02503637783229351,0.526311457157135,0.1702345758676529
1782969336615861200,10.216861328125,0.002407231368124485,0.5869127511978149,0.3139651119709015
1782969336625788200,10.2267880859375,-0.03361202031373978,0.530647337436676,0.40914011001586914
1782969336635714300,10.23671435546875,-0.04935450106859207,0.44818124175071716,0.4763348400592804
1782969336645640200,10.24664013671875,-0.04057246074080467,0.38296496868133545,0.5002177953720093
1782969336655566300,10.25656640625,-0.02587766945362091,0.36584749817848206,0.4832848906517029
1782969336665493200,10.2664931640625,-0.008667257614433765,0.3764311671257019,0.4409361183643341
1782969336675419400,10.27641943359375,-0.015164305455982685,0.39018452167510986,0.3594127595424652
1782969336685345300,10.28634521484375,-0.016829846426844597,0.4168909788131714,0.26909005641937256
1782969336695271200,10.296271240234375,-0.02184910513460636,0.487234890460968,0.19261471927165985
1782969336705197300,10.306197265625,0.0007595335482619703,0.5430137515068054,0.12881603837013245
1782969336715124200,10.316124267578125,0.01930791698396206,0.5449064373970032,0.10212636739015579
1782969336725050000,10.326050048828124,0.042824164032936096,0.49378442764282227,0.11251828819513321
1782969336734976300,10.335976318359375,0.07710916548967361,0.43008825182914734,0.14896124601364136
1782969336744902100,10.345902099609376,0.11772796511650085,0.3689945340156555,0.18496346473693848
1782969336754828800,10.355828857421875,0.162305548787117,0.33489862084388733,0.21013939380645752
1782969336764755700,10.365755615234375,0.20105507969856262,0.3448213040828705,0.20570415258407593
1782969336774681600,10.375681640625,0.22584697604179382,0.3713381290435791,0.17608900368213654
1782969336784607700,10.385607666015625,0.24905376136302948,0.3973444402217865,0.14556625485420227
1782969336794533600,10.39553369140625,0.2556629180908203,0.3738044798374176,0.1959972083568573
1782969336804459500,10.40545947265625,0.2560935616493225,0.2366061508655548,0.2570895850658417
1782969336814386700,10.41538671875,0.26869216561317444,0.15561755001544952,0.29838642477989197
1782969336824312600,10.4253125,0.28111156821250916,0.05149541422724724,0.33196860551834106
1782969336834238500,10.435238525390625,0.30077287554740906,-0.007518370170146227,0.3130977153778076
1782969336844164600,10.44516455078125,0.33243227005004883,0.00875194650143385,0.24695679545402527
1782969336854090800,10.4550908203125,0.36452069878578186,0.09929782152175903,0.1486443281173706
1782969336864017700,10.465017578125,0.3857671320438385,0.22512419521808624,0.056283511221408844
1782969336873943600,10.474943603515625,0.3927350342273712,0.3035585582256317,-0.04135622829198837
1782969336883869700,10.48486962890625,0.4097912609577179,0.33748430013656616,-0.1956499218940735
