time,seconds_elapsed,z,y,x
1782952311067130600,0.058130615234375,-1.1222381591796875,-0.1555023193359375,-0.14434814453125
1782952311077057500,0.0680576171875,-1.131683349609375,-0.144805908203125,-0.160430908203125
1782952311086984700,0.077984619140625,-1.1201629638671875,-0.1350555419921875,-0.1641387939453125
1782952311096912600,0.08791259765625,-1.10272216796875,-0.131195068359375,-0.15087890625
1782952311106839600,0.097839599609375,-1.098907470703125,-0.1316070556640625,-0.1307373046875
1782952311116766700,0.1077666015625,-1.081756591796875,-0.1247406005859375,-0.1168365478515625
1782952311126693600,0.117693603515625,-1.0499114990234375,-0.11126708984375,-0.10394287109375
1782952311136621800,0.127621826171875,-1.0131072998046875,-0.0993499755859375,-0.0927276611328125
1782952311146548700,0.137548828125,-0.9738006591796875,-0.094940185546875,-0.0807037353515625
1782952311156476000,0.147475830078125,-0.9382171630859375,-0.097442626953125,-0.0710906982421875
1782952311166402600,0.157402587890625,-0.9066925048828125,-0.094940185546875,-0.0657806396484375
1782952311176330500,0.16733056640625,-0.8846282958984375,-0.0929718017578125,-0.0732574462890625
1782952311186257700,0.177257568359375,-0.8798065185546875,-0.0962677001953125,-0.0906982421875
1782952311196184600,0.1871845703125,-0.8723297119140625,-0.0989227294921875,-0.1137237548828125
1782952311206111700,0.19711181640625,-0.849029541015625,-0.106964111328125,-0.134918212890625
1782952311216039700,0.207039794921875,-0.8254547119140625,-0.1164398193359375,-0.149383544921875
1782952311225966600,0.216966552734375,-0.8099212646484375,-0.1195220947265625,-0.1595916748046875
1782952311235893800,0.226893798828125,-0.80279541015625,-0.1149444580078125,-0.173675537109375
1782952311245820700,0.236820556640625,-0.8172149658203125,-0.11181640625,-0.19622802734375
1782952311255748900,0.246748779296875,-0.8533477783203125,-0.1096038818359375,-0.21905517578125
1782952311265675800,0.25667578125,-0.9058074951171875,-0.1049346923828125,-0.230743408203125
1782952311275602700,0.266602783203125,-0.95745849609375,-0.0944061279296875,-0.2264251708984375
1782952311285529600,0.276529541015625,-1.0035858154296875,-0.0832366943359375,-0.2147369384765625
1782952311295457500,0.28645751953125,-1.0434112548828125,-0.071929931640625,-0.19647216796875
1782952311305384700,0.296384765625,-1.04998779296875,-0.0566253662109375,-0.18023681640625
1782952311315311600,0.3063115234375,-1.024505615234375,-0.043426513671875,-0.1703643798828125
1782952311325238800,0.31623876953125,-0.9773712158203125,-0.03607177734375,-0.1722869873046875
1782952311335165700,0.326165771484375,-0.9246978759765625,-0.036712646484375,-0.177490234375
1782952311345093600,0.33609375,-0.8747100830078125,-0.045440673828125,-0.18206787109375
1782952311355020800,0.346020751953125,-0.837982177734375,-0.059783935546875,-0.1974945068359375
1782952311364947500,0.355947509765625,-0.8158111572265625,-0.075042724609375,-0.21514892578125
1782952311374874600,0.36587451171875,-0.81439208984375,-0.0812835693359375,-0.2266845703125
1782952311384802600,0.375802490234375,-0.8404541015625,-0.08087158203125,-0.224365234375
1782952311394729700,0.385729736328125,-0.8892059326171875,-0.0731201171875,-0.218109130859375
1782952311404656600,0.39565673828125,-0.9359893798828125,-0.0601806640625,-0.214996337890625
1782952311414583800,0.405583740234375,-0.960296630859375,-0.0504302978515625,-0.2051239013671875
1782952311424511700,0.41551171875,-0.9617156982421875,-0.0404052734375,-0.1842041015625
1782952311434438700,0.425438720703125,-0.9468841552734375,-0.0376739501953125,-0.169464111328125
1782952311444365800,0.43536572265625,-0.92291259765625,-0.037139892578125,-0.16845703125
1782952311454292700,0.445292724609375,-0.89520263671875,-0.0369415283203125,-0.174713134765625
1782952311464220700,0.455220703125,-0.87176513671875,-0.0393829345703125,-0.1885833740234375
1782952311474147600,0.465147705078125,-0.8564605712890625,-0.050384521484375,-0.1997222900390625
1782952311484074500,0.475074462890625,-0.8538665771484375,-0.06402587890625,-0.202911376953125
1782952311494001700,0.485001708984375,-0.8663482666015625,-0.0725860595703125,-0.201751708984375
1782952311503929600,0.4949296875,-0.8946380615234375,-0.0758819580078125,-0.2041168212890625
1782952311513856800,0.504856689453125,-0.93328857421875,-0.07904052734375,-0.202362060546875
1782952311523783700,0.51478369140625,-0.972930908203125,-0.081939697265625,-0.1971282958984375
1782952311533710600,0.524710693359375,-1.0054931640625,-0.0869140625,-0.1872711181640625
1782952311543638800,0.534638671875,-1.0309295654296875,-0.09490966796875,-0.1758880615234375
1782952311553565700,0.544565673828125,-1.0542449951171875,-0.105194091796875,-0.15936279296875
1782952311563492900,0.554492919921875,-1.081817626953125,-0.111419677734375,-0.1401519775390625
1782952311573419500,0.56441943359375,-1.1053314208984375,-0.114044189453125,-0.124481201171875
1782952311583347500,0.574347412109375,-1.109130859375,-0.11358642578125,-0.1077880859375
1782952311593274600,0.584274658203125,-1.10198974609375,-0.1157379150390625,-0.083526611328125
1782952311603201500,0.594201416015625,-1.0968475341796875,-0.125152587890625,-0.0507965087890625
1782952311613128700,0.604128662109375,-1.0841827392578125,-0.1340179443359375,-0.0286407470703125
1782952311623056600,0.614056640625,-1.06707763671875,-0.1514739990234375,-0.0096282958984375
1782952311632983800,0.62398388671875,-1.075164794921875,-0.1736907958984375,0.0065155029296875
1782952311642910700,0.63391064453125,-1.09356689453125,-0.19757080078125,-0.005157470703125
1782952311652837600,0.643837646484375,-1.112945556640625,-0.2169342041015625,-0.038604736328125
1782952311662765800,0.653765869140625,-1.122589111328125,-0.2320709228515625,-0.074981689453125
1782952311672692700,0.663692626953125,-1.1258392333984375,-0.2454376220703125,-0.0994110107421875
1782952311682619600,0.67361962890625,-1.1211700439453125,-0.261688232421875,-0.1155548095703125
1782952311692546600,0.683546630859375,-1.0993804931640625,-0.2733917236328125,-0.12615966796875
1782952311702474500,0.693474609375,-1.071441650390625,-0.2849884033203125,-0.1304931640625
1782952311712401700,0.703401611328125,-1.03680419921875,-0.2987823486328125,-0.131195068359375
1782952311722328600,0.71332861328125,-0.9935455322265625,-0.3120880126953125,-0.1257781982421875
1782952311732255700,0.723255859375,-0.9608001708984375,-0.320068359375,-0.11126708984375
1782952311742184400,0.733184326171875,-0.942291259765625,-0.3201904296875,-0.08056640625
1782952311752111000,0.743111083984375,-0.9312744140625,-0.3150177001953125,-0.0428619384765625
1782952311762038300,0.753038330078125,-0.93194580078125,-0.31475830078125,-0.007659912109375
1782952311771965200,0.762965087890625,-0.944122314453125,-0.3142852783203125,0.0198211669921875
1782952311781893400,0.772893310546875,-0.94244384765625,-0.3107757568359375,0.0412139892578125
1782952311791820300,0.7828203125,-0.931488037109375,-0.306976318359375,0.0541229248046875
1782952311801747200,0.792747314453125,-0.9243011474609375,-0.29962158203125,0.0628509521484375
1782952311811674400,0.80267431640625,-0.9344329833984375,-0.2916259765625,0.0662384033203125
1782952311821602300,0.812602294921875,-0.9606170654296875,-0.2866668701171875,0.0624847412109375
1782952311831529500,0.822529541015625,-1.0001373291015625,-0.282470703125,0.0503082275390625
1782952311841456400,0.832456298828125,-1.0362701416015625,-0.278045654296875,0.0384368896484375
1782952311851383300,0.84238330078125,-1.05902099609375,-0.2655181884765625,0.03594970703125
1782952311861310200,0.852310302734375,-1.0633697509765625,-0.2581939697265625,0.0419158935546875
1782952311871238100,0.862238037109375,-1.0457611083984375,-0.25885009765625,0.0422210693359375
1782952311881165300,0.872165283203125,-1.02020263671875,-0.2633209228515625,0.027984619140625
1782952311891092200,0.88209228515625,-0.993743896484375,-0.2627410888671875,0.0184173583984375
1782952311901019400,0.892019287109375,-0.9737548828125,-0.2639007568359375,0.030609130859375
1782952311910947300,0.901947265625,-0.9613037109375,-0.267913818359375,0.0396881103515625
1782952311920874200,0.911874267578125,-0.96453857421875,-0.2579498291015625,0.0523834228515625
1782952311930801400,0.921801513671875,-0.9718170166015625,-0.242919921875,0.0594024658203125
1782952311940728000,0.93172802734375,-0.988739013671875,-0.2339935302734375,0.0553131103515625
1782952311950656300,0.94165625,-1.006439208984375,-0.2308502197265625,0.03863525390625
1782952311960583200,0.951583251953125,-1.0262908935546875,-0.2223358154296875,0.029144287109375
1782952311970510300,0.96151025390625,-1.017333984375,-0.2136077880859375,0.021514892578125
1782952311980437200,0.971437255859375,-1.015716552734375,-0.2026519775390625,0.0377349853515625
1782952311990365200,0.981365234375,-1.014068603515625,-0.2014617919921875,0.0483551025390625
1782952312000292400,0.991292236328125,-1.00689697265625,-0.1994781494140625,0.0395050048828125
1782952312010219300,1.00121923828125,-0.9869232177734375,-0.196685791015625,0.033050537109375
1782952312020146400,1.011146484375,-0.9587249755859375,-0.197021484375,0.0267486572265625
1782952312030074400,1.021074462890625,-0.922821044921875,-0.1981353759765625,0.0235748291015625
1782952312040001300,1.031001220703125,-0.8837127685546875,-0.1968994140625,0.0354156494140625
1782952312049928200,1.04092822265625,-0.8482513427734375,-0.19573974609375,0.0555877685546875
1782952312059855000,1.050855224609375,-0.8215484619140625,-0.196014404296875,0.06146240234375
1782952312069783300,1.060783203125,-0.7965087890625,-0.19561767578125,0.0611572265625
1782952312079710200,1.070710205078125,-0.7864227294921875,-0.1927642822265625,0.059173583984375
1782952312089637400,1.080637451171875,-0.8082427978515625,-0.18988037109375,0.04022216796875
1782952312099564300,1.090564208984375,-0.8545989990234375,-0.18670654296875,0.0073089599609375
1782952312109492200,1.1004921875,-0.928131103515625,-0.1806793212890625,-0.0220947265625
1782952312119419400,1.11041943359375,-1.013641357421875,-0.17755126953125,-0.0514068603515625
1782952312129346300,1.12034619140625,-1.0700225830078125,-0.1779022216796875,-0.089111328125
1782952312139273500,1.1302734375,-1.1373291015625,-0.1808013916015625,-0.127288818359375
1782952312149200100,1.1402001953125,-1.1857452392578125,-0.1781768798828125,-0.1482086181640625
1782952312159128000,1.150128173828125,-1.2124176025390625,-0.16845703125,-0.15545654296875
1782952312169055200,1.16005517578125,-1.204315185546875,-0.155059814453125,-0.152923583984375
1782952312178982100,1.169982177734375,-1.16912841796875,-0.1402435302734375,-0.1391143798828125
1782952312188910300,1.179910400390625,-1.1225128173828125,-0.1254119873046875,-0.1349029541015625
1782952312198837200,1.189837158203125,-1.072235107421875,-0.11309814453125,-0.12896728515625
1782952312208764400,1.199764404296875,-1.0118255615234375,-0.1125030517578125,-0.1190338134765625
1782952312218691300,1.20969140625,-0.9556884765625,-0.1170654296875,-0.1011810302734375
1782952312228618500,1.219618408203125,-0.9031219482421875,-0.1110382080078125,-0.08746337890625
1782952312238546400,1.22954638671875,-0.8875732421875,-0.1011199951171875,-0.0666961669921875
1782952312248473300,1.239473388671875,-0.896392822265625,-0.0878448486328125,-0.0610198974609375
1782952312258400300,1.249400146484375,-0.90924072265625,-0.08026123046875,-0.08074951171875
1782952312268327200,1.2593271484375,-0.932281494140625,-0.088470458984375,-0.102020263671875
1782952312278255000,1.269255126953125,-0.954864501953125,-0.097503662109375,-0.12286376953125
1782952312288182300,1.279182373046875,-0.9830780029296875,-0.1023101806640625,-0.149017333984375
1782952312298109200,1.289109130859375,-1.00640869140625,-0.103729248046875,-0.1706695556640625
1782952312308036400,1.299036376953125,-1.02044677734375,-0.1037445068359375,-0.18023681640625
1782952312317964300,1.30896435546875,-1.01617431640625,-0.1027069091796875,-0.1771697998046875
1782952312327891500,1.318891357421875,-0.995452880859375,-0.102294921875,-0.174224853515625
1782952312337818400,1.328818359375,-0.9539337158203125,-0.10125732421875,-0.177398681640625
1782952312347745300,1.338745361328125,-0.902557373046875,-0.089447021484375,-0.1755523681640625
1782952312357673500,1.348673583984375,-0.8829193115234375,-0.0723876953125,-0.1682891845703125
1782952312367600000,1.35860009765625,-0.9149169921875,-0.0626220703125,-0.1667022705078125
1782952312377527300,1.36852734375,-0.9841766357421875,-0.06414794921875,-0.1728057861328125
1782952312387454200,1.3784541015625,-1.061614990234375,-0.0560455322265625,-0.182525634765625
1782952312397382100,1.388382080078125,-1.1275634765625,-0.03955078125,-0.1800079345703125
1782952312407309300,1.398309326171875,-1.1751251220703125,-0.02197265625,-0.1758575439453125
1782952312417236200,1.408236328125,-1.1796417236328125,-0.015594482421875,-0.1646881103515625
1782952312427163400,1.418163330078125,-1.12933349609375,-0.011627197265625,-0.1532745361328125
1782952312437091300,1.42809130859375,-1.037384033203125,-0.0084075927734375,-0.1460113525390625
1782952312447018500,1.4380185546875,-0.9281005859375,-0.020111083984375,-0.13885498046875
1782952312456945200,1.447945068359375,-0.8309783935546875,-0.044342041015625,-0.143646240234375
1782952312466872300,1.457872314453125,-0.76397705078125,-0.0533905029296875,-0.1530609130859375
1782952312476799200,1.46779931640625,-0.73291015625,-0.034576416015625,-0.14788818359375
1782952312486727200,1.47772705078125,-0.747802734375,0.0303192138671875,-0.12518310546875
1782952312496654300,1.487654296875,-0.8370513916015625,0.0369110107421875,-0.1202545166015625
1782952312506581200,1.497581298828125,-0.9171142578125,-0.0585479736328125,-0.17559814453125
1782952312516508400,1.50750830078125,-0.9970245361328125,-0.1085968017578125,-0.2184906005859375
1782952312526436400,1.517436279296875,-1.02874755859375,-0.106719970703125,-0.2348175048828125
1782952312536363300,1.52736328125,-1.0230865478515625,-0.0578155517578125,-0.24334716796875
1782952312546290400,1.53729052734375,-1.0104522705078125,-0.0238189697265625,-0.2440643310546875
1782952312556217000,1.547217041015625,-0.9949798583984375,-0.0197296142578125,-0.2306671142578125
1782952312566145300,1.557145263671875,-0.9695281982421875,-0.0214385986328125,-0.2034912109375
1782952312576072200,1.567072265625,-0.94342041015625,-0.0216522216796875,-0.1701812744140625
1782952312585999400,1.576999267578125,-0.9308013916015625,-0.024078369140625,-0.1352691650390625
1782952312595926300,1.58692626953125,-0.94580078125,-0.028961181640625,-0.1048736572265625
1782952312605854200,1.596854248046875,-0.962921142578125,-0.032257080078125,-0.0880279541015625
1782952312615781400,1.606781494140625,-0.97381591796875,-0.038848876953125,-0.0785064697265625
1782952312625708300,1.616708251953125,-0.97662353515625,-0.0507965087890625,-0.0713653564453125
1782952312635635500,1.626635498046875,-0.970489501953125,-0.065582275390625,-0.07232666015625
1782952312645563400,1.6365634765625,-0.954864501953125,-0.08197021484375,-0.075775146484375
1782952312655490300,1.646490234375,-0.9456634521484375,-0.101959228515625,-0.0833587646484375
1782952312665417200,1.656417236328125,-0.9345703125,-0.1240386962890625,-0.091827392578125
1782952312675344100,1.66634423828125,-0.9250946044921875,-0.150543212890625,-0.098297119140625
1782952312685272300,1.676272216796875,-0.93060302734375,-0.1839141845703125,-0.0962677001953125
1782952312695199200,1.68619921875,-0.947235107421875,-0.2120819091796875,-0.0933837890625
1782952312705126400,1.69612646484375,-0.9665985107421875,-0.2269439697265625,-0.091156005859375
1782952312715053300,1.70605322265625,-0.9900970458984375,-0.245635986328125,-0.0868377685546875
1782952312724981200,1.715981201171875,-1.0133056640625,-0.266754150390625,-0.0838470458984375
1782952312734908400,1.725908447265625,-1.0384368896484375,-0.28436279296875,-0.0855712890625
1782952312744834300,1.735834228515625,-1.0496063232421875,-0.298309326171875,-0.0869140625
1782952312754761500,1.745761474609375,-1.0494384765625,-0.30859375,-0.082916259765625
1782952312764688400,1.7556884765625,-1.0427703857421875,-0.31903076171875,-0.0687255859375
1782952312774616600,1.765616455078125,-1.0372314453125,-0.3216705322265625,-0.0516815185546875
1782952312784543500,1.77554345703125,-1.0328521728515625,-0.3203125,-0.0287933349609375
1782952312794470400,1.785470458984375,-1.020050048828125,-0.328369140625,-0.0037384033203125
1782952312804397300,1.795397216796875,-1.006317138671875,-0.3387451171875,0.0138702392578125
1782952312814325200,1.8053251953125,-0.9961090087890625,-0.345672607421875,0.0221710205078125
1782952312824252400,1.81525244140625,-0.9884033203125,-0.3500518798828125,0.0218505859375
1782952312834179300,1.825179443359375,-0.9853973388671875,-0.3593902587890625,0.0155181884765625
1782952312844106500,1.8351064453125,-0.979644775390625,-0.3724212646484375,0.0045013427734375
1782952312854034400,1.845034423828125,-0.9644622802734375,-0.38507080078125,-0.0073699951171875
1782952312863961300,1.85496142578125,-0.9421844482421875,-0.3985443115234375,-0.012664794921875
1782952312873888500,1.864888427734375,-0.9252471923828125,-0.408843994140625,-0.0145416259765625
1782952312883815400,1.8748154296875,-0.9254608154296875,-0.4093170166015625,-0.014190673828125
1782952312893743600,1.88474365234375,-0.945404052734375,-0.4045562744140625,-0.0173492431640625
1782952312903670300,1.894670166015625,-0.99285888671875,-0.3951873779296875,-0.0186004638671875
1782952312913597400,1.904597412109375,-1.0554962158203125,-0.3816680908203125,-0.0121612548828125
1782952312923524400,1.9145244140625,-1.1149139404296875,-0.3576812744140625,0.002349853515625
1782952312933452300,1.924452392578125,-1.1472625732421875,-0.3295745849609375,0.0143585205078125
1782952312943379500,1.93437939453125,-1.1362762451171875,-0.303985595703125,0.0244293212890625
1782952312953306400,1.944306396484375,-1.079620361328125,-0.2829132080078125,0.0310516357421875
1782952312963233500,1.954233642578125,-1.000823974609375,-0.2826385498046875,0.042327880859375
1782952312973161500,1.964161376953125,-0.92279052734375,-0.2933349609375,0.0498809814453125
1782952312983088400,1.97408837890625,-0.8643646240234375,-0.315399169921875,0.057403564453125
1782952312993015600,1.984015625,-0.836395263671875,-0.3360748291015625,0.0583038330078125
1782952313002942200,1.993942138671875,-0.83892822265625,-0.347747802734375,0.0539398193359375
1782952313012869400,2.003869384765625,-0.8662261962890625,-0.3504180908203125,0.0450897216796875
1782952313022797300,2.01379736328125,-0.9036712646484375,-0.3422088623046875,0.03240966796875
1782952313032724500,2.023724365234375,-0.9527587890625,-0.3289337158203125,0.021728515625
1782952313042651400,2.0336513671875,-1.0003204345703125,-0.3202972412109375,0.0200958251953125
1782952313052578600,2.04357861328125,-1.036834716796875,-0.31317138671875,0.031494140625
1782952313062506500,2.053506591796875,-1.0597381591796875,-0.3059539794921875,0.04296875
1782952313072433400,2.063433349609375,-1.06561279296875,-0.29541015625,0.0522613525390625
1782952313082360600,2.073360595703125,-1.05731201171875,-0.28289794921875,0.055023193359375
1782952313092287200,2.083287353515625,-1.03167724609375,-0.2729644775390625,0.0510711669921875
1782952313102215400,2.09321533203125,-0.9944000244140625,-0.2657928466796875,0.0478973388671875
1782952313112142300,2.103142333984375,-0.9526519775390625,-0.2628021240234375,0.044189453125
1782952313122069200,2.1130693359375,-0.907806396484375,-0.2662811279296875,0.04779052734375
1782952313131996400,2.122996337890625,-0.8686676025390625,-0.266845703125,0.063140869140625
1782952313141924400,2.13292431640625,-0.85577392578125,-0.260009765625,0.09051513671875
1782952313151851500,2.1428515625,-0.8657989501953125,-0.241943359375,0.11285400390625
1782952313161778400,2.1527783203125,-0.88909912109375,-0.2169952392578125,0.1252288818359375
1782952313171705600,2.16270556640625,-0.916015625,-0.1914520263671875,0.1160888671875
1782952313181633500,2.172633544921875,-0.9334259033203125,-0.1750030517578125,0.09051513671875
1782952313191560400,2.182560546875,-0.9412078857421875,-0.16729736328125,0.05853271484375
1782952313201487400,2.1924873046875,-0.9447479248046875,-0.1720733642578125,0.0283355712890625
1782952313211414300,2.202414306640625,-0.96087646484375,-0.1837310791015625,-0.0066986083984375
1782952313221342200,2.21234228515625,-0.9929046630859375,-0.2030487060546875,-0.045684814453125
1782952313231269400,2.222269287109375,-1.0368194580078125,-0.2168121337890625,-0.090362548828125
1782952313241196300,2.2321962890625,-1.0724945068359375,-0.2195587158203125,-0.1388702392578125
1782952313251123500,2.24212353515625,-1.106109619140625,-0.2093048095703125,-0.1539154052734375
1782952313261051400,2.252051513671875,-1.121978759765625,-0.1977691650390625,-0.1573028564453125
1782952313270978600,2.261978515625,-1.09429931640625,-0.19549560546875,-0.1541290283203125
1782952313280905500,2.271905517578125,-1.0790557861328125,-0.18804931640625,-0.1175994873046875
1782952313290832600,2.28183251953125,-1.0446929931640625,-0.1688079833984375,-0.0872039794921875
1782952313300759300,2.29175927734375,-1.009613037109375,-0.1479339599609375,-0.048248291015625
1782952313310687200,2.301687255859375,-0.9748382568359375,-0.13507080078125,-0.016143798828125
1782952313320614400,2.311614501953125,-0.9548492431640625,-0.1199493408203125,0.00408935546875
1782952313330541300,2.321541259765625,-0.9625701904296875,-0.109405517578125,0.00909423828125
1782952313340468500,2.331468505859375,-0.984130859375,-0.10186767578125,0.0113372802734375
1782952313350396400,2.341396484375,-1.015716552734375,-0.102020263671875,0.0157470703125
1782952313360323300,2.3513232421875,-1.0368804931640625,-0.10693359375,0.012451171875
1782952313370250500,2.36125048828125,-1.0402679443359375,-0.1113128662109375,0.0036163330078125
1782952313380177400,2.371177490234375,-1.026947021484375,-0.1140899658203125,-0.0062103271484375
1782952313390105600,2.381105712890625,-1.005615234375,-0.1129913330078125,-0.01690673828125
1782952313400032500,2.391032470703125,-0.9794921875,-0.1083984375,-0.0297393798828125
1782952313409959400,2.40095947265625,-0.951019287109375,-0.107391357421875,-0.0418701171875
1782952313419886300,2.41088623046875,-0.9256744384765625,-0.111114501953125,-0.0579681396484375
1782952313429814300,2.420814208984375,-0.9044647216796875,-0.11614990234375,-0.074493408203125
1782952313439741400,2.430741455078125,-0.897796630859375,-0.1182708740234375,-0.0901947021484375
1782952313449668400,2.44066845703125,-0.911285400390625,-0.1204071044921875,-0.1069793701171875
1782952313459595500,2.450595458984375,-0.9426727294921875,-0.1205291748046875,-0.1238250732421875
1782952313469523500,2.4605234375,-0.986236572265625,-0.1192169189453125,-0.130035400390625
1782952313479450400,2.470450439453125,-1.022552490234375,-0.1114959716796875,-0.1285247802734375
1782952313489377500,2.48037744140625,-1.0381011962890625,-0.1003265380859375,-0.12078857421875
1782952313499304400,2.490304443359375,-1.0264129638671875,-0.0874786376953125,-0.1087799072265625
1782952313509232600,2.500232666015625,-1.000091552734375,-0.0802459716796875,-0.0939788818359375
1782952313519159300,2.5101591796875,-0.967529296875,-0.0794830322265625,-0.080780029296875
1782952313529086500,2.52008642578125,-0.934783935546875,-0.07958984375,-0.076446533203125
1782952313539013400,2.530013427734375,-0.9038848876953125,-0.0789794921875,-0.084564208984375
1782952313548940500,2.5399404296875,-0.8863525390625,-0.082794189453125,-0.095916748046875
1782952313558868500,2.549868408203125,-0.8911590576171875,-0.0857391357421875,-0.111175537109375
1782952313568795400,2.55979541015625,-0.9002685546875,-0.0937957763671875,-0.13201904296875
1782952313578722600,2.56972265625,-0.9115447998046875,-0.094085693359375,-0.156097412109375
1782952313588649500,2.5796494140625,-0.9207611083984375,-0.0928955078125,-0.1700286865234375
1782952313598577400,2.589577392578125,-0.938140869140625,-0.090911865234375,-0.175079345703125
1782952313608504600,2.599504638671875,-0.965362548828125,-0.090301513671875,-0.179229736328125
1782952313618431200,2.60943115234375,-0.9830780029296875,-0.0902252197265625,-0.186065673828125
1782952313628358400,2.6193583984375,-0.9839630126953125,-0.0913238525390625,-0.190948486328125
1782952313638286300,2.629286376953125,-0.9759979248046875,-0.0948333740234375,-0.1837005615234375
1782952313648213500,2.639213623046875,-0.9727325439453125,-0.098907470703125,-0.1766815185546875
1782952313658140400,2.649140380859375,-0.962677001953125,-0.096588134765625,-0.162933349609375
1782952313668067300,2.6590673828125,-0.9427947998046875,-0.0938262939453125,-0.1493682861328125
1782952313677995500,2.66899560546875,-0.9234619140625,-0.0876312255859375,-0.1339874267578125
1782952313687922400,2.67892236328125,-0.9026031494140625,-0.0872650146484375,-0.1194305419921875
1782952313697849600,2.688849609375,-0.8987884521484375,-0.089019775390625,-0.113189697265625
1782952313707776300,2.6987763671875,-0.904083251953125,-0.0969085693359375,-0.112945556640625
1782952313717704400,2.708704345703125,-0.90447998046875,-0.1093597412109375,-0.1222991943359375
1782952313727631400,2.71863134765625,-0.9061431884765625,-0.124542236328125,-0.130279541015625
1782952313737559000,2.72855908203125,-0.921051025390625,-0.1412353515625,-0.1335906982421875
1782952313747486200,2.738486328125,-0.9450836181640625,-0.1548614501953125,-0.1336822509765625
1782952313757414100,2.7484140625,-0.96099853515625,-0.1641998291015625,-0.13116455078125
1782952313767341000,2.758341064453125,-0.972076416015625,-0.1672821044921875,-0.125274658203125
1782952313777268200,2.768268310546875,-0.9763031005859375,-0.1679840087890625,-0.1214599609375
1782952313787195000,2.77819482421875,-0.976165771484375,-0.173675537109375,-0.11639404296875
1782952313797122000,2.7881220703125,-0.9773406982421875,-0.1851348876953125,-0.1129913330078125
1782952313807050000,2.798050048828125,-0.9812469482421875,-0.1990966796875,-0.10870361328125
1782952313816977200,2.80797705078125,-0.9873504638671875,-0.2130279541015625,-0.1012115478515625
1782952313826904000,2.817904052734375,-0.9856109619140625,-0.227294921875,-0.082916259765625
1782952313836831000,2.8278310546875,-0.9842987060546875,-0.2448577880859375,-0.06292724609375
1782952313846759200,2.83775927734375,-0.9922943115234375,-0.26287841796875,-0.0536956787109375
1782952313856686000,2.84768603515625,-1.0016326904296875,-0.2851409912109375,-0.0552215576171875
1782952313866613200,2.85761328125,-1.00799560546875,-0.311187744140625,-0.054229736328125
1782952313876540200,2.8675400390625,-1.01788330078125,-0.331329345703125,-0.051727294921875
1782952313886468000,2.877468017578125,-1.0266571044921875,-0.3405303955078125,-0.0447998046875
1782952313896395000,2.88739501953125,-1.031585693359375,-0.3470916748046875,-0.0419158935546875
1782952313906322000,2.897322021484375,-1.030731201171875,-0.353485107421875,-0.040069580078125
1782952313916249000,2.9072490234375,-1.03466796875,-0.3618316650390625,-0.039825439453125
1782952313926177000,2.917177001953125,-1.031768798828125,-0.3701324462890625,-0.040191650390625
1782952313936104000,2.92710400390625,-1.0295867919921875,-0.367584228515625,-0.0417938232421875
1782952313946031000,2.937031005859375,-1.0214691162109375,-0.3655242919921875,-0.0299224853515625
1782952313955958000,2.9469580078125,-1.00799560546875,-0.3638153076171875,-0.0076751708984375
1782952313965886200,2.95688623046875,-0.993072509765625,-0.36199951171875,0.018798828125
1782952313975813000,2.966813232421875,-0.97491455078125,-0.356719970703125,0.0363922119140625
1782952313985740300,2.976740234375,-0.9503631591796875,-0.3525848388671875,0.0496368408203125
1782952313995667000,2.9866669921875,-0.9235992431640625,-0.3576202392578125,0.06317138671875
1782952314005595000,2.996594970703125,-0.8973236083984375,-0.3700714111328125,0.07427978515625
1782952314015522000,3.00652197265625,-0.886260986328125,-0.3810882568359375,0.0756378173828125
1782952314025449000,3.016448974609375,-0.8983154296875,-0.3882598876953125,0.0721282958984375
1782952314035376000,3.026376220703125,-0.929473876953125,-0.387786865234375,0.06927490234375
1782952314045303000,3.036302978515625,-0.97869873046875,-0.37603759765625,0.0720977783203125
1782952314055231000,3.04623095703125,-1.0565948486328125,-0.3572235107421875,0.0670318603515625
1782952314065158100,3.056158203125,-1.1413726806640625,-0.3374481201171875,0.0499114990234375
1782952314075085000,3.0660849609375,-1.188018798828125,-0.325408935546875,0.0391082763671875
1782952314085012200,3.07601220703125,-1.1924285888671875,-0.3122100830078125,0.0388946533203125
1782952314094940200,3.085940185546875,-1.1495513916015625,-0.3013916015625,0.0456390380859375
1782952314104867000,3.0958671875,-1.0830535888671875,-0.30242919921875,0.0593109130859375
1782952314114794000,3.1057939453125,-1.0250244140625,-0.303375244140625,0.0717926025390625
1782952314124721200,3.11572119140625,-0.97930908203125,-0.29779052734375,0.0773468017578125
1782952314134649000,3.125649169921875,-0.957183837890625,-0.292449951171875,0.072723388671875
1782952314144576000,3.135575927734375,-0.965240478515625,-0.2928619384765625,0.0601043701171875
1782952314154503200,3.145503173828125,-0.9835968017578125,-0.2869720458984375,0.041534423828125
1782952314164430000,3.15543017578125,-1.004913330078125,-0.274566650390625,0.0221099853515625
1782952314174358000,3.16535791015625,-1.012786865234375,-0.261383056640625,0.0121307373046875
1782952314184285200,3.17528515625,-1.0058746337890625,-0.2487335205078125,0.0182342529296875
1782952314194212000,3.185212158203125,-0.988861083984375,-0.23590087890625,0.034820556640625
1782952314204139000,3.195138916015625,-0.9694976806640625,-0.2201385498046875,0.0580291748046875
1782952314214067000,3.20506689453125,-0.947113037109375,-0.208770751953125,0.0856475830078125
1782952314223994000,3.214994140625,-0.9244384765625,-0.1941986083984375,0.108306884765625
1782952314233921000,3.224921142578125,-0.900970458984375,-0.1819000244140625,0.121368408203125
1782952314243848200,3.23484814453125,-0.8744659423828125,-0.1704559326171875,0.124053955078125
1782952314253775000,3.244775146484375,-0.850799560546875,-0.1678314208984375,0.117401123046875
1782952314263703000,3.254703125,-0.8417205810546875,-0.1757354736328125,0.10675048828125
1782952314273630200,3.264630126953125,-0.8431549072265625,-0.1868743896484375,0.0869598388671875
1782952314283557000,3.27455712890625,-0.8539581298828125,-0.19757080078125,0.0570831298828125
1782952314293484000,3.284484130859375,-0.8769989013671875,-0.2076416015625,0.02301025390625
1782952314303412200,3.294412109375,-0.910003662109375,-0.218963623046875,-0.0131378173828125
1782952314313339000,3.3043388671875,-0.9456329345703125,-0.2286376953125,-0.05401611328125
1782952314323266000,3.31426611328125,-0.9810638427734375,-0.244964599609375,-0.0966644287109375
1782952314333193000,3.32419287109375,-1.0123443603515625,-0.263031005859375,-0.1394500732421875
1782952314343121200,3.33412109375,-1.0200958251953125,-0.273040771484375,-0.185150146484375
1782952314353048000,3.344048095703125,-1.048431396484375,-0.2649688720703125,-0.1951141357421875
1782952314362975200,3.353975341796875,-1.0516204833984375,-0.262176513671875,-0.1800689697265625
1782952314372902100,3.363902099609375,-1.0846710205078125,-0.2547760009765625,-0.1070709228515625
1782952314382830000,3.373830078125,-1.118377685546875,-0.2046051025390625,-0.0289306640625
1782952314392757200,3.38375732421875,-1.121551513671875,-0.1307220458984375,0.0289306640625
1782952314402684000,3.393683837890625,-1.10723876953125,-0.068756103515625,0.0745086669921875
1782952314412611000,3.403611083984375,-1.062713623046875,-0.03875732421875,0.10455322265625
1782952314422539000,3.4135390625,-1.010894775390625,-0.0450897216796875,0.1291656494140625
1782952314432466000,3.4234658203125,-0.9582366943359375,-0.069580078125,0.140533447265625
1782952314442393000,3.43339306640625,-0.91790771484375,-0.099334716796875,0.1348876953125
1782952314452320000,3.443320068359375,-0.9006805419921875,-0.1192169189453125,0.1056976318359375
1782952314462248200,3.453248291015625,-0.8994598388671875,-0.1297454833984375,0.0643157958984375
1782952314472175000,3.463175048828125,-0.90447998046875,-0.1370849609375,0.0201416015625
1782952314482102300,3.473102294921875,-0.9171600341796875,-0.147979736328125,-0.015228271484375
1782952314492029200,3.483029296875,-0.944732666015625,-0.15948486328125,-0.0418548583984375
1782952314501956000,3.4929560546875,-0.98443603515625,-0.162445068359375,-0.06793212890625
1782952314511884000,3.502884033203125,-1.01959228515625,-0.14935302734375,-0.091644287109375
1782952314521811000,3.51281103515625,-1.0335693359375,-0.1373443603515625,-0.1095123291015625
1782952314531738000,3.522738037109375,-1.0200042724609375,-0.1351470947265625,-0.11492919921875
1782952314541665000,3.5326650390625,-0.991302490234375,-0.136077880859375,-0.1105804443359375
1782952314551593000,3.542593017578125,-0.9766387939453125,-0.132720947265625,-0.1037139892578125
1782952314561520000,3.55252001953125,-0.9912567138671875,-0.1172637939453125,-0.102020263671875
1782952314571447000,3.562447021484375,-1.0330047607421875,-0.10076904296875,-0.103973388671875
1782952314581374200,3.572374267578125,-1.086669921875,-0.0920257568359375,-0.1095123291015625
1782952314591302100,3.58230224609375,-1.1448516845703125,-0.082366943359375,-0.108795166015625
1782952314601229300,3.592229248046875,-1.1845550537109375,-0.0657958984375,-0.1052703857421875
1782952314611156000,3.602156005859375,-1.18096923828125,-0.0433197021484375,-0.0926513671875
1782952314621083100,3.612083251953125,-1.1273345947265625,-0.026947021484375,-0.07611083984375
1782952314631011000,3.622010986328125,-1.043243408203125,-0.01983642578125,-0.0691986083984375
1782952314640938000,3.63193798828125,-0.9553375244140625,-0.0200653076171875,-0.069671630859375
1782952314650865200,3.641865234375,-0.87713623046875,-0.023040771484375,-0.075653076171875
1782952314660792000,3.6517919921875,-0.828338623046875,-0.0309295654296875,-0.09197998046875
1782952314670720000,3.661719970703125,-0.80780029296875,-0.0401611328125,-0.1192474365234375
1782952314680647200,3.671647216796875,-0.805999755859375,-0.0507965087890625,-0.1459197998046875
1782952314690574000,3.681573974609375,-0.8350982666015625,-0.0695953369140625,-0.1637115478515625
1782952314700501200,3.691501220703125,-0.88409423828125,-0.090545654296875,-0.1752166748046875
1782952314710429200,3.70142919921875,-0.939056396484375,-0.106353759765625,-0.1787109375
1782952314720356000,3.711356201171875,-0.98504638671875,-0.106170654296875,-0.1833953857421875
1782952314730283000,3.721282958984375,-1.010467529296875,-0.09014892578125,-0.18499755859375
1782952314740210200,3.731210205078125,-1.0197906494140625,-0.08135986328125,-0.184478759765625
1782952314750137300,3.741137451171875,-1.0105133056640625,-0.0774383544921875,-0.17681884765625
1782952314760065300,3.751065185546875,-0.9976654052734375,-0.0829315185546875,-0.166168212890625
1782952314769992400,3.760992431640625,-0.9920196533203125,-0.0874786376953125,-0.15679931640625
1782952314779919400,3.77091943359375,-0.9864501953125,-0.089508056640625,-0.148895263671875
1782952314789846500,3.780846435546875,-0.9852447509765625,-0.0938262939453125,-0.132171630859375
1782952314799774500,3.7907744140625,-0.97662353515625,-0.0966949462890625,-0.12286376953125
1782952314809701400,3.800701416015625,-0.95953369140625,-0.1004486083984375,-0.1107330322265625
1782952314819628300,3.810628173828125,-0.9415435791015625,-0.1074066162109375,-0.0882720947265625
1782952314829555200,3.82055517578125,-0.9267730712890625,-0.11260986328125,-0.0728302001953125
1782952314839483100,3.830483154296875,-0.9196319580078125,-0.11529541015625,-0.0713043212890625
1782952314849410300,3.840410400390625,-0.92510986328125,-0.124786376953125,-0.0796356201171875
1782952314859337200,3.850337158203125,-0.9344635009765625,-0.140869140625,-0.0896453857421875
1782952314869264400,3.860264404296875,-0.940338134765625,-0.1623992919921875,-0.08978271484375
1782952314879192300,3.8701923828125,-0.9447784423828125,-0.184326171875,-0.0861053466796875
1782952314889119500,3.880119384765625,-0.941986083984375,-0.2031707763671875,-0.08184814453125
1782952314899046400,3.89004638671875,-0.928466796875,-0.217864990234375,-0.074310302734375
1782952314908973600,3.8999736328125,-0.909515380859375,-0.2338714599609375,-0.062255859375
1782952314918901500,3.909901611328125,-0.897430419921875,-0.2461090087890625,-0.0572357177734375
1782952314928828200,3.919828125,-0.8941802978515625,-0.2576446533203125,-0.0571746826171875
1782952314938755300,3.92975537109375,-0.90771484375,-0.2750701904296875,-0.0619049072265625
1782952314948682200,3.93968212890625,-0.9333038330078125,-0.2951812744140625,-0.0650634765625
1782952314958610200,3.949610107421875,-0.9532623291015625,-0.318145751953125,-0.0649871826171875
1782952314968537300,3.959537353515625,-0.971954345703125,-0.3397216796875,-0.0653076171875
1782952314978464300,3.96946435546875,-0.9901123046875,-0.358734130859375,-0.0680694580078125
1782952314988391400,3.979391357421875,-1.0053558349609375,-0.373199462890625,-0.069610595703125
1782952314998318300,3.989318359375,-1.0125732421875,-0.3869781494140625,-0.0678863525390625
1782952315008246500,3.99924658203125,-1.0239105224609375,-0.39202880859375,-0.0561370849609375
1782952315018173200,4.009173095703125,-1.025054931640625,-0.395538330078125,-0.0325775146484375
1782952315028100400,4.019100341796875,-1.01763916015625,-0.3973846435546875,0.00457763671875
1782952315038027300,4.02902734375,-1.0125579833984375,-0.395294189453125,0.0399017333984375
1782952315047955200,4.038955078125,-1.008941650390625,-0.3891143798828125,0.0576324462890625
1782952315057882400,4.04888232421875,-1.0059967041015625,-0.3842315673828125,0.0606536865234375
1782952315067809300,4.058809326171875,-1.0040740966796875,-0.3896026611328125,0.058563232421875
1782952315077736400,4.068736328125,-1.0032196044921875,-0.39862060546875,0.0556182861328125
1782952315087664400,4.078664306640625,-0.99761962890625,-0.40765380859375,0.053253173828125
1782952315097591300,4.08859130859375,-0.9813385009765625,-0.417144775390625,0.05029296875
1782952315107518500,4.0985185546875,-0.957366943359375,-0.420623779296875,0.0469512939453125
1782952315117445000,4.108445068359375,-0.94903564453125,-0.4202117919921875,0.03778076171875
1782952315127373300,4.118373291015625,-0.9701690673828125,-0.410400390625,0.028839111328125
1782952315137300200,4.12830029296875,-1.013275146484375,-0.39654541015625,0.024688720703125
1782952315147227400,4.138227294921875,-1.072601318359375,-0.383758544921875,0.0248870849609375
1782952315157154300,4.148154296875,-1.1195831298828125,-0.364044189453125,0.0231170654296875
1782952315167082200,4.158082275390625,-1.1424102783203125,-0.3381195068359375,0.021453857421875
1782952315177009400,4.168009521484375,-1.1366119384765625,-0.3093719482421875,0.031707763671875
1782952315186936300,4.177936279296875,-1.1052093505859375,-0.2896575927734375,0.0502471923828125
1782952315196863500,4.187863525390625,-1.042694091796875,-0.2763671875,0.06707763671875
1782952315206791400,4.19779150390625,-0.96380615234375,-0.274078369140625,0.08074951171875
1782952315216718300,4.20771826171875,-0.8966064453125,-0.2851715087890625,0.09033203125
1782952315226645200,4.217645263671875,-0.85394287109375,-0.29931640625,0.0953826904296875
1782952315236572200,4.227572265625,-0.84136962890625,-0.302276611328125,0.092437744140625
1782952315246499300,4.237499267578125,-0.8538360595703125,-0.2978515625,0.0780029296875
1782952315256427300,4.24742724609375,-0.8810882568359375,-0.293243408203125,0.0576629638671875
1782952315266354400,4.2573544921875,-0.9180145263671875,-0.2873382568359375,0.0333404541015625
1782952315276281300,4.26728125,-0.9510040283203125,-0.282928466796875,0.0236053466796875
1782952315286208500,4.27720849609375,-0.9696807861328125,-0.2765960693359375,0.0279998779296875
1782952315296136400,4.287136474609375,-0.978240966796875,-0.2603607177734375,0.0421142578125
1782952315306063400,4.2970634765625,-0.986328125,-0.237457275390625,0.057373046875
1782952315315990500,4.306990478515625,-0.9844512939453125,-0.2144317626953125,0.0626068115234375
1782952315325917200,4.316917236328125,-0.9731292724609375,-0.1986541748046875,0.0644073486328125
1782952315335845000,4.32684521484375,-0.950592041015625,-0.193389892578125,0.0622406005859375
1782952315345772300,4.336772216796875,-0.926239013671875,-0.193115234375,0.0636138916015625
1782952315355699200,4.34669921875,-0.8983306884765625,-0.1958770751953125,0.0686798095703125
1782952315365626400,4.35662646484375,-0.8737335205078125,-0.1919403076171875,0.0753631591796875
1782952315375554300,4.36655419921875,-0.854766845703125,-0.181640625,0.077606201171875
1782952315385481500,4.3764814453125,-0.8462677001953125,-0.1712646484375,0.0720977783203125
1782952315395408400,4.386408447265625,-0.8492431640625,-0.1636810302734375,0.06402587890625
1782952315405335600,4.39633544921875,-0.8681793212890625,-0.1623992919921875,0.054046630859375
1782952315415263500,4.406263427734375,-0.8921966552734375,-0.1620330810546875,0.032073974609375
1782952315425190400,4.4161904296875,-0.924285888671875,-0.1644287109375,-0.0039520263671875
1782952315435117300,4.426117431640625,-0.976776123046875,-0.1713714599609375,-0.0474853515625
1782952315445044200,4.436044189453125,-1.07855224609375,-0.1697998046875,-0.0972900390625
1782952315454971400,4.445971435546875,-1.126556396484375,-0.1664276123046875,-0.1529541015625
1782952315464899300,4.4558994140625,-1.148193359375,-0.1685028076171875,-0.1702117919921875
1782952315474826200,4.465826171875,-1.1437530517578125,-0.1740264892578125,-0.167510986328125
1782952315484753400,4.47575341796875,-1.11151123046875,-0.169097900390625,-0.16607666015625
1782952315494680300,4.485680419921875,-1.0521240234375,-0.157745361328125,-0.15606689453125
1782952315504608500,4.4956083984375,-0.97235107421875,-0.14886474609375,-0.135345458984375
1782952315514535400,4.505535400390625,-0.8958282470703125,-0.1467437744140625,-0.1111297607421875
1782952315524462300,4.51546240234375,-0.8465728759765625,-0.1609954833984375,-0.08294677734375
1782952315534389200,4.52538916015625,-0.8460693359375,-0.1824188232421875,-0.0530853271484375
1782952315544317200,4.535317138671875,-0.89544677734375,-0.18170166015625,-0.03985595703125
1782952315554244400,4.545244384765625,-0.96533203125,-0.1553802490234375,-0.03448486328125
1782952315564171300,4.555171142578125,-1.025177001953125,-0.12432861328125,-0.03173828125
1782952315574098400,4.565098388671875,-1.069244384765625,-0.10595703125,-0.030242919921875
1782952315584026400,4.5750263671875,-1.0906524658203125,-0.100372314453125,-0.0373687744140625
1782952315593953300,4.584953369140625,-1.085174560546875,-0.1017913818359375,-0.057891845703125
1782952315603880400,4.59488037109375,-1.053558349609375,-0.1148223876953125,-0.0831756591796875
1782952315613807400,4.604807373046875,-1.003814697265625,-0.1354522705078125,-0.10223388671875
1782952315623735600,4.614735595703125,-0.9493560791015625,-0.147369384765625,-0.1168670654296875
1782952315633662200,4.624662109375,-0.9094390869140625,-0.151611328125,-0.132659912109375
1782952315643589400,4.63458935546875,-0.8969573974609375,-0.145111083984375,-0.1494140625
1782952315653516300,4.644516357421875,-0.9182281494140625,-0.123779296875,-0.16412353515625
1782952315663444200,4.6544443359375,-0.971588134765625,-0.0980072021484375,-0.1714324951171875
1782952315673371400,4.664371337890625,-1.0339813232421875,-0.0783538818359375,-0.188385009765625
1782952315683298300,4.67429833984375,-1.0869903564453125,-0.0686492919921875,-0.1990814208984375
1782952315693225500,4.6842255859375,-1.1321563720703125,-0.060577392578125,-0.1918792724609375
1782952315703152400,4.69415234375,-1.1530303955078125,-0.05621337890625,-0.174896240234375
1782952315713080300,4.704080322265625,-1.1323699951171875,-0.05023193359375,-0.1495361328125
1782952315723007500,4.714007568359375,-1.0801239013671875,-0.0382843017578125,-0.129241943359375
1782952315732934100,4.72393408203125,-1.0096435546875,-0.027008056640625,-0.112518310546875
1782952315742861000,4.733861083984375,-0.941619873046875,-0.0191497802734375,-0.0996246337890625
1782952315752789000,4.7437890625,-0.887725830078125,-0.01702880859375,-0.0932464599609375
1782952315762716200,4.753716064453125,-0.853851318359375,-0.01544189453125,-0.105865478515625
1782952315772642800,4.763642822265625,-0.8412322998046875,-0.019683837890625,-0.1380615234375
1782952315782570000,4.773570068359375,-0.84295654296875,-0.0306396484375,-0.1714324951171875
1782952315792498000,4.783497802734375,-0.8587493896484375,-0.0453338623046875,-0.1941680908203125
1782952315802424800,4.7934248046875,-0.8865203857421875,-0.0546112060546875,-0.2170562744140625
1782952315812352000,4.80335205078125,-0.9225616455078125,-0.057403564453125,-0.2279205322265625
1782952315822279000,4.81327880859375,-0.948486328125,-0.058349609375,-0.226226806640625
1782952315832206800,4.823206787109375,-0.96929931640625,-0.0588226318359375,-0.2156524658203125
1782952315842134000,4.833134033203125,-0.9883270263671875,-0.05438232421875,-0.2066497802734375
1782952315852061000,4.84306103515625,-1.007415771484375,-0.04827880859375,-0.1994171142578125
1782952315861988000,4.852988037109375,-1.0294189453125,-0.045623779296875,-0.188018798828125
1782952315871916000,4.862916015625,-1.044036865234375,-0.043243408203125,-0.1787872314453125
1782952315881843000,4.872843017578125,-1.0453033447265625,-0.045135498046875,-0.1692962646484375
1782952315891769900,4.882769775390625,-1.0363616943359375,-0.046722412109375,-0.1630401611328125
1782952315901697000,4.892697021484375,-1.01531982421875,-0.0511627197265625,-0.16217041015625
1782952315911624000,4.9026240234375,-0.9909210205078125,-0.0623016357421875,-0.15472412109375
1782952315921552000,4.9125517578125,-0.96697998046875,-0.0781097412109375,-0.143707275390625
1782952315931479000,4.92247900390625,-0.9436187744140625,-0.0969390869140625,-0.1279144287109375
1782952315941406000,4.932406005859375,-0.93487548828125,-0.11871337890625,-0.1027069091796875
1782952315951333000,4.9423330078125,-0.939361572265625,-0.137939453125,-0.08056640625
1782952315961261000,4.952260986328125,-0.9470062255859375,-0.1487579345703125,-0.0684814453125
1782952315971188000,4.96218798828125,-0.95294189453125,-0.1629486083984375,-0.0612945556640625
1782952315981115000,4.972114990234375,-0.9589080810546875,-0.1795196533203125,-0.064178466796875
1782952315991041800,4.982041748046875,-0.964569091796875,-0.1959686279296875,-0.0711669921875
1782952316000970000,4.991969970703125,-0.9767303466796875,-0.218292236328125,-0.067779541015625
1782952316010897000,5.00189697265625,-0.9918365478515625,-0.237579345703125,-0.0599517822265625
1782952316020824000,5.011823974609375,-0.9999237060546875,-0.25115966796875,-0.0537567138671875
1782952316030751000,5.0217509765625,-0.9999847412109375,-0.2627105712890625,-0.0533447265625
1782952316040679000,5.031678955078125,-0.9957427978515625,-0.277557373046875,-0.0528106689453125
1782952316050606000,5.041606201171875,-0.989776611328125,-0.2981719970703125,-0.0503082275390625
1782952316060533000,5.051532958984375,-0.9881591796875,-0.314849853515625,-0.042449951171875
1782952316070460000,5.0614599609375,-0.9886932373046875,-0.3241424560546875,-0.0356903076171875
1782952316080388000,5.07138818359375,-0.989013671875,-0.3306121826171875,-0.026397705078125
1782952316090314800,5.081314697265625,-0.9928436279296875,-0.3298797607421875,-0.013153076171875
1782952316100242000,5.091241943359375,-0.9923248291015625,-0.3273773193359375,0.0043487548828125
1782952316110168800,5.1011689453125,-0.9862518310546875,-0.3301849365234375,0.02362060546875
1782952316120097000,5.111096923828125,-0.984161376953125,-0.33306884765625,0.04217529296875
1782952316130024000,5.12102392578125,-0.977386474609375,-0.3353729248046875,0.058502197265625
1782952316139951000,5.130951171875,-0.95831298828125,-0.333709716796875,0.066314697265625
1782952316149878000,5.1408779296875,-0.94281005859375,-0.340118408203125,0.06494140625
1782952316159805200,5.15080517578125,-0.927520751953125,-0.357025146484375,0.0548553466796875
1782952316169733000,5.160733154296875,-0.9127349853515625,-0.3802337646484375,0.04290771484375
1782952316179659800,5.17065966796875,-0.90496826171875,-0.4035186767578125,0.044677734375
1782952316189587000,5.1805869140625,-0.890380859375,-0.4173126220703125,0.049957275390625
1782952316199513900,5.190513916015625,-0.8785247802734375,-0.4131622314453125,0.0513916015625
1782952316209441800,5.20044189453125,-0.8910369873046875,-0.400543212890625,0.0488128662109375
1782952316219369000,5.210368896484375,-0.937774658203125,-0.387969970703125,0.0510101318359375
1782952316229295900,5.2202958984375,-0.998931884765625,-0.3726043701171875,0.0643310546875
1782952316239223000,5.23022314453125,-1.06854248046875,-0.35382080078125,0.091156005859375
1782952316249151000,5.24015087890625,-1.12939453125,-0.3260650634765625,0.109130859375
1782952316259078100,5.250078125,-1.16119384765625,-0.290924072265625,0.1148223876953125
1782952316269005000,5.260005126953125,-1.163787841796875,-0.25811767578125,0.1159210205078125
1782952316278932000,5.269931884765625,-1.1379852294921875,-0.2393341064453125,0.1163787841796875
1782952316288860000,5.27985986328125,-1.071746826171875,-0.2349395751953125,0.109710693359375
1782952316298786800,5.289786865234375,-0.98309326171875,-0.2458953857421875,0.098297119140625
1782952316308714000,5.2997138671875,-0.9109039306640625,-0.2678375244140625,0.0892333984375
1782952316318641000,5.309640869140625,-0.8781280517578125,-0.289306640625,0.0767364501953125
1782952316328568800,5.31956884765625,-0.8812103271484375,-0.303619384765625,0.0676422119140625
1782952316338493000,5.329492919921875,-0.9217529296875,-0.29949951171875,0.0625
1782952316348419800,5.339419921875,-0.9741363525390625,-0.2823486328125,0.0569305419921875
1782952316358347800,5.34934765625,-1.0126800537109375,-0.2685089111328125,0.0512237548828125
1782952316368275000,5.35927490234375,-1.0356903076171875,-0.260406494140625,0.0566558837890625
1782952316378201900,5.369201904296875,-1.0455780029296875,-0.249603271484375,0.0577392578125
1782952316388129000,5.37912890625,-1.0410003662109375,-0.2334136962890625,0.059417724609375
1782952316398057000,5.389056884765625,-1.0138092041015625,-0.21697998046875,0.0737457275390625
1782952316407984000,5.398984130859375,-0.9796295166015625,-0.205078125,0.09197998046875
1782952316417911000,5.4089111328125,-0.9426727294921875,-0.188201904296875,0.1050262451171875
1782952316427838000,5.418837890625,-0.9066009521484375,-0.1683502197265625,0.09375
1782952316437764900,5.428764892578125,-0.8756103515625,-0.15478515625,0.0540008544921875
1782952316447692800,5.43869287109375,-0.8614044189453125,-0.1623992919921875,0.0081787109375
1782952316457620000,5.448619873046875,-0.8665771484375,-0.1876220703125,-0.0337371826171875
1782952316467547000,5.458546875,-0.883087158203125,-0.217437744140625,-0.062744140625
1782952316477474000,5.46847412109375,-0.913787841796875,-0.242767333984375,-0.071136474609375
1782952316487402000,5.478402099609375,-0.96099853515625,-0.2519683837890625,-0.06195068359375
1782952316497329000,5.488328857421875,-1.0068817138671875,-0.23956298828125,-0.0511016845703125
1782952316507256000,5.498256103515625,-1.040771484375,-0.21099853515625,-0.0372772216796875
1782952316517183000,5.508182861328125,-1.059173583984375,-0.1849517822265625,-0.0147857666015625
1782952316527111200,5.518111083984375,-1.071136474609375,-0.161590576171875,0.008758544921875
1782952316537037800,5.528037841796875,-1.06707763671875,-0.1390228271484375,0.0190277099609375
1782952316546965000,5.537965087890625,-1.075103759765625,-0.1161651611328125,0.0303497314453125
1782952316556892000,5.547891845703125,-1.055206298828125,-0.10357666015625,0.0167388916015625
1782952316566819800,5.55781982421875,-1.0203857421875,-0.109130859375,-0.0053558349609375
1782952316576747000,5.5677470703125,-1.008880615234375,-0.11767578125,-0.0221710205078125
1782952316586674000,5.577673828125,-0.9791717529296875,-0.1286773681640625,-0.0479736328125
1782952316596601000,5.58760107421875,-0.9563751220703125,-0.1410369873046875,-0.0657196044921875
1782952316606529000,5.597529052734375,-0.9392242431640625,-0.1503753662109375,-0.0825958251953125
1782952316616456000,5.6074560546875,-0.94140625,-0.148834228515625,-0.0900726318359375
1782952316626383000,5.617383056640625,-0.9664764404296875,-0.1329498291015625,-0.09698486328125
1782952316636309800,5.627309814453125,-0.9996337890625,-0.1171112060546875,-0.1086273193359375
1782952316646238000,5.637238037109375,-1.023956298828125,-0.107147216796875,-0.1191558837890625
1782952316656164900,5.647164794921875,-1.033355712890625,-0.1048126220703125,-0.1307830810546875
1782952316666092000,5.657092041015625,-1.02490234375,-0.1047821044921875,-0.1372833251953125
1782952316676019000,5.66701904296875,-1.001312255859375,-0.108428955078125,-0.1388702392578125
1782952316685947000,5.67694677734375,-0.9686126708984375,-0.10858154296875,-0.1313323974609375
1782952316695874000,5.6868740234375,-0.93994140625,-0.1052703857421875,-0.130218505859375
1782952316705801000,5.696801025390625,-0.9183349609375,-0.1021575927734375,-0.122955322265625
1782952316715728100,5.70672802734375,-0.916534423828125,-0.0999908447265625,-0.1051177978515625
1782952316725655000,5.716655029296875,-0.9343414306640625,-0.0832672119140625,-0.09051513671875
1782952316735583000,5.7265830078125,-0.954498291015625,-0.0551910400390625,-0.09588623046875
1782952316745510100,5.73651025390625,-0.973236083984375,-0.0315399169921875,-0.111358642578125
1782952316755437000,5.74643701171875,-0.988861083984375,-0.025421142578125,-0.1252288818359375
1782952316765364200,5.7563642578125,-1.0259246826171875,-0.03582763671875,-0.1356201171875
1782952316775292200,5.766292236328125,-1.07586669921875,-0.05572509765625,-0.1404876708984375
1782952316785219000,5.776218994140625,-1.128509521484375,-0.06317138671875,-0.1477508544921875
1782952316795146200,5.786146240234375,-1.1681671142578125,-0.0556793212890625,-0.154144287109375
1782952316805073200,5.7960732421875,-1.1870574951171875,-0.038055419921875,-0.158172607421875
1782952316815001300,5.80600146484375,-1.1671295166015625,-0.019317626953125,-0.156524658203125
1782952316824928300,5.81592822265625,-1.0970306396484375,-0.0101776123046875,-0.145721435546875
1782952316834855200,5.825855224609375,-1.000885009765625,-0.0140228271484375,-0.126251220703125
1782952316844782000,5.835781982421875,-0.905426025390625,-0.01593017578125,-0.1129608154296875
1782952316854710000,5.8457099609375,-0.8264617919921875,-0.0113067626953125,-0.11224365234375
1782952316864637200,5.85563720703125,-0.778106689453125,-0.0137481689453125,-0.1224517822265625
1782952316874564000,5.865564208984375,-0.7661285400390625,-0.03143310546875,-0.1390533447265625
1782952316884491300,5.8754912109375,-0.7897796630859375,-0.0533905029296875,-0.160491943359375
1782952316894419200,5.885419189453125,-0.8314361572265625,-0.073760986328125,-0.174468994140625
1782952316904346000,5.89534619140625,-0.8833770751953125,-0.0805206298828125,-0.1727142333984375
1782952316914273300,5.905273193359375,-0.9330291748046875,-0.0717926025390625,-0.1700592041015625
1782952316924200000,5.915199951171875,-0.9746246337890625,-0.06048583984375,-0.1758575439453125
1782952316934128400,5.92512841796875,-0.9978179931640625,-0.0557098388671875,-0.1822357177734375
1782952316944055000,5.935054931640625,-1.0144195556640625,-0.0565948486328125,-0.1875457763671875
1782952316953982200,5.944982177734375,-1.009246826171875,-0.0628204345703125,-0.19305419921875
1782952316963909000,5.9549091796875,-0.9914398193359375,-0.073944091796875,-0.1904144287109375
1782952316973836300,5.964836181640625,-0.9716339111328125,-0.0902557373046875,-0.1818695068359375
1782952316983764200,5.97476416015625,-0.9555816650390625,-0.1047515869140625,-0.1675872802734375
1782952316993691100,5.984691162109375,-0.9455108642578125,-0.1145782470703125,-0.1553192138671875
1782952317003618300,5.994618408203125,-0.940643310546875,-0.1213531494140625,-0.146820068359375
1782952317013545200,6.004545166015625,-0.9361419677734375,-0.1310577392578125,-0.1366424560546875
1782952317023473200,6.01447314453125,-0.938018798828125,-0.1473541259765625,-0.1323699951171875
1782952317033400000,6.024400146484375,-0.941558837890625,-0.164398193359375,-0.132049560546875
1782952317043327000,6.034326904296875,-0.9557342529296875,-0.1806488037109375,-0.13507080078125
1782952317053254100,6.044254150390625,-0.973663330078125,-0.194854736328125,-0.139068603515625
1782952317063182000,6.05418212890625,-0.981475830078125,-0.2087860107421875,-0.1415557861328125
1782952317073109200,6.064109130859375,-0.98663330078125,-0.2229156494140625,-0.1453399658203125
1782952317083036200,6.0740361328125,-0.9877777099609375,-0.2328948974609375,-0.1466217041015625
1782952317092963300,6.08396337890625,-0.9842376708984375,-0.24615478515625,-0.1439971923828125
1782952317102891300,6.093891357421875,-0.9796905517578125,-0.2627410888671875,-0.1376495361328125
1782952317112818200,6.103818115234375,-0.9745941162109375,-0.281585693359375,-0.124114990234375
1782952317122745300,6.113745361328125,-0.981689453125,-0.2988433837890625,-0.102081298828125
1782952317132672000,6.123672119140625,-0.9923858642578125,-0.309326171875,-0.0784454345703125
1782952317142600000,6.133599853515625,-0.9971771240234375,-0.312957763671875,-0.0558929443359375
1782952317152527000,6.143527099609375,-0.996429443359375,-0.3165283203125,-0.026702880859375
1782952317162454000,6.1534541015625,-1.003082275390625,-0.3162689208984375,0.005950927734375
1782952317172381200,6.163381103515625,-1.009552001953125,-0.3110809326171875,0.02783203125
1782952317182309000,6.17330908203125,-1.0151824951171875,-0.306793212890625,0.0393829345703125
1782952317192236300,6.183236328125,-1.020263671875,-0.305419921875,0.039703369140625
1782952317202163200,6.1931630859375,-1.026031494140625,-0.3116607666015625,0.0345001220703125
1782952317212090400,6.20309033203125,-1.0340576171875,-0.3223876953125,0.02691650390625
1782952317222018300,6.213018310546875,-1.04315185546875,-0.33746337890625,0.0221405029296875
1782952317231945200,6.2229453125,-1.0473785400390625,-0.34466552734375,0.0282440185546875
1782952317241872100,6.2328720703125,-1.04864501953125,-0.34771728515625,0.0397186279296875
1782952317251799000,6.242799072265625,-1.04254150390625,-0.34820556640625,0.056304931640625
1782952317261726200,6.252726318359375,-1.0276641845703125,-0.341461181640625,0.0660247802734375
1782952317271654100,6.262654052734375,-1.0035247802734375,-0.326934814453125,0.070068359375
1782952317281581000,6.2725810546875,-0.9780731201171875,-0.313018798828125,0.05902099609375
1782952317291508200,6.28250830078125,-0.957183837890625,-0.30908203125,0.0335540771484375
1782952317301435100,6.29243505859375,-0.9501495361328125,-0.3194580078125,0.0000762939453125
1782952317311363300,6.30236328125,-0.95989990234375,-0.334075927734375,-0.0263671875
1782952317321290200,6.312290283203125,-0.981658935546875,-0.342437744140625,-0.0396881103515625
1782952317331217200,6.322217041015625,-1.0052490234375,-0.3405914306640625,-0.0369110107421875
1782952317341144000,6.33214404296875,-1.021697998046875,-0.321075439453125,-0.0320281982421875
1782952317351072000,6.342072021484375,-1.0171356201171875,-0.297027587890625,-0.0295562744140625
1782952317360999200,6.351999267578125,-0.9959716796875,-0.2796173095703125,-0.03375244140625
1782952317370926000,6.361926025390625,-0.9710693359375,-0.27752685546875,-0.043243408203125
1782952317380853200,6.371853271484375,-0.9471282958984375,-0.2821807861328125,-0.0600128173828125
1782952317390781200,6.38178125,-0.915496826171875,-0.292999267578125,-0.0727386474609375
1782952317400708000,6.3917080078125,-0.8890228271484375,-0.3074493408203125,-0.068023681640625
1782952317410635300,6.40163525390625,-0.873138427734375,-0.31732177734375,-0.051666259765625
1782952317420562200,6.411562255859375,-0.879913330078125,-0.314697265625,-0.02703857421875
1782952317430490400,6.421490478515625,-0.8926849365234375,-0.2993316650390625,-0.00128173828125
1782952317440417000,6.4314169921875,-0.90057373046875,-0.283050537109375,0.0149688720703125
1782952317450344200,6.44134423828125,-0.9092864990234375,-0.270172119140625,0.031036376953125
1782952317460271000,6.45127099609375,-0.9037017822265625,-0.2583465576171875,0.040313720703125
1782952317470199000,6.461198974609375,-0.8852996826171875,-0.241119384765625,0.0437469482421875
1782952317480126200,6.471126220703125,-0.889984130859375,-0.21893310546875,0.0413665771484375
1782952317490053000,6.48105322265625,-0.93096923828125,-0.202392578125,0.031829833984375
1782952317499980300,6.490980224609375,-0.9965362548828125,-0.18768310546875,0.0273284912109375
1782952317509908200,6.500908203125,-1.043853759765625,-0.17596435546875,0.029083251953125
1782952317519835100,6.510835205078125,-1.08221435546875,-0.1685028076171875,0.04254150390625
1782952317529762300,6.52076220703125,-1.10186767578125,-0.1607513427734375,0.04827880859375
1782952317539689000,6.53068896484375,-1.0838623046875,-0.1486053466796875,0.0504150390625
1782952317549616000,6.5406162109375,-1.0324554443359375,-0.1464385986328125,0.0533294677734375
1782952317559544000,6.5505439453125,-0.9588775634765625,-0.1548614501953125,0.0487518310546875
1782952317569471200,6.56047119140625,-0.886505126953125,-0.164093017578125,0.0393524169921875
1782952317579398100,6.570398193359375,-0.8359527587890625,-0.1742095947265625,0.0144500732421875
1782952317589325300,6.5803251953125,-0.815643310546875,-0.1851959228515625,-0.019256591796875
1782952317599253200,6.590253173828125,-0.82440185546875,-0.1974029541015625,-0.0528411865234375
1782952317609180200,6.60018017578125,-0.8421173095703125,-0.205657958984375,-0.091888427734375
1782952317619107300,6.610107421875,-0.870025634765625,-0.2099151611328125,-0.125030517578125
1782952317629034200,6.6200341796875,-0.908905029296875,-0.2141265869140625,-0.155029296875
1782952317638962200,6.629962158203125,-0.94903564453125,-0.216217041015625,-0.1697845458984375
1782952317648889000,6.63988916015625,-0.98345947265625,-0.2126007080078125,-0.1669921875
1782952317658816000,6.64981591796875,-1.0281219482421875,-0.2036590576171875,-0.145416259765625
1782952317668743200,6.6597431640625,-1.0722503662109375,-0.17724609375,-0.1275787353515625
1782952317678671000,6.669671142578125,-1.09918212890625,-0.1501617431640625,-0.122894287109375
1782952317688598300,6.679598388671875,-1.1139373779296875,-0.131103515625,-0.1305389404296875
1782952317698525200,6.689525146484375,-1.1070556640625,-0.1245574951171875,-0.1396484375
1782952317708452400,6.699452392578125,-1.1044921875,-0.1208343505859375,-0.1342010498046875
1782952317718380300,6.70938037109375,-1.0721588134765625,-0.135467529296875,-0.14306640625
1782952317728307200,6.71930712890625,-1.053009033203125,-0.153289794921875,-0.1247406005859375
1782952317738234400,6.729234375,-1.0425567626953125,-0.157073974609375,-0.0958404541015625
1782952317748161500,6.73916162109375,-1.0289154052734375,-0.1326446533203125,-0.07818603515625
1782952317758088400,6.74908837890625,-1.0176849365234375,-0.1042633056640625,-0.0667724609375
1782952317768016600,6.7590166015625,-1.0009765625,-0.0896759033203125,-0.0638275146484375
1782952317777943300,6.768943359375,-0.98931884765625,-0.0941162109375,-0.0680694580078125
1782952317787870500,6.778870361328125,-0.9931640625,-0.1021270751953125,-0.085235595703125
1782952317797798400,6.78879833984375,-1.006378173828125,-0.10589599609375,-0.11236572265625
1782952317807725300,6.798725341796875,-1.0102386474609375,-0.10595703125,-0.1398773193359375
1782952317817652500,6.808652587890625,-1.00897216796875,-0.1058502197265625,-0.157562255859375
1782952317827579400,6.818579345703125,-1.0032501220703125,-0.1063690185546875,-0.1609954833984375
1782952317837506600,6.828506591796875,-0.9973907470703125,-0.1055908203125,-0.1615142822265625
1782952317847434500,6.8384345703125,-0.9873199462890625,-0.098602294921875,-0.161529541015625
1782952317857361700,6.848361572265625,-0.9788818359375,-0.0899658203125,-0.165802001953125
1782952317867288300,6.858288330078125,-0.97137451171875,-0.07733154296875,-0.1742706298828125
1782952317877215500,6.868215576171875,-0.9600677490234375,-0.0718841552734375,-0.1869659423828125
1782952317887143400,6.878143310546875,-0.9456634521484375,-0.0675506591796875,-0.1968994140625
1782952317897070300,6.8880703125,-0.947418212890625,-0.0692596435546875,-0.211883544921875
1782952317906997500,6.89799755859375,-0.96929931640625,-0.0758819580078125,-0.221160888671875
1782952317916924400,6.90792431640625,-1.012176513671875,-0.0876007080078125,-0.2236175537109375
1782952317926852400,6.917852294921875,-1.0574951171875,-0.0939178466796875,-0.2241058349609375
1782952317936779500,6.927779541015625,-1.0852203369140625,-0.0848388671875,-0.227783203125
1782952317946706400,6.93770654296875,-1.0827178955078125,-0.0606842041015625,-0.2241058349609375
1782952317956633600,6.947633544921875,-1.0432891845703125,-0.029327392578125,-0.211181640625
1782952317966561500,6.9575615234375,-0.9867095947265625,-0.008453369140625,-0.1883392333984375
1782952317976488400,6.967488525390625,-0.9293060302734375,-0.00079345703125,-0.160797119140625
1782952317986415400,6.977415283203125,-0.8754119873046875,0.0035400390625,-0.1539306640625
1782952317996342500,6.987342529296875,-0.8428192138671875,-0.0005035400390625,-0.1534881591796875
1782952318006270500,6.9972705078125,-0.8335723876953125,-0.021881103515625,-0.1618194580078125
1782952318016197400,7.007197265625,-0.8451385498046875,-0.0458221435546875,-0.182373046875
1782952318026124500,7.01712451171875,-0.868499755859375,-0.071319580078125,-0.2105865478515625
1782952318036051500,7.027051513671875,-0.8958587646484375,-0.0766754150390625,-0.2224273681640625
1782952318045978600,7.036978515625,-0.9253387451171875,-0.0660400390625,-0.2159423828125
1782952318055906600,7.046906494140625,-0.9525146484375,-0.062713623046875,-0.21417236328125
1782952318065833500,7.05683349609375,-0.9708404541015625,-0.0530242919921875,-0.211578369140625
1782952318075760400,7.066760498046875,-0.9747161865234375,-0.0363616943359375,-0.1957244873046875
1782952318085687300,7.076687255859375,-0.9686737060546875,-0.01544189453125,-0.1627349853515625
1782952318095615500,7.086615478515625,-0.95819091796875,-0.0035247802734375,-0.1269989013671875
1782952318105542400,7.09654248046875,-0.9568328857421875,-0.0049285888671875,-0.10968017578125
1782952318115469600,7.106469482421875,-0.9583587646484375,-0.0340728759765625,-0.12310791015625
1782952318125396500,7.116396484375,-0.95892333984375,-0.0670013427734375,-0.1436309814453125
1782952318135324400,7.126324462890625,-0.9541015625,-0.0956573486328125,-0.163238525390625
1782952318145251600,7.13625146484375,-0.940460205078125,-0.1212615966796875,-0.16912841796875
1782952318155178500,7.146178466796875,-0.94573974609375,-0.1492767333984375,-0.145050048828125
1782952318165105400,7.15610546875,-0.9605560302734375,-0.1727294921875,-0.11517333984375
1782952318175033600,7.16603369140625,-0.9782257080078125,-0.1862030029296875,-0.0919342041015625
1782952318184960300,7.175960205078125,-1.0077056884765625,-0.19000244140625,-0.0741729736328125
1782952318194887400,7.185887451171875,-1.0437164306640625,-0.1822662353515625,-0.06182861328125
1782952318204814300,7.195814453125,-1.0626373291015625,-0.1688995361328125,-0.0608673095703125
1782952318214742500,7.205742431640625,-1.0834808349609375,-0.1545257568359375,-0.0616455078125
1782952318224669400,7.21566943359375,-1.1073150634765625,-0.1509857177734375,-0.0621795654296875
1782952318234596600,7.2255966796875,-1.0984039306640625,-0.1524505615234375,-0.07568359375
1782952318244523500,7.2355234375,-1.0693359375,-0.1724395751953125,-0.0996246337890625
1782952318254451500,7.245451416015625,-1.064239501953125,-0.1767730712890625,-0.086212158203125
1782952318264378600,7.255378662109375,-1.06280517578125,-0.183441162109375,-0.0531158447265625
1782952318274305300,7.26530517578125,-1.0764007568359375,-0.1968994140625,-0.0189361572265625
1782952318284232400,7.275232421875,-1.1081390380859375,-0.206817626953125,0.0048065185546875
1782952318294160400,7.285160400390625,-1.1258697509765625,-0.2000732421875,0.021759033203125
1782952318304087300,7.29508740234375,-1.12078857421875,-0.1938018798828125,0.0244293212890625
1782952318314014500,7.305014404296875,-1.0973663330078125,-0.1925201416015625,0.0260009765625
1782952318323941400,7.31494140625,-1.0520782470703125,-0.190582275390625,0.028167724609375
1782952318333868500,7.32486865234375,-1.0006103515625,-0.1978759765625,0.037017822265625
1782952318343796500,7.33479638671875,-0.9454498291015625,-0.2021636962890625,0.05126953125
1782952318353723600,7.3447236328125,-0.9590911865234375,-0.21612548828125,0.03515625
1782952318363650600,7.354650634765625,-0.9635162353515625,-0.2309112548828125,0.0113525390625
1782952318373577500,7.364577392578125,-0.9620208740234375,-0.24163818359375,-0.0037689208984375
1782952318383505400,7.37450537109375,-0.97247314453125,-0.2464447021484375,-0.005401611328125
1782952318393432300,7.384432373046875,-0.9815826416015625,-0.2453155517578125,0.010498046875
1782952318403359500,7.394359375,-0.97052001953125,-0.2454681396484375,0.0222930908203125
1782952318413286400,7.404286376953125,-0.936676025390625,-0.2308349609375,0.0342559814453125
1782952318423214300,7.41421435546875,-0.9040985107421875,-0.214996337890625,0.0381317138671875
1782952318433141500,7.4241416015625,-0.8832244873046875,-0.197723388671875,0.0339508056640625
1782952318443068400,7.434068359375,-0.8816680908203125,-0.181060791015625,0.03558349609375
1782952318452995600,7.44399560546875,-0.9107818603515625,-0.1753082275390625,0.048614501953125
1782952318462923500,7.453923583984375,-0.9760894775390625,-0.182952880859375,0.0579376220703125
1782952318472850700,7.4638505859375,-1.0510101318359375,-0.18585205078125,0.052001953125
1782952318482777300,7.47377734375,-1.103607177734375,-0.1771392822265625,0.034698486328125
1782952318492704500,7.48370458984375,-1.1032867431640625,-0.1650390625,0.0172271728515625
1782952318502632400,7.493632568359375,-1.0572509765625,-0.158843994140625,0.0034637451171875
1782952318512559400,7.503559326171875,-0.9981842041015625,-0.1590118408203125,0.0029754638671875
1782952318522486500,7.513486572265625,-0.9461517333984375,-0.1642303466796875,0.003875732421875
1782952318532413400,7.523413330078125,-0.9072113037109375,-0.175079345703125,-0.007781982421875
1782952318542341400,7.53334130859375,-0.8822479248046875,-0.1859588623046875,-0.021331787109375
1782952318552268500,7.5432685546875,-0.8799591064453125,-0.1977996826171875,-0.023345947265625
1782952318562195500,7.553195556640625,-0.8838958740234375,-0.2053375244140625,-0.0262451171875
1782952318572122600,7.56312255859375,-0.8977508544921875,-0.1977386474609375,-0.0107269287109375
1782952318582050600,7.573050537109375,-0.9358062744140625,-0.1803741455078125,0.0247039794921875
1782952318591977500,7.5829775390625,-0.98126220703125,-0.1531524658203125,0.0591583251953125
1782952318601904400,7.592904296875,-1.0246734619140625,-0.122650146484375,0.083404541015625
1782952318611831600,7.60283154296875,-1.058929443359375,-0.0991668701171875,0.0886077880859375
1782952318621758500,7.612758544921875,-1.0752716064453125,-0.089385986328125,0.081817626953125
1782952318631686400,7.622686279296875,-1.06048583984375,-0.08856201171875,0.0699005126953125
1782952318641613600,7.632613525390625,-1.021697998046875,-0.100555419921875,0.0543365478515625
1782952318651540500,7.64254052734375,-0.9884796142578125,-0.12298583984375,0.0500640869140625
1782952318661467600,7.652467529296875,-0.970428466796875,-0.146240234375,0.0470123291015625
1782952318671395600,7.6623955078125,-0.9654388427734375,-0.1566162109375,0.0351409912109375
1782952318681322500,7.672322509765625,-0.9659423828125,-0.156890869140625,0.0192413330078125
1782952318691249400,7.68224951171875,-0.9635009765625,-0.154266357421875,0.016448974609375
1782952318701176300,7.69217626953125,-0.9556884765625,-0.15789794921875,0.0157928466796875
1782952318711104500,7.7021044921875,-0.945159912109375,-0.1625518798828125,0.0141143798828125
1782952318721031400,7.712031494140625,-0.9395751953125,-0.1683807373046875,0.0106201171875
1782952318730958300,7.721958251953125,-0.934234619140625,-0.1704559326171875,0.0097503662109375
1782952318740885500,7.731885498046875,-0.9344024658203125,-0.170166015625,0.0074920654296875
1782952318750812400,7.7418125,-0.9424896240234375,-0.1747894287109375,0.00421142578125
1782952318760739300,7.7517392578125,-0.945281982421875,-0.1748046875,0.005767822265625
1782952318770666200,7.761666259765625,-0.939666748046875,-0.16229248046875,0.002349853515625
1782952318780593400,7.771593505859375,-0.942138671875,-0.1548919677734375,-0.007965087890625
1782952318790521300,7.781521240234375,-0.954376220703125,-0.1639556884765625,-0.033599853515625
1782952318800448500,7.791448486328125,-0.9690704345703125,-0.176055908203125,-0.071807861328125
1782952318810375400,7.80137548828125,-1.0019073486328125,-0.19012451171875,-0.114013671875
1782952318820302300,7.81130224609375,-1.044097900390625,-0.203399658203125,-0.150421142578125
1782952318830230300,7.821230224609375,-1.0953369140625,-0.2093963623046875,-0.177490234375
1782952318840157200,7.8311572265625,-1.131805419921875,-0.19854736328125,-0.18658447265625
1782952318850084400,7.84108447265625,-1.15191650390625,-0.1779937744140625,-0.1734619140625
1782952318860011300,7.85101123046875,-1.15087890625,-0.15545654296875,-0.1542205810546875
1782952318869939200,7.860939208984375,-1.137115478515625,-0.13690185546875,-0.135772705078125
1782952318879866400,7.870866455078125,-1.10186767578125,-0.12103271484375,-0.120849609375
1782952318889793300,7.880793212890625,-1.056854248046875,-0.1074981689453125,-0.1023406982421875
1782952318899720400,7.890720458984375,-1.008087158203125,-0.0951995849609375,-0.086669921875
1782952318909648400,7.9006484375,-0.9557342529296875,-0.0878753662109375,-0.0825042724609375
1782952318919575600,7.910575439453125,-0.89642333984375,-0.0802459716796875,-0.081756591796875
1782952318929502200,7.920502197265625,-0.8558197021484375,-0.0761871337890625,-0.0833892822265625
1782952318939429400,7.930429443359375,-0.8499603271484375,-0.0714874267578125,-0.09027099609375
1782952318949356300,7.940356201171875,-0.87847900390625,-0.0663909912109375,-0.085296630859375
1782952318959284200,7.9502841796875,-0.913055419921875,-0.0611419677734375,-0.0797882080078125
1782952318969211400,7.96021142578125,-0.938812255859375,-0.051513671875,-0.0918121337890625
1782952318979138300,7.97013818359375,-0.9524993896484375,-0.049713134765625,-0.119140625
1782952318989065500,7.9800654296875,-0.9577178955078125,-0.049468994140625,-0.1516265869140625
1782952318998993400,7.989993408203125,-0.96697998046875,-0.049041748046875,-0.1885986328125
1782952319008920300,7.99992041015625,-0.9804840087890625,-0.0544586181640625,-0.2309722900390625
1782952319018847200,8.00984716796875,-1.0044403076171875,-0.0662689208984375,-0.26519775390625
1782952319028774100,8.019774169921876,-1.0476837158203125,-0.07391357421875,-0.2860107421875
1782952319038702300,8.029702392578125,-1.1012420654296875,-0.0690460205078125,-0.295684814453125
1782952319048629200,8.039629150390626,-1.1478424072265625,-0.0501556396484375,-0.2995147705078125
1782952319058556400,8.049556396484375,-1.1617889404296875,-0.0304107666015625,-0.28753662109375
1782952319068483300,8.0594833984375,-1.1328277587890625,-0.0116424560546875,-0.2632904052734375
1782952319078411300,8.069411376953125,-1.058349609375,0.0062713623046875,-0.2401275634765625
1782952319088338400,8.07933837890625,-0.9597320556640625,0.009735107421875,-0.2244415283203125
1782952319098265300,8.089265380859375,-0.8619232177734375,0.0073089599609375,-0.212310791015625
1782952319108192500,8.099192626953124,-0.79052734375,0.001190185546875,-0.212005615234375
1782952319118120400,8.109120361328126,-0.757659912109375,-0.0071868896484375,-0.2212677001953125
1782952319128047000,8.119047119140625,-0.7645721435546875,-0.01824951171875,-0.2400665283203125
1782952319137974300,8.128974365234376,-0.81597900390625,-0.0278472900390625,-0.2527008056640625
1782952319147901200,8.138901123046875,-0.8943939208984375,-0.03424072265625,-0.251312255859375
1782952319157829400,8.148829345703126,-0.9598388671875,-0.0261993408203125,-0.250823974609375
1782952319167756300,8.15875634765625,-0.9993743896484375,-0.018402099609375,-0.2555389404296875
1782952319177683500,8.168683349609376,-1.011077880859375,-0.014373779296875,-0.255645751953125
1782952319187610400,8.1786103515625,-1.0023651123046875,-0.0127716064453125,-0.2519073486328125
1782952319197537500,8.18853759765625,-0.9849090576171875,-0.0103759765625,-0.242584228515625
1782952319207465500,8.198465576171875,-0.9672393798828125,-0.0061187744140625,-0.235382080078125
1782952319217392400,8.208392333984374,-0.9496917724609375,-0.000640869140625,-0.224853515625
1782952319227319300,8.2183193359375,-0.9366607666015625,0.0048370361328125,-0.209136962890625
1782952319237246200,8.22824609375,-0.9240570068359375,0.0064544677734375,-0.1862945556640625
1782952319247174100,8.238174072265625,-0.9095001220703125,0.001800537109375,-0.16644287109375
1782952319257101300,8.248101318359375,-0.89569091796875,-0.0092926025390625,-0.1555938720703125
1782952319267028200,8.2580283203125,-0.8865966796875,-0.0308380126953125,-0.155853271484375
1782952319276955400,8.267955322265625,-0.86810302734375,-0.055084228515625,-0.1589202880859375
1782952319286883300,8.27788330078125,-0.855743408203125,-0.0700225830078125,-0.1484832763671875
1782952319296810500,8.287810546875,-0.8491668701171875,-0.07257080078125,-0.12994384765625
1782952319306737400,8.2977373046875,-0.84344482421875,-0.0771331787109375,-0.1040191650390625
1782952319316664300,8.307664306640625,-0.84161376953125,-0.0960693359375,-0.08465576171875
1782952319326592500,8.317592529296874,-0.8592681884765625,-0.123809814453125,-0.0698089599609375
1782952319336519200,8.327519287109375,-0.9039154052734375,-0.1501007080078125,-0.0588531494140625
1782952319346446300,8.3374462890625,-0.9622650146484375,-0.17254638671875,-0.0589752197265625
1782952319356373200,8.347373291015625,-1.0187225341796875,-0.1925201416015625,-0.0619049072265625
1782952319366301200,8.35730126953125,-1.060089111328125,-0.2081451416015625,-0.061431884765625
1782952319376228400,8.367228271484375,-1.0880126953125,-0.218597412109375,-0.0588531494140625
1782952319386155300,8.3771552734375,-1.1102447509765625,-0.2286529541015625,-0.051422119140625
1782952319396082400,8.38708251953125,-1.13623046875,-0.2414093017578125,-0.04376220703125
1782952319406010400,8.39701025390625,-1.1572113037109375,-0.2492828369140625,-0.0368499755859375
1782952319415937500,8.4069375,-1.168182373046875,-0.255462646484375,-0.026947021484375
1782952319425864200,8.4168642578125,-1.180023193359375,-0.2638397216796875,-0.019622802734375
1782952319435791400,8.426791259765626,-1.179718017578125,-0.2681121826171875,-0.00921630859375
1782952319445719300,8.43671923828125,-1.1598052978515625,-0.2655792236328125,0.0050201416015625
1782952319455646200,8.446646240234376,-1.118682861328125,-0.2540740966796875,0.0271453857421875
1782952319465573400,8.456573486328125,-1.06658935546875,-0.2438507080078125,0.0509033203125
1782952319475500300,8.466500244140626,-1.020904541015625,-0.2483367919921875,0.063385009765625
1782952319485428200,8.47642822265625,-0.9866943359375,-0.258941650390625,0.0727691650390625
1782952319495355400,8.48635546875,-0.9633331298828125,-0.2677001953125,0.0807342529296875
1782952319505282300,8.4962822265625,-0.9546051025390625,-0.2738189697265625,0.0840301513671875
1782952319515209500,8.50620947265625,-0.9540557861328125,-0.2784271240234375,0.0798187255859375
1782952319525136100,8.51613623046875,-0.9554443359375,-0.276519775390625,0.077606201171875
1782952319535064300,8.526064208984375,-0.9527587890625,-0.26837158203125,0.085296630859375
1782952319544991200,8.5359912109375,-0.9427032470703125,-0.261871337890625,0.09051513671875
1782952319554918400,8.54591845703125,-0.9396209716796875,-0.264678955078125,0.089996337890625
1782952319564845300,8.55584521484375,-0.93988037109375,-0.2634735107421875,0.0844268798828125
1782952319574773200,8.565773193359375,-0.9547882080078125,-0.257720947265625,0.07769775390625
1782952319584700400,8.575700439453126,-0.9835205078125,-0.24493408203125,0.07720947265625
1782952319594627300,8.58562744140625,-1.0220489501953125,-0.22955322265625,0.07598876953125
1782952319604554500,8.595554443359376,-1.065399169921875,-0.2223358154296875,0.0686492919921875
1782952319614482400,8.605482421875,-1.10919189453125,-0.2215423583984375,0.066802978515625
1782952319624409300,8.615409423828124,-1.1440277099609375,-0.2173309326171875,0.069122314453125
1782952319634336300,8.625336181640625,-1.159332275390625,-0.20843505859375,0.06689453125
1782952319644263200,8.63526318359375,-1.146636962890625,-0.19305419921875,0.0675811767578125
1782952319654191400,8.64519140625,-1.101470947265625,-0.1832733154296875,0.0621795654296875
1782952319664118300,8.6551181640625,-1.0276336669921875,-0.1781158447265625,0.0510406494140625
1782952319674045400,8.66504541015625,-0.9517822265625,-0.1808319091796875,0.038726806640625
1782952319683972400,8.674972412109375,-0.89227294921875,-0.198028564453125,0.0167999267578125
1782952319693900300,8.684900390625,-0.867095947265625,-0.219970703125,-0.005859375
1782952319703827500,8.694827392578125,-0.8766632080078125,-0.2351226806640625,-0.0148773193359375
1782952319713754400,8.70475439453125,-0.9093017578125,-0.2302398681640625,-0.01312255859375
1782952319723681500,8.714681640625,-0.9485015869140625,-0.209503173828125,0.0117340087890625
1782952319733609500,8.724609375,-1.0089263916015625,-0.17840576171875,0.0263671875
1782952319743536000,8.7345361328125,-1.038116455078125,-0.1565704345703125,0.0272064208984375
1782952319753464300,8.74446435546875,-1.0272979736328125,-0.1404571533203125,0.0161285400390625
1782952319763391200,8.75439111328125,-1.0039215087890625,-0.120452880859375,0.02679443359375
1782952319773319200,8.764319091796875,-0.98455810546875,-0.105377197265625,0.03155517578125
1782952319783246300,8.774246337890625,-0.9672698974609375,-0.0920867919921875,0.035003662109375
1782952319793173200,8.78417333984375,-0.9612274169921875,-0.092498779296875,0.0421905517578125
1782952319803100400,8.794100341796875,-0.961395263671875,-0.1026611328125,0.0449676513671875
1782952319813027300,8.80402734375,-0.9553680419921875,-0.1083221435546875,0.0350799560546875
1782952319822955300,8.813955322265626,-0.9460601806640625,-0.1131439208984375,0.0117340087890625
1782952319832882400,8.82388232421875,-0.940032958984375,-0.1197967529296875,-0.006134033203125
1782952319842809000,8.83380908203125,-0.938995361328125,-0.1213531494140625,-0.0201263427734375
1782952319852736300,8.843736328125,-0.945831298828125,-0.1192779541015625,-0.0324249267578125
1782952319862664200,8.853664306640624,-0.957763671875,-0.11737060546875,-0.036712646484375
1782952319872591400,8.86359130859375,-0.9739227294921875,-0.1154632568359375,-0.0452880859375
1782952319882518300,8.873518310546874,-0.9836883544921875,-0.1097564697265625,-0.0560455322265625
1782952319892445400,8.883445556640625,-0.9878387451171875,-0.107330322265625,-0.059173583984375
1782952319902373400,8.893373291015624,-1.0003814697265625,-0.1016845703125,-0.0556640625
1782952319912300300,8.90330029296875,-1.0373382568359375,-0.0872802734375,-0.04931640625
1782952319922227500,8.9132275390625,-1.036895751953125,-0.0760345458984375,-0.0527801513671875
1782952319932154000,8.923154052734375,-1.06805419921875,-0.0726318359375,-0.0430755615234375
1782952319942082300,8.933082275390625,-1.0759429931640625,-0.0678863525390625,-0.0457611083984375
1782952319952009200,8.94300927734375,-1.07171630859375,-0.063201904296875,-0.0502166748046875
1782952319961936100,8.95293603515625,-1.048492431640625,-0.0661773681640625,-0.0568084716796875
1782952319971863300,8.96286328125,-1.017364501953125,-0.07659912109375,-0.066802978515625
1782952319981791200,8.972791259765625,-0.9859771728515625,-0.0838165283203125,-0.07958984375
1782952319991718400,8.982718505859374,-0.9645538330078125,-0.0906524658203125,-0.0920867919921875
1782952320001645300,8.992645263671875,-0.9556121826171875,-0.094451904296875,-0.0994415283203125
1782952320011572500,9.002572509765624,-0.96136474609375,-0.0945281982421875,-0.0992279052734375
1782952320021500400,9.01250048828125,-0.97998046875,-0.0928192138671875,-0.0923309326171875
1782952320031427300,9.02242724609375,-1.0014495849609375,-0.08685302734375,-0.06689453125
1782952320041354200,9.032354248046875,-1.0303802490234375,-0.075714111328125,-0.025299072265625
1782952320051281200,9.04228125,-1.0576019287109375,-0.0522003173828125,-0.004119873046875
1782952320061209000,9.052208984375,-1.065826416015625,-0.02618408203125,-0.0066070556640625
1782952320071136300,9.06213623046875,-1.05206298828125,-0.0207977294921875,-0.0254364013671875
1782952320081063200,9.072063232421876,-1.0210723876953125,-0.042510986328125,-0.04815673828125
1782952320090990300,9.081990234375,-0.9853363037109375,-0.0681304931640625,-0.0737762451171875
1782952320100918300,9.091918212890626,-0.96331787109375,-0.0845794677734375,-0.0994110107421875
1782952320110845400,9.101845458984375,-0.949798583984375,-0.0904388427734375,-0.132965087890625
1782952320120772400,9.1117724609375,-0.9425811767578125,-0.0869903564453125,-0.16522216796875
1782952320130699500,9.121699462890625,-0.9449005126953125,-0.0756988525390625,-0.19183349609375
1782952320140626200,9.131626220703126,-0.9602203369140625,-0.0628662109375,-0.2180023193359375
1782952320150554000,9.14155419921875,-0.9879302978515625,-0.0499420166015625,-0.24493408203125
1782952320160481300,9.151481201171874,-1.03021240234375,-0.03143310546875,-0.25238037109375
1782952320170408200,9.161408203125,-1.090362548828125,-0.016937255859375,-0.24053955078125
1782952320180335400,9.17133544921875,-1.1517791748046875,-0.00299072265625,-0.2170867919921875
1782952320190263300,9.18126318359375,-1.18585205078125,0.0187530517578125,-0.182586669921875
1782952320200190200,9.191190185546875,-1.164947509765625,0.0428924560546875,-0.161407470703125
1782952320210117400,9.201117431640625,-1.079345703125,0.060882568359375,-0.1468658447265625
1782952320220044300,9.211044189453125,-0.95697021484375,0.058349609375,-0.13653564453125
1782952320229972500,9.220972412109376,-0.8421630859375,0.046630859375,-0.1230926513671875
1782952320239899400,9.2308994140625,-0.7502288818359375,0.03118896484375,-0.1212921142578125
1782952320249826300,9.240826416015626,-0.6997528076171875,0.015411376953125,-0.1377716064453125
1782952320259753200,9.250753173828125,-0.6902923583984375,0.00067138671875,-0.1567535400390625
1782952320269681200,9.26068115234375,-0.72015380859375,-0.0150604248046875,-0.174102783203125
1782952320279608300,9.2706083984375,-0.7935791015625,-0.0235595703125,-0.183685302734375
1782952320289535200,9.28053515625,-0.8829803466796875,-0.025360107421875,-0.1902618408203125
1782952320299462400,9.29046240234375,-0.9636993408203125,-0.0217742919921875,-0.202484130859375
1782952320309390300,9.300390380859374,-1.020538330078125,-0.01947021484375,-0.2183685302734375
1782952320319317200,9.310317138671875,-1.0390167236328125,-0.021636962890625,-0.2328033447265625
1782952320329244400,9.320244384765624,-1.0252532958984375,-0.0354766845703125,-0.2428131103515625
1782952320339171300,9.33017138671875,-1.00048828125,-0.0598297119140625,-0.236724853515625
1782952320349099500,9.340099609375,-0.98284912109375,-0.0836181640625,-0.21209716796875
1782952320359026200,9.350026123046876,-0.96685791015625,-0.1010284423828125,-0.1952362060546875
1782952320368953300,9.359953369140625,-0.9649810791015625,-0.106781005859375,-0.1792449951171875
1782952320378880300,9.36988037109375,-0.9757232666015625,-0.1112518310546875,-0.159912109375
1782952320388808200,9.37980810546875,-0.9961395263671875,-0.115081787109375,-0.135345458984375
1782952320398735400,9.3897353515625,-1.0250244140625,-0.119903564453125,-0.10760498046875
1782952320408662300,9.399662353515625,-1.051727294921875,-0.1126556396484375,-0.0812530517578125
1782952320418589400,9.40958935546875,-1.0731353759765625,-0.0986175537109375,-0.06463623046875
1782952320428516400,9.419516357421875,-1.0753631591796875,-0.0856781005859375,-0.062164306640625
1782952320438444300,9.4294443359375,-1.0629425048828125,-0.0724945068359375,-0.06304931640625
1782952320448371500,9.439371337890625,-1.05499267578125,-0.0676116943359375,-0.0733795166015625
1782952320458298000,9.449298095703124,-1.05963134765625,-0.07147216796875,-0.084228515625
1782952320468225300,9.459225341796875,-1.0612640380859375,-0.0854644775390625,-0.0942535400390625
1782952320478153200,9.4691533203125,-1.0528106689453125,-0.1023712158203125,-0.1113739013671875
1782952320488080400,9.479080322265625,-1.0462188720703125,-0.117889404296875,-0.1266326904296875
1782952320498007300,9.48900732421875,-1.0456695556640625,-0.13275146484375,-0.133026123046875
1782952320507934200,9.498934326171875,-1.0510101318359375,-0.1451416015625,-0.135040283203125
1782952320517862400,9.5088623046875,-1.0518951416015625,-0.149658203125,-0.140350341796875
1782952320527789300,9.518789306640626,-1.05267333984375,-0.147308349609375,-0.1446380615234375
1782952320537716500,9.528716552734375,-1.045684814453125,-0.1440277099609375,-0.1343536376953125
1782952320547643100,9.53864306640625,-1.044769287109375,-0.1378631591796875,-0.0998687744140625
1782952320557571300,9.5485712890625,-1.06243896484375,-0.128570556640625,-0.064239501953125
1782952320567498200,9.558498291015624,-1.06903076171875,-0.113311767578125,-0.0487518310546875
1782952320577425200,9.568425048828125,-1.0483856201171875,-0.097686767578125,-0.0447998046875
1782952320587352300,9.578352294921874,-1.00897216796875,-0.0928955078125,-0.0307159423828125
1782952320597280300,9.5882802734375,-0.9700469970703125,-0.1024017333984375,-0.006561279296875
1782952320607207400,9.59820751953125,-0.943115234375,-0.1160888671875,0.01409912109375
1782952320617134300,9.60813427734375,-0.9308013916015625,-0.1239471435546875,0.029541015625
1782952320627061200,9.618061279296874,-0.9256134033203125,-0.1314697265625,0.0384063720703125
1782952320636989400,9.627989501953126,-0.9295501708984375,-0.1354522705078125,0.0498046875
1782952320646916400,9.637916259765625,-0.9388427734375,-0.1400909423828125,0.056182861328125
1782952320656843300,9.64784326171875,-0.9475555419921875,-0.1509552001953125,0.052215576171875
1782952320666770200,9.657770263671875,-0.9581756591796875,-0.168060302734375,0.039703369140625
1782952320676698000,9.667697998046876,-0.97247314453125,-0.18670654296875,0.0234375
1782952320686625300,9.677625244140625,-0.97967529296875,-0.2016143798828125,0.0110015869140625
1782952320696552200,9.68755224609375,-0.9647216796875,-0.210205078125,0.00323486328125
1782952320706479400,9.697479248046875,-0.9432373046875,-0.209991455078125,-0.0019683837890625
1782952320716407300,9.7074072265625,-0.92633056640625,-0.210906982421875,-0.008331298828125
1782952320726335200,9.717335205078125,-0.9252777099609375,-0.2180328369140625,-0.0042266845703125
1782952320736262400,9.727262451171875,-0.9468841552734375,-0.2243194580078125,0.0053253173828125
1782952320746189300,9.737189208984375,-0.9916534423828125,-0.2267913818359375,0.011474609375
1782952320756115700,9.74711572265625,-1.042816162109375,-0.22039794921875,0.0128936767578125
1782952320766043600,9.757043701171876,-1.0724029541015625,-0.20672607421875,0.0216522216796875
1782952320775970800,9.766970703125,-1.0754852294921875,-0.194610595703125,0.0457305908203125
1782952320785897700,9.776897705078126,-1.0504150390625,-0.1886749267578125,0.0643463134765625
1782952320795824600,9.78682470703125,-1.00201416015625,-0.1935577392578125,0.0743255615234375
1782952320805752800,9.7967529296875,-0.9468536376953125,-0.2086029052734375,0.08270263671875
1782952320815679700,9.8066796875,-0.900787353515625,-0.224853515625,0.0831146240234375
1782952320825606700,9.816606689453126,-0.8800506591796875,-0.2394561767578125,0.0779876708984375
1782952320835533600,9.826533447265625,-0.8905181884765625,-0.24859619140625,0.069732666015625
1782952320845461500,9.83646142578125,-0.922210693359375,-0.2402496337890625,0.0747222900390625
1782952320855388700,9.846388671875,-0.9620208740234375,-0.21917724609375,0.085662841796875
1782952320865315600,9.856315673828124,-0.9970245361328125,-0.1984100341796875,0.0977325439453125
1782952320875242800,9.86624267578125,-1.0235443115234375,-0.177581787109375,0.1063232421875
1782952320885170700,9.876170654296875,-1.037078857421875,-0.1609344482421875,0.111541748046875
1782952320895097900,9.886097900390626,-1.0374908447265625,-0.15008544921875,0.1080322265625
1782952320905024800,9.896024658203125,-1.0336456298828125,-0.1457977294921875,0.10882568359375
1782952320914951700,9.90595166015625,-1.031707763671875,-0.143585205078125,0.101837158203125
1782952320924879600,9.915879638671875,-1.025390625,-0.1422576904296875,0.0816650390625
1782952320934806500,9.925806640625,-1.009735107421875,-0.1422882080078125,0.0640106201171875
1782952320944733700,9.935733642578125,-0.985595703125,-0.1438446044921875,0.047515869140625
1782952320954660600,9.94566064453125,-0.949127197265625,-0.1467132568359375,0.0368804931640625
1782952320964587800,9.955587890625,-0.9160614013671875,-0.1514129638671875,0.029266357421875
1782952320974515700,9.965515625,-0.8899383544921875,-0.15350341796875,0.0257415771484375
1782952320984442600,9.975442626953125,-0.8811187744140625,-0.1531219482421875,0.0181427001953125
1782952320994369800,9.985369873046874,-0.897674560546875,-0.14593505859375,0.008819580078125
1782952321004296700,9.995296630859375,-0.928009033203125,-0.1344451904296875,-0.011199951171875
1782952321014224600,10.005224609375,-0.9767303466796875,-0.1167144775390625,-0.027557373046875
1782952321024151600,10.015151611328125,-1.03228759765625,-0.1039581298828125,-0.044036865234375
1782952321034078700,10.02507861328125,-1.0491943359375,-0.104888916015625,-0.0590972900390625
1782952321044005600,10.035005615234375,-1.080780029296875,-0.1161346435546875,-0.0599212646484375
1782952321053933600,10.04493359375,-1.1145172119140625,-0.1201934814453125,-0.0681610107421875
1782952321063860700,10.05486083984375,-1.1368865966796875,-0.116180419921875,-0.08270263671875
1782952321073787600,10.06478759765625,-1.142181396484375,-0.1162109375,-0.0839385986328125
1782952321083714800,10.07471484375,-1.1362152099609375,-0.1163787841796875,-0.07708740234375
1782952321093642800,10.084642822265625,-1.129730224609375,-0.1133575439453125,-0.06353759765625
1782952321103569700,10.094569580078126,-1.11474609375,-0.1049346923828125,-0.044891357421875
1782952321113496800,10.104496826171875,-1.0856781005859375,-0.094635009765625,-0.025115966796875
1782952321123423500,10.114423583984374,-1.0387725830078125,-0.0914306640625,-0.01287841796875
1782952321133351700,10.1243515625,-0.9947509765625,-0.0965423583984375,-0.0052032470703125
1782952321143278600,10.134278564453124,-0.97039794921875,-0.11181640625,-0.000091552734375
1782952321153205800,10.144205810546875,-0.97174072265625,-0.1181793212890625,0.0056304931640625
1782952321163132700,10.154132568359374,-0.9841766357421875,-0.106231689453125,0.0055999755859375
1782952321173060600,10.164060546875,-1.000640869140625,-0.08099365234375,-0.0010528564453125
1782952321182987800,10.17398779296875,-1.0045928955078125,-0.0611724853515625,-0.0126953125
1782952321192914700,10.183914794921876,-0.9857025146484375,-0.059814453125,-0.0487823486328125
1782952321202841900,10.193841796875,-0.954071044921875,-0.0699920654296875,-0.0884246826171875
1782952321212769800,10.203769775390626,-0.9330902099609375,-0.082305908203125,-0.1123809814453125
1782952321222696700,10.21369677734375,-0.9299774169921875,-0.0861968994140625,-0.1302337646484375
1782952321232623600,10.22362353515625,-0.93670654296875,-0.0878143310546875,-0.147735595703125
1782952321242550500,10.233550537109375,-0.9420623779296875,-0.0848846435546875,-0.1618194580078125
1782952321252478700,10.243478759765624,-0.95172119140625,-0.077880859375,-0.16943359375
1782952321262405600,10.253405517578125,-0.960540771484375,-0.0631103515625,-0.1735382080078125
1782952321272332500,10.26333251953125,-0.9710845947265625,-0.04766845703125,-0.1823883056640625
1782952321282259700,10.273259765625,-0.988128662109375,-0.03448486328125,-0.1961517333984375
1782952321292187600,10.283187744140625,-1.0097198486328125,-0.024932861328125,-0.203948974609375
1782952321302114800,10.29311474609375,-1.0336456298828125,-0.0230865478515625,-0.2138519287109375
1782952321312041700,10.303041748046875,-1.0623321533203125,-0.0203094482421875,-0.2167205810546875
1782952321321968600,10.31296875,-1.0690460205078125,-0.0131072998046875,-0.2138671875
1782952321331895600,10.3228955078125,-1.0489044189453125,-0.001800537109375,-0.2042083740234375
1782952321341823500,10.332823486328126,-1.0025787353515625,0.0000457763671875,-0.2012939453125
1782952321351750700,10.342750732421875,-0.9358367919921875,-0.004486083984375,-0.212677001953125
1782952321361677600,10.352677490234376,-0.8668975830078125,-0.0030670166015625,-0.2025146484375
1782952321371604700,10.362604736328125,-0.80596923828125,-0.0000457763671875,-0.1912384033203125
1782952321381532700,10.37253271484375,-0.7554779052734375,-0.0086822509765625,-0.1968231201171875
1782952321391459600,10.38245947265625,-0.7343597412109375,-0.0204315185546875,-0.2107086181640625
1782952321401386800,10.39238671875,-0.755645751953125,-0.0201873779296875,-0.212738037109375
1782952321411313700,10.402313720703125,-0.8166656494140625,-0.014556884765625,-0.21337890625
1782952321421241900,10.412241943359374,-0.89520263671875,-0.004638671875,-0.2169036865234375
1782952321431168500,10.42216845703125,-0.979461669921875,0.002288818359375,-0.2174835205078125
1782952321441095700,10.432095703125,-1.0516204833984375,0.0017852783203125,-0.218597412109375
1782952321451022600,10.442022705078125,-1.073150634765625,-0.0011138916015625,-0.2208709716796875
1782952321460950500,10.451950439453125,-1.047637939453125,-0.0212554931640625,-0.2235107421875
1782952321470877700,10.461877685546876,-0.996368408203125,-0.0314483642578125,-0.23193359375
1782952321480804600,10.4718046875,-0.9486846923828125,-0.0239105224609375,-0.25848388671875
1782952321490731800,10.481731689453126,-0.9229888916015625,-0.0478973388671875,-0.255828857421875
1782952321500659700,10.49165966796875,-0.9088287353515625,-0.0756072998046875,-0.2373046875
1782952321510586600,10.501586669921876,-0.9044036865234375,-0.098297119140625,-0.2215118408203125
1782952321520513800,10.511513671875,-0.9034576416015625,-0.112091064453125,-0.2185516357421875
1782952321530440400,10.5214404296875,-0.9076995849609375,-0.1141510009765625,-0.2076416015625
1782952321540368600,10.53136865234375,-0.9144287109375,-0.109771728515625,-0.186614990234375
1782952321550295600,10.541295654296874,-0.9199676513671875,-0.1100616455078125,-0.1748809814453125
1782952321560222700,10.55122265625,-0.9445648193359375,-0.11370849609375,-0.1641845703125
1782952321570149600,10.561149658203124,-0.9815216064453125,-0.114044189453125,-0.1582489013671875
1782952321580077600,10.57107763671875,-1.00604248046875,-0.1094970703125,-0.15545654296875
1782952321590004700,10.581004638671875,-1.015350341796875,-0.0971832275390625,-0.15386962890625
1782952321599931600,10.590931640625,-1.0087432861328125,-0.09552001953125,-0.143310546875
1782952321609858800,10.60085888671875,-1.00262451171875,-0.1072845458984375,-0.12115478515625
1782952321619786800,10.610786865234376,-1.0084991455078125,-0.1193084716796875,-0.1004638671875
1782952321629713700,10.620713623046875,-1.0171661376953125,-0.12158203125,-0.090789794921875
1782952321639640600,10.630640625,-1.0308074951171875,-0.1223297119140625,-0.0760345458984375
1782952321649567500,10.6405673828125,-1.050140380859375,-0.1270294189453125,-0.0588836669921875
1782952321659494700,10.65049462890625,-1.058929443359375,-0.1343231201171875,-0.0451812744140625
1782952321669422600,10.660422607421875,-1.055572509765625,-0.1428375244140625,-0.0311431884765625
1782952321679349800,10.670349853515624,-1.046234130859375,-0.150299072265625,-0.013336181640625
1782952321689276700,10.680276611328125,-1.0439910888671875,-0.1625823974609375,0.0046234130859375
1782952321699203800,10.690203857421874,-1.05828857421875,-0.172393798828125,0.0099029541015625
1782952321709131800,10.7001318359375,-1.07611083984375,-0.18096923828125,0.01239013671875
1782952321719058700,10.71005859375,-1.078643798828125,-0.1888580322265625,0.019378662109375
1782952321728985900,10.71998583984375,-1.0757293701171875,-0.202850341796875,0.02728271484375
1782952321738912500,10.72991259765625,-1.0655059814453125,-0.220123291015625,0.0370635986328125
1782952321748840400,10.73984033203125,-1.0481719970703125,-0.23529052734375,0.03228759765625
1782952321758767900,10.749767822265625,-1.0274810791015625,-0.2440185546875,0.0286712646484375
1782952321768694800,10.75969482421875,-1.007171630859375,-0.250457763671875,0.045501708984375
1782952321778622000,10.7696220703125,-1.0017242431640625,-0.249267578125,0.0678253173828125
1782952321788550000,10.7795498046875,-0.9918975830078125,-0.2409515380859375,0.084228515625
1782952321798477000,10.78947705078125,-0.98687744140625,-0.233978271484375,0.1017608642578125
1782952321808404000,10.799404052734374,-0.9924468994140625,-0.2396240234375,0.103668212890625
1782952321818331000,10.809330810546875,-0.9883270263671875,-0.249542236328125,0.09619140625
1782952321828259000,10.819259033203124,-0.971343994140625,-0.2572784423828125,0.096221923828125
1782952321838186000,10.82918603515625,-0.95172119140625,-0.264251708984375,0.1104736328125
1782952321848113200,10.839113037109374,-0.9341278076171875,-0.268402099609375,0.1200408935546875
1782952321858039800,10.849039794921875,-0.93438720703125,-0.2593231201171875,0.11505126953125
1782952321867967700,10.8589677734375,-0.9626617431640625,-0.2388763427734375,0.100311279296875
1782952321877895000,10.86889501953125,-1.0207672119140625,-0.219146728515625,0.09075927734375
1782952321887821800,10.87882177734375,-1.0961761474609375,-0.199859619140625,0.0873260498046875
1782952321897749000,10.8887490234375,-1.1700286865234375,-0.1806182861328125,0.0867156982421875
1782952321907677000,10.898677001953125,-1.208984375,-0.1559600830078125,0.0740966796875
1782952321917604000,10.90860400390625,-1.2142486572265625,-0.143157958984375,0.0560760498046875
1782952321927531000,10.918531005859375,-1.1734619140625,-0.1454620361328125,0.0366973876953125
1782952321937458000,10.9284580078125,-1.1012420654296875,-0.152252197265625,0.0138397216796875
1782952321947385000,10.938385009765625,-1.0210418701171875,-0.1609344482421875,0.0059356689453125
1782952321957313000,10.94831298828125,-0.9456939697265625,-0.1667938232421875,0.0139007568359375
1782952321967240000,10.958239990234375,-0.89129638671875,-0.1670379638671875,0.0355682373046875
1782952321977166800,10.968166748046874,-0.8868560791015625,-0.1648406982421875,0.0572509765625
1782952321987094000,10.978093994140625,-0.897308349609375,-0.1722259521484375,0.0595855712890625
1782952321997022000,10.98802197265625,-0.9021759033203125,-0.180450439453125,0.0601654052734375
1782952322006948900,10.997948974609375,-0.9518585205078125,-0.175689697265625,0.037994384765625
1782952322016876000,11.0078759765625,-0.9991607666015625,-0.13812255859375,-0.002716064453125
1782952322026803000,11.017802978515626,-1.0356903076171875,-0.11529541015625,-0.0068817138671875
1782952322036731000,11.02773095703125,-1.077911376953125,-0.1158599853515625,0.0186920166015625
1782952322046658000,11.037657958984376,-1.115570068359375,-0.1132659912109375,0.03778076171875
