time,seconds_elapsed,z,y,x
1782952311082021600,0.073021728515625,-1.4010469471305609,0.15328253613337872,-0.8648381297141313
1782952311091948800,0.08294873046875,-1.2386872244417666,0.2593226979680359,-0.8117185339450835
1782952311101875700,0.092875732421875,-1.1345914746731518,0.2922531999282539,-0.6070226214386523
1782952311111803600,0.1028037109375,-1.0843243457257747,0.3413976084560156,-0.42942360936813057
1782952311121730600,0.11273046875,-0.8193985670536756,0.4923293436795473,-0.3002989245440811
1782952311131657700,0.12265771484375,-0.49344285787940023,0.6748556560844182,-0.18521029079183934
1782952311141584600,0.132584716796875,-0.11722878758609294,0.7875393475867808,-0.0773611798390746
1782952311151512600,0.1425126953125,0.24865385830700396,0.8227939085803926,0.0284401317384094
1782952311161439700,0.152439697265625,0.5724836613684893,0.8479330260120331,0.10184745938517152
1782952311171366700,0.16236669921875,0.8349164541810751,0.9193192230947315,0.09793021287620067
1782952311181293800,0.1722939453125,0.9617769934654236,0.926410934921354,-0.035077304730564356
1782952311191220700,0.182220703125,0.9832809692651033,0.9410030855059623,-0.2320961798030883
1782952311201148700,0.192148681640625,1.1273545091569424,0.92826021604985,-0.4448489228412509
1782952311211075800,0.202075927734375,1.3738111496806145,0.865709651851654,-0.5884493653286248
1782952311221002500,0.21200244140625,1.5511492457926273,0.8270879525125027,-0.6908250863716006
1782952311230929700,0.2219296875,1.6671300791442394,0.8756997154682874,-0.7710704433448612
1782952311240857600,0.231857666015625,1.635681047913432,0.9331248994767666,-0.920110957994312
1782952311250784500,0.241784423828125,1.3777151713818312,0.9674798812821507,-1.1195377709913998
1782952311260711700,0.251711669921875,0.9324129518151283,0.987496248872578,-1.260308543010801
1782952311270638600,0.261638671875,0.39347733978331084,1.0533607599243522,-1.257107555012405
1782952311280566800,0.27156689453125,-0.07047755780518054,1.1514090462222695,-1.1593512373983859
1782952311290493700,0.28149365234375,-0.5163204601198434,1.2403818995304405,-0.9870604147385805
1782952311300420900,0.2914208984375,-0.7688666496902704,1.3531862948030233,-0.8224279248122125
1782952311310347500,0.301347412109375,-0.66532210406363,1.5015056555710733,-0.6781185303378849
1782952311320275700,0.311275634765625,-0.27935060986578464,1.6090822331927717,-0.6747026574797927
1782952311330202600,0.32120263671875,0.21904899363815783,1.6616100005485117,-0.7394335613917559
1782952311340129500,0.331129638671875,0.733980629748106,1.6200355888836084,-0.7913481652852148
1782952311350056700,0.341056640625,1.1646470057189464,1.5234491918317972,-0.8877844863418489
1782952311359984600,0.350984619140625,1.4539356567531823,1.383519181485474,-1.0616196158342064
1782952311369911600,0.36091162109375,1.5804273627251386,1.2684759212449193,-1.2197788180932403
1782952311379838700,0.370838623046875,1.4595622644633053,1.2405753762759268,-1.2371737511388956
1782952311389765600,0.380765625,1.0831757602125405,1.2666937140032648,-1.1923588962480425
1782952311399693800,0.39069384765625,0.5834177278369664,1.3603396736890077,-1.1367616583190858
1782952311409620700,0.400620849609375,0.22485621861219404,1.4609940508320927,-1.0930364252958447
1782952311419547600,0.410547607421875,0.10921206986904143,1.5340527111716566,-0.9576936696745455
1782952311429474600,0.420474609375,0.17900573706328868,1.6108447128206491,-0.7573750224042683
1782952311439402500,0.430402587890625,0.38550446120798587,1.602271530264616,-0.720267161694169
1782952311449329700,0.44032958984375,0.6471335364222526,1.6129427080132066,-0.7594636652465909
1782952311459256600,0.450256591796875,0.9066080639511346,1.5988127681128679,-0.8672844268877059
1782952311469183700,0.460183837890625,1.1112030003011226,1.5378544415421782,-1.0233407385833562
1782952311479111700,0.470111572265625,1.1968465630561114,1.403693808377534,-1.0904508657820522
1782952311489038600,0.48003857421875,1.160291148597002,1.2680587187461554,-1.0768747603721915
1782952311498965800,0.4899658203125,0.9520715920090674,1.1966389116548002,-1.0810586219280958
1782952311508892700,0.499892578125,0.6249199510484933,1.1485329062640666,-1.0698901621818542
1782952311518820900,0.50982080078125,0.23184417780339717,1.0838609659977256,-1.0322014328438789
1782952311528747500,0.51974755859375,-0.13017711648643016,1.0194574674092232,-0.9360278543766587
1782952311538674700,0.5296748046875,-0.39621348674893375,0.9289889687158167,-0.8298750259477645
1782952311548601600,0.5396015625,-0.6254051042169332,0.8073375423818826,-0.6974797950204461
1782952311558529500,0.549529541015625,-0.87742931573987,0.6911426278881728,-0.508577883169055
1782952311568456700,0.559456787109375,-1.1322995643436908,0.6059243048079311,-0.3403256683755666
1782952311578383600,0.569383544921875,-1.2661755353480577,0.5728896118208766,-0.1991626091029495
1782952311588310800,0.579310791015625,-1.227912147927284,0.5460441288627684,-0.027063948014378544
1782952311598237700,0.58923779296875,-1.1530261260300874,0.4655693470478058,0.25538316656202076
1782952311608165600,0.59916552734375,-1.0951876850456,0.35692382502034303,0.5531444623872638
1782952311618092800,0.6090927734375,-0.8900836301296949,0.1978760033585131,0.72786295058541
1782952311628019500,0.61901953125,-0.8404618133485317,-0.0019920506000518797,0.965023501105979
1782952311637946600,0.628946533203125,-1.010453053829074,-0.2510525900118053,1.0281167208135127
1782952311647874600,0.63887451171875,-1.1830576916784048,-0.4860122694872319,0.8303617134861647
1782952311657801700,0.6488017578125,-1.3545546605467795,-0.6702389560692011,0.49172085639238355
1782952311667728600,0.658728759765625,-1.399871473610401,-0.8190263727404177,0.22458770386911928
1782952311677655800,0.66865576171875,-1.4131442121595144,-0.9747120244927704,0.052920712196081875
1782952311687583700,0.678583740234375,-1.2719605484902858,-1.1170815369457006,-0.07322371470816433
1782952311697510700,0.6885107421875,-1.0252373659849165,-1.2268386734768748,-0.15190350286513565
1782952311707437800,0.698437744140625,-0.7201116788715124,-1.358112353028357,-0.19213351418375968
1782952311717364700,0.70836474609375,-0.32928046968281266,-1.489341316655278,-0.21621238197274506
1782952311727292700,0.718292724609375,0.08354571369290352,-1.6113208058997988,-0.16825637951195238
1782952311737219600,0.728219482421875,0.32490941499173637,-1.6654108541361987,-0.013071955280005931
1782952311747147300,0.738147216796875,0.4754103575825691,-1.6365600227050483,0.28899639008939265
1782952311757074400,0.748074462890625,0.54269817943573,-1.622586150149256,0.6013710254177451
1782952311767002400,0.75800244140625,0.46930853357613084,-1.6475069486550986,0.846915081141144
1782952311776929300,0.76792919921875,0.3987146559149027,-1.626651061500609,1.0676787697426975
1782952311786856400,0.7778564453125,0.48108548060953615,-1.5910972252994775,1.1885646185316145
1782952311796783000,0.787783203125,0.594125584334135,-1.5503358835831285,1.2886062706038355
1782952311806711300,0.797711181640625,0.5871154133111238,-1.4691228506214915,1.3264526016563176
1782952311816638200,0.80763818359375,0.4144102376967668,-1.4156915585547685,1.332712831094861
1782952311826565400,0.8175654296875,0.07484218275547028,-1.3822737114690244,1.2461033459171653
1782952311836492300,0.8274921875,-0.3172439949303865,-1.3666342437885701,1.1308043573498725
1782952311846420200,0.837420166015625,-0.6037760407328605,-1.273038406854868,1.058985175677389
1782952311856347400,0.847347412109375,-0.7524345703274011,-1.162008766169846,1.0735419626876712
1782952311866274300,0.8572744140625,-0.6778782187759876,-1.1172528018593788,1.1341806288499385
1782952311876201500,0.867201416015625,-0.446862893012166,-1.1441479691781102,1.019362409536913
1782952311886129400,0.87712939453125,-0.19814298373162745,-1.120540152966976,0.868467645322904
1782952311896056300,0.887056396484375,0.05319149196147918,-1.1002853004455566,0.8623850374735891
1782952311905983200,0.896983154296875,0.18909809201061725,-1.1017826993964612,0.9820816764779389
1782952311915910100,0.90691015625,0.2525824299275875,-1.0653304530508816,1.0761362169645725
1782952311925838300,0.91683837890625,0.17587620686590671,-0.8959536912068724,1.1967239595897494
1782952311935765200,0.92676513671875,0.046997898018360136,-0.7456513399280608,1.231492490632087
1782952311945692400,0.9366923828125,-0.1283499010592699,-0.6819441530406475,1.1165317210432142
1782952311955619300,0.946619384765625,-0.3302390855818987,-0.6040636255025863,0.9862065013229846
1782952311965547300,0.95654736328125,-0.37772272129058837,-0.4914467156261205,0.8823418568965047
1782952311975474400,0.966474365234375,-0.30948680493235586,-0.4009979445464909,0.9100980249587446
1782952311985401300,0.9764013671875,-0.3072515932261944,-0.3269900206580758,1.0582294619392603
1782952311995328300,0.986328369140625,-0.2802665556669235,-0.32878537964224813,1.017127709287405
1782952312005256200,0.996256103515625,-0.12911504021286963,-0.2872388788975775,0.8861664566859603
1782952312015183000,1.00618310546875,0.1011836617141962,-0.25517726872637864,0.8089151669621467
1782952312025110300,1.0161103515625,0.41087212669849393,-0.25863500796481964,0.6938963105104863
1782952312035037200,1.026037109375,0.7902128045797348,-0.22979382114484906,0.6976555899787694
1782952312044964400,1.03596435546875,1.167924419954419,-0.19688801523447036,0.8370888297840953
1782952312054892300,1.045892333984375,1.450754688629508,-0.16447992971315978,0.9548705750778317
1782952312064819500,1.0558193359375,1.715214603355527,-0.14545198863819242,0.9374681893780827
1782952312074746400,1.065746337890625,1.8992244323164222,-0.11937880522683263,0.9357328900180757
1782952312084673300,1.07567333984375,1.8578794454932213,-0.08668181976154446,0.8607672270134091
1782952312094601500,1.0856015625,1.5005758273750542,-0.06405702323839069,0.6162598939266055
1782952312104528100,1.095528076171875,0.9725655139833688,-0.050728170587867494,0.3470684571666643
1782952312114455300,1.105455322265625,0.0630289953649044,-0.005892419039458036,0.17949344751499594
1782952312124382200,1.11538232421875,-0.5751169324815273,-0.028663492165505886,-0.09689703390356152
1782952312134310100,1.12531005859375,-1.1900631865262985,-0.05973448386415839,-0.3840533856168389
1782952312144237300,1.1352373046875,-1.7933686871379613,-0.08571838155686855,-0.6211918704360723
1782952312154164200,1.145164306640625,-2.172793536171317,-0.021623948917537928,-0.6650448945574462
1782952312164091400,1.15509130859375,-2.271040559911728,0.1073195341207087,-0.659356546722725
1782952312174019300,1.165019287109375,-2.0424480773806573,0.2431068917043507,-0.5231638232085853
1782952312183946500,1.174946533203125,-1.6362667388468979,0.4148163342796266,-0.42279432742148637
1782952312193873400,1.184873291015625,-1.1600234375715255,0.5782482162445783,-0.3966025591317564
1782952312203800300,1.19480029296875,-0.6196808813512324,0.6877996010705828,-0.32646592371873556
1782952312213728300,1.204728271484375,-0.040115152767300606,0.6641532064147293,-0.19344766552224754
1782952312223655200,1.2146552734375,0.49629532470107074,0.7045875081337988,-0.030942396882921455
1782952312233582300,1.224582275390625,0.8666822962760925,0.7976223501838743,0.1261033642414957
1782952312243509200,1.23450927734375,0.8438935413628816,0.9348808032333851,0.3179340960863977
1782952312253437200,1.244437255859375,0.7503250308275222,1.066127010256052,0.2453724985487759
1782952312263364400,1.2543642578125,0.5486123719155788,1.071186631733179,0.04946260763145983
1782952312273291300,1.264291259765625,0.3221130622714758,0.9682141869060694,-0.1111722640261054
1782952312283218400,1.274218505859375,0.07012567562758922,0.9081263595595955,-0.32085655940435825
1782952312293146400,1.284146484375,-0.20206921726465224,0.8920810875572264,-0.5444839668739587
1782952312303073300,1.2940732421875,-0.39437107375264163,0.8916342205725609,-0.6918116131909191
1782952312313000200,1.304000244140625,-0.45269349886178967,0.9272900558434426,-0.7006999991759657
1782952312322927400,1.31392724609375,-0.3339063759177923,0.9497039860948919,-0.6614996231660246
1782952312332854300,1.323854248046875,-0.04825169747173786,0.9839052386432886,-0.6628650663003325
1782952312342782200,1.3337822265625,0.4483259513020515,1.0537393839783966,-0.6960702935487032
1782952312352709400,1.34370947265625,0.846938315886259,1.2121221658602357,-0.6324561187069863
1782952312362636300,1.35363623046875,0.7882236765891313,1.3615304909087718,-0.5478583386778831
1782952312372563500,1.3635634765625,0.25313304954767224,1.3682757273852824,-0.5363636426519602
1782952312382491400,1.373491455078125,-0.4963537768900394,1.3603285677731036,-0.5911099628400057
1782952312392418300,1.383418212890625,-1.2164905902028083,1.4577639828696847,-0.5884016537293791
1782952312402345200,1.39334521484375,-1.7812720066308974,1.6390601689577102,-0.5315696863736957
1782952312412272000,1.403272216796875,-2.063259394741058,1.7204957586288452,-0.4911804659053683
1782952312422200300,1.413200439453125,-1.8249422215312718,1.7611830121956764,-0.40215895114988087
1782952312432127200,1.423127197265625,-1.0986194130599498,1.7945958908453583,-0.3947856459029019
1782952312442054100,1.43305419921875,-0.06939093161225318,1.7876909337624907,-0.37842246705777943
1782952312451981300,1.442981201171875,0.9654700027644634,1.6033755459837615,-0.4301902828916907
1782952312461909200,1.4529091796875,1.8043232118725776,1.4432155252963303,-0.5637605489477515
1782952312471836400,1.46283642578125,2.263229593899846,1.490978854729235,-0.5965261426698416
1782952312481763300,1.472763427734375,2.3964421325594185,1.8890349006049334,-0.45253377825543284
1782952312491690500,1.4826904296875,1.8283628436297177,2.487999887794256,-0.15740918760932981
1782952312501618400,1.492618408203125,0.9500567450553178,1.8407500315159557,-0.4572276351600885
1782952312511545000,1.502545166015625,0.1566273165166378,1.052708141234517,-0.9626320759247988
1782952312521472300,1.51247216796875,-0.44301264732480045,0.8065719648368657,-1.228343232820928
1782952312531399200,1.522399169921875,-0.5331751488089561,1.1134178998716175,-1.3212290217891334
1782952312541327400,1.532327392578125,-0.410532519480586,1.5996436659790574,-1.3956111858174205
1782952312551254300,1.542254150390625,-0.2909031004935503,1.7682988355502485,-1.3513652168557047
1782952312561181200,1.55218115234375,-0.08814940809607505,1.7827603454925118,-1.1830923246003686
1782952312571108400,1.5621083984375,0.18267478096485137,1.7844551667116582,-0.9153145174980163
1782952312581036300,1.572036376953125,0.3941518780440092,1.775032235458493,-0.610921820834279
1782952312590963500,1.58196337890625,0.39071021315753457,1.7221876572385428,-0.31341223474778235
1782952312600890400,1.591890380859375,0.1983592568308115,1.6820317340694366,-0.1056095153324306
1782952312610817300,1.6018173828125,0.05796235962510109,1.6334668789952993,-0.005026303729414939
1782952312620745200,1.6117451171875,0.006152092888951301,1.5321363561563193,0.050075478832796214
1782952312630672100,1.621672119140625,0.017115969973802565,1.399202926699072,0.06039594344757497
1782952312640599300,1.631599365234375,0.14412088616490362,1.244043636908382,0.017272987166419625
1782952312650526200,1.641526123046875,0.2740881592929363,1.0718258064195514,-0.03849909587278962
1782952312660453400,1.651453369140625,0.35646482920646666,0.8596380768530071,-0.13622589513137937
1782952312670381300,1.66138134765625,0.47741234505474567,0.6197634450681507,-0.22448745836503803
1782952312680308200,1.67130810546875,0.5030599965304136,0.3200008924230933,-0.23457119161449372
1782952312690235400,1.6812353515625,0.3809855224788189,-0.019553572384268043,-0.20074249870553612
1782952312700162300,1.691162353515625,0.20777122829854486,-0.2284136188328266,-0.1777292143214494
1782952312710090500,1.701090576171875,-0.005676292070746421,-0.3952832201614976,-0.12273542217835784
1782952312720017200,1.71101708984375,-0.2320084284543991,-0.6312396555893123,-0.05843531089909374
1782952312729944300,1.7209443359375,-0.47553953692018985,-0.839629454177618,-0.06728416859135031
1782952312739871200,1.730871337890625,-0.6538116990119218,-1.0160456131391227,-0.07494666604325174
1782952312749798700,1.740798583984375,-0.7007078902214765,-1.1673884133815764,-0.08318089896850288
1782952312759725300,1.750725341796875,-0.6449105996757746,-1.2998466265425086,-0.025264643507450817
1782952312769652500,1.760652587890625,-0.5766776059269905,-1.403750653131306,0.09779818399436771
1782952312779579400,1.770579345703125,-0.5189344420105219,-1.414302296153456,0.25860095956474544
1782952312789507300,1.78050732421875,-0.43330140064954753,-1.4600987094275653,0.4685786118663847
1782952312799434500,1.7904345703125,-0.2914513820260763,-1.58746953632161,0.6598242372997105
1782952312809361400,1.800361328125,-0.17084639600515364,-1.673327034088224,0.758382738142088
1782952312819288600,1.81028857421875,-0.08230126658976078,-1.7304266394041479,0.7818089141760021
1782952312829216500,1.820216552734375,-0.029566286224126815,-1.8020551208101212,0.7280394031308591
1782952312839143400,1.830143310546875,0.0034364041894674297,-1.919118196440488,0.6295671923324465
1782952312849070300,1.8400703125,0.10613222403228283,-2.0448089612931013,0.4871725819708779
1782952312858997200,1.849997314453125,0.30584464903771874,-2.1750654266260563,0.3768201829602942
1782952312868925400,1.859925537109375,0.5191787721604109,-2.3221181284591554,0.3138625357985496
1782952312878852400,1.869852294921875,0.6063444299161433,-2.4011126085884866,0.30401798159983007
1782952312888779500,1.879779541015625,0.5254629669964314,-2.40006704505831,0.2657798016855493
1782952312898706400,1.88970654296875,0.19952070182561873,-2.348162816428393,0.24664671973567454
1782952312908633300,1.89963330078125,-0.3684031042814255,-2.2763484570614994,0.2695755772393197
1782952312918561500,1.9095615234375,-0.9777145673096179,-2.101594386093318,0.3891706190327182
1782952312928488400,1.919488525390625,-1.4767086295753717,-1.8405777436889708,0.5441203942585736
1782952312938415600,1.92941552734375,-1.5792448749423027,-1.5565693711452184,0.6380687709569931
1782952312948342300,1.93934228515625,-1.2380460039287804,-1.2773010327354073,0.6969467841222882
1782952312958270200,1.949270263671875,-0.553432923939824,-1.1245800760075448,0.7551286317169665
1782952312968197400,1.959197265625,0.2385270165681839,-1.138624529581517,0.8168653953142464
1782952312978124300,1.969124267578125,0.9152338534772395,-1.2575912468761206,0.8652455414712429
1782952312988051500,1.979051513671875,1.3373913442999124,-1.460084388641268,0.8991399200275539
1782952312997979400,1.9889794921875,1.470380011075735,-1.5946718689158559,0.860709651607275
1782952313007906600,1.998906494140625,1.3033061193466187,-1.6512610404916106,0.8060876884512603
1782952313017833500,2.00883349609375,0.9607201778888702,-1.6118506749927997,0.6921960824638604
1782952313027760400,2.018760498046875,0.5442997694134711,-1.507695742382854,0.5857280871385708
1782952313037688600,2.0286884765625,0.04984218153357506,-1.3906899498976766,0.5206771209593862
1782952313047615500,2.038615478515625,-0.37077743219733234,-1.3108914599090813,0.5667583790568634
1782952313057542400,2.04854248046875,-0.6622147856980561,-1.2394679995559155,0.6996185606148093
1782952313067469300,2.05846923828125,-0.8042325621038675,-1.1359165857970714,0.7953266404621303
1782952313077397200,2.068397216796875,-0.8082020502567291,-0.994081764742732,0.8466182901516556
1782952313087324400,2.078324462890625,-0.6458750607937574,-0.8499575175769627,0.8291004613786935
1782952313097251300,2.088251220703125,-0.32798341560959815,-0.7245550681464373,0.7850173548284918
1782952313107178500,2.098178466796875,0.04810673604309559,-0.6293883286342025,0.732696946613118
1782952313117106400,2.1081064453125,0.4788619593411684,-0.5961321018509567,0.705612759528309
1782952313127033600,2.11803369140625,0.8880044857680797,-0.5854883966311812,0.7657881190277636
1782952313136960500,2.12796044921875,1.1666530848443508,-0.5241052687771618,0.9627667351551353
1782952313146887400,2.137887451171875,1.1548989341646432,-0.3671336688674986,1.197217369129881
1782952313156814300,2.147814453125,0.9842740719556808,-0.12258856105357407,1.3641539712801576
1782952313166742300,2.1577421875,0.7071656880587339,0.16693536004126072,1.3851011899799108
1782952313176669400,2.16766943359375,0.46974926308095455,0.4065855354204774,1.2105514094121754
1782952313186596400,2.177596435546875,0.3470166173815727,0.5636947902351618,0.9370715182106941
1782952313196523500,2.1875234375,0.300823606005311,0.5982235211722552,0.6568593230795114
1782952313206451500,2.197451416015625,0.21540333061218261,0.5361233310900628,0.37922596546038984
1782952313216378400,2.20737841796875,-0.03300269041359424,0.38750878676772116,0.07745371696073561
1782952313226305500,2.217305419921875,-0.41619712111353874,0.2266913250848651,-0.2703460136225447
1782952313236232400,2.227232421875,-0.8653150995761155,0.14669862769842146,-0.7018938851356505
1782952313246160400,2.237160400390625,-1.1045371126711367,0.18142726512178778,-1.0248426675789057
1782952313256087300,2.24708740234375,-1.5118676212400197,0.31833968121260403,-0.987560692410916
1782952313266014500,2.257014404296875,-1.3263333591908215,0.3685005733065307,-1.0582261740036307
1782952313275941400,2.26694140625,-1.1610884364545344,0.4155852728255093,-0.8208013465236872
1782952313285869300,2.276869384765625,-0.9140209705561398,0.5508683341488242,-0.5098433730602264
1782952313295796500,2.28679638671875,-0.5454857643276453,0.7639397146821022,-0.18274309696070848
1782952313305723400,2.296723388671875,-0.2168938614308834,0.9358363503925502,0.1472010973278433
1782952313315650600,2.306650634765625,0.09715572137236594,1.0690295998297632,0.40941334272492674
1782952313325578500,2.31657861328125,0.14107611164152623,1.2016980947405098,0.5367941795563325
1782952313335505400,2.32650537109375,-0.022814473876357075,1.2902666050314902,0.5713331396264955
1782952313345432600,2.3364326171875,-0.28708208090066906,1.3358955527842045,0.6515802866980434
1782952313355359200,2.346359130859375,-0.5788192941308021,1.3143101823113859,0.6943159972272813
1782952313365287400,2.356287353515625,-0.7005833870589733,1.2721112090073525,0.6585214841380715
1782952313375214300,2.36621435546875,-0.6520633940398692,1.2492448588132858,0.5702882336834445
1782952313385141200,2.376141357421875,-0.4808610242038965,1.2646416037790476,0.5118031288258731
1782952313395068400,2.386068359375,-0.24183891759514808,1.2954353859715162,0.3940208720754832
1782952313404996400,2.395996337890625,0.02663724703490734,1.3596313792891799,0.2781980057645589
1782952313414923500,2.405923583984375,0.2899158430218696,1.3423944132842123,0.14366145195960997
1782952313424850400,2.415850341796875,0.5203934086471795,1.3013571772359311,-0.007221256490424275
1782952313434777600,2.425777587890625,0.657211278322339,1.27778092520684,-0.1550504225887358
1782952313444704500,2.43570458984375,0.6304711554348469,1.249309010090679,-0.27580928399711846
1782952313454632400,2.445632568359375,0.4137356994360685,1.228319998075813,-0.4259724460009485
1782952313464559400,2.455559326171875,0.01574409709870815,1.2288472368203103,-0.5147258844047784
1782952313474486300,2.465486328125,-0.38304830022752284,1.260689797413349,-0.5204983303263783
1782952313484413400,2.475413330078125,-0.6526531766265631,1.3443714124456048,-0.4662041378200054
1782952313494341400,2.48534130859375,-0.6650041241556406,1.455269535705447,-0.3806045603372156
1782952313504268300,2.495268310546875,-0.46031098812818527,1.5614754094958305,-0.24928163481652735
1782952313514195500,2.505195556640625,-0.16571604737937448,1.6035604010313749,-0.1312297673445195
1782952313524122400,2.515122314453125,0.16025427484214305,1.59843151371032,-0.04972016258910298
1782952313534050600,2.525050537109375,0.4750754265397787,1.6112660069726406,-0.0728637222893536
1782952313543977500,2.5349775390625,0.7333546068042516,1.5989461852341889,-0.18807203689850865
1782952313553904600,2.544904541015625,0.7745137156665325,1.5774775730088353,-0.304134045727551
1782952313563831300,2.554831298828125,0.7026870813399553,1.518869170565158,-0.4813141017336398
1782952313573759200,2.56475927734375,0.5933727201402187,1.4716272346578538,-0.6977703023996203
1782952313583686400,2.574686279296875,0.5006166950315237,1.4940337122552096,-0.8855958171911538
1782952313593613300,2.58461328125,0.3762362821251154,1.4934459754951297,-0.9485102462656796
1782952313603540500,2.59454052734375,0.14459201080799103,1.4955502542980015,-0.9857225171983242
1782952313613468400,2.604468505859375,-0.09861234992146492,1.5066877343840896,-1.0331219086896628
1782952313623395300,2.614395263671875,-0.17322072392106055,1.4956692045025526,-1.1196561366740614
1782952313633322500,2.624322509765625,-0.13416472481787203,1.4779074839711188,-1.1216948028948157
1782952313643249400,2.63424951171875,-0.05623159030973911,1.4249248124547302,-1.0607262471910566
1782952313653177600,2.644177490234375,-0.02614975577890873,1.426363028564304,-0.9836819512814283
1782952313663104500,2.6541044921875,0.13920856420397756,1.46124130359143,-0.8631601865645497
1782952313673031400,2.664031494140625,0.32998891021311283,1.5254028101176023,-0.744995725563541
1782952313682958300,2.673958251953125,0.531761774879694,1.5643069796599447,-0.6069109777577221
1782952313692885500,2.683885498046875,0.6842641204208135,1.5760444714657962,-0.4957306034903973
1782952313702813400,2.6938134765625,0.6317290465414523,1.5295584684923291,-0.48579921125844117
1782952313712740400,2.703740234375,0.6114022978276014,1.4374332886330783,-0.5185054760087281
1782952313722667500,2.71366748046875,0.6046762044429779,1.2983167866267262,-0.6051106503374875
1782952313732594400,2.723594482421875,0.535001195192337,1.1309408432111143,-0.6662550009995698
1782952313742523100,2.733523193359375,0.328429405811429,0.9627889469869434,-0.6695282505165785
1782952313752450000,2.743449951171875,0.1264274085640907,0.8147421195499599,-0.6541803861938417
1782952313762377000,2.753376953125,0.0038444004684686658,0.7337348382934927,-0.6054309683330357
1782952313772304100,2.76330419921875,-0.058574938565492625,0.7004222051478922,-0.5591337659299374
1782952313782232000,2.773232177734375,-0.06871171717643737,0.6400033922813833,-0.5200769631091505
1782952313792159000,2.783158935546875,-0.047999184015393256,0.5184432974927127,-0.48738947612456973
1782952313802086100,2.793086181640625,-0.06117606097459793,0.34595088784620165,-0.4768116757478565
1782952313812013000,2.803012939453125,-0.10953414143025875,0.16792013329491018,-0.4548597369849682
1782952313821941200,2.812941162109375,-0.13284370534718035,-0.009014496582746506,-0.3552831086086109
1782952313831868200,2.8228681640625,-0.08413608080148696,-0.2161040262274444,-0.17108736515417694
1782952313841795000,2.832795166015625,-0.11094693083763121,-0.4252262307435274,-0.04411689922194928
1782952313851722000,2.842721923828125,-0.1951438019156456,-0.6741878398254514,-0.025286234284751116
1782952313861650000,2.85264990234375,-0.25369477508366106,-0.9603213878296315,-0.031450346405059094
1782952313871577000,2.8625771484375,-0.3329880920290947,-1.2453786849044262,-0.024789208015426993
1782952313881504000,2.87250390625,-0.4086386685580015,-1.4271864737764,0.024910057916119693
1782952313891431200,2.88243115234375,-0.48001814363896844,-1.5410886011578142,0.07781180968340486
1782952313901358000,2.892358154296875,-0.4922375737428665,-1.6352458713665603,0.09024437108132988
1782952313911286000,2.9022861328125,-0.48135436067879195,-1.750333847531676,0.08779208255838603
1782952313921213200,2.912213134765625,-0.4951350487500429,-1.8744689073748886,0.09043781129419803
1782952313931140000,2.92214013671875,-0.4557938029646873,-1.9337332895092665,0.04431465028375387
1782952313941067000,2.93206689453125,-0.41367374011576175,-1.9209287529937922,0.0614688333760947
1782952313950995000,2.941994873046875,-0.3043628860473633,-1.9179729719281196,0.21628533761110155
1782952313960922000,2.951922119140625,-0.14287410097420214,-1.9189174131713806,0.4347496997617185
1782952313970849000,2.96184912109375,-0.0019493805021047592,-1.8931262615717945,0.6373983243495226
1782952313980776200,2.971776123046875,0.22113047608733175,-1.8324096348024903,0.751565678538382
1782952313990704000,2.9817041015625,0.4746130697250366,-1.8452090567514299,0.8554293731167912
1782952314000631000,2.991631103515625,0.755543642258644,-1.9409518425859509,0.9570965805642306
1782952314010558200,3.00155810546875,0.9473235206991434,-2.075272927009314,1.0002790850128978
1782952314020485000,3.011485107421875,0.942236426693201,-2.189533950830996,0.974730290801823
1782952314030413000,3.0214130859375,0.7351029117763042,-2.2604268114387986,0.9398588108416647
1782952314040340200,3.03134033203125,0.3508329607993364,-2.2220668317757544,0.944326238579303
1782952314050267000,3.041266845703125,-0.252840788602829,-2.1046803694099188,0.9792064133025705
1782952314060194000,3.051194091796875,-1.1187824956446886,-1.917687871376425,0.8701673619128764
1782952314070122000,3.0611220703125,-1.779804856687784,-1.7798666698776184,0.7271014646936208
1782952314080049200,3.071049072265625,-2.041873492363095,-1.6526485493272542,0.6840099995292723
1782952314089976000,3.08097607421875,-1.847489568904042,-1.519220906612277,0.698541652098298
1782952314099903200,3.0909033203125,-1.272719257903099,-1.428310801631212,0.7853954674258827
1782952314109831200,3.1008310546875,-0.6353565893888473,-1.4201378704391419,0.9010371319510042
1782952314119758000,3.110758056640625,-0.14538812962174416,-1.360213270830363,0.9765146900005638
1782952314129685200,3.120685302734375,0.2157557973116636,-1.2654872608229517,0.968370327315852
1782952314139612200,3.130612060546875,0.2626782920062542,-1.212666794130951,0.8819761653892695
1782952314149539000,3.1405390625,0.11135200450718402,-1.1744878701232373,0.7355068164020776
1782952314159467000,3.150467041015625,-0.10876198801398276,-1.0497180195078253,0.550524123821035
1782952314169394000,3.160393798828125,-0.2601362063080072,-0.8868554618634283,0.38614780061282217
1782952314179321000,3.170321044921875,-0.278784792676568,-0.7350862529024481,0.37472273575700815
1782952314189248000,3.180248046875,-0.14339140284657478,-0.5894115614242852,0.4681668892603367
1782952314199176200,3.19017626953125,0.025506197178363797,-0.41231078119948505,0.6605144845861941
1782952314209103000,3.20010302734375,0.22911796770989892,-0.2412107026942074,0.8786608302962035
1782952314219030000,3.210030029296875,0.43861119749546046,-0.08369710486233234,1.1188654977530241
1782952314228957200,3.219957275390625,0.660469403335452,0.09210910550728439,1.2870366831995546
1782952314238885000,3.229885009765625,0.8990648089647293,0.24517478401958942,1.3398252934485673
1782952314248812300,3.239812255859375,1.1556418614864348,0.3670937752485275,1.3082647646673022
1782952314258739000,3.249739013671875,1.3016273724794387,0.37420389951467514,1.2298922158285974
1782952314268666000,3.259666015625,1.3250070790231228,0.31070538694188,1.1070829977616667
1782952314278594000,3.269593994140625,1.27445178078413,0.22240151893645524,0.8920175208017229
1782952314288521000,3.27952099609375,1.0946791510015725,0.14893763879686592,0.614571210187301
1782952314298448100,3.2894482421875,0.7996475724011659,0.07534545610249042,0.34274310478083786
1782952314308375000,3.299375,0.4596452176958322,-0.013562076884508133,0.028349823106452822
1782952314318303200,3.30930322265625,0.1023334162712097,-0.11452858871668577,-0.3302147548582405
1782952314328230100,3.319230224609375,-0.24913901147544382,-0.2826420526266098,-0.6842886703401804
1782952314338157000,3.329156982421875,-0.4645937800139188,-0.43455520010292525,-1.0867108024708927
1782952314348084000,3.339083984375,-0.558576716569066,-0.45517026423886414,-1.3947360104180873
1782952314358011000,3.349010986328125,-0.8082844678431749,-0.3766743812814355,-1.3632671054430305
1782952314367939000,3.35893896484375,-0.8428355567425488,-0.41129283632859587,-0.9972514808200299
1782952314377866000,3.368865966796875,-1.3045347843587398,-0.15870076178982853,-0.19671642152722923
1782952314387793200,3.378793212890625,-1.4296891042470932,0.49565001253485674,0.3667833575924858
1782952314397720000,3.388719970703125,-1.4005126941233872,1.1781567678943277,0.8135114817764609
1782952314407648000,3.39864794921875,-1.103074638903141,1.6705639991156755,1.1072853884659708
1782952314417575200,3.4085751953125,-0.5997738193541765,1.783852086251974,1.325747814387828
1782952314427502000,3.418502197265625,-0.09751227972507476,1.6384326847091317,1.4718658657193182
1782952314437429200,3.42842919921875,0.3805272573173046,1.3789037966445088,1.5012940586470067
1782952314447357200,3.438357177734375,0.6492717174947261,1.1455110742248593,1.3411625334016979
1782952314457284000,3.4482841796875,0.7241144847720861,1.0341371501468122,1.0133002599537373
1782952314467211000,3.4582109375,0.6908119346290826,0.9738273506127297,0.6410657608158886
1782952314477138000,3.468137939453125,0.6083510935634374,0.9100294167019426,0.2761832501423545
1782952314487066000,3.478066162109375,0.4232990620732307,0.7978124659284949,0.02544518770612776
1782952314496993000,3.487992919921875,0.06499474247992039,0.7152113396093249,-0.18500223753172904
1782952314506920200,3.497920166015625,-0.31986616012752056,0.7718624705053866,-0.3920538828514516
1782952314516847000,3.50784716796875,-0.5814928972542286,0.9327224561557174,-0.5951737416801974
1782952314526775000,3.517775146484375,-0.5811912839591503,0.9970620957277715,-0.6861679082155228
1782952314536702200,3.5277021484375,-0.34922903273403644,1.0068959458693862,-0.6742818747844547
1782952314546629000,3.537629150390625,-0.1064864442974329,1.0143965307578444,-0.5933049156010151
1782952314556556000,3.54755615234375,-0.09675532387793064,1.0927673260308801,-0.5170470938939601
1782952314566484000,3.55748388671875,-0.3861959506034851,1.2641769088767467,-0.48903896036464717
1782952314576411100,3.5674111328125,-0.8613724994301796,1.3562846992097795,-0.5042594354480505
1782952314586338000,3.577338134765625,-1.4150690427422523,1.4241232868134974,-0.5069692058634012
1782952314596265000,3.587264892578125,-1.9481214419543742,1.5160291248336433,-0.4914627899780869
1782952314606192000,3.597192138671875,-2.1244985840797423,1.7145428415738044,-0.4308436322338879
1782952314616120000,3.6071201171875,-1.845824266040325,1.9281465754181146,-0.30608335316441954
1782952314626047200,3.617047119140625,-1.1329080516308545,2.058434020411223,-0.21669899644590912
1782952314635974100,3.62697412109375,-0.27962416611015795,2.1175423352010547,-0.22034363655857742
1782952314645901300,3.6369013671875,0.5536456899076699,2.141345673984289,-0.2634271010795608
1782952314655829200,3.646829345703125,1.1827800437808036,2.12175703028664,-0.3845898671137169
1782952314665756000,3.656755859375,1.497657309579849,2.0547962484307587,-0.6000079569036141
1782952314675683000,3.66668310546875,1.6066986990571022,1.9905305508777498,-0.8607530523575841
1782952314685610000,3.67660986328125,1.4730103595793247,1.84914888041839,-1.033698028077185
1782952314695538000,3.686537841796875,1.0671323879063128,1.6533705799914895,-1.1411062633946538
1782952314705465000,3.696465087890625,0.5437754532784224,1.4542787711024283,-1.1657236219745128
1782952314715392000,3.70639208984375,0.030950434058904647,1.3670773113809525,-1.1643621974281966
1782952314725319200,3.716319091796875,-0.3298725903570652,1.4616209505587816,-1.175513998300582
1782952314735247000,3.7262470703125,-0.4930705174356699,1.5942447295449673,-1.178212735865265
1782952314745174500,3.736174560546875,-0.4995353295356035,1.6477902956411241,-1.138864037425816
1782952314755101400,3.746101318359375,-0.351965764221549,1.637555317352712,-1.0571233273282648
1782952314765028400,3.7560283203125,-0.275526667663455,1.5625401161178945,-0.9596581746805458
1782952314774956300,3.765956298828125,-0.20510054778456688,1.546766792924702,-0.9036500909283757
1782952314784883200,3.77588330078125,-0.17436287969350814,1.497511032976955,-0.7994012694898992
1782952314794810400,3.785810302734375,-0.14013795400857926,1.4583448514975605,-0.6735820559520274
1782952314804737300,3.7957373046875,-0.0038426469027996062,1.435317319392413,-0.6146862148690968
1782952314814665200,3.805665283203125,0.17064064429998396,1.3785989684790372,-0.4303843076264485
1782952314824592400,3.81559228515625,0.338407194468379,1.3201701603859661,-0.2243502418514341
1782952314834519300,3.825519287109375,0.44434594175517556,1.2819907979868352,-0.1548814957626164
1782952314844446500,3.835446533203125,0.4633493329107761,1.2277008432641625,-0.18154245246667414
1782952314854373400,3.845373291015625,0.38199265369474883,1.0972853879772126,-0.29881953617390244
1782952314864301600,3.855301513671875,0.2969803745806217,0.8966934036582708,-0.34277470549549904
1782952314874228200,3.865228271484375,0.25263269881010053,0.6733329765617847,-0.3209127465710044
1782952314884155400,3.8751552734375,0.24403730442225932,0.45842911990433927,-0.2927137666447088
1782952314894082300,3.885082275390625,0.3173503779143095,0.28126185031458734,-0.24845607071258127
1782952314904010200,3.89501025390625,0.5035451496988534,0.11566709122732281,-0.1525241920467466
1782952314913937400,3.9049375,0.6628881549149751,-0.051748891937732695,-0.06624488867148756
1782952314923864300,3.9148642578125,0.7524012525796889,-0.2019792008936405,-0.048963170209340746
1782952314933791500,3.92479150390625,0.7197492752999067,-0.3661288757391274,-0.0908912176175043
1782952314943719400,3.934719482421875,0.5243003529578447,-0.6060713120631873,-0.13168788637556134
1782952314953646300,3.944646240234375,0.29609131678640843,-0.8574059338867663,-0.12936196417864412
1782952314963573200,3.9545732421875,0.12158055305480957,-1.1299335658647118,-0.12542959316577762
1782952314973500200,3.964500244140625,-0.05079787482321262,-1.3764046733051538,-0.12097082365863024
1782952314983428400,3.974428466796875,-0.202981655934453,-1.5768660169817506,-0.15082177204303443
1782952314993355300,3.984355224609375,-0.30298984412848945,-1.7766715270981193,-0.14888357052206994
1782952315003282400,3.994282470703125,-0.38372166944444175,-1.9007218312673269,-0.11831362368073314
1782952315013209300,4.004209228515625,-0.4502554580599069,-1.9746091975159943,0.03171648652795702
1782952315023137300,4.01413720703125,-0.40335575971901416,-2.032517050474882,0.30953868125006556
1782952315033064400,4.024064453125,-0.31817513830065725,-2.0694607335992155,0.6806791015408933
1782952315042991400,4.033991455078125,-0.2826327002763748,-2.0518295075796544,0.9222691589415073
1782952315052918500,4.04391845703125,-0.24056933605074882,-2.0122104677662254,1.006084921747446
1782952315062846500,4.053846435546875,-0.2191507004469633,-2.017436385720968,0.9924098860077559
1782952315072773000,4.063773193359375,-0.20556232007741926,-2.1073715081900355,0.9571716916270554
1782952315082700300,4.0737001953125,-0.1785866348683834,-2.2030668016210195,0.9291805457651615
1782952315092627200,4.083627197265625,-0.06973638404905795,-2.2928668995335695,0.9037712330900132
1782952315102554400,4.093554443359375,0.13181027064621448,-2.353803306533396,0.8656535377502441
1782952315112482300,4.103482421875,0.32355449325144287,-2.380778991742432,0.806616096239537
1782952315122409200,4.1134091796875,0.26581775907576083,-2.350586098052561,0.7113872512765228
1782952315132336400,4.12333642578125,-0.049444706648588174,-2.2359359287828204,0.6597372896686196
1782952315142263300,4.13326318359375,-0.577915038767457,-2.124525910478085,0.663334145116806
1782952315152191500,4.14319140625,-1.1298556783229112,-1.975458946213126,0.676694854210317
1782952315162118400,4.153118408203125,-1.4710609790772198,-1.7613639217205344,0.6539983076252043
1782952315172045300,4.16304541015625,-1.5576806933879852,-1.4625133693538606,0.6951739292308687
1782952315181972200,4.17297216796875,-1.3887339935243128,-1.2069561613991855,0.8277451012469828
1782952315191900200,4.182900146484375,-0.9235632904052734,-1.0139853196084498,0.9897799758955835
1782952315201827300,4.192827392578125,-0.21388123561143874,-0.897752265061438,1.1108693844325839
1782952315211754200,4.202754150390625,0.5271148258566856,-0.9049360390856862,1.2014216158866882
1782952315221681400,4.212681396484375,1.0698743800908326,-0.9966454777508974,1.2555946662314235
1782952315231609300,4.222609375,1.335510352858901,-1.057286993457377,1.2731746004551647
1782952315241536300,4.232536376953125,1.3221657181173563,-1.0134355767711996,1.2031433981779962
1782952315251463400,4.24246337890625,1.114962060573697,-0.938345118343085,1.0513068961344658
1782952315261390300,4.252390380859375,0.7792173633128404,-0.869323020043224,0.846056272354722
1782952315271318500,4.262318603515625,0.417740843424201,-0.8097510332643986,0.6642420537419617
1782952315281245200,4.2722451171875,0.16104279487133025,-0.7635403401009738,0.6677215664207935
1782952315291172400,4.28217236328125,0.035198154631257056,-0.6576970160126686,0.7431459329783916
1782952315301099300,4.292099365234375,-0.041949966979026795,-0.44344826226308937,0.8901638557590543
1782952315311027200,4.302027099609375,-0.07831132017076015,-0.21950214423313735,0.9751968854002654
1782952315320954400,4.311954345703125,-0.02166588836312294,-0.0030982582762837407,0.9920222018644214
1782952315330881300,4.32188134765625,0.15605565410852432,0.1209691431581974,0.9562710895255208
1782952315340808400,4.331808349609375,0.38104397466778755,0.15127105018049478,0.9254261616677045
1782952315350735400,4.3417353515625,0.6341179875046015,0.15945874055027962,0.921801541429758
1782952315360663300,4.351663330078125,0.8853016565501689,0.1800834492973983,0.9699771049253642
1782952315370590500,4.361590576171875,1.105042139583826,0.2829863360196352,1.006391649609059
1782952315380517000,4.37151708984375,1.240215749183297,0.42826603683084247,0.9841319600712507
1782952315390444300,4.3814443359375,1.261577686163783,0.5470559362538159,0.9346952175334096
1782952315400372200,4.391372314453125,1.1458061116486786,0.6122998311892152,0.8827226729076355
1782952315410299400,4.40129931640625,0.9205477419763803,0.6269885740160942,0.7898376145917921
1782952315420226300,4.411226318359375,0.6607084727883339,0.6363363942064344,0.5535202734297141
1782952315430153500,4.421153564453125,0.25125205810666085,0.582422579319775,0.23508929720446467
1782952315440081400,4.431081298828125,-0.5119429756879806,0.535799359832704,-0.14595876911655067
1782952315450008300,4.44100830078125,-1.3831851272255182,0.5667053702279925,-0.6013880496177822
1782952315459935500,4.450935546875,-1.614595005264878,0.5721259339720011,-0.961655485977605
1782952315469862100,4.460862060546875,-1.7641548676133154,0.5111361893497407,-0.9042696110662073
1782952315479790300,4.470790283203125,-1.5528548806667326,0.4950076229780912,-0.8781649365380406
1782952315489717200,4.48071728515625,-1.12083124486804,0.5854461649246514,-0.8281410417620092
1782952315499644200,4.49064404296875,-0.40882746912837026,0.7007303943142295,-0.6825638923741877
1782952315509571300,4.5005712890625,0.38775370143949983,0.7547596522741019,-0.4668480617467314
1782952315519499300,4.510499267578125,1.0416185919433831,0.7027262443065643,-0.24337124172896146
1782952315529426400,4.520426513671875,1.3083026124596595,0.4577615959063172,0.060537616940587756
1782952315539353300,4.530353271484375,1.062018405893445,0.3015627339348197,0.2766118325516581
1782952315549280500,4.540280517578125,0.43194121821224685,0.4138496812045574,0.36579854780621823
1782952315559207400,4.55020751953125,-0.21454291439056394,0.6919850700616836,0.41140068061724305
1782952315569135400,4.56013525390625,-0.7305740361750126,0.9246146991543471,0.4424310480445623
1782952315579062300,4.570062255859375,-1.057313004681468,1.0191279431939124,0.4432874456781894
1782952315588989200,4.5799892578125,-1.135246139189601,1.0472285407796502,0.2973814296621829
1782952315598916400,4.589916259765625,-0.9480682015866041,0.9891051453739405,0.07782163695767522
1782952315608844300,4.59984423828125,-0.544783169016242,0.8285323061019182,-0.1620119321644306
1782952315618771200,4.609771240234375,-0.007985738056898117,0.673316463818401,-0.30330628966651857
1782952315628698400,4.619698486328125,0.45145723506510255,0.6291073197357356,-0.43985652138143777
1782952315638625300,4.629625244140625,0.7307979080587625,0.6328926834933459,-0.5684374547176063
1782952315648553500,4.639553466796875,0.6732154876619577,0.7739768323108553,-0.6969948610477149
1782952315658480400,4.64948046875,0.3033294513463974,1.0205905630923806,-0.7545664677895605
1782952315668407600,4.659407470703125,-0.2938432455986738,1.2279521876767276,-0.8235971877872943
1782952315678334200,4.669334228515625,-0.8727700917571782,1.3491133462756872,-0.9556183977704494
1782952315688262100,4.67926220703125,-1.3491951793402432,1.4051304170519112,-0.9494736844703554
1782952315698189300,4.689189208984375,-1.7098165437042712,1.4397875966742635,-0.8343296672690659
1782952315708116200,4.6991162109375,-1.7054501651883125,1.4823912052564323,-0.6334591582696885
1782952315718043400,4.70904345703125,-1.3286363754361867,1.5777667652137577,-0.4409446088790893
1782952315727971300,4.718971435546875,-0.7020715797901154,1.7124007149785756,-0.3052965136356652
1782952315737898200,4.728898193359375,-0.0013595979154109954,1.8279381884768604,-0.19795184507369995
1782952315747825000,4.738824951171875,0.6098112292438745,1.9031591414168476,-0.10524170493334531
1782952315757752000,4.748751953125,1.0383581288427113,1.924148737953603,-0.15096782945021986
1782952315767680000,4.758679931640625,1.251118835991621,1.944035633945465,-0.3745819390468299
1782952315777607000,4.76860693359375,1.2968155882835388,1.864093789963424,-0.7193951280999928
1782952315787534000,4.7785341796875,1.2104682611733675,1.7356560644902288,-0.9740238960981369
1782952315797461000,4.7884609375,1.0026584544301032,1.6008157784983514,-1.1975654519151895
1782952315807388200,4.79838818359375,0.6617144349604844,1.5419706446893513,-1.3678779602393507
1782952315817316000,4.808316162109375,0.35837738482952114,1.5143832573227582,-1.4082093861058353
1782952315827242800,4.81824267578125,0.14166647875010965,1.4955824030019342,-1.3437015503600238
1782952315837170000,4.828169921875,-0.053199675267934794,1.5056393943749367,-1.231638767234981
1782952315847096800,4.838096923828125,-0.23939970774948596,1.560081032527983,-1.1846607429608702
1782952315857025000,4.84802490234375,-0.4307768506079912,1.6048283751405774,-1.0946032362211495
1782952315866952000,4.857951904296875,-0.6315683030217886,1.6239366879753767,-1.0038928915958851
1782952315876879000,4.867879150390625,-0.6990858419775963,1.6237760905861853,-0.9248018922895193
1782952315886806000,4.877805908203125,-0.6630792935729026,1.6252476244434713,-0.867557252479717
1782952315896734000,4.88773388671875,-0.5225900419086218,1.6006053506180644,-0.8594731686148792
1782952315906661000,4.8976611328125,-0.2881879963159561,1.5361147582679986,-0.8531859050389379
1782952315916588000,4.907588134765625,-0.04756956042647362,1.408033883408457,-0.7881628132473677
1782952315926515000,4.917514892578125,0.19815701225697993,1.2476445840097963,-0.7065174532830715
1782952315936443000,4.92744287109375,0.37066461947262286,1.0536235025137661,-0.5320294859051704
1782952315946369800,4.937369873046875,0.37062837911546226,0.8290959313340485,-0.3245463173003867
1782952315956297000,4.947296875,0.32634967692792416,0.6798059719681739,-0.16560582847055047
1782952315966224000,4.957223876953125,0.24879005190730094,0.5505363257154822,-0.11887085570469498
1782952315976152000,4.967152099609375,0.20122282956838605,0.3779147367313504,-0.0747174969298765
1782952315986079000,4.977078857421875,0.15079963327646254,0.21100465726181863,-0.17532408940847963
1782952315996006000,4.987005859375,0.06459083785414696,-0.005703326208144426,-0.18924677976630627
1782952316005933000,4.99693310546875,-0.06829904472231864,-0.2395477379180491,-0.13049093167595566
1782952316015861000,5.006861083984375,-0.1849912412136793,-0.4306082160428166,-0.0446530884578824
1782952316025788200,5.0167880859375,-0.21410276940762996,-0.5638944044604897,-0.0021146175337955356
1782952316035714800,5.02671484375,-0.1840069063514471,-0.7070096207141876,0.000966470411978662
1782952316045642000,5.03664208984375,-0.1324982529103756,-0.9234041543208062,0.012984021268226205
1782952316055569000,5.04656884765625,-0.07074702239632606,-1.152972642277181,0.0632092473026365
1782952316065496800,5.056496826171875,-0.06531856760680675,-1.3156596972241996,0.12675897860601543
1782952316075424000,5.066424072265625,-0.060899582120776174,-1.4263849481351674,0.18924418595042078
1782952316085351000,5.076350830078125,-0.07995733381211757,-1.4979184447340665,0.28172574149928986
1782952316095278000,5.086278076171875,-0.09551906008124351,-1.5120739574670792,0.4088701026936993
1782952316105206000,5.0962060546875,-0.044776714837551114,-1.541198052881658,0.5740221229821443
1782952316115133000,5.1061328125,0.0006061491996049881,-1.5947091321863234,0.7488938289806246
1782952316125059800,5.116059814453125,0.030654665982723234,-1.6400502029083668,0.9015168052267283
1782952316134986800,5.12598681640625,0.1608189229875803,-1.641292750315368,1.013490448763594
1782952316144915000,5.1359150390625,0.34990298647284507,-1.6554140685178338,1.0320943922728298
1782952316154841900,5.145841796875,0.4912514853149652,-1.7803595679610966,0.968543272729963
1782952316164769000,5.15576904296875,0.6467161877930164,-1.9765617928884922,0.8370819616518914
1782952316174696000,5.165696044921875,0.7553752999544143,-2.2181189709328115,0.7623217580914496
1782952316184623900,5.175623779296875,0.8502478788256644,-2.425736908365786,0.8126463163144886
1782952316194551000,5.185551025390625,1.0106401008337735,-2.4738421831041575,0.8249379348717629
1782952316204478000,5.19547802734375,1.0392974555194376,-2.403771890925616,0.8169295465916395
1782952316214405000,5.205405029296875,0.7381535315185784,-2.3015569864675403,0.7877727179512382
1782952316224333000,5.2153330078125,0.19567805492281912,-2.213655707913637,0.8638637317240238
1782952316234260000,5.225260009765625,-0.44135611228942867,-2.0844865994259716,1.0787127894543111
1782952316244187000,5.235186767578125,-1.1167185488522051,-1.8888436158165334,1.3357464997023343
1782952316254113800,5.24511376953125,-1.5699959850817917,-1.5735244514688849,1.432712543721497
1782952316264042000,5.2550419921875,-1.7370201924502848,-1.2178422970727085,1.4613072084344922
1782952316273969000,5.264968994140625,-1.6454028159826992,-0.9487390865854919,1.4542866621479391
1782952316283896000,5.27489599609375,-1.1984598434716462,-0.7894223848544061,1.406199799849093
1782952316293823000,5.284822998046875,-0.39621933196783066,-0.785171303281188,1.289057667633146
1782952316303750100,5.294750244140625,0.4192822276473045,-0.9161161892697215,1.1654615369722245
1782952316313678000,5.304677978515625,0.9383096086382865,-1.1057827288180588,1.0588296928547323
1782952316323605000,5.31460498046875,1.0840355919122695,-1.2641139266431332,0.9441234094835818
1782952316333532000,5.324531982421875,0.86127839140594,-1.3064824112951754,0.8939882363528012
1782952316343457000,5.33445703125,0.34831250241100786,-1.166629265577346,0.8611747849009931
1782952316353384000,5.344384033203125,-0.10910217975378037,-0.9917477688372135,0.7995098444309086
1782952316363311000,5.35431103515625,-0.4127215539574623,-0.8778478334128856,0.8056768426280468
1782952316373237800,5.36423779296875,-0.5601870743751526,-0.7809114538796246,0.8530592829845846
1782952316383166000,5.374166015625,-0.6171411337405442,-0.6292505275987088,0.8348487957723438
1782952316393092900,5.3840927734375,-0.4569418039560318,-0.4351866298742592,0.9049056439474225
1782952316403020000,5.39402001953125,-0.14487959557771682,-0.2558892163880169,1.0559602018330245
1782952316412947000,5.403947021484375,0.2018576203405857,-0.09101268857270478,1.2262911225967108
1782952316422875000,5.413875,0.555152587339282,0.1442765151180327,1.260484922491014
1782952316432802000,5.423802001953125,0.8894272120475768,0.35892142857834697,1.01260256001316
1782952316442729000,5.43372900390625,1.1176613826602697,0.43486017439886926,0.5800382049338891
1782952316452656000,5.44365625,1.1492419313162565,0.28913974408283827,0.17272203541761263
1782952316462584000,5.453583984375,1.0214292058736085,0.03054594491124153,-0.15764029295146464
1782952316472511000,5.463510986328125,0.8058440889537334,-0.2415048633351922,-0.32657932096533476
1782952316482438000,5.47343798828125,0.41200843725204467,-0.40990167423114177,-0.2805798228671774
1782952316492364800,5.48336474609375,-0.06868716725707054,-0.39124621973037715,-0.13596782871708274
1782952316502293000,5.49329296875,-0.4848246671378612,-0.16422025586366654,-0.015746289055794477
1782952316512220000,5.503219970703125,-0.7266518942952156,0.1140880053423345,0.17996267246194184
1782952316522146800,5.513146728515625,-0.8805781351596117,0.3513764200262725,0.44801374354772266
1782952316532074000,5.523073974609375,-0.9449959545344113,0.5855808972202241,0.6353517670832574
1782952316542002000,5.533001953125,-0.8618447931170463,0.8136324047423898,0.7277434889242053
1782952316551929000,5.54292919921875,-0.975672247827053,1.0281884708754718,0.7937446319676935
1782952316561856000,5.55285595703125,-0.5387240151077508,1.063493739143014,0.5619118158085271
1782952316571783200,5.562783203125,-0.4270125296384096,0.9911845819965004,0.4348097228532657
1782952316581709800,5.572709716796875,-0.18288345527946948,0.9100462217062711,0.22118023351319133
1782952316591637800,5.5826376953125,0.055744683575630186,0.8150720821566879,0.03310885420180857
1782952316601565000,5.59256494140625,0.26916765402555465,0.7137795532405377,-0.1048061630602926
1782952316611491800,5.602491943359375,0.34812954705953597,0.6707555272892117,-0.1976675482396036
1782952316621419000,5.6124189453125,0.20356383973658085,0.7670733365327119,-0.20831110732890665
1782952316631347000,5.622346923828125,-0.10112930117845535,0.9380471583098172,-0.25918402014970776
1782952316641273900,5.63227392578125,-0.3967524159312248,1.0612314932994544,-0.3441623969942331
1782952316651201000,5.642200927734375,-0.5733686275094747,1.1113717809967696,-0.42806759164929387
1782952316661128000,5.6521279296875,-0.5795119525700807,1.1165192268878221,-0.5155385890271514
1782952316671056100,5.66205615234375,-0.4075573030620813,1.0858090313255786,-0.5676403860557824
1782952316680983000,5.671983154296875,-0.11783785939514636,1.0606710829377173,-0.5384935673527419
1782952316690910000,5.681909912109375,0.19921148974597452,1.0667211767569185,-0.5167990374170244
1782952316700836900,5.6918369140625,0.45493572483062744,1.098634026107192,-0.5144087812796235
1782952316710764800,5.701764892578125,0.5909843636989593,1.09243663277179,-0.3893950389057398
1782952316720692000,5.71169189453125,0.4823550621539354,1.168514933193475,-0.21973222666196524
1782952316730619000,5.721618896484375,0.30741876648664473,1.3890820763096212,-0.15265191007964313
1782952316740546000,5.731546142578125,0.08768295962810516,1.6440217368878423,-0.2528752753943205
1782952316750474200,5.74147412109375,-0.049230771636962885,1.7957561667963862,-0.36444355300068854
1782952316760401200,5.751401123046875,-0.3014864538282156,1.7645475201927125,-0.4364417445018887
1782952316770328300,5.761328369140625,-0.7519611075967549,1.5786105225615203,-0.4639934760332107
1782952316780255000,5.7712548828125,-1.2639625354737043,1.4194088255122304,-0.4720639697641134
1782952316790183200,5.78118310546875,-1.729707239088416,1.3924927615359424,-0.5215571186643093
1782952316800110000,5.791110107421875,-2.023584971478581,1.515516791397333,-0.5606457048628479
1782952316810037200,5.801037353515625,-2.0508622699826953,1.7022756268054247,-0.5884030419688672
1782952316819964200,5.810964111328125,-1.5915128203630446,1.8695700294174253,-0.5615124046947807
1782952316829891300,5.820891357421875,-0.743605951705575,1.9146362287208436,-0.445058985395357
1782952316839819300,5.8308193359375,0.2214461179077625,1.8952835857361554,-0.30886750399023294
1782952316849746200,5.84074609375,1.0734142446547745,1.9521112422429023,-0.2735457960445434
1782952316859673300,5.85067333984375,1.7189765862375497,2.016340114916861,-0.3529793982435018
1782952316869600000,5.86060009765625,2.0117437270373104,1.9289843414165078,-0.47205819761045276
1782952316879528200,5.870528076171875,1.9409797535061835,1.7314795094579458,-0.6591744681540876
1782952316889455000,5.880455078125,1.5974042164891957,1.5102384126029909,-0.8353224776986986
1782952316899382000,5.890382080078125,1.1250713666558265,1.3707513237185776,-0.8763679701186716
1782952316909309200,5.90030908203125,0.6221393804192543,1.3825190645322203,-0.8116820013269782
1782952316919237000,5.910237060546875,0.15480711535215377,1.4864569933906198,-0.8100105609834194
1782952316929164300,5.920164306640625,-0.14470306996703147,1.5713872933097184,-0.877887142509967
1782952316939091200,5.93009130859375,-0.35473581345677374,1.5761422327518462,-0.9198110982649028
1782952316949018000,5.94001806640625,-0.42088966284394264,1.5397195047616958,-0.9933598071437328
1782952316958946300,5.9499462890625,-0.2785141590416431,1.4594215408183633,-1.0298124188154936
1782952316968873200,5.959873291015625,-0.08463701606094837,1.332254273672402,-0.9842307442706077
1782952316978800000,5.969800048828125,0.09492518584132194,1.1789200073517858,-0.8936012097965925
1782952316988727000,5.97972705078125,0.22118191401362416,1.0519219592928886,-0.7698927778676152
1782952316998655000,5.989655029296875,0.2850415149837732,0.9903618674367666,-0.6780949302665888
1782952317008582100,5.99958203125,0.3390080829709768,0.9097532301090657,-0.5971420095458626
1782952317018509000,6.009509033203125,0.3575573006182909,0.7704058419562876,-0.5255025683544576
1782952317028436200,6.019436279296875,0.32839784162938596,0.5943506252616644,-0.5100053586889058
1782952317038364200,6.0293642578125,0.2544090608328581,0.41320334612503645,-0.5239923099219799
1782952317048291300,6.039291259765625,0.07898235130012035,0.23895737080946564,-0.5790867128953338
1782952317058218200,6.04921826171875,-0.050560558935999866,0.08484510585367679,-0.6118491648122668
1782952317068145200,6.059145263671875,-0.0892231748074293,-0.07710077533721924,-0.6443200133714825
1782952317078073300,6.0690732421875,-0.1284329031676054,-0.21957915499210356,-0.6950292600631713
1782952317088000000,6.079,-0.10306874480843543,-0.3539456859923899,-0.690051690846309
1782952317097927200,6.08892724609375,-0.053614101287722586,-0.5308801697395742,-0.6542500904291868
1782952317107854000,6.09885400390625,0.008040098592638968,-0.7325104110650718,-0.5625926742121576
1782952317117782000,6.108781982421875,0.0183867205619812,-0.9442061193309724,-0.40402489115223283
1782952317127709200,6.118709228515625,-0.08106792540252208,-1.1155911522574722,-0.1826603140480816
1782952317137636000,6.128635986328125,-0.17023907776176928,-1.2001590486049651,0.029544951175153253
1782952317147563300,6.138563232421875,-0.15652093353271485,-1.2568148556761443,0.25959157803729177
1782952317157490200,6.148490234375,-0.1774140839576721,-1.3153542845368384,0.5698135653764009
1782952317167418400,6.15841845703125,-0.24900223335325716,-1.302761052684486,0.823269197941944
1782952317177345300,6.16834521484375,-0.29069442617893215,-1.275482877397537,0.9685790016304701
1782952317187272200,6.178272216796875,-0.34803836164474483,-1.2716180186629296,1.0175373130016028
1782952317197199000,6.18819921875,-0.381321038043499,-1.3246569504112005,0.9790589676558971
1782952317207127000,6.198126953125,-0.4551859001994133,-1.423369984228164,0.9126571348570287
1782952317217054200,6.20805419921875,-0.5375777676820754,-1.5868591493383049,0.8392694617588072
1782952317226981000,6.217981201171875,-0.6121271049708128,-1.7139093659758566,0.847620379866287
1782952317236908300,6.227908203125,-0.6321370428204536,-1.7435529552198945,0.9293586788110434
1782952317246836200,6.237836181640625,-0.6063128657341003,-1.7827995084591208,1.0819398617420344
1782952317256763100,6.24776318359375,-0.52567047226727,-1.7413808718778192,1.212751330609247
1782952317266690300,6.257690185546875,-0.3150701580226421,-1.624151645900309,1.2716668262407183
1782952317276617200,6.2676171875,-0.07530395504832267,-1.4502768419846892,1.253748307712376
1782952317286545200,6.277545166015625,0.17208441336750982,-1.3448190100826323,1.053340301658213
1782952317296472000,6.28747216796875,0.3073562226444483,-1.367717216719687,0.754189231975004
1782952317306399200,6.297399169921875,0.2909469396352768,-1.512518924755603,0.45395233981646593
1782952317316326100,6.307326171875,0.1246937166392803,-1.6294620272681115,0.26263489125594497
1782952317326254000,6.317254150390625,-0.10587912605404853,-1.6620422544859348,0.23185871778540312
1782952317336181200,6.32718115234375,-0.3151771255284548,-1.5562858780287205,0.31289800161533055
1782952317346108200,6.337108154296875,-0.4018681515097618,-1.305091103067249,0.3548739067532122
1782952317356035300,6.347035400390625,-0.25229192254841326,-1.065849070097506,0.36246290057748554
1782952317365963300,6.35696337890625,-0.02353285127878189,-0.9479730706490576,0.2990015051446855
1782952317375890200,6.36689013671875,0.20364041210412978,-0.942749344651401,0.15218107769750058
1782952317385817000,6.376817138671875,0.4730313534915447,-1.0027629377178848,-0.02630100081786513
1782952317395744000,6.386743896484375,0.7825105596393346,-1.1183462961845099,-0.08391505846194923
1782952317405671200,6.396671142578125,0.9916606750756501,-1.2311143049694597,0.016287848586589097
1782952317415599000,6.40659912109375,1.0431418559879064,-1.2683875123091042,0.2184790117304772
1782952317425526000,6.416526123046875,0.909848653307557,-1.1681238880492746,0.469680800954625
1782952317435453200,6.426453125,0.8189964159935712,-1.016688587217778,0.6790040810007602
1782952317445380000,6.436380126953125,0.734392717680335,-0.8655785728178917,0.820541672674194
1782952317455308300,6.446308349609375,0.7065285591989755,-0.7761210047326982,0.9560917874358594
1782952317465235200,6.456235107421875,0.8481430155009031,-0.659109805420041,1.0039207294508814
1782952317475162400,6.466162353515625,0.9672738373160362,-0.48416079640164966,1.0178824001122266
1782952317485089000,6.476089111328125,0.7631178769052028,-0.3280538504973054,0.9545709345441311
1782952317495017000,6.486016845703125,0.17987492111325262,-0.2139391032785177,0.8954342704426497
1782952317504944000,6.495944091796875,-0.38614159006774423,-0.10675810084566473,0.9078589407950639
1782952317514871000,6.50587109375,-0.78330258679986,-0.025069851587712765,1.0015991546355187
1782952317524798200,6.515798095703125,-1.1194973659157752,0.03233618932887911,1.143414905663207
1782952317534726100,6.52572607421875,-1.1103577816486359,0.16251725133806466,1.1762418741837144
1782952317544653000,6.535653076171875,-0.7901677963942288,0.28420608707293865,1.2179727185193447
1782952317554580200,6.545580322265625,-0.15452303771376608,0.2854578406997025,1.2175154032059012
1782952317564507100,6.555507080078125,0.580634234598279,0.2322773085236549,1.1437408496819437
1782952317574435300,6.565435302734375,1.1932605212628842,0.19049948324114083,0.9947310954969376
1782952317584362200,6.5753623046875,1.5367378586024045,0.10605930492654442,0.69797605410479
1782952317594289200,6.5852890625,1.571390654310584,0.013025339659303426,0.41051191508397455
1782952317604216000,6.595216064453125,1.4219248999863863,-0.09078092564344406,0.07027370579615234
1782952317614144000,6.60514404296875,1.2142647308468817,-0.14462459790334103,-0.24337876744829118
1782952317624071200,6.6150712890625,0.8755085768103599,-0.18594941872134804,-0.5150872650630772
1782952317633998000,6.624998046875,0.4670756599575281,-0.2327295823357999,-0.7062778723735362
1782952317643925200,6.63492529296875,0.1005605613797903,-0.23355872663632035,-0.7335503485720605
1782952317653853200,6.644853271484375,-0.2651677707344293,-0.20062793241515756,-0.5669359641134739
1782952317663780000,6.654780029296875,-0.7396908240884542,-0.05827990114167332,-0.3271745103795081
1782952317673707300,6.664707275390625,-1.0822802726775407,0.21621830025687813,-0.19403649826087058
1782952317683634200,6.67463427734375,-1.2800064923018217,0.4380119164280593,-0.21449067274667322
1782952317693561000,6.68456103515625,-1.334686176994443,0.5405924393281341,-0.30640491326898334
1782952317703489000,6.694489013671875,-1.232474341276288,0.5765491572417318,-0.3366095704618841
1782952317713416200,6.704416259765625,-1.1279840392321347,0.5272023580096662,-0.35405323802009225
1782952317723343000,6.714343017578125,-0.7611211501300335,0.3300081994354725,-0.37160949910730123
1782952317733270300,6.724270263671875,-0.7018629054754972,0.1970820765018463,-0.08940423046275973
1782952317743198200,6.7341982421875,-0.543209051567316,0.3217851454913616,0.13307123049274086
1782952317753125400,6.74412548828125,-0.4463794934093952,0.6066778996542096,0.2763427332866937
1782952317763052500,6.754052490234375,-0.30328736577033993,0.8353001928016542,0.369218439252302
1782952317772979500,6.7639794921875,-0.14513210903406143,0.8857505693614482,0.3950791489567607
1782952317782907400,6.773907470703125,-0.12447335188686846,0.8129340472146869,0.3163331636957824
1782952317792834600,6.78383447265625,-0.22490824106037616,0.7533053618125617,0.14387684827595948
1782952317802761500,6.793761474609375,-0.3305295929610729,0.749843530920893,-0.1140765341002494
1782952317812688400,6.8036884765625,-0.3315355551332235,0.7589375224806368,-0.3331706089891493
1782952317822616600,6.813616455078125,-0.297917947691679,0.7645353424876928,-0.42393721384629607
1782952317832543500,6.82354345703125,-0.23785364735126494,0.7570885336130857,-0.41678018169850106
1782952317842470400,6.833470458984375,-0.15701310096383095,0.8099725670605897,-0.43473457525782283
1782952317852397600,6.8433974609375,-0.07161562192440032,0.8928374588824808,-0.45100876064524054
1782952317862325500,6.853325439453125,-0.0015367080479860304,1.0149814910389483,-0.5283129496000707
1782952317872252400,6.86325244140625,0.0863303759753704,1.1152473072558642,-0.6475592144884169
1782952317882179600,6.8731796875,0.22346973268985748,1.1892958554156123,-0.7624751220222562
1782952317892106500,6.8831064453125,0.30587445965409277,1.2048343469396232,-0.8863567916262894
1782952317902034400,6.893034423828125,0.1966296565592289,1.1726762906566262,-1.000666915286705
1782952317911961600,6.902961669921875,-0.13798925154209135,1.0760849251687525,-1.01881310509108
1782952317921888300,6.91288818359375,-0.6008166064053774,0.971859265410155,-1.0119948033783583
1782952317931815400,6.9228154296875,-0.9817138660788536,0.9709542793944478,-1.0362166598346083
1782952317941742300,6.932742431640625,-1.1316793866187334,1.1422064797215163,-1.0471316562764346
1782952317951670500,6.94267041015625,-0.9007184213906526,1.4310324816800652,-1.0021695018693804
1782952317961597400,6.952597412109375,-0.4051695311427116,1.728537172395736,-0.8711649946480989
1782952317971524400,6.9625244140625,0.17783610876202582,1.879914751690626,-0.6490376164779067
1782952317981451500,6.972451416015625,0.7128712062239646,1.9352384333752095,-0.5187347547199577
1782952317991379500,6.98237939453125,1.1777969946712255,1.979497554079443,-0.5295673335753381
1782952318001306600,6.992306640625,1.3580436717063187,1.8466472728610037,-0.570447479365766
1782952318011233500,7.002233642578125,1.3661720331043004,1.6264936789818107,-0.7284658849146217
1782952318021160400,7.012160400390625,1.161809151944518,1.3600789769262074,-0.9696598556697368
1782952318031088400,7.02208837890625,0.9308066856622695,1.1783522904664276,-1.2182156604297458
1782952318041015300,7.032015380859375,0.640004707455635,1.2075703477747737,-1.2205112970862537
1782952318050942500,7.0419423828125,0.3654132748156786,1.2635199062727391,-1.174997573211044
1782952318060869400,7.051869384765625,0.13737491903603077,1.2861677914105354,-1.1917358689788728
1782952318070797600,7.061797607421875,0.042572482791543007,1.3947136524558066,-1.1499943571187554
1782952318080724500,7.071724365234375,0.06120411802530289,1.5695307056576013,-0.9140199476428329
1782952318090651400,7.0816513671875,0.16402268746495247,1.7322795737944543,-0.5967360590934753
1782952318100578600,7.09157861328125,0.22975042039453983,1.778750525329262,-0.32149997187443075
1782952318110506500,7.101506591796875,0.22195991264879703,1.6143578355081378,-0.3292396262157708
1782952318120433700,7.11143359375,0.21874738034307956,1.2656054803751409,-0.5285517998572439
1782952318130360300,7.1213603515625,0.21889935603439806,0.9452044827185571,-0.7366878428801894
1782952318140287500,7.13128759765625,0.33553426938056946,0.6567883767351508,-0.9255516146782785
1782952318150215400,7.14121533203125,0.4136269783645868,0.36409327825829385,-0.8442243807524442
1782952318160142300,7.151142333984375,0.30825463278889653,0.04475508752763271,-0.5870233511134981
1782952318170069500,7.161069580078125,0.15685644909739493,-0.19939327605366705,-0.33249577846750616
1782952318179996400,7.170996337890625,-0.04455868817269802,-0.35135187010690566,-0.16743812193162738
1782952318189923600,7.180923583984375,-0.39684477038979526,-0.4046799940600991,-0.023367504649236797
1782952318199851500,7.1908515625,-0.6524626224905252,-0.3641936698928475,0.03185987705402076
1782952318209778400,7.2007783203125,-0.8039660201221704,-0.2611673029214144,0.02273687859550118
1782952318219705300,7.210705322265625,-1.0525614262402057,-0.2287193237811327,0.03671045889034867
1782952318229632300,7.22063232421875,-1.1598398976981639,-0.24181758254617453,0.0021492139231413603
1782952318239560400,7.230560546875,-0.9120160604745149,-0.39416656415648754,-0.21553243688456714
1782952318249487400,7.2404873046875,-0.7325900521725416,-0.5225311513282358,-0.2581291042692959
1782952318259414500,7.25041455078125,-0.7196656886696815,-0.5524563339926302,0.011110519013926385
1782952318269341400,7.260341552734375,-0.7471937470644712,-0.6626135026920587,0.4088776649456471
1782952318279269400,7.270269287109375,-0.9996481666982173,-0.7933758717205375,0.7232751844037324
1782952318289196500,7.280196533203125,-1.2911965793579816,-0.7990878196265548,0.957763520040363
1782952318299123500,7.29012353515625,-1.3591326359868048,-0.6961456968724727,1.0863603815980254
1782952318309050600,7.300050537109375,-1.2182003167301416,-0.6371649539850652,1.0988918002605437
1782952318318978600,7.309978515625,-0.8687690394222736,-0.5949672958552837,1.129215480723232
1782952318328905500,7.319905517578125,-0.41361178079545496,-0.6005222996339201,1.1695317820858209
1782952318338832400,7.329832275390625,0.201338564902544,-0.6481535271197557,1.32752987549901
1782952318348759300,7.33975927734375,0.3877677299648523,-0.7380680451922118,1.3381556066706777
1782952318358687500,7.3496875,0.22125673281550406,-0.9095067080020904,1.0862496146999299
1782952318368614400,7.359614501953125,0.25974749925136564,-1.0389216079443693,0.9001534079190343
1782952318378541600,7.36954150390625,0.20600304958224294,-1.1350244592629373,0.7923428023457527
1782952318388468500,7.379468505859375,0.08998714491724967,-1.1319370146416128,0.8678734788220376
1782952318398396400,7.389396484375,0.08148878116309642,-1.1323659075781702,1.00704280699417
1782952318408323600,7.399323486328125,0.32129823875725266,-1.0497243031181394,1.0704056374233215
1782952318418250500,7.40925048828125,0.6760358057796955,-0.8766713369794189,1.1589289933983236
1782952318428177400,7.419177490234375,0.94488664894104,-0.7114861816063522,1.0993698661010711
1782952318438105300,7.429105224609375,1.0752484743446111,-0.5421466830328107,1.0622370170801878
1782952318448032300,7.4390322265625,0.955365957379341,-0.44411023330315946,1.1382074001479894
1782952318457959400,7.44895947265625,0.4781003273189068,-0.49314884336888787,1.2819362913206218
1782952318467886300,7.45888623046875,-0.24754385123848913,-0.5841979184292256,1.304325525522232
1782952318477813500,7.4688134765625,-0.9147147980391979,-0.5785252796202898,1.1952733223900198
1782952318487741400,7.478741455078125,-1.1873042432069778,-0.47509829595871267,1.005168610620126
1782952318497668600,7.488668701171875,-0.9275187500327825,-0.3705054833881557,0.8436557870842516
1782952318507595500,7.498595458984375,-0.376098919481039,-0.3220651314765215,0.7385195152867585
1782952318517522700,7.508522705078125,0.18721183987259862,-0.31671310292407867,0.7507721170078963
1782952318527450600,7.51845068359375,0.6283318053185939,-0.3737495798759162,0.6807022632207721
1782952318537377300,7.528377197265625,0.943006826543808,-0.4615684408433735,0.5393185469347983
1782952318547304400,7.538304443359375,1.0733008474081753,-0.5620742032960057,0.46337724383100865
1782952318557231400,7.5482314453125,1.0417600462406873,-0.6574966711349784,0.4431398539010435
1782952318567159300,7.5581591796875,0.9862433262020349,-0.6610621085315942,0.46746546299271285
1782952318577086500,7.56808642578125,0.7283411625564098,-0.5508977063737809,0.7449347891565412
1782952318587013400,7.578013427734375,0.2906587703436613,-0.3499168688677251,1.1099806919645518
1782952318596940500,7.5879404296875,-0.1468926889657974,-0.0881254426985979,1.3996972860872745
1782952318606868500,7.597868408203125,-0.5205079749375582,0.17581775467693805,1.5426257475972174
1782952318616795600,7.607795654296875,-0.7913438544362783,0.32002675751671195,1.508990166107565
1782952318626722600,7.61772265625,-0.800453043565154,0.374983651715517,1.412385795007646
1782952318636649500,7.6276494140625,-0.5103600904107094,0.3195281603448093,1.2611907326728105
1782952318646577400,7.637577392578125,-0.13394728267490863,0.1635261361196637,1.1362774549987167
1782952318656504300,7.64750439453125,0.11486731915175914,-0.06038257250934839,1.1292767093911766
1782952318666431500,7.657431396484375,0.22231471743583678,-0.23443083329573272,1.044577587879449
1782952318676358400,7.6673583984375,0.22922961139082906,-0.24810411546975372,0.901834858199954
1782952318686286300,7.677286376953125,0.22871990830302238,-0.20850743361860513,0.7992902103308588
1782952318696213500,7.687213623046875,0.2802764925390482,-0.20545082252696156,0.8008045604165643
1782952318706140400,7.697140380859375,0.3804775729566812,-0.23828590128868818,0.7690235938176512
1782952318716067600,7.707067626953125,0.4541764308959245,-0.2519403326317668,0.7442802707705646
1782952318725995500,7.71699560546875,0.5038000012427568,-0.2955823443509638,0.7115422957077622
1782952318735922700,7.726922607421875,0.5311269841074944,-0.2692868964910507,0.7009554352417587
1782952318745849300,7.736849365234375,0.497525743278861,-0.2741806598819792,0.6584009995635598
1782952318755775500,7.746775390625,0.4116413575053215,-0.3014753479123115,0.6630974137514829
1782952318765702100,7.7567021484375,0.4269721976280212,-0.2025517400845885,0.6631630263336002
1782952318775630300,7.76663037109375,0.47913434654176235,-0.0590628682129085,0.6320575478434562
1782952318785557200,7.77655712890625,0.3619184184372425,-0.04568915350735187,0.5026430132273584
1782952318795484400,7.786484375,0.25674539482593534,-0.14505597505792975,0.21065781658552585
1782952318805411300,7.796411376953125,0.005747019219398498,-0.2702000658132136,-0.13885273650363086
1782952318815339300,7.80633935546875,-0.36748072873950005,-0.404691392236948,-0.4849527504969388
1782952318825266400,7.816266357421875,-0.8480167587727307,-0.5050305659510195,-0.7519394072216004
1782952318835193300,7.826193359375,-1.3018909918516874,-0.4950862411722541,-0.9059007924646139
1782952318845120500,7.83612060546875,-1.5804963363081217,-0.31585780126899476,-0.8575290488097816
1782952318855048400,7.84604833984375,-1.666670060417056,-0.0959767407208681,-0.6701425830226391
1782952318864975400,7.855975341796875,-1.5999708521068094,0.1076753618210554,-0.4890438922680914
1782952318874902300,7.86590234375,-1.3610405154347418,0.2938796320863068,-0.33321430200040336
1782952318884829200,7.8758291015625,-0.9604957214832305,0.4548609060287475,-0.20430968966782093
1782952318894757400,7.88575732421875,-0.4961947869360447,0.6046048927724361,-0.04349332396350801
1782952318904684300,7.895684326171875,0.005799626189470291,0.7134297168895601,0.02458141048364341
1782952318914611500,7.905611572265625,0.5542845723330975,0.8057280613586306,0.001319265905022621
1782952318924538400,7.915538330078125,1.0889964291900396,0.8841394809029995,-0.012389233712852001
1782952318934466300,7.92546630859375,1.316792792907357,0.9144736827597022,-0.06904284882694482
1782952318944393500,7.9353935546875,1.1874252392381428,0.9780565126150846,-0.09896678938232362
1782952318954320400,7.9453203125,0.8464262747108936,1.0129666440851985,-0.014707739788293837
1782952318964247300,7.955247314453125,0.5441875412106514,1.1056949044041335,-0.025219050800055265
1782952318974175500,7.965175537109375,0.34711130992770195,1.167598987392336,-0.20887955486662685
1782952318984102100,7.97510205078125,0.26297113747298717,1.172591681113094,-0.4854124769631773
1782952318994029300,7.985029296875,0.19232757545113563,1.1934822011895476,-0.7791057196319103
1782952319003956200,7.994956298828125,0.0730938777834177,1.1961305237412452,-1.1307694321669637
1782952319013883400,8.00488330078125,-0.09843056361377239,1.1017726163938641,-1.4806667195513843
1782952319023811300,8.014811279296875,-0.4389344381004572,1.0004564143411814,-1.688482956035435
1782952319033738500,8.024738525390624,-0.9310504312902689,0.967738532218337,-1.776621550476551
1782952319043665400,8.03466552734375,-1.4643968450129032,1.0883175070151685,-1.830479105131328
1782952319053593300,8.04459326171875,-1.7755775943815708,1.2938751509174704,-1.7807823234178124
1782952319063520500,8.0545205078125,-1.710462440392375,1.4721363532237708,-1.6068775627553462
1782952319073447200,8.064447265625,-1.1894681432425975,1.6834917236194014,-1.3929993958838283
1782952319083374300,8.074374267578126,-0.3047492550164461,1.7946284779407082,-1.263672320355475
1782952319093301200,8.08430126953125,0.6992804877668619,1.8130436939448118,-1.1558009245056657
1782952319103229200,8.094229248046876,1.5431231757253407,1.789388239199668,-1.1256598340682684
1782952319113156400,8.10415625,2.0711235522449014,1.7295171233437954,-1.1821575279682874
1782952319123083300,8.114083251953126,2.181618647661805,1.6344775173425674,-1.3217876785852014
1782952319133010400,8.124010498046875,1.9091893614917992,1.5374259869970381,-1.4603111831344664
1782952319142938400,8.1339384765625,1.2069056002557277,1.4446741996720431,-1.4715040466696023
1782952319152865500,8.143865478515625,0.47433249921798704,1.448263894727081,-1.4119202233225105
1782952319162792400,8.15379248046875,-0.05306172810196876,1.5474802018910645,-1.4055179550647734
1782952319172719400,8.16371923828125,-0.30444296554625033,1.6048020716555416,-1.4239528986826537
1782952319182647300,8.173647216796875,-0.3093272304564714,1.637222578267008,-1.3897513538733124
1782952319192574200,8.18357421875,-0.1705956361144781,1.6631322416797278,-1.3446063902452587
1782952319202501400,8.19350146484375,0.0059784898877143855,1.7018831203565001,-1.262133566480875
1782952319212428300,8.20342822265625,0.1864163055807352,1.7650753434590993,-1.195169423624128
1782952319222356200,8.213356201171875,0.3434691540330648,1.826681758674979,-1.0945379889652131
1782952319232283400,8.223283447265626,0.4556295523136854,1.8824296571210026,-0.9216107680980116
1782952319242210300,8.233210205078125,0.5866887123316527,1.867332479623705,-0.7206472470529377
1782952319252137500,8.243137451171876,0.7418155611574649,1.8042378716766834,-0.5712718744259327
1782952319262065400,8.2530654296875,0.8416559915691614,1.6404349644422531,-0.5463879738643765
1782952319271992300,8.262992431640624,0.9856564662247895,1.3931569245330988,-0.5922997571464628
1782952319281919200,8.272919189453125,1.1521060885757206,1.18033411193341,-0.585145939869061
1782952319291846400,8.282846435546874,1.2373784799307583,1.0827915832005441,-0.4441548761624843
1782952319301774300,8.2927744140625,1.3028536994040012,1.0353707835949957,-0.24534809475988148
1782952319311701200,8.302701171875,1.3680781589865683,0.8895486464701592,-0.04313033587001264
1782952319321628400,8.31262841796875,1.3271820849746465,0.582293984504044,0.09013554041199386
1782952319331555300,8.322555419921875,1.0240700757712125,0.24999665121808648,0.2095367766663432
1782952319341482500,8.332482421875,0.5099146847307682,-0.0654930473908782,0.24634280488565563
1782952319351410400,8.342410400390625,-0.054019759479165076,-0.34802184890136123,0.19957542768754064
1782952319361337300,8.35233740234375,-0.5389262596815824,-0.5959409631930291,0.17906630814410746
1782952319371264300,8.36226416015625,-0.8660206174969672,-0.79314520476982,0.1898491295736283
1782952319381191200,8.372191162109376,-1.082208961006999,-0.9580117957130074,0.21598872928470372
1782952319391119400,8.382119384765625,-1.3013742745012045,-1.1406092005927115,0.3041105187214911
1782952319401046300,8.39204638671875,-1.5395435636729,-1.328071581160277,0.3596840104486793
1782952319410973200,8.40197314453125,-1.6754115852773188,-1.4434683310136198,0.4287787355933338
1782952319420900400,8.411900390625,-1.7946137187629938,-1.5770732299916446,0.5164045582067222
1782952319430828300,8.421828369140625,-1.8570418256253003,-1.6949340318709611,0.5604205908700823
1782952319440755500,8.43175537109375,-1.761399431425333,-1.7443658790379761,0.6549033667061478
1782952319450682400,8.441682373046875,-1.4411281976282595,-1.679255839615315,0.7986930481553077
1782952319460609500,8.451609619140624,-0.9640776716232299,-1.5725063604675233,1.001152141520381
1782952319470537500,8.461537353515626,-0.4702227258116007,-1.554097135812789,1.1407606648273765
1782952319480464100,8.471464111328125,-0.0730108756750822,-1.6474107948042451,1.202251198578626
1782952319490391300,8.481391357421876,0.2053518921971321,-1.7494620331332087,1.2613888855934143
1782952319500318200,8.491318115234375,0.37083413082063194,-1.8131909934610126,1.305142394863069
1782952319510246400,8.501246337890626,0.40803076579272746,-1.8729945970386266,1.2786821118302643
1782952319520173300,8.51117333984375,0.40027065318524835,-1.8765192640334367,1.229421383446455
1782952319530100200,8.521100341796876,0.39045828422307965,-1.815365122629702,1.2530756691478193
1782952319540027400,8.53102734375,0.46042730798423287,-1.7083130072735249,1.3358432380750775
1782952319549955300,8.540955322265624,0.5302572155356406,-1.6926159641869365,1.3569536845125256
1782952319559882500,8.550882568359375,0.5408247867792845,-1.704479274329543,1.302617990951985
1782952319569809400,8.560809326171874,0.49978492038249966,-1.67630473472476,1.2477481905147432
1782952319579736300,8.570736328125,0.26054537163078784,-1.6130875233113764,1.1876999645262956
1782952319589664300,8.580664306640625,-0.0636170243859291,-1.4668429229907691,1.208911679381132
1782952319599591200,8.590591064453125,-0.4679588725328445,-1.3611866459071635,1.1711810836628078
1782952319609518300,8.600518310546875,-0.910305749425292,-1.3311603409558534,1.142371753285825
1782952319619445200,8.6104453125,-1.3047685931146145,-1.3232974986262618,1.1927636776566504
1782952319629372400,8.620372314453125,-1.5737363406538962,-1.2301507206343114,1.2069291272617875
1782952319639300400,8.63030029296875,-1.5981412985920904,-1.077687318864092,1.2234610137373207
1782952319649227300,8.640227294921875,-1.318773737591505,-0.9024938335653394,1.2242924961254
1782952319659154400,8.650154541015626,-0.722361503624916,-0.7964864049565047,1.1228479915179312
1782952319669081300,8.660081298828125,0.0424725295484066,-0.7202404198177158,1.0027150069229305
1782952319679009500,8.670009521484374,0.7165005026370287,-0.7930251585867255,0.8293491023775189
1782952319688936200,8.679936279296875,1.1528519385069609,-0.9792853237576782,0.5940124062832445
1782952319698863400,8.68986328125,1.218220190474391,-1.1655318987946957,0.42241230583395806
1782952319708790300,8.699790283203125,0.9781488670736551,-1.2177874981455503,0.41493572287559505
1782952319718718200,8.70971826171875,0.6567430762887001,-1.1080043503902852,0.5428796734824777
1782952319728645400,8.719645263671875,0.13699614885151384,-0.8207402639862149,0.8219811308927834
1782952319738572300,8.729572265625,-0.38435003047585486,-0.5444900312885642,0.9216627174809574
1782952319748499500,8.73949951171875,-0.429117392963171,-0.38867045095823705,0.802226117652282
1782952319758428400,8.749428466796875,-0.2291062772721052,-0.17103212783560157,0.8095672011300921
1782952319768355300,8.759355224609376,-0.02886661352217197,0.015137363377213477,0.8874345038603991
1782952319778282500,8.769282470703125,0.16509060895740985,0.16804054480418562,0.88501991699934
1782952319788209200,8.779209228515626,0.28581249935626984,0.2713334537573159,0.9231794056542217
1782952319798137000,8.78913720703125,0.2893289830446243,0.2185121833477169,0.9615976913757621
1782952319808064300,8.799064208984374,0.3194546567171812,0.15781798760592936,0.9302664413057267
1782952319817991200,8.8089912109375,0.39025779321491716,0.13543664444983006,0.7385808170199394
1782952319827918300,8.81891845703125,0.47205695550143717,0.11233838519603014,0.531556607696414
1782952319837846300,8.82884619140625,0.5009668236434459,0.08128302945792674,0.40102183687873183
1782952319847773400,8.8387734375,0.4734978019595146,0.13492562618777154,0.2937319307113066
1782952319857700400,8.848700439453125,0.37530455423295495,0.17775719830691813,0.24762970289103686
1782952319867627300,8.858627197265625,0.2122235315322876,0.2211111868649721,0.24618228056170044
1782952319877555500,8.868555419921876,0.07769757218658924,0.2898974305823445,0.16079868391714988
1782952319887482400,8.878482421875,-0.010479308438301086,0.35483795865699647,0.13786365240104495
1782952319897409300,8.8884091796875,0.006278349617123604,0.3868400937259197,0.13067476381026208
1782952319907336200,8.898336181640625,-0.38166590595841404,0.5110482188053429,0.25866518390737475
1782952319917264100,8.90826416015625,-0.47921559508442874,0.6357865052387118,0.23451507751308381
1782952319927191300,8.91819140625,-0.6416875459760427,0.7046176110111176,0.2923227580331266
1782952319937118200,8.9281181640625,-0.8745090443789958,0.7350104111872613,0.33284276527427137
1782952319947045400,8.93804541015625,-0.8751052567064762,0.7888647509716451,0.2912961183991283
1782952319956972300,8.94797216796875,-0.7506137846410275,0.8189918859489261,0.2318418397158384
1782952319966900200,8.957900146484375,-0.4579804993540048,0.7382479318037629,0.1374872203040868
1782952319976827400,8.967827392578124,-0.14935586420893668,0.6497312978304922,0.016235168551281095
1782952319986754300,8.97775439453125,0.1260018766283989,0.5773784476727247,-0.1275824238181114
1782952319996681200,8.98768115234375,0.2838368153691292,0.5047137550868094,-0.24763927443698047
1782952320006609200,8.997609130859376,0.3029232086330652,0.47542979293540116,-0.2957300091933459
1782952320016536300,9.007536376953125,0.16755144611299036,0.4650367014758289,-0.2836703727610409
1782952320026463200,9.017463134765626,-0.02208499055802822,0.48099721780419347,-0.15884974180646239
1782952320036390400,9.027390380859375,-0.2584270643025636,0.5402990093395114,0.18208580209575592
1782952320046318300,9.037318359375,-0.5573281778126955,0.6973240930020809,0.5236679002732039
1782952320056245200,9.047245361328125,-0.7534533919811248,0.9601716040953994,0.6005062252819537
1782952320066172400,9.05717236328125,-0.7193558920681477,1.157238629158586,0.4912423521604389
1782952320076099300,9.067099365234375,-0.4905547352224588,1.084553186045587,0.2996184679992497
1782952320086027300,9.07702734375,-0.14690847105681895,0.8407173955447972,0.08302585453726351
1782952320095954200,9.0869541015625,0.15037702395021915,0.6505874762684106,-0.13281886316686867
1782952320105881000,9.096881103515624,0.3005710925489664,0.5672451761931181,-0.3899981924306601
1782952320115808300,9.106808349609375,0.3960726169735193,0.5695879399269819,-0.6960566303495317
1782952320125736200,9.116736083984375,0.417017205324769,0.6717275871917605,-0.96360910426341
1782952320135663400,9.126663330078125,0.32860242429077624,0.7984272368259727,-1.167865456308797
1782952320145590300,9.13659033203125,0.12757131790220735,0.9067430885076523,-1.4221205686889589
1782952320155517400,9.146517333984375,-0.21865911753773687,1.0627402904272079,-1.5731002347074448
1782952320165445400,9.1564453125,-0.7159136426597833,1.2197710731782019,-1.5241462341852485
1782952320175372300,9.166372314453126,-1.3600199402153492,1.3294060446344316,-1.3253342651508748
1782952320185299500,9.176299560546875,-1.8612690879315137,1.5049940822087227,-1.019691349230334
1782952320195226000,9.18622607421875,-1.9455887086063621,1.7313744416482746,-0.7517449075628072
1782952320205154300,9.196154296875,-1.413810567113757,1.979309338030964,-0.6446358013223856
1782952320215081200,9.206081298828124,-0.34229309599101543,2.083194806049764,-0.5729866424545645
1782952320225008000,9.216008056640625,0.854596137163043,2.017315681950748,-0.5142918038364499
1782952320234935300,9.225935302734374,1.903876642036438,1.8975148519195615,-0.4691739474110305
1782952320244863200,9.23586328125,2.6038153014510868,1.7670513197071849,-0.5780361078638583
1782952320254790400,9.245790283203124,2.901562568750977,1.611340971904993,-0.777725590385124
1782952320264717300,9.25571728515625,2.790928941646218,1.4646446822941301,-0.9348606372281908
1782952320274644500,9.26564453125,2.2842314653962847,1.319553197531402,-1.0253121847867965
1782952320284571400,9.2755712890625,1.4340174888402222,1.2442998036265374,-1.0391901957526803
1782952320294499300,9.285499267578125,0.5819102458834647,1.2442400362633168,-1.0904468471940607
1782952320304426200,9.29542626953125,-0.11196809057891369,1.2513956071063876,-1.1867155565988272
1782952320314353200,9.305353271484375,-0.4899368955850601,1.2511207356877625,-1.3412272692009806
1782952320324280300,9.3152802734375,-0.4797492635697126,1.1538410956747829,-1.461302970650792
1782952320334208300,9.325208251953125,-0.26587328865528104,0.9476280566036701,-1.535526436986029
1782952320344135200,9.33513525390625,-0.039810032340884205,0.6614836949445306,-1.3782937019221484
1782952320354062300,9.345062255859375,0.1300713180243969,0.42974955338686704,-1.2100582921329885
1782952320363989200,9.3549892578125,0.24716625009775162,0.28160554918572306,-1.0952201990757138
1782952320373917400,9.36491748046875,0.19043840070366858,0.20277005901038644,-0.9771195970911533
1782952320383844400,9.37484423828125,0.047259763824939724,0.1227837913647294,-0.7987661133915186
1782952320393771500,9.384771484375,-0.19091010986864565,0.015072189186513422,-0.5723934988670051
1782952320403698200,9.3946982421875,-0.46373570187985896,-0.02017806095816195,-0.3342379094270989
1782952320413626000,9.404626220703125,-0.6998936512291432,0.06223273042067885,-0.11747253321409225
1782952320423553300,9.41455322265625,-0.8331406766802072,0.16222199471853674,-0.060689994490705425
1782952320433480200,9.424480224609376,-0.7537754635423422,0.2814655561931431,-0.04802961568627506
1782952320443407400,9.434407470703125,-0.626065613952279,0.36581951752901076,-0.10435560628119855
1782952320453335300,9.444335205078126,-0.6244236919641495,0.3502915473990142,-0.21904716700725257
1782952320463262200,9.45426220703125,-0.6729267338484525,0.24756715904884039,-0.2897650729069486
1782952320473189400,9.464189453125,-0.6380062271147966,0.09458419038392603,-0.39464601823650297
1782952320483116300,9.4741162109375,-0.5534954677820205,-0.08497516197413206,-0.5506396399594843
1782952320493044500,9.48404443359375,-0.5099252061247825,-0.23593707314021883,-0.6418192095316946
1782952320502971400,9.493971435546875,-0.5486725776702165,-0.3917520503606647,-0.6573197071328759
1782952320512898300,9.503898193359374,-0.5750006126254796,-0.5041931652788072,-0.6780867469601333
1782952320522825200,9.5138251953125,-0.5806891796559095,-0.5293289217095821,-0.7151178891722112
1782952320532753200,9.523753173828124,-0.5551894122183323,-0.519038486906886,-0.7214381051696837
1782952320542680300,9.533680419921875,-0.48565118108987804,-0.5120408831045031,-0.48726950300671157
1782952320552607200,9.543607177734375,-0.5709224034011363,-0.4539204103082418,-0.11589432411193847
1782952320562534400,9.553534423828125,-0.7379039406716823,-0.35605025705620647,0.14499708447754384
1782952320572461300,9.56346142578125,-0.6582979045152664,-0.1790274374384433,0.19567038307301698
1782952320582389200,9.57338916015625,-0.3514923014909029,-0.06936513958387076,0.2703831672951579
1782952320592316400,9.58331640625,0.05073416193723678,-0.08701207462921738,0.45205264367498454
1782952320602243000,9.5932431640625,0.3823316763907671,-0.20113361691497264,0.6900230492737144
1782952320612170200,9.603170166015625,0.572429885354638,-0.2880171697936952,0.8708961145788431
1782952320622098200,9.61309814453125,0.6460317126601934,-0.3562235677964985,0.9874885039575397
1782952320632025300,9.623025390625,0.6550713436841964,-0.39766419701389966,1.08420970637016
1782952320641952300,9.6329521484375,0.5726718774169683,-0.41234278377294536,1.1940407118551433
1782952320651879400,9.64287939453125,0.49822483145892615,-0.4796968027301132,1.2212214911822228
1782952320661807400,9.652807373046874,0.3970663041859865,-0.6064712711662054,1.1450571199122817
1782952320671734300,9.662734375,0.2780149773478508,-0.7826868660543114,1.0015882679153234
1782952320681661400,9.672661376953124,0.13483166429400442,-0.9378203638166188,0.844117559377104
1782952320691588400,9.68258837890625,0.18178513864874837,-1.046624729667604,0.7398292827110737
1782952320701516300,9.692516357421875,0.37865854083597655,-1.0796487551301717,0.6629908115718514
1782952320711444500,9.702444580078126,0.5810942533254623,-1.0620517967063934,0.5854760486062616
1782952320721371400,9.712371337890625,0.6805097363233565,-1.1137675900921225,0.5580520351078361
1782952320731298300,9.72229833984375,0.5912146653234959,-1.191433744227141,0.6328048590794205
1782952320741226200,9.732226318359375,0.25378654502034187,-1.2574724428020416,0.7356993432994932
1782952320751153200,9.742153076171874,-0.23888240587711332,-1.250717123322934,0.7695067011594772
1782952320761079800,9.752079833984375,-0.6659189009130001,-1.1491290455263108,0.7951338943690061
1782952320771006500,9.76200634765625,-0.8224369118362664,-1.0186033347979186,0.9660603698730468
1782952320780934700,9.7719345703125,-0.7066285124421119,-0.9045824033424258,1.1684572847221046
1782952320790861600,9.781861572265624,-0.34388241100907324,-0.8866706798810511,1.2659984252154826
1782952320800788700,9.791788818359375,0.1899836426734924,-0.9726633483346551,1.3254545305296779
1782952320810715600,9.801715576171874,0.6942939315259457,-1.1051455268930643,1.35060943005234
1782952320820642800,9.811642822265625,1.0410697258889674,-1.2363681338444352,1.3154945697903633
1782952320830570800,9.82157080078125,1.0887187812924384,-1.3508522988975047,1.2231184839099645
1782952320840497700,9.83149755859375,0.8679811039149761,-1.3635598047792912,1.2050041505485773
1782952320850424800,9.8414248046875,0.49764615478813645,-1.2014826984241604,1.2924533014208077
1782952320860351500,9.8513515625,0.11373802286088466,-0.9889261355452239,1.4125849708415568
1782952320870279400,9.861279541015625,-0.18309855933487415,-0.7808491292331368,1.5042742435015737
1782952320880206600,9.87120654296875,-0.37787586602568624,-0.6104205933138728,1.5527959900863468
1782952320890133500,9.881133544921875,-0.44528760651946064,-0.4654399485144764,1.5401333462595939
1782952320900060700,9.891060791015626,-0.41060616923868654,-0.40183753717578946,1.4924715775050221
1782952320909988600,9.900988525390625,-0.388590736785531,-0.35501492265909906,1.469258167438954
1782952320919915800,9.910915771484374,-0.3550239827483892,-0.30638956956937907,1.3156494680911301
1782952320929842700,9.9208427734375,-0.25948154179155825,-0.26512531983219084,1.0952826698526739
1782952320939769900,9.930769775390624,-0.06207330207526683,-0.23870083876512943,0.9306738530628382
1782952320949697800,9.94069775390625,0.23519231918752193,-0.22259674924761055,0.7776567629326134
1782952320959624700,9.950624755859375,0.5801724623054265,-0.2130539910070598,0.6900979411408305
1782952320969551600,9.960551513671875,0.8684095584601164,-0.2133434754729271,0.6360396762821823
1782952320979478500,9.970478515625,1.0550210943520069,-0.18225129485577343,0.5916457867497578
1782952320989406500,9.980406494140626,1.0141875641822815,-0.12674173521026968,0.5383845540203154
1782952320999333600,9.990333740234375,0.7520593072742223,-0.004283230277150869,0.4207979294398799
1782952321009260500,10.000260498046876,0.4329372435122728,0.14534677469804883,0.25637816894873977
1782952321019187700,10.010187744140625,-0.23176994352340696,0.3363023311436176,0.1706388176690787
1782952321029115600,10.02011572265625,-0.5119201793342828,0.40716070495992895,0.010832359659671782
1782952321039042800,10.030042724609375,-0.7386924607008695,0.3441496836431324,-0.0027141908621415496
1782952321048969700,10.0399697265625,-1.0880471656411885,0.2525229548253119,0.014516016608476639
1782952321058897000,10.04989697265625,-1.3750859919220209,0.26802359855696556,-0.09443060725741088
1782952321068824800,10.059824951171874,-1.5162550425440071,0.2992961041770875,-0.1688540531441569
1782952321078751500,10.06975146484375,-1.4956535685420036,0.287768601860106,-0.13103497542478143
1782952321088678700,10.0796787109375,-1.4308447040230035,0.2958763588614762,-0.04223272944316268
1782952321098605600,10.08960546875,-1.3354799577206373,0.3484032494343817,0.08734897843338549
1782952321108532700,10.09953271484375,-1.1319389143377543,0.4354951113015413,0.2638651271706447
1782952321118460700,10.109460693359376,-0.7365846747666597,0.5051483471117914,0.37914369400441644
1782952321128387600,10.1193876953125,-0.26487083361446856,0.48586701579764485,0.4407650145284831
1782952321138314800,10.129314697265626,0.09194880037903785,0.3696139413759112,0.46531796610262244
1782952321148241700,10.13924169921875,0.19912381146252153,0.22908085056990385,0.5153056570541114
1782952321158169900,10.149169921875,0.11250059002041816,0.26822321278229355,0.551837982898578
1782952321168096800,10.1590966796875,-0.04436111977398395,0.46885085293650625,0.5261166816648095
1782952321178023700,10.169023681640626,-0.16152210282087326,0.7395666131868958,0.48572855717502533
1782952321187950600,10.17895068359375,-0.11252338637411594,0.8837104418359696,0.29326153672058136
1782952321197878500,10.18887841796875,0.1617114879131317,0.8653959097273647,-0.07983283064961433
1782952321207805700,10.1988056640625,0.4274433222711086,0.7715982666112482,-0.36106545486971736
1782952321217732600,10.208732666015624,0.5538567023098468,0.7116276359036564,-0.5281396388597787
1782952321227659800,10.21865966796875,0.5039864637255669,0.7076205922193824,-0.670007047009468
1782952321237587700,10.228587646484375,0.4487678498506546,0.7197698796965182,-0.822016713662818
1782952321247514600,10.2385146484375,0.37203999947905536,0.7715645104721188,-0.8962190641447901
1782952321257441800,10.24844189453125,0.2752694780319929,0.8853469569966197,-0.9565320054840296
1782952321267368400,10.258368408203125,0.17540742031037806,1.0536264251232146,-0.9569451163295656
1782952321277297000,10.268296875,0.04776712882518768,1.1880923248447477,-1.0949217275857925
1782952321287223600,10.2782236328125,-0.15896774216294288,1.310957510882616,-1.1564175950992852
1782952321297150700,10.288150634765625,-0.37106034079194067,1.3657063152886926,-1.2257395531285553
1782952321307077600,10.29807763671875,-0.6417682099968195,1.3902902830556034,-1.2788145060382783
1782952321317005600,10.308005615234375,-0.8596388075053691,1.4511555245153605,-1.2702166274324058
1782952321326932700,10.3179326171875,-0.7724754878371953,1.5637679043471813,-1.2141408122062682
1782952321336859600,10.327859619140625,-0.46127311115860936,1.663170673993975,-1.1365348638258874
1782952321346786800,10.337786865234374,0.11257482430040835,1.6379484083235263,-1.2379027960658073
1782952321356714800,10.34771484375,0.797146403235197,1.64313574783355,-1.3050816045865417
1782952321366641700,10.3576416015625,1.4321242224395274,1.6930321437723934,-1.1881627597324549
1782952321376568600,10.367568603515625,1.9984815098822115,1.6845412326723337,-1.18736532574445
1782952321386495500,10.37749560546875,2.37547650142014,1.5623263272367416,-1.3181515140399336
1782952321396423700,10.387423583984376,2.3788982925623654,1.5043882252700627,-1.4009543004110454
1782952321406350600,10.3973505859375,1.9674206011861561,1.5289491044223307,-1.3734995995134114
1782952321416277800,10.40727783203125,1.2548036619842051,1.5749588681861757,-1.3729077711001039
1782952321426204700,10.41720458984375,0.44336628306806086,1.666093721833825,-1.3430942321166395
1782952321436132600,10.427132568359376,-0.3762970724016428,1.6801565878473221,-1.328035194672644
1782952321446059800,10.437059814453125,-0.8686410291284322,1.6634340011052786,-1.285764909698069
1782952321455986700,10.446986572265626,-0.8130588426381349,1.6043611960202455,-1.3195429683983326
1782952321465913900,10.456913818359375,-0.4274041593044996,1.3503216991521416,-1.3074423423685133
1782952321475841800,10.466841796875,0.11576046859920024,1.453980957199633,-1.5334316566638648
1782952321485768400,10.4767685546875,0.4594447266876697,1.3705465949267148,-1.6940642632991074
1782952321495695600,10.486695556640624,0.655838820925355,1.0724382392294705,-1.5617200319066642
1782952321505622500,10.49662255859375,0.7449895150184631,0.82005717709288,-1.3971372263409196
1782952321515549700,10.5065498046875,0.7692156092584133,0.6211033153697848,-1.313602910824865
1782952321525477600,10.5164775390625,0.7511679113924503,0.5232623882122337,-1.2904761561289428
1782952321535404800,10.52640478515625,0.704634708276391,0.5323053802371025,-1.1021239871148019
1782952321545331700,10.536331787109376,0.6514806257158517,0.5314486172772943,-0.9428125460807234
1782952321555258600,10.546258544921875,0.5373083030909299,0.4859551324725151,-0.830343739438057
1782952321565186800,10.556186767578126,0.19827333211302756,0.4292209994681179,-0.732554177141562
1782952321575113700,10.56611376953125,-0.1113093344092369,0.41536841520443557,-0.6935819107990712
1782952321585040600,10.57604052734375,-0.2752262234121561,0.4996858439221978,-0.6635599166966974
1782952321594967600,10.585967529296875,-0.29100480730235573,0.5584696029327809,-0.622018676649034
1782952321604895500,10.5958955078125,-0.19275252286493777,0.4986187992125749,-0.4550030179131776
1782952321614822700,10.60582275390625,-0.1887169837385416,0.33830884866043925,-0.2044278361547738
1782952321624749600,10.61574951171875,-0.2692009717732668,0.2418025311075151,-0.05925400687083602
1782952321634676700,10.6256767578125,-0.3676531626969576,0.2147681014485657,0.04394092160053551
1782952321644604700,10.635604736328125,-0.5408475831329822,0.15781711082309482,0.20806407376527786
1782952321654531800,10.64553173828125,-0.6894996829867363,0.0664624769449234,0.3646479164663702
1782952321664458800,10.655458740234375,-0.6992518461942673,-0.045306583930552,0.49808578831441697
1782952321674385700,10.6653857421875,-0.6197896024227142,-0.14954714899733662,0.6444915705461055
1782952321684313900,10.67531396484375,-0.5353431404978036,-0.28232129623964425,0.8252550379969179
1782952321694240500,10.685240478515626,-0.608016162520647,-0.42389585892260073,0.9547915184922515
1782952321704167700,10.695167724609375,-0.7797118688315152,-0.5482777331337333,0.969592708717659
1782952321714094600,10.705094482421876,-0.8795020303606986,-0.647338484409824,1.0201653234176338
1782952321724022500,10.7150224609375,-0.8729699982434511,-0.7875445352185517,1.081579577062279
1782952321733949700,10.72494970703125,-0.799755708950758,-0.9644800418790429,1.1882815638065338
1782952321743876600,10.734876708984375,-0.662345718601346,-1.153901447559893,1.2060330552048981
1782952321753804000,10.744803955078124,-0.46059915741980073,-1.2911898573562501,1.1129458984456955
1782952321763732000,10.75473193359375,-0.24630291126668452,-1.3883677905604241,1.1634616683918981
1782952321773659000,10.764658935546874,-0.1253296764552593,-1.4392730712808668,1.3760130436390638
1782952321783586000,10.7745859375,-0.057818567240238185,-1.4154383144460618,1.5412781323805451
1782952321793513000,10.784512939453125,0.03840191910862922,-1.3425295839712024,1.6942042562916875
1782952321803439900,10.79443994140625,0.023075170639157296,-1.351838387325406,1.794142447989434
1782952321813367800,10.804367919921875,0.008801146093010902,-1.4733118267439305,1.727450400072336
1782952321823295000,10.814294921875,0.10891922440230846,-1.5760601074263452,1.657163980925083
1782952321833222000,10.824221923828125,0.3054126873612404,-1.6592400565467773,1.7159065311424433
1782952321843149000,10.834149169921876,0.5050929636627436,-1.7391501902163027,1.8500863073989748
1782952321853077000,10.844076904296875,0.6149117672532797,-1.7378353082254527,1.875580814139545
1782952321863004000,10.85400390625,0.4818903672516346,-1.6011726291120052,1.7653966843679547
1782952321872931000,10.86393115234375,0.05254501075148582,-1.422510590919852,1.6614932423010467
1782952321882858000,10.87385791015625,-0.6211199742436408,-1.2595371202468872,1.6043706945009528
1782952321892786000,10.883785888671875,-1.397577809715271,-1.1058540404886006,1.632716060627997
1782952321902713000,10.893713134765624,-1.9596119732618331,-0.8909034220799803,1.5774804956182837
1782952321912639700,10.9036396484375,-2.185589889380336,-0.6806310976807027,1.4111200128555297
1782952321922567000,10.91356689453125,-2.018282188895345,-0.6186676126554608,1.2177134099960327
1782952321932494800,10.923494873046875,-1.4220283603608608,-0.6451132826410234,0.9448863566800951
1782952321942422000,10.933422119140625,-0.6590490151435137,-0.6789307235036045,0.7382607182200998
1782952321952349000,10.943348876953126,0.12733750914633274,-0.7345177322994917,0.6790478470772504
1782952321962276000,10.953276123046875,0.7842711395710706,-0.7320733348220586,0.7641368446893989
1782952321972204000,10.9632041015625,1.1166811394512652,-0.6880946384944021,0.9581644289914518
1782952321982131000,10.973130859375,0.9424012618660926,-0.6751435331150889,1.0519770504809915
1782952321992058000,10.98305810546875,0.9880699571073055,-0.7541923007149249,1.0432393250130116
1782952322001985000,10.992985107421875,0.6797445971697569,-0.7961185945574194,1.0008621455978601
1782952322011913000,11.002912841796874,0.15334873323738574,-0.5722113472331315,0.6348346844065934
1782952322021840000,11.01283984375,-0.23428397217094896,-0.20980258799567816,0.3795606407748535
1782952322031766800,11.022766845703124,-0.6068886197954416,-0.13974837016910313,0.5401418094838037
1782952322041694000,11.03269384765625,-1.034489178454876,-0.16437449657730757,0.7654655360098928
