time,seconds_elapsed,z,y,x
1782970018998266600,0.0632666015625,-0.9995880126953125,-0.0129852294921875,-0.01708984375
1782970019008192500,0.073192626953125,-0.996551513671875,-0.0140838623046875,-0.0160980224609375
1782970019018119700,0.08311962890625,-0.998504638671875,-0.01409912109375,-0.016387939453125
1782970019028045600,0.093045654296875,-0.997589111328125,-0.012451171875,-0.017333984375
1782970019037971500,0.102971435546875,-0.9970855712890625,-0.01177978515625,-0.01580810546875
1782970019047898600,0.112898681640625,-0.996826171875,-0.0135040283203125,-0.01605224609375
1782970019057824500,0.122824462890625,-0.997344970703125,-0.0137176513671875,-0.0148773193359375
1782970019067750700,0.132750732421875,-0.997894287109375,-0.012908935546875,-0.0159149169921875
1782970019077676500,0.142676513671875,-0.9972076416015625,-0.01385498046875,-0.015869140625
1782970019087603500,0.152603515625,-0.998138427734375,-0.0139923095703125,-0.0167388916015625
1782970019097529600,0.162529541015625,-0.997802734375,-0.0140533447265625,-0.0165863037109375
1782970019107455500,0.17245556640625,-0.9977874755859375,-0.013763427734375,-0.017333984375
1782970019117381600,0.182381591796875,-0.997283935546875,-0.012420654296875,-0.016632080078125
1782970019127308500,0.19230859375,-0.99676513671875,-0.01318359375,-0.0165863037109375
1782970019137234700,0.202234619140625,-0.9987335205078125,-0.01434326171875,-0.0161285400390625
1782970019147160600,0.21216064453125,-0.998779296875,-0.0140838623046875,-0.0163421630859375
1782970019157086700,0.222086669921875,-0.9980926513671875,-0.0142974853515625,-0.017059326171875
1782970019167013600,0.232013671875,-0.997802734375,-0.014892578125,-0.016448974609375
1782970019176939500,0.241939453125,-0.99755859375,-0.0133056640625,-0.016815185546875
1782970019186865700,0.25186572265625,-0.9971923828125,-0.012725830078125,-0.01605224609375
1782970019196792600,0.26179248046875,-0.9974517822265625,-0.0137786865234375,-0.0168914794921875
1782970019206718700,0.27171875,-0.9972076416015625,-0.0146942138671875,-0.015350341796875
1782970019216644600,0.28164453125,-0.9969482421875,-0.013580322265625,-0.0161895751953125
1782970019226570500,0.291570556640625,-0.9985198974609375,-0.0129547119140625,-0.017669677734375
1782970019236497700,0.30149755859375,-0.9981231689453125,-0.012908935546875,-0.0164947509765625
1782970019246423600,0.311423583984375,-0.997161865234375,-0.0125579833984375,-0.0177459716796875
1782970019256349400,0.321349365234375,-0.9986419677734375,-0.01239013671875,-0.0165863037109375
1782970019266275600,0.331275634765625,-0.9970550537109375,-0.012359619140625,-0.017822265625
1782970019276202800,0.34120263671875,-0.9980010986328125,-0.0132293701171875,-0.0165252685546875
1782970019286128600,0.351128662109375,-0.9982757568359375,-0.013885498046875,-0.017120361328125
1782970019296054500,0.361054443359375,-0.9980010986328125,-0.01318359375,-0.015655517578125
1782970019305981700,0.370981689453125,-0.99945068359375,-0.0125274658203125,-0.016204833984375
1782970019315907600,0.380907470703125,-0.99847412109375,-0.013336181640625,-0.0160064697265625
1782970019325833500,0.39083349609375,-0.996246337890625,-0.013946533203125,-0.0165557861328125
1782970019335759600,0.400759521484375,-0.9980621337890625,-0.0132904052734375,-0.01617431640625
1782970019345686800,0.410686767578125,-0.9974822998046875,-0.0127716064453125,-0.016937255859375
1782970019355612400,0.4206123046875,-0.996978759765625,-0.0128326416015625,-0.015472412109375
1782970019365538600,0.43053857421875,-0.9978179931640625,-0.0140228271484375,-0.0157012939453125
1782970019375464700,0.440464599609375,-0.9971466064453125,-0.012939453125,-0.017303466796875
1782970019385391400,0.450391357421875,-0.997833251953125,-0.0130767822265625,-0.0163726806640625
1782970019395317500,0.4603173828125,-0.9987335205078125,-0.0134735107421875,-0.0167388916015625
1782970019405243600,0.47024365234375,-0.9991912841796875,-0.0146636962890625,-0.0166168212890625
1782970019415170600,0.480170654296875,-0.999420166015625,-0.0123291015625,-0.0165252685546875
1782970019425096700,0.4900966796875,-0.9983062744140625,-0.0126495361328125,-0.017974853515625
1782970019435022800,0.50002294921875,-0.9991302490234375,-0.01263427734375,-0.014801025390625
1782970019444948700,0.50994873046875,-0.9994964599609375,-0.012542724609375,-0.0169677734375
1782970019454875600,0.519875732421875,-0.9979705810546875,-0.0123748779296875,-0.0154571533203125
1782970019464801800,0.5298017578125,-0.9981536865234375,-0.013519287109375,-0.0144500732421875
1782970019474727700,0.539727783203125,-0.9980621337890625,-0.0139007568359375,-0.0164337158203125
1782970019484653800,0.54965380859375,-0.997772216796875,-0.0145111083984375,-0.018218994140625
1782970019494580700,0.559580810546875,-0.9981536865234375,-0.014251708984375,-0.01702880859375
1782970019504507000,0.5695068359375,-0.99700927734375,-0.013336181640625,-0.01708984375
1782970019514432800,0.579432861328125,-0.9972076416015625,-0.0139007568359375,-0.0157470703125
1782970019524359700,0.589359619140625,-0.9964752197265625,-0.0124053955078125,-0.01580810546875
1782970019534285800,0.599285888671875,-0.9962921142578125,-0.0117950439453125,-0.017059326171875
1782970019544211700,0.609211669921875,-0.99713134765625,-0.0118408203125,-0.0174560546875
1782970019554137600,0.6191376953125,-0.9976348876953125,-0.0124664306640625,-0.017303466796875
1782970019564064800,0.629064697265625,-0.997650146484375,-0.012908935546875,-0.0156707763671875
1782970019573991000,0.638990966796875,-0.99822998046875,-0.0126495361328125,-0.01708984375
1782970019583916500,0.64891650390625,-0.9988555908203125,-0.0125732421875,-0.0166473388671875
1782970019593842700,0.6588427734375,-0.9982147216796875,-0.0130462646484375,-0.01593017578125
1782970019603769900,0.668769775390625,-0.998504638671875,-0.0133514404296875,-0.0175628662109375
1782970019613695700,0.67869580078125,-0.99786376953125,-0.0122833251953125,-0.018310546875
1782970019623621600,0.68862158203125,-0.9980316162109375,-0.0133209228515625,-0.0167083740234375
1782970019633548800,0.698548828125,-0.99749755859375,-0.01397705078125,-0.016357421875
1782970019643475000,0.708474853515625,-0.9970550537109375,-0.0132293701171875,-0.0169525146484375
1782970019653400600,0.718400634765625,-0.9972076416015625,-0.013427734375,-0.0167388916015625
1782970019663326700,0.72832666015625,-0.99847412109375,-0.0123443603515625,-0.01617431640625
1782970019673254000,0.73825390625,-0.99835205078125,-0.0120391845703125,-0.0164031982421875
1782970019683179500,0.748179443359375,-0.9978790283203125,-0.0126953125,-0.015594482421875
1782970019693105700,0.758105712890625,-0.997314453125,-0.01251220703125,-0.0166778564453125
1782970019703031800,0.76803173828125,-0.9972686767578125,-0.0125732421875,-0.0164642333984375
1782970019712958700,0.777958740234375,-0.9969024658203125,-0.013641357421875,-0.015777587890625
1782970019722884600,0.787884521484375,-0.9967498779296875,-0.0133209228515625,-0.016876220703125
1782970019732810800,0.797810791015625,-0.9958953857421875,-0.0130615234375,-0.0162200927734375
1782970019742737000,0.80773681640625,-0.9970703125,-0.012969970703125,-0.0173797607421875
1782970019752663600,0.81766357421875,-0.9977264404296875,-0.014739990234375,-0.016204833984375
1782970019762589700,0.827589599609375,-0.9978485107421875,-0.01409912109375,-0.0153045654296875
1782970019772515800,0.837515869140625,-0.9982147216796875,-0.013702392578125,-0.0160369873046875
1782970019782442800,0.84744287109375,-0.9962310791015625,-0.0125579833984375,-0.0162506103515625
1782970019792368600,0.85736865234375,-0.9979095458984375,-0.013763427734375,-0.0165863037109375
1782970019802294800,0.867294677734375,-0.9979705810546875,-0.0152740478515625,-0.01727294921875
1782970019812221000,0.877220947265625,-0.9973297119140625,-0.013214111328125,-0.0157928466796875
1782970019822147600,0.887147705078125,-0.998382568359375,-0.01434326171875,-0.015869140625
1782970019832073700,0.89707373046875,-0.996307373046875,-0.0135040283203125,-0.0168609619140625
1782970019842000000,0.906999755859375,-0.99676513671875,-0.014404296875,-0.0171051025390625
1782970019851925500,0.916925537109375,-0.9972076416015625,-0.01336669921875,-0.016693115234375
1782970019861852700,0.926852783203125,-0.998046875,-0.01190185546875,-0.01611328125
1782970019871778800,0.93677880859375,-0.9980926513671875,-0.0140228271484375,-0.0160064697265625
1782970019881704700,0.94670458984375,-0.99688720703125,-0.0130615234375,-0.0174560546875
1782970019891630600,0.956630615234375,-0.998291015625,-0.012603759765625,-0.0156402587890625
1782970019901557800,0.966557861328125,-0.9979705810546875,-0.0136566162109375,-0.016876220703125
1782970019911483600,0.976483642578125,-0.998046875,-0.0135650634765625,-0.0170745849609375
1782970019921409500,0.986409423828125,-0.99658203125,-0.0113525390625,-0.0167236328125
1782970019931336700,0.996336669921875,-0.99822998046875,-0.0134735107421875,-0.0164337158203125
1782970019941262800,1.006262939453125,-0.997222900390625,-0.0137786865234375,-0.015899658203125
1782970019951188700,1.016188720703125,-0.9979400634765625,-0.013885498046875,-0.0158538818359375
1782970019961114600,1.026114501953125,-0.9976959228515625,-0.01202392578125,-0.0174560546875
1782970019971041800,1.036041748046875,-0.99810791015625,-0.012664794921875,-0.0165252685546875
1782970019980967700,1.0459677734375,-0.9979400634765625,-0.0120849609375,-0.0158538818359375
1782970019990893600,1.0558935546875,-0.9968109130859375,-0.01275634765625,-0.01617431640625
1782970020000819700,1.06581982421875,-0.9971466064453125,-0.0140380859375,-0.0160675048828125
1782970020010746600,1.07574658203125,-0.9988250732421875,-0.0126953125,-0.0167083740234375
1782970020020672800,1.0856728515625,-0.9983062744140625,-0.0130767822265625,-0.0168609619140625
1782970020030598700,1.0955986328125,-0.9982147216796875,-0.0131378173828125,-0.016998291015625
1782970020040524800,1.10552490234375,-0.9980621337890625,-0.0123291015625,-0.0160675048828125
1782970020050451700,1.11545166015625,-0.997100830078125,-0.01263427734375,-0.017578125
1782970020060377600,1.125377685546875,-0.9968414306640625,-0.012939453125,-0.016021728515625
1782970020070303700,1.1353037109375,-0.9990234375,-0.01287841796875,-0.0174102783203125
1782970020080230700,1.145230712890625,-0.9992828369140625,-0.0132293701171875,-0.0181884765625
1782970020090156800,1.15515673828125,-0.99774169921875,-0.0133819580078125,-0.015899658203125
1782970020100082700,1.165082763671875,-0.9983367919921875,-0.013885498046875,-0.0158538818359375
1782970020110008800,1.1750087890625,-0.9980926513671875,-0.0132904052734375,-0.015960693359375
1782970020119935700,1.184935791015625,-0.997314453125,-0.0125885009765625,-0.017303466796875
1782970020129862000,1.19486181640625,-0.9980316162109375,-0.0133819580078125,-0.016876220703125
1782970020139787800,1.204787841796875,-0.995941162109375,-0.01263427734375,-0.017333984375
1782970020149713700,1.214713623046875,-0.998077392578125,-0.014251708984375,-0.01690673828125
1782970020159640800,1.224640869140625,-0.998046875,-0.0132598876953125,-0.0149688720703125
1782970020169566700,1.234566650390625,-0.997467041015625,-0.012847900390625,-0.015655517578125
1782970020179492600,1.24449267578125,-0.9982757568359375,-0.013275146484375,-0.0162506103515625
1782970020189419800,1.254419677734375,-0.997711181640625,-0.0123443603515625,-0.015411376953125
1782970020199346000,1.264345947265625,-0.9985504150390625,-0.0122222900390625,-0.0167083740234375
1782970020209271600,1.274271484375,-0.998321533203125,-0.01263427734375,-0.0155487060546875
1782970020219197700,1.28419775390625,-0.99774169921875,-0.0121917724609375,-0.0173492431640625
1782970020229124900,1.294124755859375,-0.9981842041015625,-0.0139312744140625,-0.018463134765625
1782970020239050800,1.30405078125,-0.9976959228515625,-0.0126953125,-0.0158843994140625
1782970020248976600,1.3139765625,-0.9974365234375,-0.01397705078125,-0.0178985595703125
1782970020258902800,1.32390283203125,-0.99786376953125,-0.011932373046875,-0.01666259765625
1782970020268829700,1.33382958984375,-0.9980926513671875,-0.0123443603515625,-0.0168914794921875
1782970020278755600,1.343755615234375,-0.9978790283203125,-0.0137176513671875,-0.0166015625
1782970020288681700,1.353681640625,-0.997711181640625,-0.0127410888671875,-0.016632080078125
1782970020298607900,1.36360791015625,-0.9984130859375,-0.0146484375,-0.0156402587890625
1782970020308534500,1.373534423828125,-0.9976959228515625,-0.013671875,-0.0158538818359375
1782970020318460700,1.383460693359375,-0.999298095703125,-0.0125579833984375,-0.016387939453125
1782970020328386800,1.39338671875,-0.9992523193359375,-0.01239013671875,-0.01580810546875
1782970020338312700,1.403312744140625,-0.99798583984375,-0.013458251953125,-0.015625
1782970020348239600,1.413239501953125,-0.9959564208984375,-0.014190673828125,-0.0169830322265625
1782970020358165800,1.423165771484375,-0.9977569580078125,-0.0140838623046875,-0.0166015625
1782970020368092000,1.433091796875,-0.9974517822265625,-0.0132293701171875,-0.0164642333984375
1782970020378018600,1.4430185546875,-0.9984283447265625,-0.0138397216796875,-0.0162811279296875
1782970020387944700,1.45294482421875,-0.9986419677734375,-0.0125732421875,-0.0176544189453125
1782970020397870800,1.462870849609375,-0.99676513671875,-0.0137786865234375,-0.0156402587890625
1782970020407796700,1.472796630859375,-0.9985198974609375,-0.0129241943359375,-0.0160064697265625
1782970020417724000,1.482723876953125,-0.997467041015625,-0.0128631591796875,-0.016448974609375
1782970020427650000,1.492650146484375,-0.997772216796875,-0.011993408203125,-0.01617431640625
1782970020437576000,1.502575927734375,-0.99798583984375,-0.0125885009765625,-0.0162506103515625
1782970020447501800,1.512501708984375,-0.99945068359375,-0.013275146484375,-0.01702880859375
1782970020457429000,1.522428955078125,-0.998870849609375,-0.0135498046875,-0.016754150390625
1782970020467355100,1.532355224609375,-0.9972076416015625,-0.012969970703125,-0.0175018310546875
1782970020477280800,1.54228076171875,-0.998046875,-0.0126800537109375,-0.015350341796875
1782970020487207000,1.55220703125,-0.9989471435546875,-0.0142669677734375,-0.014892578125
1782970020497134000,1.562134033203125,-0.9965057373046875,-0.0135498046875,-0.0167388916015625
1782970020507060000,1.57206005859375,-0.9968719482421875,-0.012359619140625,-0.015960693359375
1782970020516985900,1.58198583984375,-0.9976043701171875,-0.01324462890625,-0.0154266357421875
1782970020526913000,1.5919130859375,-0.9980316162109375,-0.013580322265625,-0.017822265625
1782970020536839000,1.6018388671875,-0.9978179931640625,-0.0130767822265625,-0.0168609619140625
1782970020546764800,1.611764892578125,-0.997650146484375,-0.0137176513671875,-0.0174713134765625
1782970020556691000,1.62169091796875,-0.998138427734375,-0.013824462890625,-0.0159912109375
1782970020566617900,1.631617919921875,-0.9986572265625,-0.0133819580078125,-0.0176544189453125
1782970020576544000,1.6415439453125,-0.9976959228515625,-0.0131378173828125,-0.01806640625
1782970020586470000,1.651469970703125,-0.997314453125,-0.013671875,-0.0172882080078125
1782970020596396000,1.66139599609375,-0.9974517822265625,-0.0148162841796875,-0.0167236328125
1782970020606323000,1.671322998046875,-0.9981536865234375,-0.014007568359375,-0.014801025390625
1782970020616248800,1.681248779296875,-0.9974517822265625,-0.01470947265625,-0.0162811279296875
1782970020626175000,1.691175048828125,-0.99871826171875,-0.0131072998046875,-0.0173187255859375
1782970020636101000,1.70110107421875,-0.9969329833984375,-0.01300048828125,-0.0155181884765625
1782970020646028000,1.711028076171875,-0.9973907470703125,-0.0133056640625,-0.0158233642578125
1782970020655954000,1.720953857421875,-0.9964141845703125,-0.01324462890625,-0.017242431640625
1782970020665880000,1.730880126953125,-0.9977264404296875,-0.013031005859375,-0.0170135498046875
1782970020675806000,1.740805908203125,-0.9988250732421875,-0.013671875,-0.0177459716796875
1782970020685733000,1.750733154296875,-0.9981689453125,-0.0121307373046875,-0.0150146484375
1782970020695659000,1.760658935546875,-0.9978790283203125,-0.0140533447265625,-0.016937255859375
1782970020705585000,1.7705849609375,-0.9978790283203125,-0.0116729736328125,-0.0159454345703125
1782970020715512000,1.780511962890625,-0.9973602294921875,-0.0136871337890625,-0.016876220703125
1782970020725438000,1.79043798828125,-0.997955322265625,-0.013824462890625,-0.0172576904296875
1782970020735363800,1.80036376953125,-0.998321533203125,-0.0141448974609375,-0.0156707763671875
1782970020745290000,1.8102900390625,-0.998687744140625,-0.0128326416015625,-0.0165252685546875
1782970020755217200,1.820217041015625,-0.9976043701171875,-0.0125274658203125,-0.01702880859375
1782970020765143000,1.83014306640625,-0.9986419677734375,-0.0138702392578125,-0.0167694091796875
1782970020775069000,1.84006884765625,-0.99774169921875,-0.0144195556640625,-0.0186767578125
1782970020784995000,1.8499951171875,-0.9970245361328125,-0.013336181640625,-0.016387939453125
1782970020794922000,1.859921875,-0.99853515625,-0.0118408203125,-0.0162353515625
1782970020804847900,1.869847900390625,-0.997589111328125,-0.013885498046875,-0.0167236328125
1782970020814774000,1.87977392578125,-0.9977874755859375,-0.01300048828125,-0.0166168212890625
1782970020824700000,1.889699951171875,-0.9971771240234375,-0.01361083984375,-0.017364501953125
1782970020834626800,1.899626708984375,-0.997772216796875,-0.01336669921875,-0.017242431640625
1782970020844553000,1.909552978515625,-0.997161865234375,-0.013275146484375,-0.016876220703125
1782970020854479000,1.91947900390625,-0.9983367919921875,-0.0118865966796875,-0.0165252685546875
1782970020864405000,1.929405029296875,-0.9980621337890625,-0.012969970703125,-0.017303466796875
1782970020874332000,1.939331787109375,-0.999114990234375,-0.0138397216796875,-0.0169830322265625
1782970020884258000,1.949258056640625,-0.997833251953125,-0.013885498046875,-0.01678466796875
1782970020894184000,1.959183837890625,-0.99749755859375,-0.0133209228515625,-0.01629638671875
1782970020904110800,1.96911083984375,-0.998565673828125,-0.0126190185546875,-0.0174407958984375
1782970020914037000,1.979037109375,-0.99761962890625,-0.0133819580078125,-0.0175628662109375
1782970020923963100,1.988963134765625,-0.9987030029296875,-0.013031005859375,-0.0183258056640625
1782970020933889000,1.998888916015625,-0.9969024658203125,-0.0127105712890625,-0.016937255859375
1782970020943816000,2.00881591796875,-0.999755859375,-0.0133056640625,-0.0161895751953125
1782970020953742000,2.0187421875,-0.998748779296875,-0.013580322265625,-0.016265869140625
1782970020963668000,2.02866796875,-0.9985504150390625,-0.012542724609375,-0.01690673828125
1782970020973593900,2.03859375,-0.99755859375,-0.01416015625,-0.017333984375
1782970020983521000,2.04852099609375,-0.997406005859375,-0.0131988525390625,-0.01702880859375
1782970020993447200,2.058447265625,-0.9975128173828125,-0.01422119140625,-0.0156097412109375
1782970021003372800,2.068372802734375,-0.99786376953125,-0.0133209228515625,-0.0173187255859375
1782970021013299000,2.078298828125,-0.99774169921875,-0.012542724609375,-0.0177764892578125
1782970021023226000,2.08822607421875,-0.9974822998046875,-0.0137481689453125,-0.0162353515625
1782970021033151700,2.09815185546875,-0.998138427734375,-0.01318359375,-0.0169525146484375
1782970021043078000,2.108077880859375,-0.9971771240234375,-0.013397216796875,-0.0177154541015625
1782970021053004000,2.118004150390625,-0.9967498779296875,-0.0131683349609375,-0.017242431640625
1782970021062931000,2.127930908203125,-0.999298095703125,-0.0129852294921875,-0.0157928466796875
1782970021072856800,2.13785693359375,-0.998016357421875,-0.0128631591796875,-0.01629638671875
1782970021082783000,2.147782958984375,-0.9964447021484375,-0.0121002197265625,-0.0178070068359375
1782970021092710100,2.157710205078125,-0.9966278076171875,-0.0127716064453125,-0.0159912109375
1782970021102635800,2.1676357421875,-0.9971771240234375,-0.0137481689453125,-0.0159912109375
1782970021112562000,2.17756201171875,-0.9973907470703125,-0.01348876953125,-0.0167083740234375
1782970021122488000,2.187488037109375,-0.997802734375,-0.0118865966796875,-0.01654052734375
1782970021132415000,2.1974150390625,-0.9965362548828125,-0.013763427734375,-0.0168609619140625
1782970021142340900,2.2073408203125,-0.998321533203125,-0.0119781494140625,-0.016448974609375
1782970021152267000,2.21726708984375,-0.997772216796875,-0.014190673828125,-0.0166015625
1782970021162193200,2.227193115234375,-0.99700927734375,-0.01300048828125,-0.01568603515625
1782970021172119800,2.237119873046875,-0.9993133544921875,-0.013427734375,-0.0156707763671875
1782970021182046000,2.2470458984375,-0.99798583984375,-0.01275634765625,-0.01788330078125
1782970021191972000,2.25697216796875,-0.9969329833984375,-0.0128631591796875,-0.017852783203125
1782970021201898000,2.26689794921875,-0.997344970703125,-0.0140380859375,-0.0156707763671875
1782970021211825000,2.276824951171875,-0.9977874755859375,-0.0128631591796875,-0.017303466796875
1782970021221751000,2.2867509765625,-0.997833251953125,-0.0133514404296875,-0.01629638671875
1782970021231677000,2.296677001953125,-0.99786376953125,-0.0129241943359375,-0.0161590576171875
1782970021241602800,2.306602783203125,-0.99835205078125,-0.0143890380859375,-0.016510009765625
1782970021251530000,2.316530029296875,-0.997467041015625,-0.0131072998046875,-0.017333984375
1782970021261456100,2.3264560546875,-0.9979705810546875,-0.01300048828125,-0.01885986328125
1782970021271381800,2.3363818359375,-0.99810791015625,-0.0123291015625,-0.01690673828125
1782970021281309000,2.346308837890625,-0.9975738525390625,-0.013916015625,-0.016265869140625
1782970021291235000,2.356235107421875,-0.9992828369140625,-0.013458251953125,-0.0160369873046875
1782970021301161000,2.366160888671875,-0.99993896484375,-0.01336669921875,-0.016265869140625
1782970021311086800,2.3760869140625,-0.997802734375,-0.0137786865234375,-0.0165557861328125
1782970021321014000,2.386013916015625,-0.99664306640625,-0.0128631591796875,-0.0167083740234375
1782970021330940000,2.39593994140625,-0.99835205078125,-0.0128326416015625,-0.015380859375
1782970021340865800,2.40586572265625,-0.997039794921875,-0.0134124755859375,-0.016448974609375
1782970021350792000,2.4157919921875,-0.9977264404296875,-0.0139923095703125,-0.016265869140625
1782970021360718800,2.42571875,-0.9977264404296875,-0.012237548828125,-0.0174407958984375
1782970021370645000,2.43564501953125,-0.9973602294921875,-0.013458251953125,-0.0170440673828125
1782970021380571000,2.44557080078125,-0.9984893798828125,-0.0135040283203125,-0.0159912109375
1782970021390497000,2.4554970703125,-0.998626708984375,-0.0130157470703125,-0.0168304443359375
1782970021400424000,2.465423828125,-0.99737548828125,-0.0126495361328125,-0.014801025390625
1782970021410349800,2.475349853515625,-0.9971771240234375,-0.01171875,-0.0172271728515625
1782970021420275700,2.485275634765625,-0.9967193603515625,-0.015655517578125,-0.0181884765625
1782970021430201600,2.49520166015625,-0.9985198974609375,-0.0137939453125,-0.017578125
1782970021440128500,2.50512841796875,-0.9968414306640625,-0.01275634765625,-0.015899658203125
1782970021450054700,2.5150546875,-0.998260498046875,-0.0125274658203125,-0.01690673828125
1782970021459980500,2.52498046875,-0.9982147216796875,-0.012969970703125,-0.016571044921875
1782970021469906700,2.53490673828125,-0.998443603515625,-0.0127105712890625,-0.0159149169921875
1782970021479833600,2.54483349609375,-0.9965667724609375,-0.0123291015625,-0.0163116455078125
1782970021489759700,2.554759765625,-0.9975738525390625,-0.0141754150390625,-0.015960693359375
1782970021499685600,2.564685546875,-0.9979400634765625,-0.0127716064453125,-0.0166778564453125
1782970021509612500,2.574612548828125,-0.996673583984375,-0.01318359375,-0.016571044921875
1782970021519538700,2.58453857421875,-0.9979095458984375,-0.0136871337890625,-0.0161285400390625
1782970021529464600,2.594464599609375,-0.99652099609375,-0.01300048828125,-0.0161285400390625
1782970021539390500,2.604390380859375,-0.9974822998046875,-0.0136871337890625,-0.017547607421875
1782970021549317600,2.614317626953125,-0.9972686767578125,-0.01446533203125,-0.017120361328125
1782970021559243800,2.624243896484375,-0.998321533203125,-0.013153076171875,-0.01702880859375
1782970021569169400,2.63416943359375,-0.997894287109375,-0.01318359375,-0.015472412109375
1782970021579095600,2.644095458984375,-0.9986114501953125,-0.0142364501953125,-0.0165557861328125
1782970021589022700,2.654022705078125,-0.998809814453125,-0.0136566162109375,-0.017913818359375
1782970021598948400,2.6639482421875,-0.99761962890625,-0.012939453125,-0.017181396484375
1782970021608874500,2.67387451171875,-0.996368408203125,-0.012939453125,-0.0159454345703125
1782970021618800600,2.683800537109375,-0.9980010986328125,-0.01263427734375,-0.0171356201171875
1782970021628727600,2.6937275390625,-0.99896240234375,-0.014556884765625,-0.01715087890625
1782970021638653400,2.7036533203125,-0.9964752197265625,-0.013763427734375,-0.0157470703125
1782970021648579600,2.71357958984375,-0.9974822998046875,-0.015289306640625,-0.0151824951171875
1782970021658505700,2.723505615234375,-0.9984130859375,-0.0137176513671875,-0.0169677734375
1782970021668432400,2.733432373046875,-0.9986114501953125,-0.0137176513671875,-0.016082763671875
1782970021678358500,2.743358642578125,-0.9977569580078125,-0.0124664306640625,-0.0169525146484375
1782970021688284700,2.75328466796875,-0.99896240234375,-0.012603759765625,-0.015838623046875
1782970021698210600,2.76321044921875,-0.997100830078125,-0.0129852294921875,-0.016021728515625
1782970021708137500,2.773137451171875,-0.99847412109375,-0.0133209228515625,-0.0179595947265625
1782970021718063600,2.783063720703125,-0.99835205078125,-0.0130157470703125,-0.0170135498046875
1782970021727989800,2.79298974609375,-0.9974212646484375,-0.012786865234375,-0.0162353515625
1782970021737916400,2.80291650390625,-0.99755859375,-0.01214599609375,-0.01690673828125
1782970021747842600,2.812842529296875,-0.997589111328125,-0.013275146484375,-0.0174102783203125
1782970021757768700,2.822768798828125,-0.9981536865234375,-0.013641357421875,-0.01556396484375
1782970021767694600,2.832694580078125,-0.9969940185546875,-0.0137481689453125,-0.0171356201171875
1782970021777621500,2.84262158203125,-0.9996795654296875,-0.0123291015625,-0.0162811279296875
1782970021787547600,2.852547607421875,-0.9988861083984375,-0.013458251953125,-0.0163421630859375
1782970021797473800,2.862473876953125,-0.9969329833984375,-0.0140380859375,-0.0190277099609375
1782970021807399400,2.8723994140625,-0.997161865234375,-0.0132904052734375,-0.01605224609375
1782970021817326600,2.88232666015625,-0.999481201171875,-0.0123138427734375,-0.0178070068359375
1782970021827252700,2.892252685546875,-0.9989471435546875,-0.0127105712890625,-0.015960693359375
1782970021837178400,2.902178466796875,-0.9964141845703125,-0.0141448974609375,-0.016021728515625
1782970021847104500,2.9121044921875,-0.9975738525390625,-0.012542724609375,-0.0167388916015625
1782970021857031700,2.92203173828125,-0.9967803955078125,-0.0139617919921875,-0.015594482421875
1782970021866957600,2.93195751953125,-0.9988250732421875,-0.013397216796875,-0.0166473388671875
1782970021876883500,2.941883544921875,-0.99774169921875,-0.013336181640625,-0.0167236328125
1782970021886809600,2.9518095703125,-0.9983673095703125,-0.01324462890625,-0.0164794921875
1782970021896736500,2.961736572265625,-0.9990234375,-0.0129547119140625,-0.017181396484375
1782970021906662700,2.97166259765625,-0.9980316162109375,-0.01263427734375,-0.0177001953125
1782970021916588500,2.981588623046875,-0.9995574951171875,-0.013641357421875,-0.0174560546875
1782970021926514700,2.9915146484375,-0.998748779296875,-0.013427734375,-0.01800537109375
1782970021936441600,3.001441650390625,-0.9977569580078125,-0.01312255859375,-0.0176849365234375
1782970021946367500,3.011367431640625,-0.9974365234375,-0.01348876953125,-0.0150604248046875
1782970021956293600,3.021293701171875,-0.997039794921875,-0.0130462646484375,-0.016326904296875
1782970021966220500,3.031220458984375,-0.997711181640625,-0.0139923095703125,-0.0166015625
1782970021976146700,3.041146728515625,-0.9987030029296875,-0.0137786865234375,-0.0176544189453125
1782970021986072600,3.051072509765625,-0.99822998046875,-0.0138397216796875,-0.016265869140625
1782970021995998700,3.060998779296875,-0.9979400634765625,-0.01214599609375,-0.0167999267578125
1782970022005925600,3.070925537109375,-0.9985809326171875,-0.013092041015625,-0.0171051025390625
1782970022015851500,3.0808515625,-0.9968109130859375,-0.01385498046875,-0.0177764892578125
1782970022025777700,3.090777587890625,-0.9972686767578125,-0.0145111083984375,-0.0174407958984375
1782970022035703600,3.10070361328125,-0.99859619140625,-0.0132293701171875,-0.0164947509765625
1782970022045630700,3.110630615234375,-0.9984893798828125,-0.0120697021484375,-0.0175628662109375
1782970022055556600,3.120556640625,-0.9990081787109375,-0.0130615234375,-0.016815185546875
1782970022065482500,3.130482421875,-0.9992828369140625,-0.011474609375,-0.01641845703125
1782970022075408600,3.14040869140625,-0.9974517822265625,-0.0135650634765625,-0.0164337158203125
1782970022085335600,3.15033544921875,-0.9993133544921875,-0.01190185546875,-0.0161285400390625
1782970022095261700,3.16026171875,-0.99664306640625,-0.01397705078125,-0.01690673828125
1782970022105187600,3.1701875,-0.9981842041015625,-0.0140380859375,-0.01800537109375
1782970022115113500,3.180113525390625,-0.9979248046875,-0.012969970703125,-0.0174560546875
1782970022125040600,3.19004052734375,-0.9981231689453125,-0.0137176513671875,-0.0159759521484375
1782970022134966500,3.199966552734375,-0.997802734375,-0.0126800537109375,-0.01727294921875
1782970022144892700,3.209892578125,-0.9978485107421875,-0.01275634765625,-0.018096923828125
1782970022154818600,3.219818603515625,-0.998260498046875,-0.013885498046875,-0.016937255859375
1782970022164745500,3.229745361328125,-0.998199462890625,-0.012969970703125,-0.016998291015625
1782970022174671600,3.239671630859375,-0.998443603515625,-0.013214111328125,-0.0154571533203125
1782970022184597500,3.249597412109375,-0.9981689453125,-0.013580322265625,-0.016815185546875
1782970022194523600,3.259523681640625,-0.9971160888671875,-0.013671875,-0.0149688720703125
1782970022204450600,3.269450439453125,-0.99786376953125,-0.014007568359375,-0.0166168212890625
1782970022214376700,3.279376708984375,-0.9979705810546875,-0.0114898681640625,-0.01611328125
1782970022224302600,3.289302490234375,-0.9980926513671875,-0.01318359375,-0.0160064697265625
1782970022234229500,3.2992294921875,-0.9977569580078125,-0.0142822265625,-0.0172271728515625
1782970022244155600,3.30915576171875,-0.9982757568359375,-0.013519287109375,-0.0167083740234375
1782970022254081500,3.31908154296875,-0.998870849609375,-0.010650634765625,-0.0173492431640625
1782970022264007700,3.329007568359375,-0.9981689453125,-0.0129547119140625,-0.0160064697265625
1782970022273934600,3.3389345703125,-0.996337890625,-0.014373779296875,-0.017608642578125
1782970022283860700,3.34886083984375,-0.9970855712890625,-0.01324462890625,-0.01605224609375
1782970022293786600,3.35878662109375,-0.9988250732421875,-0.012542724609375,-0.0167694091796875
1782970022303712500,3.36871240234375,-0.998626708984375,-0.0126495361328125,-0.0178375244140625
1782970022313639700,3.3786396484375,-0.9989013671875,-0.0143585205078125,-0.0166473388671875
1782970022323565600,3.388565673828125,-0.9978179931640625,-0.013580322265625,-0.016571044921875
1782970022333491500,3.398491455078125,-0.9972076416015625,-0.01385498046875,-0.0149993896484375
1782970022343417600,3.40841748046875,-0.99774169921875,-0.0126495361328125,-0.0166778564453125
1782970022353344800,3.4183447265625,-0.99615478515625,-0.0137786865234375,-0.01617431640625
1782970022363270400,3.4282705078125,-0.9981842041015625,-0.0126495361328125,-0.01666259765625
1782970022373196500,3.438196533203125,-0.9982452392578125,-0.0143890380859375,-0.015838623046875
1782970022383122700,3.448122802734375,-0.998199462890625,-0.0127105712890625,-0.01708984375
1782970022393049600,3.458049560546875,-0.998077392578125,-0.01300048828125,-0.015655517578125
1782970022402975500,3.4679755859375,-0.9988250732421875,-0.0133209228515625,-0.017425537109375
1782970022412901600,3.477901611328125,-0.9982757568359375,-0.01275634765625,-0.0165252685546875
1782970022422827300,3.4878271484375,-0.996978759765625,-0.0135345458984375,-0.01470947265625
1782970022432754200,3.497754150390625,-1.0000762939453125,-0.0131378173828125,-0.016204833984375
1782970022442680300,3.507680419921875,-0.997833251953125,-0.0138397216796875,-0.017913818359375
1782970022452606500,3.5176064453125,-0.998565673828125,-0.014312744140625,-0.0163421630859375
1782970022462533000,3.527533203125,-0.9985198974609375,-0.0133819580078125,-0.016815185546875
1782970022472459300,3.537459228515625,-0.997528076171875,-0.0122833251953125,-0.0160064697265625
1782970022482385400,3.547385498046875,-0.9971160888671875,-0.012786865234375,-0.016998291015625
1782970022492311300,3.557311279296875,-0.998687744140625,-0.0141754150390625,-0.016357421875
1782970022502238200,3.56723828125,-0.9976806640625,-0.013458251953125,-0.0153961181640625
1782970022512164400,3.577164306640625,-0.9972686767578125,-0.0131683349609375,-0.0155487060546875
1782970022522090500,3.587090576171875,-0.9988861083984375,-0.01318359375,-0.0185546875
1782970022532016400,3.597016357421875,-0.9975433349609375,-0.013397216796875,-0.0154571533203125
1782970022541943300,3.606943359375,-0.9973602294921875,-0.0123291015625,-0.0144195556640625
1782970022551869400,3.616869384765625,-0.997833251953125,-0.0123291015625,-0.0169219970703125
1782970022561795300,3.62679541015625,-0.9978790283203125,-0.013458251953125,-0.0169830322265625
1782970022571721200,3.63672119140625,-0.9975738525390625,-0.012847900390625,-0.0180816650390625
1782970022581648400,3.6466484375,-0.9989013671875,-0.014404296875,-0.01702880859375
1782970022591574500,3.656574462890625,-0.9985198974609375,-0.0140380859375,-0.0155181884765625
1782970022601500200,3.666500244140625,-0.9976654052734375,-0.0129241943359375,-0.0153961181640625
1782970022611426300,3.67642626953125,-0.9976043701171875,-0.0130615234375,-0.0151519775390625
1782970022621353500,3.686353515625,-0.99658203125,-0.0126953125,-0.0151824951171875
1782970022631279000,3.696279052734375,-0.9991302490234375,-0.0133514404296875,-0.0167694091796875
1782970022641205200,3.706205322265625,-0.9979400634765625,-0.012420654296875,-0.01678466796875
1782970022651131400,3.71613134765625,-0.99664306640625,-0.0134124755859375,-0.0166168212890625
1782970022661058300,3.726058349609375,-0.9978485107421875,-0.0143585205078125,-0.0167236328125
1782970022670984200,3.735984130859375,-0.99896240234375,-0.0138397216796875,-0.015625
1782970022680910300,3.745910400390625,-0.9971923828125,-0.0141754150390625,-0.0170440673828125
1782970022690836500,3.75583642578125,-0.996368408203125,-0.0127105712890625,-0.0176849365234375
1782970022700763100,3.76576318359375,-0.99652099609375,-0.0133514404296875,-0.0175628662109375
1782970022710689300,3.775689208984375,-0.9969635009765625,-0.0134124755859375,-0.017059326171875
1782970022720615400,3.785615478515625,-0.99713134765625,-0.0129241943359375,-0.017303466796875
1782970022730541300,3.795541259765625,-0.998077392578125,-0.0142059326171875,-0.01580810546875
1782970022740468200,3.80546826171875,-0.9976654052734375,-0.01446533203125,-0.016571044921875
1782970022750394400,3.815394287109375,-0.99957275390625,-0.013519287109375,-0.0166473388671875
1782970022760320500,3.825320556640625,-0.9969329833984375,-0.013580322265625,-0.0163726806640625
1782970022770247200,3.8352470703125,-0.9992828369140625,-0.0136871337890625,-0.0163421630859375
1782970022780173300,3.84517333984375,-0.997711181640625,-0.0143890380859375,-0.0175323486328125
1782970022790099500,3.855099365234375,-0.9976959228515625,-0.013397216796875,-0.016204833984375
1782970022800025300,3.865025390625,-0.9965972900390625,-0.013336181640625,-0.0153656005859375
1782970022809952300,3.8749521484375,-0.99822998046875,-0.012908935546875,-0.0167236328125
1782970022819878400,3.88487841796875,-0.9979400634765625,-0.0140533447265625,-0.017822265625
1782970022829804500,3.894804443359375,-0.9962921142578125,-0.013702392578125,-0.01513671875
1782970022839730200,3.904730224609375,-0.9981231689453125,-0.0135955810546875,-0.01715087890625
1782970022849657300,3.9146572265625,-0.99822998046875,-0.013275146484375,-0.016204833984375
1782970022859583500,3.92458349609375,-0.9989471435546875,-0.01300048828125,-0.01690673828125
1782970022869509000,3.934509033203125,-0.9987030029296875,-0.0133514404296875,-0.0156707763671875
1782970022879435300,3.944435302734375,-0.9969940185546875,-0.0135040283203125,-0.0178070068359375
1782970022889362400,3.954362548828125,-0.9959259033203125,-0.013275146484375,-0.0160980224609375
1782970022899288300,3.964288330078125,-0.9980316162109375,-0.0130462646484375,-0.0162353515625
1782970022909214200,3.974214111328125,-0.9991455078125,-0.0134735107421875,-0.0166168212890625
1782970022919140400,3.984140380859375,-0.998016357421875,-0.0127410888671875,-0.0147247314453125
1782970022929064200,3.994064208984375,-0.9978790283203125,-0.013763427734375,-0.0179595947265625
1782970022938991400,4.003991455078125,-0.9975738525390625,-0.0135650634765625,-0.0163116455078125
1782970022948917500,4.01391748046875,-0.9973602294921875,-0.013153076171875,-0.01654052734375
1782970022958843100,4.023843017578125,-0.997589111328125,-0.0138397216796875,-0.016876220703125
1782970022968769300,4.033769287109375,-0.997528076171875,-0.013702392578125,-0.01702880859375
1782970022978696400,4.043696533203125,-0.9981689453125,-0.0137939453125,-0.016357421875
1782970022988622300,4.053622314453125,-0.9989013671875,-0.01385498046875,-0.0178070068359375
1782970022998548200,4.06354833984375,-0.9984893798828125,-0.0146636962890625,-0.0167694091796875
1782970023008474400,4.073474365234375,-0.9980621337890625,-0.0134124755859375,-0.016876220703125
1782970023018401300,4.0834013671875,-0.998565673828125,-0.0140228271484375,-0.016326904296875
1782970023028327200,4.0933271484375,-0.9976654052734375,-0.0130157470703125,-0.01751708984375
1782970023038253300,4.10325341796875,-0.9968414306640625,-0.01416015625,-0.0171661376953125
1782970023048179500,4.113179443359375,-0.9986572265625,-0.011444091796875,-0.016571044921875
1782970023058106400,4.1231064453125,-0.999420166015625,-0.0121002197265625,-0.016632080078125
1782970023068032300,4.1330322265625,-0.9981842041015625,-0.0131378173828125,-0.0164947509765625
1782970023077958400,4.14295849609375,-0.998077392578125,-0.0137939453125,-0.0178070068359375
1782970023087884500,4.152884521484375,-0.996795654296875,-0.0134429931640625,-0.01763916015625
1782970023097811200,4.162811279296875,-0.998016357421875,-0.0135345458984375,-0.0151519775390625
1782970023107737300,4.1727373046875,-0.9987335205078125,-0.0141754150390625,-0.0171051025390625
1782970023117663500,4.18266357421875,-0.9978485107421875,-0.0140533447265625,-0.016021728515625
1782970023127589000,4.192589111328125,-0.9983673095703125,-0.01239013671875,-0.0167999267578125
1782970023137516300,4.202516357421875,-0.9983673095703125,-0.0135345458984375,-0.015472412109375
1782970023147442400,4.2124423828125,-0.9980010986328125,-0.0135040283203125,-0.0170440673828125
1782970023157368300,4.222368408203125,-0.997802734375,-0.0132598876953125,-0.0171356201171875
1782970023167294200,4.232294189453125,-0.9992523193359375,-0.0137786865234375,-0.01702880859375
1782970023177221400,4.242221435546875,-0.9986419677734375,-0.0140380859375,-0.0166778564453125
1782970023187147300,4.252147216796875,-0.9983673095703125,-0.0130157470703125,-0.0153656005859375
1782970023197073200,4.2620732421875,-0.9987030029296875,-0.0141143798828125,-0.01531982421875
1782970023207000300,4.272000244140625,-0.9985504150390625,-0.0133056640625,-0.0160064697265625
1782970023216926500,4.281926513671875,-0.9979095458984375,-0.012847900390625,-0.0159912109375
1782970023226852400,4.291852294921875,-0.9971160888671875,-0.0126953125,-0.0165863037109375
1782970023236778200,4.3017783203125,-0.99908447265625,-0.0132598876953125,-0.0157623291015625
1782970023246705400,4.311705322265625,-0.9976654052734375,-0.0132904052734375,-0.01678466796875
1782970023256631300,4.32163134765625,-0.9980316162109375,-0.0139617919921875,-0.015380859375
1782970023266557400,4.331557373046875,-0.9979400634765625,-0.0141143798828125,-0.017486572265625
1782970023276483300,4.3414833984375,-0.9970245361328125,-0.0132293701171875,-0.0174102783203125
1782970023286410200,4.35141015625,-0.996795654296875,-0.014251708984375,-0.0169525146484375
1782970023296336400,4.36133642578125,-0.9969940185546875,-0.0136871337890625,-0.0159454345703125
1782970023306262300,4.37126220703125,-0.9965972900390625,-0.013580322265625,-0.0163116455078125
1782970023316188400,4.3811884765625,-0.998138427734375,-0.0140533447265625,-0.014923095703125
1782970023326115300,4.391115234375,-0.997528076171875,-0.0142364501953125,-0.0164337158203125
1782970023336043300,4.401043212890625,-0.998382568359375,-0.0135955810546875,-0.0168609619140625
1782970023345969400,4.410969482421875,-0.9979248046875,-0.012603759765625,-0.0157470703125
1782970023355896300,4.420896240234375,-0.998443603515625,-0.0133819580078125,-0.0155792236328125
1782970023365822200,4.430822265625,-0.999114990234375,-0.0133514404296875,-0.0164337158203125
1782970023375748400,4.440748291015625,-0.998565673828125,-0.012359619140625,-0.015106201171875
1782970023385675500,4.450675537109375,-0.9980010986328125,-0.013153076171875,-0.0172882080078125
1782970023395601200,4.46060107421875,-0.9979248046875,-0.0142669677734375,-0.0179290771484375
1782970023405527300,4.47052734375,-0.9982757568359375,-0.0140228271484375,-0.01593017578125
1782970023415454500,4.480454345703125,-0.9980621337890625,-0.0126495361328125,-0.0157928466796875
1782970023425381400,4.49038134765625,-0.9980010986328125,-0.01409912109375,-0.0164031982421875
1782970023435307300,4.500307373046875,-0.997100830078125,-0.011322021484375,-0.0177459716796875
1782970023445233400,4.5102333984375,-0.997161865234375,-0.01226806640625,-0.017791748046875
1782970023455159600,4.52015966796875,-0.9967803955078125,-0.0126953125,-0.01611328125
1782970023465086200,4.530086181640625,-0.997100830078125,-0.0135650634765625,-0.0157012939453125
1782970023475012400,4.540012451171875,-0.998504638671875,-0.0129852294921875,-0.0178375244140625
1782970023484938500,4.5499384765625,-0.997772216796875,-0.01361083984375,-0.01788330078125
1782970023494864100,4.559864013671875,-0.9976959228515625,-0.012298583984375,-0.016357421875
1782970023504791300,4.569791259765625,-0.9977264404296875,-0.0134735107421875,-0.01727294921875
1782970023514717400,4.579717529296875,-0.9970550537109375,-0.0128326416015625,-0.01641845703125
1782970023524643300,4.589643310546875,-0.9990997314453125,-0.01239013671875,-0.0167236328125
1782970023534569200,4.5995693359375,-0.9983367919921875,-0.013092041015625,-0.0150604248046875
1782970023544496400,4.609496337890625,-0.998138427734375,-0.013702392578125,-0.0173797607421875
1782970023554422300,4.61942236328125,-0.9984283447265625,-0.0133819580078125,-0.0160980224609375
1782970023564348200,4.62934814453125,-0.9968414306640625,-0.0140533447265625,-0.0174102783203125
1782970023574274300,4.6392744140625,-0.9972991943359375,-0.0139312744140625,-0.0167694091796875
1782970023584201200,4.649201171875,-0.9976043701171875,-0.0125579833984375,-0.01605224609375
1782970023594127400,4.65912744140625,-0.9969635009765625,-0.013031005859375,-0.015899658203125
1782970023604053200,4.66905322265625,-0.9971923828125,-0.013214111328125,-0.0171966552734375
1782970023613979400,4.6789794921875,-0.9974822998046875,-0.0138702392578125,-0.0157928466796875
1782970023623906300,4.68890625,-0.997528076171875,-0.0133819580078125,-0.0173187255859375
1782970023633832400,4.69883251953125,-0.999237060546875,-0.011199951171875,-0.0180206298828125
1782970023643758300,4.70875830078125,-0.9987030029296875,-0.012298583984375,-0.016571044921875
1782970023653684500,4.7186845703125,-0.9975433349609375,-0.0138397216796875,-0.01611328125
1782970023663611400,4.728611328125,-0.998779296875,-0.013397216796875,-0.015869140625
1782970023673537300,4.738537353515625,-0.99859619140625,-0.0142059326171875,-0.0176239013671875
1782970023683463400,4.74846337890625,-0.9978485107421875,-0.013519287109375,-0.016143798828125
1782970023693389300,4.758389404296875,-0.9983062744140625,-0.0128021240234375,-0.0166015625
1782970023703316500,4.76831640625,-0.998016357421875,-0.01171875,-0.0164794921875
1782970023713242400,4.778242431640625,-0.99658203125,-0.012481689453125,-0.016204833984375
1782970023723168300,4.788168212890625,-0.9980621337890625,-0.0130767822265625,-0.01580810546875
1782970023733094400,4.798094482421875,-0.99853515625,-0.0142364501953125,-0.01751708984375
1782970023743021300,4.808021240234375,-0.9986724853515625,-0.0132598876953125,-0.0163421630859375
1782970023752947500,4.817947509765625,-0.997650146484375,-0.01318359375,-0.01702880859375
1782970023762873300,4.827873291015625,-0.996307373046875,-0.013336181640625,-0.017852783203125
1782970023772800500,4.837800537109375,-0.998870849609375,-0.013275146484375,-0.0164337158203125
1782970023782726400,4.847726318359375,-0.9985504150390625,-0.012359619140625,-0.0169677734375
1782970023792652300,4.85765234375,-0.9970703125,-0.0138397216796875,-0.016754150390625
1782970023802578400,4.867578369140625,-0.99658203125,-0.0139007568359375,-0.01666259765625
1782970023812505300,4.87750537109375,-0.99822998046875,-0.0137786865234375,-0.01739501953125
1782970023822431200,4.88743115234375,-0.9984588623046875,-0.0139923095703125,-0.0171356201171875
1782970023832357400,4.897357421875,-0.997528076171875,-0.013336181640625,-0.0180511474609375
1782970023842283300,4.907283203125,-0.9985504150390625,-0.0131683349609375,-0.0177764892578125
1782970023852210200,4.917210205078125,-0.9980010986328125,-0.013275146484375,-0.017242431640625
1782970023862136300,4.92713623046875,-0.99786376953125,-0.015228271484375,-0.0159759521484375
1782970023872062500,4.9370625,-0.9973297119140625,-0.0133209228515625,-0.016357421875
1782970023881988400,4.94698828125,-0.9980316162109375,-0.0130157470703125,-0.018218994140625
1782970023891915300,4.956915283203125,-0.9973907470703125,-0.0127105712890625,-0.015655517578125
1782970023901841400,4.96684130859375,-0.998199462890625,-0.0123138427734375,-0.015533447265625
1782970023911767300,4.976767333984375,-0.9990081787109375,-0.0130157470703125,-0.01629638671875
1782970023921693400,4.986693359375,-0.997802734375,-0.0140533447265625,-0.0178375244140625
1782970023931620400,4.996620361328125,-0.9983673095703125,-0.0138092041015625,-0.0176239013671875
1782970023941546500,5.00654638671875,-0.99798583984375,-0.0134124755859375,-0.0157470703125
1782970023951472400,5.016472412109375,-0.9976959228515625,-0.01300048828125,-0.015838623046875
1782970023961398300,5.026398193359375,-0.9985198974609375,-0.012603759765625,-0.0187225341796875
1782970023971325400,5.036325439453125,-0.99725341796875,-0.0137481689453125,-0.0166473388671875
1782970023981251300,5.046251220703125,-0.9980926513671875,-0.013763427734375,-0.0150909423828125
1782970023991177200,5.05617724609375,-0.99884033203125,-0.013427734375,-0.0170745849609375
1782970024001103400,5.066103271484375,-0.9971771240234375,-0.0137176513671875,-0.0152587890625
1782970024011030500,5.076030517578125,-0.997711181640625,-0.013427734375,-0.01495361328125
1782970024020956200,5.0859560546875,-0.99884033203125,-0.0137939453125,-0.017425537109375
1782970024030882300,5.09588232421875,-0.9979248046875,-0.0139923095703125,-0.017608642578125
1782970024040808400,5.105808349609375,-0.997406005859375,-0.0123748779296875,-0.0154571533203125
1782970024050735400,5.1157353515625,-0.99932861328125,-0.0133819580078125,-0.015838623046875
1782970024060661200,5.1256611328125,-0.9975433349609375,-0.013671875,-0.0179443359375
1782970024070587400,5.13558740234375,-0.99835205078125,-0.0131988525390625,-0.0161285400390625
1782970024080513300,5.14551318359375,-0.99908447265625,-0.013031005859375,-0.0152435302734375
1782970024090440200,5.155440185546875,-0.9973297119140625,-0.0143890380859375,-0.0169525146484375
1782970024100366300,5.165366455078125,-0.9975128173828125,-0.0132904052734375,-0.015899658203125
1782970024110292500,5.17529248046875,-0.9976806640625,-0.013916015625,-0.016845703125
1782970024120219100,5.18521923828125,-0.9975433349609375,-0.0137786865234375,-0.0169830322265625
1782970024130145300,5.195145263671875,-0.9980926513671875,-0.0137176513671875,-0.0164337158203125
1782970024140071400,5.205071533203125,-0.9981536865234375,-0.0127105712890625,-0.016845703125
1782970024149997300,5.214997314453125,-0.997314453125,-0.0136566162109375,-0.0165863037109375
1782970024159924200,5.22492431640625,-0.99761962890625,-0.013275146484375,-0.0177764892578125
1782970024169850400,5.234850341796875,-0.997161865234375,-0.015045166015625,-0.0163116455078125
1782970024179776500,5.244776611328125,-0.9967498779296875,-0.0137939453125,-0.0169677734375
1782970024189702400,5.254702392578125,-0.998321533203125,-0.0123748779296875,-0.01666259765625
1782970024199629300,5.26462939453125,-0.999267578125,-0.0135345458984375,-0.0164031982421875
1782970024209555500,5.274555419921875,-0.9978485107421875,-0.0139923095703125,-0.0149993896484375
1782970024219481300,5.2844814453125,-0.9978179931640625,-0.0122222900390625,-0.0155029296875
1782970024229407200,5.2944072265625,-0.99786376953125,-0.0133514404296875,-0.01708984375
1782970024239334400,5.30433447265625,-0.99920654296875,-0.014251708984375,-0.0162506103515625
1782970024249260500,5.314260498046875,-0.9987945556640625,-0.0142059326171875,-0.0158843994140625
1782970024259186200,5.324186279296875,-0.997589111328125,-0.0141143798828125,-0.015380859375
1782970024269112300,5.3341123046875,-0.9977264404296875,-0.0119171142578125,-0.016082763671875
1782970024279039500,5.34403955078125,-0.9983673095703125,-0.01275634765625,-0.0158538818359375
1782970024288965000,5.353965087890625,-0.9985809326171875,-0.0137786865234375,-0.017181396484375
1782970024298891300,5.363891357421875,-0.9969635009765625,-0.011688232421875,-0.016021728515625
1782970024308817400,5.3738173828125,-0.997467041015625,-0.012664794921875,-0.0159912109375
1782970024318744300,5.383744384765625,-0.998626708984375,-0.014129638671875,-0.0179290771484375
1782970024328670200,5.393670166015625,-0.998199462890625,-0.013092041015625,-0.0167236328125
1782970024338596400,5.403596435546875,-0.9966888427734375,-0.0128631591796875,-0.0167694091796875
1782970024348522500,5.4135224609375,-0.99658203125,-0.01214599609375,-0.01556396484375
1782970024358449200,5.42344921875,-0.9969024658203125,-0.0139923095703125,-0.017242431640625
1782970024368375300,5.433375244140625,-0.9967498779296875,-0.0124664306640625,-0.01727294921875
1782970024378301400,5.443301513671875,-0.9974517822265625,-0.01318359375,-0.0153961181640625
1782970024388227300,5.453227294921875,-0.9994964599609375,-0.0134124755859375,-0.0165863037109375
1782970024398154200,5.463154296875,-0.997344970703125,-0.0126800537109375,-0.0166015625
1782970024408080400,5.473080322265625,-0.997833251953125,-0.013824462890625,-0.0169830322265625
1782970024418006300,5.48300634765625,-0.9979705810546875,-0.0135650634765625,-0.016937255859375
1782970024427932200,5.49293212890625,-0.998443603515625,-0.0128021240234375,-0.0174102783203125
1782970024437859300,5.502859375,-0.9969329833984375,-0.012298583984375,-0.0167388916015625
1782970024447785200,5.51278515625,-0.9986724853515625,-0.0129241943359375,-0.0161590576171875
1782970024457711000,5.522711181640625,-0.9972991943359375,-0.012664794921875,-0.01556396484375
1782970024467637200,5.53263720703125,-0.99835205078125,-0.0135498046875,-0.015869140625
1782970024477564200,5.542564208984375,-0.9978790283203125,-0.0135955810546875,-0.0162811279296875
1782970024487490300,5.552490234375,-0.996307373046875,-0.0141754150390625,-0.0164337158203125
1782970024497416200,5.562416259765625,-0.9988861083984375,-0.01275634765625,-0.0155181884765625
1782970024507342000,5.572342041015625,-0.998565673828125,-0.013702392578125,-0.016387939453125
1782970024517269200,5.582269287109375,-0.997039794921875,-0.0137786865234375,-0.01837158203125
1782970024527195100,5.592195068359375,-0.998931884765625,-0.01348876953125,-0.01544189453125
1782970024537121300,5.602121337890625,-0.99884033203125,-0.0129852294921875,-0.0151824951171875
1782970024547047200,5.612047119140625,-0.997528076171875,-0.013702392578125,-0.015594482421875
1782970024556974000,5.62197412109375,-0.997467041015625,-0.0128173828125,-0.0171966552734375
1782970024566900200,5.631900146484375,-0.9976806640625,-0.0127410888671875,-0.0157318115234375
1782970024576826000,5.641826171875,-0.99810791015625,-0.012939453125,-0.016571044921875
1782970024586752300,5.651752197265625,-0.9979400634765625,-0.0141448974609375,-0.0161590576171875
1782970024596679200,5.66167919921875,-0.9969635009765625,-0.0135650634765625,-0.0169525146484375
1782970024606605300,5.671605224609375,-0.9969329833984375,-0.0132293701171875,-0.01519775390625
1782970024616531200,5.68153125,-0.9971771240234375,-0.0140380859375,-0.0164337158203125
1782970024626457000,5.69145703125,-0.998382568359375,-0.013641357421875,-0.0162506103515625
1782970024636384300,5.70138427734375,-0.9978485107421875,-0.0128631591796875,-0.01605224609375
1782970024646310400,5.711310302734375,-0.9972991943359375,-0.011962890625,-0.016082763671875
1782970024656236300,5.721236328125,-0.998321533203125,-0.0139617919921875,-0.016326904296875
1782970024666163200,5.7311630859375,-0.9969940185546875,-0.0137176513671875,-0.017425537109375
1782970024676089300,5.74108935546875,-0.9971160888671875,-0.014190673828125,-0.0171356201171875
1782970024686015200,5.75101513671875,-0.997772216796875,-0.0125732421875,-0.0160675048828125
1782970024695941000,5.760941162109375,-0.9974517822265625,-0.0134429931640625,-0.0171356201171875
1782970024705868300,5.770868408203125,-0.9971466064453125,-0.0130462646484375,-0.0159759521484375
1782970024715794400,5.78079443359375,-0.9988861083984375,-0.0125885009765625,-0.015777587890625
1782970024725720000,5.790719970703125,-0.99847412109375,-0.01275634765625,-0.0160675048828125
1782970024735646200,5.800646240234375,-0.997467041015625,-0.0124664306640625,-0.0158233642578125
1782970024745573400,5.810573486328125,-0.9981689453125,-0.0129547119140625,-0.0164794921875
1782970024755499000,5.8204990234375,-0.99853515625,-0.014373779296875,-0.0170135498046875
1782970024765425200,5.830425048828125,-0.9968109130859375,-0.013580322265625,-0.0169830322265625
1782970024775351300,5.840351318359375,-0.996795654296875,-0.012664794921875,-0.015228271484375
1782970024785278200,5.8502783203125,-0.99658203125,-0.01507568359375,-0.0162353515625
1782970024795204000,5.8602041015625,-0.9980926513671875,-0.012786865234375,-0.015838623046875
1782970024805130200,5.870130126953125,-0.997650146484375,-0.0135498046875,-0.0167694091796875
1782970024815056400,5.880056396484375,-0.99908447265625,-0.0128326416015625,-0.017303466796875
1782970024824983000,5.889983154296875,-0.9983673095703125,-0.013275146484375,-0.016326904296875
1782970024834909200,5.8999091796875,-0.9981536865234375,-0.013336181640625,-0.01568603515625
1782970024844835300,5.90983544921875,-0.999786376953125,-0.011932373046875,-0.0156707763671875
1782970024854761200,5.91976123046875,-0.997467041015625,-0.013641357421875,-0.0157623291015625
1782970024864688000,5.929688232421875,-0.9972991943359375,-0.0130615234375,-0.017303466796875
1782970024874614300,5.9396142578125,-0.9972076416015625,-0.01312255859375,-0.0167388916015625
1782970024884540400,5.94954052734375,-0.9977264404296875,-0.01348876953125,-0.01580810546875
1782970024894466000,5.959466064453125,-0.99700927734375,-0.013641357421875,-0.0156707763671875
1782970024904393200,5.969393310546875,-0.998138427734375,-0.013336181640625,-0.01617431640625
1782970024914319400,5.9793193359375,-0.998016357421875,-0.0139617919921875,-0.015167236328125
1782970024924245000,5.989244873046875,-0.9969024658203125,-0.01409912109375,-0.01708984375
1782970024934171100,5.999171142578125,-0.998565673828125,-0.013885498046875,-0.0168609619140625
1782970024944098300,6.009098388671875,-0.9980621337890625,-0.0123138427734375,-0.017364501953125
1782970024954024200,6.019024169921875,-0.9983978271484375,-0.0143280029296875,-0.01605224609375
1782970024963950000,6.0289501953125,-0.9975738525390625,-0.0136260986328125,-0.0160369873046875
1782970024973876200,6.038876220703125,-0.9980010986328125,-0.0128326416015625,-0.015655517578125
1782970024983803400,6.048803466796875,-0.9981536865234375,-0.0139312744140625,-0.0161895751953125
1782970024993729000,6.05872900390625,-0.9969482421875,-0.0131988525390625,-0.0177764892578125
1782970025003655200,6.0686552734375,-0.9986419677734375,-0.0123748779296875,-0.017059326171875
1782970025013581300,6.078581298828125,-0.998779296875,-0.0132598876953125,-0.01446533203125
1782970025023508200,6.08850830078125,-0.9986419677734375,-0.0139312744140625,-0.0159912109375
1782970025033434000,6.09843408203125,-0.998931884765625,-0.013946533203125,-0.0164031982421875
1782970025043360300,6.1083603515625,-0.9969635009765625,-0.014801025390625,-0.016265869140625
1782970025053286400,6.118286376953125,-0.9983978271484375,-0.0131378173828125,-0.0171051025390625
1782970025063213000,6.128213134765625,-0.9989013671875,-0.0129241943359375,-0.0170135498046875
1782970025073139200,6.13813916015625,-0.99908447265625,-0.011688232421875,-0.0173187255859375
1782970025083065300,6.1480654296875,-0.9989776611328125,-0.0125579833984375,-0.0153045654296875
1782970025092991200,6.1579912109375,-0.9981231689453125,-0.01251220703125,-0.017669677734375
1782970025102918100,6.167918212890625,-0.99676513671875,-0.01373291015625,-0.0176544189453125
1782970025112844300,6.17784423828125,-0.9972991943359375,-0.0121917724609375,-0.015777587890625
1782970025122770400,6.1877705078125,-0.9985198974609375,-0.013580322265625,-0.0155487060546875
1782970025132696000,6.197696044921875,-0.9980621337890625,-0.0137176513671875,-0.0160064697265625
1782970025142623200,6.207623291015625,-0.9970550537109375,-0.0128631591796875,-0.0168914794921875
1782970025152549400,6.21754931640625,-0.9968414306640625,-0.01416015625,-0.0169525146484375
1782970025162475000,6.22747509765625,-0.997650146484375,-0.01385498046875,-0.017547607421875
1782970025172401200,6.237401123046875,-1.000335693359375,-0.01251220703125,-0.016448974609375
1782970025182328300,6.247328369140625,-0.997955322265625,-0.0139007568359375,-0.0175933837890625
1782970025192254200,6.257254150390625,-0.997283935546875,-0.0131072998046875,-0.0167083740234375
1782970025202180000,6.26718017578125,-0.9985504150390625,-0.013275146484375,-0.0171051025390625
1782970025212106200,6.277106201171875,-0.99749755859375,-0.013519287109375,-0.016876220703125
1782970025222033200,6.287033203125,-0.9973907470703125,-0.0136566162109375,-0.016357421875
1782970025231959000,6.296958984375,-0.9982452392578125,-0.0135345458984375,-0.0154571533203125
1782970025241885200,6.30688525390625,-0.9987335205078125,-0.0116424560546875,-0.0170745849609375
1782970025251811300,6.316811279296875,-0.9984588623046875,-0.0127410888671875,-0.018035888671875
1782970025261738200,6.32673828125,-0.9974517822265625,-0.012237548828125,-0.0157470703125
1782970025271664000,6.3366640625,-0.9994964599609375,-0.012847900390625,-0.0151519775390625
1782970025281590300,6.34659033203125,-0.9975738525390625,-0.01263427734375,-0.0165863037109375
1782970025291516400,6.356516357421875,-0.9991302490234375,-0.0139007568359375,-0.0176849365234375
1782970025301443000,6.366443115234375,-0.99871826171875,-0.012725830078125,-0.01568603515625
1782970025311369200,6.376369140625,-0.997406005859375,-0.013397216796875,-0.0168609619140625
1782970025321295400,6.38629541015625,-0.9977874755859375,-0.0131988525390625,-0.0161895751953125
1782970025331222300,6.39622216796875,-0.9984588623046875,-0.01263427734375,-0.0177001953125
1782970025341148200,6.406148193359375,-0.998504638671875,-0.013641357421875,-0.0167999267578125
1782970025351074300,6.41607421875,-0.9977264404296875,-0.012298583984375,-0.016021728515625
1782970025361000200,6.426000244140625,-0.9975128173828125,-0.01220703125,-0.0159454345703125
1782970025370927000,6.435927001953125,-0.99688720703125,-0.0130615234375,-0.0164642333984375
1782970025380853200,6.445853271484375,-0.9979400634765625,-0.014190673828125,-0.0166015625
1782970025390779100,6.455779052734375,-0.997344970703125,-0.013275146484375,-0.0168304443359375
1782970025400705000,6.465705078125,-0.9972381591796875,-0.0128173828125,-0.0176239013671875
1782970025410632200,6.475632080078125,-0.9976348876953125,-0.0128326416015625,-0.0159759521484375
1782970025420558300,6.485558349609375,-0.999755859375,-0.0147857666015625,-0.018035888671875
1782970025430484200,6.495484130859375,-0.9971160888671875,-0.013275146484375,-0.0170440673828125
1782970025440410000,6.50541015625,-0.998626708984375,-0.0130157470703125,-0.0164337158203125
1782970025450337300,6.515337158203125,-0.997802734375,-0.01275634765625,-0.0148468017578125
1782970025460263200,6.52526318359375,-0.9978485107421875,-0.0124969482421875,-0.0174560546875
1782970025470189000,6.53518896484375,-0.9986724853515625,-0.0124053955078125,-0.017364501953125
1782970025480115200,6.545115234375,-0.998260498046875,-0.0140838623046875,-0.0174102783203125
1782970025490042000,6.5550419921875,-0.99884033203125,-0.0135345458984375,-0.015838623046875
1782970025499968300,6.56496826171875,-0.999603271484375,-0.01275634765625,-0.016845703125
1782970025509894100,6.57489404296875,-0.998443603515625,-0.01416015625,-0.01708984375
1782970025519820300,6.5848203125,-0.99774169921875,-0.013671875,-0.016571044921875
1782970025529747200,6.594747314453125,-0.99786376953125,-0.0140838623046875,-0.016815185546875
1782970025539673300,6.60467333984375,-0.997772216796875,-0.01312255859375,-0.0150299072265625
1782970025549599200,6.61459912109375,-0.998046875,-0.01226806640625,-0.0160675048828125
1782970025559525400,6.624525390625,-0.9977874755859375,-0.0127716064453125,-0.016937255859375
1782970025569452300,6.634452392578125,-0.9975433349609375,-0.0135650634765625,-0.01556396484375
1782970025579378200,6.644378173828125,-0.9983978271484375,-0.012237548828125,-0.0157012939453125
1782970025589304300,6.65430419921875,-0.9993743896484375,-0.0137176513671875,-0.015380859375
1782970025599230200,6.664230224609375,-0.998291015625,-0.01397705078125,-0.0180511474609375
1782970025609157400,6.674157470703125,-0.9972076416015625,-0.013458251953125,-0.0182342529296875
1782970025619083300,6.684083251953125,-0.99908447265625,-0.013824462890625,-0.015777587890625
1782970025629009200,6.694009033203125,-0.9995269775390625,-0.013641357421875,-0.01611328125
1782970025638935300,6.703935302734375,-0.9986572265625,-0.012969970703125,-0.01812744140625
1782970025648862200,6.7138623046875,-0.997833251953125,-0.01324462890625,-0.0166168212890625
1782970025658788000,6.7237880859375,-0.995819091796875,-0.014190673828125,-0.0152130126953125
1782970025668714200,6.73371435546875,-0.9979248046875,-0.011383056640625,-0.016510009765625
1782970025678640000,6.74364013671875,-0.99786376953125,-0.0134429931640625,-0.0163726806640625
1782970025688567000,6.753567138671875,-0.9994964599609375,-0.0128021240234375,-0.015777587890625
1782970025698493200,6.7634931640625,-0.9989166259765625,-0.0118865966796875,-0.015594482421875
1782970025708419300,6.77341943359375,-0.9974212646484375,-0.01214599609375,-0.0168609619140625
1782970025718345200,6.78334521484375,-0.997894287109375,-0.013092041015625,-0.0160980224609375
1782970025728272100,6.793272216796875,-0.9995880126953125,-0.01214599609375,-0.0161285400390625
1782970025738198300,6.8031982421875,-0.9983673095703125,-0.012542724609375,-0.016082763671875
1782970025748124200,6.813124267578125,-0.9985504150390625,-0.014068603515625,-0.016357421875
1782970025758050300,6.82305029296875,-0.9976806640625,-0.012939453125,-0.0164337158203125
1782970025767977200,6.832977294921875,-0.9980316162109375,-0.012054443359375,-0.0158843994140625
1782970025777903400,6.8429033203125,-0.9975738525390625,-0.0129852294921875,-0.0169677734375
1782970025787829200,6.852829345703125,-0.9976348876953125,-0.0132904052734375,-0.016143798828125
1782970025797755100,6.862755126953125,-0.9980926513671875,-0.0125885009765625,-0.015350341796875
1782970025807682300,6.872682373046875,-0.9981842041015625,-0.01202392578125,-0.01666259765625
1782970025817608200,6.882608154296875,-0.995452880859375,-0.0139617919921875,-0.0160980224609375
1782970025827534000,6.8925341796875,-0.9981842041015625,-0.0131378173828125,-0.01702880859375
1782970025837460200,6.902460205078125,-0.998199462890625,-0.0123443603515625,-0.0169525146484375
1782970025847387400,6.912387451171875,-0.9981536865234375,-0.013458251953125,-0.0167236328125
1782970025857313300,6.922313232421875,-0.998016357421875,-0.0124969482421875,-0.015777587890625
1782970025867239200,6.9322392578125,-0.9983367919921875,-0.0140533447265625,-0.0166015625
1782970025877165300,6.942165283203125,-0.997894287109375,-0.012939453125,-0.0167388916015625
1782970025887092200,6.95209228515625,-0.9990386962890625,-0.01312255859375,-0.0148162841796875
1782970025897018000,6.96201806640625,-0.9980316162109375,-0.0126190185546875,-0.0162811279296875
1782970025906944300,6.9719443359375,-0.9981689453125,-0.013336181640625,-0.0183258056640625
1782970025916870100,6.9818701171875,-0.9981689453125,-0.012939453125,-0.0157928466796875
1782970025926797000,6.991797119140625,-0.99786376953125,-0.012939453125,-0.0186004638671875
1782970025936723200,7.00172314453125,-0.9991607666015625,-0.0120849609375,-0.016448974609375
1782970025946649300,7.0116494140625,-0.999267578125,-0.01300048828125,-0.0165557861328125
1782970025956575200,7.0215751953125,-0.9987640380859375,-0.01251220703125,-0.0149688720703125
1782970025966502100,7.031502197265625,-0.9979400634765625,-0.0119171142578125,-0.0146636962890625
1782970025976428300,7.04142822265625,-0.9964752197265625,-0.0134429931640625,-0.0174102783203125
1782970025986354200,7.051354248046875,-0.9969940185546875,-0.013427734375,-0.0160980224609375
1782970025996280300,7.0612802734375,-0.99896240234375,-0.013885498046875,-0.0165252685546875
1782970026006207200,7.071207275390625,-0.997039794921875,-0.01239013671875,-0.017486572265625
1782970026016133400,7.08113330078125,-0.9984283447265625,-0.012908935546875,-0.0155792236328125
1782970026026059300,7.091059326171875,-0.9983673095703125,-0.0131988525390625,-0.015655517578125
1782970026035985200,7.100985107421875,-0.9976043701171875,-0.0117950439453125,-0.017303466796875
1782970026045912300,7.110912353515625,-0.99969482421875,-0.0119171142578125,-0.01641845703125
1782970026055838200,7.120838134765625,-0.998260498046875,-0.01361083984375,-0.017059326171875
1782970026065764000,7.13076416015625,-0.997589111328125,-0.014495849609375,-0.0185699462890625
1782970026075690200,7.140690185546875,-0.9972381591796875,-0.0136260986328125,-0.0170135498046875
1782970026085617400,7.150617431640625,-0.99908447265625,-0.01373291015625,-0.017181396484375
1782970026095543000,7.16054296875,-0.99884033203125,-0.0136871337890625,-0.0157012939453125
1782970026105469200,7.17046923828125,-0.9991455078125,-0.012786865234375,-0.0164947509765625
1782970026115395300,7.180395263671875,-0.9982147216796875,-0.01214599609375,-0.017333984375
1782970026125322000,7.190322021484375,-0.9976806640625,-0.013671875,-0.0166015625
1782970026135248100,7.200248046875,-0.99737548828125,-0.012847900390625,-0.0154266357421875
1782970026145174300,7.21017431640625,-0.9983367919921875,-0.0130157470703125,-0.0165557861328125
1782970026155100200,7.22010009765625,-0.998504638671875,-0.014190673828125,-0.0166473388671875
1782970026165027000,7.230027099609375,-0.9999542236328125,-0.013397216796875,-0.015716552734375
1782970026174953200,7.239953125,-0.99847412109375,-0.01275634765625,-0.0167388916015625
1782970026184879400,7.24987939453125,-0.9983978271484375,-0.0126800537109375,-0.0167999267578125
1782970026194805200,7.25980517578125,-0.998779296875,-0.01275634765625,-0.016357421875
1782970026204732200,7.269732177734375,-0.997833251953125,-0.013336181640625,-0.0166473388671875
1782970026214658300,7.279658203125,-0.9985809326171875,-0.0123138427734375,-0.015411376953125
1782970026224584200,7.289584228515625,-0.99755859375,-0.01318359375,-0.0179290771484375
1782970026234510000,7.299510009765625,-0.9981842041015625,-0.012969970703125,-0.01702880859375
1782970026244437200,7.309437255859375,-0.9975738525390625,-0.0130462646484375,-0.016204833984375
1782970026254363400,7.31936328125,-0.998016357421875,-0.012176513671875,-0.017669677734375
1782970026264289000,7.3292890625,-0.9973297119140625,-0.0125579833984375,-0.014434814453125
1782970026274216200,7.33921630859375,-0.9973602294921875,-0.0133819580078125,-0.015167236328125
1782970026284142300,7.349142333984375,-0.9976959228515625,-0.011627197265625,-0.0175933837890625
1782970026294068200,7.359068115234375,-0.9985504150390625,-0.0135345458984375,-0.0174102783203125
1782970026303994000,7.368994140625,-0.9972991943359375,-0.0137176513671875,-0.01483154296875
1782970026313921300,7.37892138671875,-0.9975738525390625,-0.0137481689453125,-0.0152587890625
1782970026323847200,7.38884716796875,-0.998321533203125,-0.0141143798828125,-0.0159912109375
1782970026333773000,7.39877294921875,-0.9966888427734375,-0.014007568359375,-0.0161895751953125
1782970026343699200,7.40869921875,-0.9971466064453125,-0.0130462646484375,-0.0174102783203125
1782970026353626400,7.41862646484375,-0.9975738525390625,-0.0125579833984375,-0.0173492431640625
1782970026363552300,7.42855224609375,-0.9997406005859375,-0.01239013671875,-0.0167694091796875
1782970026373478100,7.43847802734375,-0.998138427734375,-0.0137176513671875,-0.016632080078125
1782970026383404300,7.448404296875,-0.9983367919921875,-0.012908935546875,-0.01641845703125
1782970026393330200,7.458330078125,-0.9982452392578125,-0.013458251953125,-0.016693115234375
1782970026403257000,7.468257080078125,-0.9981231689453125,-0.012908935546875,-0.0181121826171875
1782970026413183200,7.478183349609375,-0.9974517822265625,-0.01190185546875,-0.01812744140625
1782970026423108900,7.48810888671875,-0.9980621337890625,-0.0141448974609375,-0.016448974609375
1782970026433035000,7.498034912109375,-0.99737548828125,-0.0123291015625,-0.0139617919921875
1782970026442962000,7.5079619140625,-0.99713134765625,-0.012298583984375,-0.016387939453125
1782970026452887800,7.5178876953125,-0.9992218017578125,-0.0132293701171875,-0.016082763671875
1782970026462814000,7.52781396484375,-0.99700927734375,-0.0141448974609375,-0.0159454345703125
1782970026472739800,7.53773974609375,-0.9981842041015625,-0.013275146484375,-0.0158233642578125
1782970026482666800,7.547666748046875,-0.998992919921875,-0.0118865966796875,-0.017242431640625
1782970026492593000,7.557593017578125,-0.99847412109375,-0.0128631591796875,-0.0168304443359375
1782970026502518800,7.567518798828125,-0.9981536865234375,-0.0135498046875,-0.0161590576171875
1782970026512446000,7.577446044921875,-0.9984893798828125,-0.013214111328125,-0.01580810546875
1782970026522371800,7.587371826171875,-0.998565673828125,-0.013916015625,-0.0167388916015625
1782970026532297700,7.597297607421875,-0.997711181640625,-0.0133819580078125,-0.016357421875
1782970026542224000,7.607223876953125,-0.9975433349609375,-0.0128173828125,-0.0154876708984375
1782970026552150800,7.61715087890625,-0.998077392578125,-0.0137939453125,-0.0162811279296875
1782970026562077000,7.627076904296875,-0.999053955078125,-0.012481689453125,-0.0190277099609375
1782970026572002800,7.6370029296875,-0.9985809326171875,-0.0128631591796875,-0.01678466796875
1782970026581928700,7.6469287109375,-0.99798583984375,-0.0123443603515625,-0.0167388916015625
1782970026591855900,7.65685595703125,-0.997711181640625,-0.01190185546875,-0.0166168212890625
1782970026601781800,7.66678173828125,-0.9970855712890625,-0.013458251953125,-0.0177001953125
1782970026611708000,7.6767080078125,-0.99761962890625,-0.01251220703125,-0.0165863037109375
1782970026621633800,7.6866337890625,-0.999053955078125,-0.01318359375,-0.0172119140625
1782970026631560700,7.696560791015625,-0.998382568359375,-0.0128631591796875,-0.0154876708984375
1782970026641486800,7.70648681640625,-0.9997100830078125,-0.0135650634765625,-0.0172882080078125
1782970026651412700,7.716412841796875,-0.9981536865234375,-0.013519287109375,-0.0172576904296875
1782970026661339000,7.7263388671875,-0.998046875,-0.012664794921875,-0.0162200927734375
1782970026671265800,7.736265869140625,-0.9965972900390625,-0.0130462646484375,-0.017242431640625
1782970026681192000,7.74619189453125,-0.99749755859375,-0.01348876953125,-0.016082763671875
1782970026691117800,7.756117919921875,-0.9976654052734375,-0.0134429931640625,-0.0151519775390625
1782970026701044000,7.7660439453125,-0.9992828369140625,-0.0148773193359375,-0.0160980224609375
1782970026710971000,7.775970947265625,-0.99884033203125,-0.0129547119140625,-0.014495849609375
1782970026720896800,7.785896728515625,-0.9973297119140625,-0.0132598876953125,-0.016204833984375
1782970026730823000,7.795822998046875,-0.9984130859375,-0.0137481689453125,-0.0153045654296875
1782970026740748800,7.805748779296875,-0.996826171875,-0.014312744140625,-0.0170135498046875
1782970026750676000,7.815676025390625,-0.9985198974609375,-0.013153076171875,-0.017364501953125
1782970026760601900,7.825601806640625,-0.9976806640625,-0.0118560791015625,-0.0164337158203125
1782970026770527700,7.83552783203125,-0.9970245361328125,-0.0138092041015625,-0.01654052734375
1782970026780454000,7.845453857421875,-0.997528076171875,-0.01300048828125,-0.016510009765625
1782970026790381000,7.855381103515625,-0.996368408203125,-0.0127716064453125,-0.0152740478515625
1782970026800306700,7.865306640625,-0.9984893798828125,-0.013214111328125,-0.016387939453125
1782970026810232800,7.87523291015625,-0.9981231689453125,-0.013458251953125,-0.0166778564453125
1782970026820158700,7.88515869140625,-0.9980926513671875,-0.0122528076171875,-0.01690673828125
1782970026830085600,7.895085693359375,-0.9976959228515625,-0.0122833251953125,-0.01605224609375
1782970026840011800,7.90501171875,-0.996826171875,-0.0136871337890625,-0.0169525146484375
1782970026849938000,7.91493798828125,-0.996917724609375,-0.012786865234375,-0.0156097412109375
1782970026859863800,7.92486376953125,-0.998504638671875,-0.013427734375,-0.015380859375
1782970026869790700,7.934790771484375,-0.997528076171875,-0.0114288330078125,-0.01629638671875
1782970026879716900,7.944716796875,-0.99761962890625,-0.013916015625,-0.015228271484375
1782970026889643000,7.95464306640625,-0.998260498046875,-0.01336669921875,-0.017578125
1782970026899569000,7.96456884765625,-0.9972991943359375,-0.0135345458984375,-0.017669677734375
1782970026909495800,7.974495849609375,-0.9973297119140625,-0.0128173828125,-0.0157928466796875
1782970026919422000,7.984421875,-0.998687744140625,-0.0127410888671875,-0.0163726806640625
1782970026929345800,7.994345703125,-0.997711181640625,-0.013580322265625,-0.0160675048828125
1782970026939272000,8.00427197265625,-0.997650146484375,-0.013092041015625,-0.016571044921875
1782970026949197800,8.01419775390625,-0.99908447265625,-0.0131378173828125,-0.015411376953125
1782970026959124000,8.0241240234375,-0.99896240234375,-0.014434814453125,-0.01666259765625
1782970026969051000,8.03405078125,-0.9979095458984375,-0.0132293701171875,-0.0165557861328125
1782970026978976800,8.043976806640625,-0.99755859375,-0.0128631591796875,-0.0162506103515625
1782970026988903000,8.05390283203125,-0.998291015625,-0.0134429931640625,-0.018280029296875
1782970026998828800,8.063828857421875,-0.996795654296875,-0.013458251953125,-0.0175628662109375
1782970027008756000,8.073755859375,-0.9977264404296875,-0.012969970703125,-0.01507568359375
1782970027018681900,8.083681884765625,-0.9982452392578125,-0.01385498046875,-0.0157928466796875
1782970027028607700,8.093607666015625,-0.9975433349609375,-0.01275634765625,-0.0172882080078125
1782970027038534000,8.103533935546874,-0.99810791015625,-0.0140533447265625,-0.0169677734375
1782970027048460800,8.113460693359375,-0.998199462890625,-0.012725830078125,-0.0164337158203125
1782970027058386700,8.12338671875,-0.997650146484375,-0.0138092041015625,-0.016571044921875
1782970027068312800,8.133312744140625,-0.9973602294921875,-0.0128326416015625,-0.0160064697265625
1782970027078238700,8.14323876953125,-0.9977569580078125,-0.01312255859375,-0.0166015625
1782970027088166000,8.153165771484375,-0.996734619140625,-0.0136260986328125,-0.0161590576171875
1782970027098091800,8.163091796875,-0.99676513671875,-0.0139007568359375,-0.017364501953125
1782970027108018000,8.173017822265624,-0.9971466064453125,-0.014404296875,-0.016876220703125
1782970027117943800,8.18294384765625,-0.9977569580078125,-0.0146942138671875,-0.0191802978515625
1782970027127870700,8.19287060546875,-0.996429443359375,-0.0141143798828125,-0.01544189453125
1782970027137796900,8.202796875,-0.9984283447265625,-0.012786865234375,-0.0151519775390625
1782970027147722800,8.21272265625,-0.996978759765625,-0.013763427734375,-0.0186614990234375
1782970027157649000,8.22264892578125,-0.998077392578125,-0.013946533203125,-0.017242431640625
1782970027167575800,8.232575927734375,-0.9994964599609375,-0.0142822265625,-0.0156707763671875
1782970027177502000,8.242501953125,-0.9962615966796875,-0.0137481689453125,-0.0177459716796875
1782970027187427800,8.252427734375,-0.9966888427734375,-0.013824462890625,-0.0175628662109375
1782970027197353700,8.262353759765626,-0.9984893798828125,-0.0133056640625,-0.0167083740234375
1782970027207281000,8.272281005859375,-0.9974822998046875,-0.0128631591796875,-0.0172271728515625
1782970027217207000,8.28220703125,-0.997955322265625,-0.011627197265625,-0.0162506103515625
1782970027227132700,8.292132568359374,-0.9971466064453125,-0.011688232421875,-0.016387939453125
1782970027237059800,8.302059814453125,-0.99774169921875,-0.0140838623046875,-0.0159759521484375
1782970027246986000,8.311986083984374,-0.9965057373046875,-0.012420654296875,-0.0167083740234375
1782970027256912000,8.321911865234375,-0.9974517822265625,-0.0130615234375,-0.0152130126953125
1782970027266837800,8.331837646484376,-0.9982757568359375,-0.013519287109375,-0.01678466796875
1782970027276764000,8.341763916015625,-0.998046875,-0.0132293701171875,-0.0144500732421875
1782970027286691000,8.351691162109375,-0.996734619140625,-0.014434814453125,-0.0161285400390625
1782970027296616700,8.36161669921875,-0.99786376953125,-0.0124359130859375,-0.015960693359375
1782970027306542800,8.37154296875,-0.9973907470703125,-0.012969970703125,-0.015472412109375
1782970027316469000,8.381468994140626,-0.9987335205078125,-0.013031005859375,-0.0151519775390625
1782970027326395600,8.391395751953125,-0.9986419677734375,-0.0131683349609375,-0.016143798828125
1782970027336323800,8.40132373046875,-0.9979095458984375,-0.013427734375,-0.0163421630859375
1782970027346249700,8.411249755859375,-0.9983367919921875,-0.0139312744140625,-0.01702880859375
1782970027356176000,8.42117578125,-0.998443603515625,-0.01385498046875,-0.016021728515625
1782970027366101800,8.431101806640624,-0.998199462890625,-0.0125274658203125,-0.0155792236328125
1782970027376028700,8.441028564453125,-0.9983673095703125,-0.013519287109375,-0.0155181884765625
1782970027385954800,8.450954833984374,-0.9993896484375,-0.01409912109375,-0.0170745849609375
1782970027395881000,8.460880859375,-0.997772216796875,-0.012786865234375,-0.0172882080078125
1782970027405806800,8.470806884765626,-0.9968719482421875,-0.01385498046875,-0.0170135498046875
1782970027415733800,8.480733642578125,-0.9979705810546875,-0.0128173828125,-0.016143798828125
1782970027425660400,8.490660400390626,-0.9982452392578125,-0.013580322265625,-0.017730712890625
1782970027435586600,8.500586669921875,-0.997650146484375,-0.014556884765625,-0.015228271484375
1782970027445512200,8.51051220703125,-0.99853515625,-0.0135040283203125,-0.0160675048828125
1782970027455439400,8.520439453125,-0.9980621337890625,-0.01385498046875,-0.016143798828125
1782970027465365500,8.530365478515625,-0.9971923828125,-0.013458251953125,-0.0168609619140625
1782970027475291400,8.54029150390625,-0.9977569580078125,-0.01470947265625,-0.0168914794921875
1782970027485217300,8.55021728515625,-0.996856689453125,-0.01312255859375,-0.0156402587890625
1782970027495144400,8.56014453125,-0.9979095458984375,-0.0127716064453125,-0.016937255859375
1782970027505070300,8.5700703125,-0.99786376953125,-0.01397705078125,-0.0152740478515625
1782970027514996200,8.579996337890625,-0.998138427734375,-0.0131378173828125,-0.0142974853515625
1782970027524922400,8.58992236328125,-0.99774169921875,-0.014007568359375,-0.0160369873046875
1782970027534849300,8.599849365234375,-0.9979705810546875,-0.0142364501953125,-0.016815185546875
1782970027544775400,8.609775390625,-0.9977264404296875,-0.005584716796875,-0.016998291015625
1782970027554701300,8.619701416015625,-0.996551513671875,-0.017669677734375,-0.0138092041015625
1782970027564627500,8.62962744140625,-0.9988555908203125,-0.0121612548828125,-0.0162353515625
1782970027574554400,8.639554443359375,-0.9969482421875,-0.0150299072265625,-0.0161895751953125
1782970027584480300,8.649480224609375,-0.99847412109375,-0.0142364501953125,-0.0175323486328125
1782970027594406400,8.659406494140624,-0.997833251953125,-0.013824462890625,-0.0149383544921875
1782970027604332500,8.66933251953125,-0.998046875,-0.0136260986328125,-0.0170745849609375
1782970027614259500,8.679259521484376,-0.9983367919921875,-0.01416015625,-0.014862060546875
1782970027624185300,8.689185302734375,-0.996917724609375,-0.013641357421875,-0.016387939453125
1782970027634111500,8.699111572265625,-0.999237060546875,-0.0139617919921875,-0.016265869140625
1782970027644037400,8.709037353515624,-0.9981536865234375,-0.012451171875,-0.0171661376953125
1782970027653964300,8.71896435546875,-0.997955322265625,-0.01416015625,-0.0164794921875
1782970027663890400,8.728890380859376,-0.9978790283203125,-0.0134735107421875,-0.0166473388671875
1782970027673816300,8.73881640625,-0.99774169921875,-0.0140228271484375,-0.0158538818359375
1782970027683742200,8.7487421875,-0.996826171875,-0.0136871337890625,-0.0164031982421875
1782970027693669400,8.75866943359375,-0.998382568359375,-0.0145721435546875,-0.01702880859375
1782970027703595500,8.768595458984375,-0.9980926513671875,-0.0145721435546875,-0.016845703125
1782970027713521400,8.778521484375,-0.9975433349609375,-0.0124359130859375,-0.01629638671875
1782970027723447300,8.788447265625,-0.99713134765625,-0.0124664306640625,-0.0161895751953125
1782970027733374500,8.79837451171875,-0.998138427734375,-0.013702392578125,-0.016265869140625
1782970027743300400,8.80830029296875,-0.9981536865234375,-0.011688232421875,-0.0183868408203125
1782970027753226200,8.818226318359375,-0.997833251953125,-0.0119781494140625,-0.0165557861328125
1782970027763152400,8.82815234375,-0.9976654052734375,-0.012298583984375,-0.015228271484375
1782970027773079300,8.838079345703125,-0.998779296875,-0.013092041015625,-0.0162506103515625
1782970027783005400,8.84800537109375,-0.999359130859375,-0.0129852294921875,-0.017730712890625
1782970027792931300,8.857931396484375,-0.9970703125,-0.013214111328125,-0.0164642333984375
1782970027802857500,8.867857421875,-0.997802734375,-0.0133056640625,-0.0160980224609375
1782970027812784400,8.877784423828125,-0.9981689453125,-0.01287841796875,-0.0157012939453125
1782970027822710300,8.887710205078125,-0.9981842041015625,-0.01300048828125,-0.016021728515625
1782970027832636400,8.897636474609374,-0.9969635009765625,-0.011962890625,-0.0194091796875
1782970027842562600,8.9075625,-0.9974822998046875,-0.0135345458984375,-0.0181884765625
1782970027852489500,8.917489501953124,-0.99871826171875,-0.013702392578125,-0.0173187255859375
1782970027862415400,8.927415283203125,-0.9987030029296875,-0.0123748779296875,-0.015838623046875
1782970027872341500,8.937341552734376,-0.9971466064453125,-0.0131378173828125,-0.0151214599609375
1782970027882267400,8.947267333984374,-0.9977264404296875,-0.0141143798828125,-0.0171051025390625
1782970027892194300,8.9571943359375,-0.99725341796875,-0.0130767822265625,-0.016265869140625
1782970027902120400,8.967120361328124,-0.9993896484375,-0.0127716064453125,-0.0147552490234375
1782970027912046300,8.97704638671875,-0.99853515625,-0.0128936767578125,-0.018157958984375
1782970027921972200,8.98697216796875,-0.9981689453125,-0.0124969482421875,-0.01776123046875
1782970027931899400,8.9968994140625,-0.998870849609375,-0.014373779296875,-0.0158843994140625
1782970027941825300,9.0068251953125,-0.9969024658203125,-0.0132293701171875,-0.01702880859375
1782970027951751400,9.01675146484375,-0.99749755859375,-0.0129852294921875,-0.01800537109375
1782970027961677300,9.02667724609375,-0.997802734375,-0.013671875,-0.01812744140625
1782970027971604200,9.036604248046874,-0.99774169921875,-0.012939453125,-0.0160675048828125
1782970027981530400,9.0465302734375,-0.999298095703125,-0.01458740234375,-0.0173797607421875
1782970027991456300,9.056456298828126,-0.9960174560546875,-0.0124969482421875,-0.0157928466796875
1782970028001382400,9.06638232421875,-0.9992218017578125,-0.0127105712890625,-0.0174713134765625
1782970028011309300,9.076309326171875,-0.9979248046875,-0.0139923095703125,-0.0168304443359375
1782970028021235500,9.0862353515625,-0.997528076171875,-0.01416015625,-0.0159759521484375
1782970028031161300,9.096161376953125,-0.99884033203125,-0.0133819580078125,-0.0166778564453125
1782970028041087500,9.10608740234375,-0.997406005859375,-0.013336181640625,-0.01885986328125
1782970028051014400,9.116014404296875,-0.9975433349609375,-0.0146484375,-0.017303466796875
1782970028060940300,9.125940185546876,-0.9970245361328125,-0.0134124755859375,-0.016204833984375
1782970028070866400,9.135866455078125,-0.998046875,-0.013031005859375,-0.014617919921875
1782970028080792300,9.145792236328125,-0.9977874755859375,-0.013031005859375,-0.014862060546875
1782970028090719500,9.155719482421874,-0.9972686767578125,-0.0131378173828125,-0.0160675048828125
1782970028100645400,9.165645263671875,-0.998321533203125,-0.012725830078125,-0.0169677734375
1782970028110571300,9.1755712890625,-0.9974212646484375,-0.013671875,-0.016357421875
1782970028120497400,9.185497314453125,-0.9976043701171875,-0.014373779296875,-0.0151824951171875
1782970028130424300,9.19542431640625,-0.998443603515625,-0.0140533447265625,-0.018402099609375
1782970028140350500,9.2053505859375,-0.998626708984375,-0.0130615234375,-0.0161285400390625
1782970028150276400,9.2152763671875,-0.9976959228515625,-0.0133209228515625,-0.01605224609375
1782970028160202200,9.2252021484375,-0.997039794921875,-0.0115203857421875,-0.0159759521484375
1782970028170129400,9.23512939453125,-0.9981536865234375,-0.01348876953125,-0.01611328125
1782970028180055300,9.24505517578125,-0.9978179931640625,-0.014190673828125,-0.0166015625
1782970028189981400,9.2549814453125,-0.99688720703125,-0.01324462890625,-0.017364501953125
1782970028199907300,9.2649072265625,-0.9974822998046875,-0.0123291015625,-0.01849365234375
1782970028209834200,9.274834228515624,-0.9985504150390625,-0.01312255859375,-0.0174102783203125
1782970028219760400,9.284760498046875,-0.998504638671875,-0.012664794921875,-0.0174102783203125
1782970028229686500,9.2946865234375,-0.9972686767578125,-0.012725830078125,-0.0146942138671875
1782970028239612400,9.3046123046875,-0.9973907470703125,-0.012847900390625,-0.015960693359375
1782970028249539300,9.314539306640626,-0.998016357421875,-0.0130767822265625,-0.015655517578125
1782970028259465500,9.324465576171875,-0.997161865234375,-0.0142822265625,-0.0172271728515625
1782970028269391400,9.334391357421875,-0.997528076171875,-0.0123291015625,-0.0152587890625
1782970028279317500,9.3443173828125,-0.9987945556640625,-0.0124664306640625,-0.015899658203125
1782970028289244400,9.354244384765625,-0.9974822998046875,-0.0135650634765625,-0.0175018310546875
1782970028299170600,9.364170654296874,-0.997222900390625,-0.012664794921875,-0.016143798828125
1782970028309096400,9.374096435546875,-0.998565673828125,-0.0121612548828125,-0.015869140625
1782970028319022300,9.384022216796875,-0.9981689453125,-0.0126190185546875,-0.0172882080078125
1782970028328949500,9.393949462890625,-0.997467041015625,-0.01300048828125,-0.0169219970703125
1782970028338875400,9.40387548828125,-0.998260498046875,-0.0135345458984375,-0.0165557861328125
1782970028348801300,9.41380126953125,-0.9978485107421875,-0.0134429931640625,-0.0167083740234375
1782970028358727400,9.4237275390625,-0.9974517822265625,-0.012603759765625,-0.016632080078125
1782970028368654600,9.433654541015626,-0.9976043701171875,-0.0120697021484375,-0.0169830322265625
1782970028378580200,9.443580322265625,-0.998687744140625,-0.0131988525390625,-0.016571044921875
1782970028388506400,9.45350634765625,-0.9974212646484375,-0.0130615234375,-0.017669677734375
1782970028398432500,9.4634326171875,-0.9986572265625,-0.01287841796875,-0.0172119140625
1782970028408359200,9.473359130859375,-0.9969940185546875,-0.01263427734375,-0.016387939453125
1782970028418285300,9.483285400390624,-0.9986419677734375,-0.0127716064453125,-0.0174102783203125
1782970028428211500,9.49321142578125,-0.9987640380859375,-0.0137176513671875,-0.01641845703125
1782970028438137600,9.5031376953125,-0.99786376953125,-0.0125732421875,-0.0155181884765625
1782970028448064500,9.513064453125,-0.9985198974609375,-0.013031005859375,-0.01708984375
1782970028457990400,9.522990478515625,-0.9988861083984375,-0.0125732421875,-0.0157928466796875
1782970028467916500,9.53291650390625,-0.9982757568359375,-0.012847900390625,-0.0178985595703125
1782970028477842700,9.5428427734375,-0.9974517822265625,-0.01220703125,-0.0164794921875
1782970028487769300,9.552769287109374,-0.9962615966796875,-0.01275634765625,-0.016510009765625
1782970028497695500,9.562695556640625,-0.99725341796875,-0.01348876953125,-0.017486572265625
1782970028507621600,9.57262158203125,-0.9974822998046875,-0.01312255859375,-0.01617431640625
1782970028517547300,9.58254736328125,-0.9984130859375,-0.01214599609375,-0.0149078369140625
1782970028527474400,9.592474365234375,-0.9975128173828125,-0.012725830078125,-0.0166168212890625
1782970028537400600,9.602400634765624,-0.99749755859375,-0.0133514404296875,-0.0165252685546875
1782970028547326500,9.612326416015625,-0.998779296875,-0.013519287109375,-0.01617431640625
1782970028557252400,9.62225244140625,-0.99871826171875,-0.013153076171875,-0.016082763671875
1782970028567179500,9.632179443359375,-0.9994659423828125,-0.0129547119140625,-0.0152740478515625
1782970028577105400,9.64210546875,-0.9975433349609375,-0.0131378173828125,-0.01544189453125
1782970028587031300,9.65203125,-0.998321533203125,-0.0136566162109375,-0.017425537109375
1782970028596957400,9.66195751953125,-0.9987030029296875,-0.012420654296875,-0.015869140625
1782970028606884400,9.67188427734375,-0.998138427734375,-0.013702392578125,-0.01556396484375
1782970028616810500,9.681810546875,-0.9980926513671875,-0.013946533203125,-0.0167083740234375
1782970028626736400,9.691736328125,-0.997894287109375,-0.0133209228515625,-0.0180816650390625
1782970028636662500,9.70166259765625,-0.9974517822265625,-0.013031005859375,-0.0173492431640625
1782970028646589400,9.71158935546875,-0.99951171875,-0.012969970703125,-0.01531982421875
1782970028656515300,9.721515380859374,-0.9973297119140625,-0.0115814208984375,-0.017425537109375
1782970028666441500,9.73144140625,-0.9982757568359375,-0.0137176513671875,-0.0157318115234375
1782970028676367600,9.74136767578125,-0.9990234375,-0.013427734375,-0.01641845703125
1782970028686293200,9.751293212890625,-0.998016357421875,-0.0146026611328125,-0.0178985595703125
1782970028696220400,9.761220458984376,-0.997161865234375,-0.0143890380859375,-0.0175628662109375
1782970028706146600,9.771146484375,-0.9979705810546875,-0.013153076171875,-0.0172271728515625
1782970028716072400,9.781072509765625,-0.9980316162109375,-0.01336669921875,-0.0163726806640625
1782970028725998300,9.790998291015624,-0.998779296875,-0.0132598876953125,-0.015380859375
1782970028735925500,9.800925537109375,-0.9982757568359375,-0.0121917724609375,-0.0160675048828125
1782970028745851400,9.810851318359376,-0.99920654296875,-0.0130462646484375,-0.0177154541015625
1782970028755777300,9.82077734375,-0.9987945556640625,-0.0133819580078125,-0.0151519775390625
1782970028765703400,9.830703369140625,-0.99658203125,-0.0128936767578125,-0.0157928466796875
1782970028775630600,9.840630615234375,-0.9975128173828125,-0.0136260986328125,-0.0174713134765625
1782970028785556500,9.850556396484375,-0.998443603515625,-0.012847900390625,-0.0162200927734375
1782970028795482400,9.860482421875,-0.99810791015625,-0.013092041015625,-0.0154266357421875
1782970028805408500,9.870408447265625,-0.9987335205078125,-0.0127410888671875,-0.0178070068359375
1782970028815335400,9.88033544921875,-0.9986572265625,-0.01397705078125,-0.01580810546875
1782970028825261300,9.89026123046875,-0.997406005859375,-0.0126800537109375,-0.016937255859375
1782970028835187500,9.9001875,-0.99786376953125,-0.0131988525390625,-0.0166778564453125
1782970028845113600,9.910113525390624,-0.9980010986328125,-0.012847900390625,-0.0162506103515625
1782970028855040500,9.92004052734375,-0.9977569580078125,-0.01324462890625,-0.0166778564453125
1782970028864966400,9.92996630859375,-0.998199462890625,-0.0125885009765625,-0.0159149169921875
1782970028874892500,9.939892578125,-0.99798583984375,-0.011749267578125,-0.01654052734375
1782970028884818400,9.949818359375,-0.99859619140625,-0.012420654296875,-0.0169525146484375
1782970028894745300,9.959745361328125,-0.99798583984375,-0.0137176513671875,-0.016632080078125
1782970028904671500,9.96967138671875,-0.997528076171875,-0.013336181640625,-0.015869140625
1782970028914597600,9.97959765625,-0.99859619140625,-0.01434326171875,-0.0159149169921875
1782970028924523300,9.989523193359375,-0.9976654052734375,-0.013427734375,-0.0167694091796875
1782970028934450400,9.999450439453126,-0.99774169921875,-0.0122833251953125,-0.01690673828125
1782970028944376600,10.00937646484375,-1.0106048583984375,-0.0117034912109375,-0.019866943359375
1782970028954302500,10.019302490234375,-0.984771728515625,-0.014892578125,-0.014129638671875
1782970028964228400,10.029228271484374,-0.995330810546875,-0.013153076171875,-0.0171356201171875
1782970028974155500,10.039155517578125,-0.9985504150390625,-0.013519287109375,-0.016387939453125
1782970028984081400,10.049081298828124,-0.9978179931640625,-0.013214111328125,-0.0160064697265625
1782970028994007300,10.05900732421875,-0.9960784912109375,-0.0119781494140625,-0.0149993896484375
1782970029003933400,10.068933349609376,-0.9970245361328125,-0.0116729736328125,-0.015716552734375
1782970029013860400,10.0788603515625,-0.9967041015625,-0.0133514404296875,-0.0162811279296875
1782970029023786500,10.088786376953125,-1.0009002685546875,-0.0132598876953125,-0.01800537109375
1782970029033712400,10.09871240234375,-0.9989471435546875,-0.01287841796875,-0.0170745849609375
1782970029043638500,10.108638427734375,-0.9947967529296875,-0.0137176513671875,-0.0160369873046875
1782970029053565400,10.1185654296875,-0.99993896484375,-0.0110015869140625,-0.01702880859375
1782970029063491300,10.1284912109375,-0.99847412109375,-0.0131988525390625,-0.0159912109375
1782970029073417500,10.13841748046875,-0.9987030029296875,-0.0141754150390625,-0.0157012939453125
1782970029083343600,10.148343505859375,-0.9972076416015625,-0.0129241943359375,-0.016571044921875
1782970029093269200,10.158269287109375,-0.9982757568359375,-0.01202392578125,-0.016021728515625
1782970029103196400,10.168196533203124,-0.998077392578125,-0.01361083984375,-0.01593017578125
1782970029113122600,10.17812255859375,-0.9997711181640625,-0.0125732421875,-0.0161285400390625
1782970029123048400,10.18804833984375,-0.9995574951171875,-0.0116119384765625,-0.017578125
1782970029132974300,10.197974365234375,-0.9989013671875,-0.0125579833984375,-0.0182342529296875
1782970029142901500,10.207901611328126,-0.997467041015625,-0.0137481689453125,-0.0155487060546875
1782970029152827400,10.217827392578124,-0.998199462890625,-0.0142364501953125,-0.0174102783203125
1782970029162753300,10.227753173828125,-0.9979095458984375,-0.01312255859375,-0.016632080078125
1782970029172679400,10.237679443359376,-0.9985504150390625,-0.0149078369140625,-0.017578125
1782970029182606300,10.2476064453125,-0.998291015625,-0.014068603515625,-0.0166168212890625
1782970029192532500,10.257532470703126,-0.9970855712890625,-0.0124664306640625,-0.0164337158203125
1782970029202458400,10.267458251953125,-0.99847412109375,-0.0136260986328125,-0.0147857666015625
1782970029212384500,10.277384521484375,-0.9990386962890625,-0.0140228271484375,-0.014404296875
1782970029222311400,10.2873115234375,-0.998046875,-0.0136260986328125,-0.0159912109375
1782970029232237600,10.297237548828125,-0.998260498046875,-0.0122833251953125,-0.0160369873046875
1782970029242163500,10.30716357421875,-0.997894287109375,-0.013427734375,-0.01751708984375
1782970029252089600,10.317089599609375,-0.9981842041015625,-0.01336669921875,-0.01708984375
1782970029262016500,10.3270166015625,-0.996185302734375,-0.0142059326171875,-0.0165557861328125
1782970029271942400,10.3369423828125,-0.9987945556640625,-0.0133514404296875,-0.0179443359375
1782970029281868500,10.34686865234375,-0.9969482421875,-0.013275146484375,-0.018310546875
1782970029291794400,10.35679443359375,-0.9980621337890625,-0.012298583984375,-0.0163726806640625
1782970029301721600,10.3667216796875,-0.997039794921875,-0.01336669921875,-0.0160369873046875
1782970029311647500,10.3766474609375,-0.99737548828125,-0.0121917724609375,-0.01666259765625
1782970029321573400,10.386573486328125,-0.9973602294921875,-0.012664794921875,-0.0155181884765625
1782970029331499500,10.39649951171875,-0.9987640380859375,-0.013397216796875,-0.016815185546875
1782970029341426400,10.406426513671875,-0.999359130859375,-0.013427734375,-0.016357421875
1782970029351352600,10.4163525390625,-0.997711181640625,-0.0126953125,-0.0163421630859375
1782970029361278500,10.426278564453124,-0.9973602294921875,-0.0125732421875,-0.017974853515625
1782970029371204400,10.436204345703125,-0.9982147216796875,-0.0133209228515625,-0.017486572265625
1782970029381131500,10.446131591796876,-0.99786376953125,-0.014190673828125,-0.015594482421875
1782970029391057400,10.456057373046875,-0.9976348876953125,-0.0131378173828125,-0.01531982421875
1782970029400983600,10.465983642578125,-0.9980316162109375,-0.0127105712890625,-0.0169525146484375
1782970029410909400,10.475909423828124,-0.997955322265625,-0.0127716064453125,-0.0160980224609375
1782970029420836400,10.48583642578125,-0.9976654052734375,-0.0140380859375,-0.0169219970703125
1782970029430762000,10.495761962890626,-0.9985198974609375,-0.012481689453125,-0.0172882080078125
1782970029440687900,10.50568798828125,-0.9981689453125,-0.0146331787109375,-0.0172271728515625
1782970029450614000,10.515614013671875,-0.997589111328125,-0.014373779296875,-0.01641845703125
1782970029460540200,10.5255400390625,-0.998199462890625,-0.01214599609375,-0.017669677734375
1782970029470466800,10.535466796875,-0.9992523193359375,-0.013641357421875,-0.0186004638671875
1782970029480393000,10.54539306640625,-0.9981842041015625,-0.013336181640625,-0.0181427001953125
1782970029490319000,10.555319091796875,-0.9977874755859375,-0.0135345458984375,-0.0172882080078125
1782970029500244700,10.56524462890625,-0.9983062744140625,-0.0121002197265625,-0.016937255859375
1782970029510172000,10.575171875,-0.9987335205078125,-0.0133819580078125,-0.0167999267578125
1782970029520098000,10.58509814453125,-1.013214111328125,-0.0100860595703125,-0.021270751953125
1782970029530024000,10.59502392578125,-0.97625732421875,-0.0160980224609375,-0.0114288330078125
1782970029539949800,10.60494970703125,-0.9954986572265625,-0.0128021240234375,-0.01690673828125
1782970029549877000,10.614876953125,-0.9986419677734375,-0.013092041015625,-0.0174407958984375
1782970029559803100,10.62480322265625,-0.9962921142578125,-0.0138092041015625,-0.016448974609375
1782970029569728800,10.634728759765625,-0.986328125,-0.0147705078125,-0.013031005859375
1782970029579655000,10.644655029296874,-1.01519775390625,-0.0123748779296875,-0.0201568603515625
1782970029589582000,10.65458203125,-0.9929046630859375,-0.01446533203125,-0.0139923095703125
