time,seconds_elapsed,z,y,x
1782970018998266600,0.0632666015625,0.0033923345617949963,0.003316967049613595,0.0010365023044869304
1782970019008192500,0.073192626953125,-0.003403253620490432,0.007394799496978521,0.0011507519520819187
1782970019018119700,0.08311962890625,0.0013307816116139293,0.006069610361009836,-0.0003635214816313237
1782970019028045600,0.093045654296875,-0.002043443499132991,0.0068057081662118435,0.0014442323008552194
1782970019037971500,0.102971435546875,0.0010841728653758764,0.0038093857001513243,0.0005568669876083732
1782970019047898600,0.112898681640625,0.0004884237423539162,0.008806008845567703,0.0010636665392667055
1782970019057824500,0.122824462890625,0.0003379551344551146,0.005399559158831835,-0.002275671111419797
1782970019067750700,0.132750732421875,0.0002759034978225827,0.0062882560305297375,0.0020660804584622383
1782970019077676500,0.142676513671875,-0.00007856325100874528,0.0044016726315021515,0.0013784521725028753
1782970019087603500,0.152603515625,-0.00012197277828818187,0.005630188621580601,0.0018687400734052062
1782970019097529600,0.162529541015625,0.0008255799184553325,0.004265052266418934,0.003290335414931178
1782970019107455500,0.17245556640625,-0.001306280493736267,0.005702360533177853,0.0006764429272152483
1782970019117381600,0.182381591796875,-0.0013680658303201199,0.004821386653929949,0.0032200280111283064
1782970019127308500,0.19230859375,-0.0014061490073800087,0.004227235447615385,0.0013235911028459668
1782970019137234700,0.202234619140625,-0.0011685950448736548,0.006046707276254892,0.002436259761452675
1782970019147160600,0.21216064453125,0.000494016392622143,0.006368683185428381,0.0023843280505388975
1782970019157086700,0.222086669921875,0.001472728094086051,0.0044349622912704945,0.002445314545184374
1782970019167013600,0.232013671875,0.0034493261482566595,0.004107659682631493,0.0016466324450448155
1782970019176939500,0.241939453125,-0.003635481232777238,0.005461610853672028,0.00010972223390126601
1782970019186865700,0.25186572265625,-0.000597879639826715,0.0031318773981183767,0.0009800433181226254
1782970019196792600,0.26179248046875,-0.0013395700370892882,0.005277053453028202,0.001862348522990942
1782970019206718700,0.27171875,0.0003009371866937727,0.003924966789782047,0.0009182579233311117
1782970019216644600,0.28164453125,0.0006404902087524533,0.0028565065003931522,0.0020988371688872576
1782970019226570500,0.291570556640625,0.00145222176797688,0.005711415316909552,0.0017454357584938407
1782970019236497700,0.30149755859375,-0.000294545607175678,0.005501558072865009,0.0007771103992126882
1782970019246423600,0.311423583984375,-0.0012389025650918484,0.006720220670104027,0.0043308325111866
1782970019256349400,0.321349365234375,-0.0020652813836932182,0.006336458958685398,0.0008138620178215206
1782970019266275600,0.331275634765625,-0.00007696535612922162,0.004555869847536087,-0.0006468818173743784
1782970019276202800,0.34120263671875,-0.0007344998302869499,0.004198473412543535,0.00015526228526141495
1782970019286128600,0.351128662109375,-0.0021044297609478235,0.005606752820312977,0.0017188041238114238
1782970019296054500,0.361054443359375,0.0018839201657101512,0.0057098171673715115,0.0007531419396400452
1782970019305981700,0.370981689453125,-0.0013140037190169096,0.00574816670268774,-0.0002695118892006576
1782970019315907600,0.380907470703125,0.00028389296494424343,0.0041121868416666985,0.0010508833220228553
1782970019325833500,0.39083349609375,-0.0008916263468563557,0.007183876819908619,0.0016162724932655692
1782970019335759600,0.400759521484375,0.0001627191377338022,0.00535614974796772,0.0010705908061936498
1782970019345686800,0.410686767578125,-0.0012247877893969417,0.005001682788133621,0.0021257351618260145
1782970019355612400,0.4206123046875,-0.00072597770486027,0.007253918331116438,-0.000025566347176209092
1782970019365538600,0.43053857421875,0.0003765709698200226,0.006878145970404148,0.0025419872254133224
1782970019375464700,0.440464599609375,-0.0006982808117754757,0.004670652095228434,0.0020426444243639708
1782970019385391400,0.450391357421875,-0.0012322446564212441,0.005618204362690449,0.00013502225920092314
1782970019395317500,0.4603173828125,-0.0004857605672441423,0.0047119311057031155,0.0013515542959794402
1782970019405243600,0.47024365234375,0.0010516822803765535,0.006041381042450666,0.0011709919199347496
1782970019415170600,0.480170654296875,0.00015579492901451886,0.00484402384608984,0.0014623417519032955
1782970019425096700,0.4900966796875,-0.0005693838465958834,0.0041273669339716434,0.00014327807002700865
1782970019435022800,0.50002294921875,0.0009867012267932296,0.005756688769906759,0.003072488820180297
1782970019444948700,0.50994873046875,-0.002320412313565612,0.005534581374377012,-0.00032570460462011397
1782970019454875600,0.519875732421875,-0.001133707701228559,0.005724730901420116,0.0016551546286791563
1782970019464801800,0.5298017578125,-0.0007568703731521964,0.0057071540504693985,0.002823749789968133
1782970019474727700,0.539727783203125,-0.003706853836774826,0.008822786621749401,0.0023121563717722893
1782970019484653800,0.54965380859375,0.002412024885416031,0.004926847759634256,0.0006199838826432824
1782970019494580700,0.559580810546875,-0.0022088258992880583,0.005562012083828449,0.0012871057260781527
1782970019504507000,0.5695068359375,0.0007233145297504961,0.004895688965916634,0.001856755930930376
1782970019514432800,0.579432861328125,-0.0013347762869670987,0.0047849016264081,0.0011973571963608265
1782970019524359700,0.589359619140625,0.00022983079543337226,0.00487198680639267,0.002213353058323264
1782970019534285800,0.599285888671875,0.00007297061529243365,0.006207828409969807,0.002971288748085499
1782970019544211700,0.609211669921875,-0.0025129588320851326,0.005134574603289366,0.0005850964807905257
1782970019554137600,0.6191376953125,0.0006793724023737013,0.005850698333233595,0.0011467571603134274
1782970019564064800,0.629064697265625,-0.0010876349406316876,0.004775314126163721,-0.00000852211542223813
1782970019573991000,0.638990966796875,0.0034232272300869226,0.005628857295960188,0.0032322786282747984
1782970019583916500,0.64891650390625,0.00037257623625919223,0.00523604080080986,0.0018639464396983385
1782970019593842700,0.6588427734375,0.0011534150689840317,0.004855741746723652,0.003288471372798085
1782970019603769900,0.668769775390625,0.0007187871960923076,0.005027781706303358,-0.0001054611784638837
1782970019613695700,0.67869580078125,-0.0026200178544968367,0.006876015570014715,0.0002282329078298062
1782970019623621600,0.68862158203125,-0.0013709953054785728,0.003263703780248761,0.0018516959389671683
1782970019633548800,0.698548828125,-0.0003051982494071126,0.007906924933195114,0.0010540791554376483
1782970019643475000,0.708474853515625,-0.00023755396250635386,0.00518810423091054,0.0028450549580156803
1782970019653400600,0.718400634765625,-0.00011691277177305892,0.004071706905961037,0.0015640745405107737
1782970019663326700,0.72832666015625,0.000185888638952747,0.0030391993932425976,-0.0004849616379942745
1782970019673254000,0.73825390625,0.002519882982596755,0.003239469137042761,0.0011672634864225984
1782970019683179500,0.748179443359375,-0.0019036275334656239,0.004782504867762327,-0.0014530207263305783
1782970019693105700,0.758105712890625,-0.003136138431727886,0.004583033733069897,0.002017344580963254
1782970019703031800,0.76803173828125,-0.0006649913266301155,0.006894657853990793,0.0012711267918348312
1782970019712958700,0.777958740234375,0.000441818410763517,0.008070975542068481,0.0005661880713887513
1782970019722884600,0.787884521484375,-0.0017353157745674253,0.005154814571142197,0.002683667466044426
1782970019732810800,0.797810791015625,0.002260491019114852,0.006423810962587595,-0.0005576659459620714
1782970019742737000,0.80773681640625,0.0004854942671954632,0.0062821307219564915,0.0007755124825052917
1782970019752663600,0.81766357421875,-0.002320145955309272,0.004621649626642466,0.0015808524331077933
1782970019762589700,0.827589599609375,0.0020271982066333294,0.005788114387542009,0.002416019793599844
1782970019772515800,0.837515869140625,-0.0007430219557136297,0.003838414093479514,0.0018154769204556942
1782970019782442800,0.84744287109375,-0.0014293185668066144,0.0049092709086835384,0.0012159993639215827
1782970019792368600,0.85736865234375,-0.00041039311327040195,0.0029356025625020266,0.0009949569357559085
1782970019802294800,0.867294677734375,-0.002400306984782219,0.003885552054271102,0.0005635248962789774
1782970019812221000,0.877220947265625,-0.00247567449696362,0.005360410548746586,0.000060453756304923445
1782970019822147600,0.887147705078125,0.0006735134520567954,0.005933789070695639,0.001258343574590981
1782970019832073700,0.89707373046875,-0.0036844832357019186,0.005962285213172436,-0.0024319987278431654
1782970019842000000,0.906999755859375,-0.0018855180824175477,0.004976915195584297,0.0021113541442900896
1782970019851925500,0.916925537109375,0.0026764769572764635,0.005564408842474222,0.0005446164286695421
1782970019861852700,0.926852783203125,0.00032437301706522703,0.005391303449869156,0.002126534003764391
1782970019871778800,0.93677880859375,-0.0001968075957847759,0.005289570428431034,0.002545981900766492
1782970019881704700,0.94670458984375,-0.000336090917699039,0.006883738562464714,-0.0004780374001711607
1782970019891630600,0.956630615234375,0.00035260253935121,0.0032178976107388735,0.005152950529009104
1782970019901557800,0.966557861328125,0.0011667308863252401,0.005309544038027525,0.004315652418881655
1782970019911483600,0.976483642578125,-0.002246909076347947,0.0057444386184215546,0.0021315941121429205
1782970019921409500,0.986409423828125,0.00006950850365683436,0.00589517317712307,0.0025662221014499664
1782970019931336700,0.996336669921875,0.001287904684431851,0.004875715356320143,0.00003382214708835818
1782970019941262800,1.006262939453125,-0.0013539510546252131,0.006499444600194693,0.0013885721564292908
1782970019951188700,1.016188720703125,0.0006415555253624916,0.00743181724101305,0.0030242856591939926
1782970019961114600,1.026114501953125,0.0016636766958981752,0.00552366254851222,-0.0002593918761704117
1782970019971041800,1.036041748046875,0.0002966761530842632,0.0034256239887326956,0.0019435749854892492
1782970019980967700,1.0459677734375,0.0002564624010119587,0.008528240956366062,0.003469033632427454
1782970019990893600,1.0558935546875,-0.0011052117915824056,0.005525526590645313,0.0017619474092498422
1782970020000819700,1.06581982421875,-0.0013233247445896268,0.0057646785862743855,0.004116448108106852
1782970020010746600,1.07574658203125,-0.0015701997326686978,0.0054882424883544445,0.0012777847005054355
1782970020020672800,1.0856728515625,0.0006391586503013968,0.0045572011731565,0.0006862966110929847
1782970020030598700,1.0955986328125,0.0016847157385200262,0.006810768041759729,0.0044022053480148315
1782970020040524800,1.10552490234375,0.0006301039247773588,0.005181446205824614,0.002784867538139224
1782970020050451700,1.11545166015625,-0.0012775183422490954,0.003765976056456566,0.0006958839949220419
1782970020060377600,1.125377685546875,-0.0018887137994170189,0.007284810766577721,0.00210682675242424
1782970020070303700,1.1353037109375,-0.001029311795718968,0.004641090985387564,0.001859152689576149
1782970020080230700,1.145230712890625,-0.0010852381819859147,0.005538043566048145,0.00433109886944294
1782970020090156800,1.15515673828125,-0.0005129248020239174,0.005548163317143917,0.001591771375387907
1782970020100082700,1.165082763671875,0.0011917646043002605,0.004258926957845688,0.002894856035709381
1782970020110008800,1.1750087890625,-0.0000852211524033919,0.005878661759197712,0.0027150926180183887
1782970020119935700,1.184935791015625,-0.0014985607704147696,0.006222742144018412,-0.0001400822657160461
1782970020129862000,1.19486181640625,0.0015635418239980936,0.005696235224604607,0.002567020943388343
1782970020139787800,1.204787841796875,-0.0005344964447431266,0.0043779704719781876,0.001121723442338407
1782970020149713700,1.214713623046875,-0.000028229507734067738,0.002400573343038559,-0.00044847631943412125
1782970020159640800,1.224640869140625,-0.0033955303952097893,0.008558601140975952,-0.0013579458463937044
1782970020169566700,1.234566650390625,-0.002847185591235757,0.005483714863657951,0.001487375469878316
1782970020179492600,1.24449267578125,-0.0010314423125237226,0.005020058713853359,0.002208026824519038
1782970020189419800,1.254419677734375,-0.000011984225238848012,0.005144162103533745,0.0010812433902174234
1782970020199346000,1.264345947265625,-0.0012120045721530914,0.0036392095498740673,0.0009259810904040933
1782970020209271600,1.274271484375,-0.0017571536591276526,0.004054662771522999,0.0031550468411296606
1782970020219197700,1.28419775390625,0.00010412959818495438,0.005998237524181604,0.0025244103744626045
1782970020229124900,1.294124755859375,-0.001362473238259554,0.004564391914755106,-0.0016077503096312284
1782970020239050800,1.30405078125,0.00013608753215521574,0.005399292800575495,0.00036618465674109757
1782970020248976600,1.3139765625,-0.0005099953268654644,0.005047223065048456,0.0034261567052453756
1782970020258902800,1.32390283203125,0.00023702133330516517,0.0027744811959564686,0.00039521310827694833
1782970020268829700,1.33382958984375,-0.0007456850726157427,0.006668022833764553,0.00424401368945837
1782970020278755600,1.343755615234375,-0.0012282498646527529,0.0026972496416419744,0.00458596320822835
1782970020288681700,1.353681640625,-0.0001627191377338022,0.004280232358723879,0.0033862092532217503
1782970020298607900,1.36360791015625,-0.0003765709698200226,0.006767358630895615,-0.0010423612548038363
1782970020308534500,1.373534423828125,-0.0015448997728526592,0.004177967086434364,0.0005928196478635073
1782970020318460700,1.383460693359375,-0.00005246427463134751,0.006915430538356304,0.0005957491230219603
1782970020328386800,1.39338671875,0.0010277138790115714,0.002766491612419486,0.004180896561592817
1782970020338312700,1.403312744140625,0.0031824775505810976,0.00621129060164094,-0.0015345134306699038
1782970020348239600,1.413239501953125,0.000570981705095619,0.007684817537665367,0.0024615598376840353
1782970020358165800,1.423165771484375,0.000297475082334131,0.004292482975870371,0.004821919370442629
1782970020368092000,1.433091796875,0.0006868292111903429,0.005793174263089895,0.004209658596664667
1782970020378018600,1.4430185546875,-0.0005134574603289366,0.004583566449582577,0.0017646105261519551
1782970020387944700,1.45294482421875,-0.0018940401496365666,0.003044259501621127,0.0010285128373652697
1782970020397870800,1.462870849609375,-0.0005246427026577294,0.0049345712177455425,0.003090864745900035
1782970020407796700,1.472796630859375,-0.00038962045800872147,0.005397428758442402,-0.00042051312630064785
1782970020417724000,1.482723876953125,0.000892425247002393,0.005648830905556679,0.0009408948244526982
1782970020427650000,1.492650146484375,0.0024706146214157343,0.006623015273362398,-0.00022796659322921187
1782970020437576000,1.502575927734375,0.0013307816116139293,0.005048288032412529,0.00012090751260984689
1782970020447501800,1.512501708984375,-0.0015635418239980936,0.004324174486100674,0.002296443795785308
1782970020457429000,1.522428955078125,0.0015970977256074548,0.0038077877834439278,0.0012924320762977004
1782970020467355100,1.532355224609375,-0.0012564794160425663,0.003930825740098953,0.0034139060880988836
1782970020477280800,1.54228076171875,-0.0004934837343171239,0.004972388036549091,0.0029587720055133104
1782970020487207000,1.55220703125,0.0006591323763132095,0.004841094370931387,-0.0014085458824411035
1782970020497134000,1.562134033203125,0.0011398328933864832,0.006678408943116665,-0.00030892668291926384
1782970020507060000,1.57206005859375,0.0008639294537715614,0.00478410255163908,0.000871652620844543
1782970020516985900,1.58198583984375,0.0009467537747696042,0.004968659486621618,0.001805623178370297
1782970020526913000,1.5919130859375,-0.0009648632840253413,0.003859453136101365,0.003560912562534213
1782970020536839000,1.6018388671875,0.0002460760879330337,0.00475347600877285,-0.0003038666909560561
1782970020546764800,1.611764892578125,0.0005659217131324112,0.0034786208998411894,0.004911934491246939
1782970020556691000,1.62169091796875,0.0009435579413548112,0.006364422384649515,0.00016884441720321774
1782970020566617900,1.631617919921875,-0.0024980450980365276,0.0046639940701425076,0.0029459886718541384
1782970020576544000,1.6415439453125,-0.002159823663532734,0.006971889175474644,0.0012985573848709464
1782970020586470000,1.651469970703125,-0.0006735134520567954,0.006585464812815189,-0.0003206445835530758
1782970020596396000,1.66139599609375,-0.0008492820779792964,0.0057228668592870235,0.0008857673965394497
1782970020606323000,1.671322998046875,0.0024732777383178473,0.005468268413096666,0.0032509206794202328
1782970020616248800,1.681248779296875,-0.0006498112925328314,0.004088218789547682,0.00019734023953787982
1782970020626175000,1.691175048828125,-0.0004902879591099918,0.0033835461363196373,0.003522563260048628
1782970020636101000,1.70110107421875,0.000014647385796706658,0.0022096247412264347,0.0009150621481239796
1782970020646028000,1.711028076171875,-0.001487375469878316,0.00230816169641912,0.0022501046769320965
1782970020655954000,1.720953857421875,0.0011906992876902223,0.0037473340053111315,0.002659965306520462
1782970020665880000,1.730880126953125,-0.00027297402266412973,0.007457117084413767,-0.0005542038124985993
1782970020675806000,1.740805908203125,0.0014199974248185754,0.005683984607458115,0.0017126789316534996
1782970020685733000,1.750733154296875,-0.0033992587123066187,0.0055028898641467094,0.0017158746486529708
1782970020695659000,1.760658935546875,-0.0011805793037638068,0.0020602215081453323,0.003065032185986638
1782970020705585000,1.7705849609375,-0.0015675366157665849,0.005625927820801735,0.0006514092092402279
1782970020715512000,1.780511962890625,0.0002689792599994689,0.004217382054775953,0.0014466290595009923
1782970020725438000,1.79043798828125,-0.0017251957906410098,0.005375856999307871,0.0018072210950776935
1782970020735363800,1.80036376953125,0.0005824333056807518,0.00649731419980526,0.0003326288133393973
1782970020745290000,1.8102900390625,-0.0013132047606632113,0.005456816870719194,-0.0002695118892006576
1782970020755217200,1.820217041015625,-0.000007456851108145202,0.003896737238392234,0.0007198524544946849
1782970020765143000,1.83014306640625,0.00010253170330543071,0.006050169467926025,0.0030975225381553173
1782970020775069000,1.84006884765625,-0.0008796420879662037,0.0058067562058568,-0.0004420847399160266
1782970020784995000,1.8499951171875,-0.0007882956997491419,0.005864547099918127,-0.00004021373388241045
1782970020794922000,1.859921875,0.0007350324303843081,0.0049590724520385265,0.0006807039608247578
1782970020804847900,1.869847900390625,0.0019494339358061552,0.005916212219744921,0.003972637467086315
1782970020814774000,1.87977392578125,-0.001332645770162344,0.004848817363381386,0.0013185309944674373
1782970020824700000,1.889699951171875,-0.0005067995516583323,0.004077832214534283,0.004067446105182171
1782970020834626800,1.899626708984375,-0.002132925670593977,0.00700944010168314,0.0020394488237798214
1782970020844553000,1.909552978515625,0.0007014766451902688,0.005683984607458115,0.0005496764206327498
1782970020854479000,1.91947900390625,-0.0025358619168400764,0.005501025356352329,0.0025363946333527565
1782970020864405000,1.929405029296875,0.00021172130072955042,0.0051870387978851795,0.0012950951931998134
1782970020874332000,1.939331787109375,-0.0003097256412729621,0.005337507463991642,0.0019118833588436246
1782970020884258000,1.949258056640625,-0.00261841993778944,0.005395830608904362,-0.0012351741315796971
1782970020894184000,1.959183837890625,-0.0021544971968978643,0.005194495897740126,0.004472512751817703
1782970020904110800,1.96911083984375,-0.001868473831564188,0.006135390605777502,0.004597414750605822
1782970020914037000,1.979037109375,-0.0021318604703992605,0.005893042776733637,0.0012950951931998134
1782970020923963100,1.988963134765625,-0.0020447750575840473,0.004863464739173651,0.0019108180422335863
1782970020933889000,1.998888916015625,0.00000958738019107841,0.004723116289824247,0.004456533584743738
1782970020943816000,2.00881591796875,0.0002711098059080541,0.004890895448625088,-0.0004719121498055756
1782970020953742000,2.0187421875,-0.00014913702034391463,0.005632585845887661,0.0012202603975310922
1782970020963668000,2.02866796875,0.0004106594424229115,0.0030839405953884125,0.00020106865849811584
1782970020973593900,2.03859375,0.001725728390738368,0.004883438348770142,0.005271460860967636
1782970020983521000,2.04852099609375,-0.0015654060989618301,0.005575860384851694,0.002046639332547784
1782970020993447200,2.058447265625,-0.0027262780349701643,0.006617689039558172,0.0017678063595667481
1782970021003372800,2.068372802734375,-0.0016935041639953852,0.006922620814293623,0.0017124125733971596
1782970021013299000,2.078298828125,-0.0014618091518059373,0.004729507956653833,0.001639441936276853
1782970021023226000,2.08822607421875,0.0000958738019107841,0.005723399575799704,0.0018322548130527139
1782970021033151700,2.09815185546875,0.0012639362830668688,0.004896221682429314,0.0016468988033011556
1782970021043078000,2.108077880859375,-0.0008990831556729972,0.005258677992969751,0.0007131945458240807
1782970021053004000,2.118004150390625,0.00013875069271307439,0.0033843449782580137,-0.0009451558580622077
1782970021062931000,2.127930908203125,-0.0003384877636563033,0.005813414230942726,-0.0023076289799064398
1782970021072856800,2.13785693359375,-0.0015166702214628458,0.006987868342548609,0.002298840554431081
1782970021082783000,2.147782958984375,0.000009321063771494664,0.0070307450369000435,0.0004551342281047255
1782970021092710100,2.157710205078125,0.00027510453946888447,0.005400890484452248,0.0019033611752092838
1782970021102635800,2.1676357421875,-0.0005677859298884869,0.006323942448943853,0.0023422501981258392
1782970021112562000,2.17756201171875,-0.0025888588279485703,0.004723116289824247,0.0007459514308720827
1782970021122488000,2.187488037109375,0.0009209210984408855,0.005578789860010147,0.0007507451227866113
1782970021132415000,2.1974150390625,-0.00401711231097579,0.008928780443966389,0.0019923108629882336
1782970021142340900,2.2073408203125,0.00047084689140319824,0.006871488410979509,0.0023811322171241045
1782970021152267000,2.21726708984375,0.000928111607208848,0.005884787067770958,-0.0014026869321241975
1782970021162193200,2.227193115234375,0.000046339002437889576,0.003907389938831329,0.0009321063989773393
1782970021172119800,2.237119873046875,-0.0013819142477586865,0.003466104157269001,0.0007344998302869499
1782970021182046000,2.2470458984375,-0.00012916330888401717,0.0037177728954702616,0.0018927085911855102
1782970021191972000,2.25697216796875,-0.00048602689639665186,0.006971090566366911,-0.0014354437589645386
1782970021201898000,2.26689794921875,-0.002606169320642948,0.004594485275447369,0.0020727382507175207
1782970021211825000,2.276824951171875,0.0008335694437846541,0.002758235903456807,0.00250550196506083
1782970021221751000,2.2867509765625,-0.00020426444825716317,0.004062918480485678,0.003284742822870612
1782970021231677000,2.296677001953125,-0.00038828887045383453,0.005049353465437889,0.0022485069930553436
1782970021241602800,2.306602783203125,-0.0007893609581515193,0.005067729391157627,0.000032490566809428856
1782970021251530000,2.316530029296875,0.0033832797780632973,0.005503688473254442,0.0009622001089155674
1782970021261456100,2.3264560546875,0.0008958873804658651,0.008449144661426544,0.00195129809435457
1782970021271381800,2.3363818359375,-0.0006921555614098907,0.004150802735239267,0.0013036173768341541
1782970021281309000,2.346308837890625,0.0023350596893578768,0.007655789144337177,0.0033454629592597485
1782970021291235000,2.356235107421875,-0.0007339671719819307,0.002412291243672371,0.00293373828753829
1782970021301161000,2.366160888671875,-0.00036218989407643676,0.004530036821961403,-0.00028069718973711133
1782970021311086800,2.3760869140625,0.0013462279457598925,0.005603291094303131,0.0019379822770133615
1782970021321014000,2.386013916015625,0.002560629276558757,0.006125803105533123,-0.0010431602131575346
1782970021330940000,2.39593994140625,0.0005755090969614685,0.006366552785038948,0.003707120195031166
1782970021340865800,2.40586572265625,-0.0018410432385280728,0.006106362212449312,0.0017800568602979183
1782970021350792000,2.4157919921875,0.002112685702741146,0.004975583869963884,0.002065015025436878
1782970021360718800,2.42571875,0.00044075315236113966,0.0073077138513326645,0.00009454221435589716
1782970021370645000,2.43564501953125,-0.001945705502294004,0.007422762457281351,0.00009214537567459047
1782970021380571000,2.44557080078125,0.0008751147543080151,0.0065047708339989185,-0.0015393070643767715
1782970021390497000,2.4554970703125,0.0015747271245345473,0.005920473486185074,0.0031190942972898483
1782970021400424000,2.465423828125,-0.000862864195369184,0.005846171174198389,-0.0007986819837242365
1782970021410349800,2.475349853515625,-0.000824248360004276,0.00487092137336731,0.0033867419697344303
1782970021420275700,2.485275634765625,-0.00013528858835343271,0.004027498420327902,0.002043177140876651
1782970021430201600,2.49520166015625,-0.0018570221727713943,0.0039044604636728764,-0.00096086849225685
1782970021440128500,2.50512841796875,0.0012868394842371345,0.005567071959376335,0.0044168527238070965
1782970021450054700,2.5150546875,-0.0021465078461915255,0.006335660349577665,-0.00025592977181077003
1782970021459980500,2.52498046875,-0.0017012272728607059,0.004053597338497639,0.0025739450938999653
1782970021469906700,2.53490673828125,0.0012516856659203768,0.00481233187019825,0.0007773766992613673
1782970021479833600,2.54483349609375,-0.00034168356796726584,0.003712446428835392,0.0023241406306624413
1782970021489759700,2.554759765625,-0.0006524744676426053,0.0035057852510362864,0.0007430219557136297
1782970021499685600,2.564685546875,-0.0020306603983044624,0.005933522712439299,0.00287408335134387
1782970021509612500,2.574612548828125,0.0011859056539833546,0.0028671592008322477,0.0003576625313144177
1782970021519538700,2.58453857421875,-0.001005609636195004,0.006794522982090712,0.0005784385721199214
1782970021529464600,2.594464599609375,0.0016160061350092292,0.0059931776486337185,0.0025899240281432867
1782970021539390500,2.604390380859375,-0.000577107013668865,0.005543369799852371,0.00037044569035060704
1782970021549317600,2.614317626953125,0.000526773277670145,0.004042412154376507,0.0013217268278822303
1782970021559243800,2.624243896484375,0.0006042712484486401,0.005429652985185385,0.0017832526937127113
1782970021569169400,2.63416943359375,-0.0010250506456941366,0.005628324579447508,0.0029145635198801756
1782970021579095600,2.644095458984375,-0.0015691345324739814,0.005708219483494759,0.0029499835800379515
1782970021589022700,2.654022705078125,-0.00004314320904086344,0.004831506870687008,0.0036019254475831985
1782970021598948400,2.6639482421875,-0.0010721886064857244,0.006699447985738516,0.0024642229545861483
1782970021608874500,2.67387451171875,0.00025353292585350573,0.004246943164616823,0.0012175972806289792
1782970021618800600,2.683800537109375,-0.0004926847759634256,0.005801962688565254,0.0020101540721952915
1782970021628727600,2.6937275390625,-0.00020000340009573847,0.004956941585987806,0.002403769176453352
1782970021638653400,2.7036533203125,0.0013560815714299679,0.005644303746521473,0.0006676545017398894
1782970021648579600,2.71357958984375,0.00008948221511673182,0.005197691265493631,0.0006889597862027586
1782970021658505700,2.723505615234375,-0.002040514023974538,0.0075788237154483795,0.0015901734586805105
1782970021668432400,2.733432373046875,-0.0007121292874217033,0.005853361915796995,0.0039007319137454033
1782970021678358500,2.743358642578125,-0.00321949552744627,0.005090366117656231,0.0026117621455341578
1782970021688284700,2.75328466796875,-0.0023579627741128206,0.005825931206345558,-0.0005166532355360687
1782970021698210600,2.76321044921875,-0.0008522115531377494,0.005674397107213736,0.000922519015148282
1782970021708137500,2.773137451171875,-0.001508414396084845,0.00589730404317379,0.002109756227582693
1782970021718063600,2.783063720703125,0.00049108691746369,0.006329268682748079,0.0022956449538469315
1782970021727989800,2.79298974609375,-0.0013936321483924985,0.005359611473977566,0.0008498146780766547
1782970021737916400,2.80291650390625,-0.001318264752626419,0.00549330236390233,0.0016357135027647018
1782970021747842600,2.812842529296875,-0.0016279903938993812,0.004870389122515917,0.0010812433902174234
1782970021757768700,2.822768798828125,0.00070493872044608,0.005008074454963207,0.002123870886862278
1782970021767694600,2.832694580078125,-0.00011291803093627095,0.004771585576236248,0.0021963089238852262
1782970021777621500,2.84262158203125,0.0017060210229828954,0.007367368787527084,0.0033577135764062405
1782970021787547600,2.852547607421875,-0.0005672533297911286,0.003954261541366577,0.0007028082036413252
1782970021797473800,2.862473876953125,0.001770203118212521,0.004047472029924393,0.0010388991795480251
1782970021807399400,2.8723994140625,0.0002181128947995603,0.004004328977316618,-0.000547279603779316
1782970021817326600,2.88232666015625,-0.001088433898985386,0.002734533743932843,0.0018884475575760007
1782970021827252700,2.892252685546875,0.001312139444053173,0.0041244374588131905,-0.00011851066665258259
1782970021837178400,2.902178466796875,0.0006474144756793976,0.004275971557945013,-0.0014301175251603127
1782970021847104500,2.9121044921875,-0.0006655239267274737,0.004306064918637276,0.0064986455254256725
1782970021857031700,2.92203173828125,0.00033875409280881286,0.003968908917158842,0.0021795309148728848
1782970021866957600,2.93195751953125,-0.00012783173588104546,0.0038959383964538574,0.0024202808272093534
1782970021876883500,2.941883544921875,-0.001169394003227353,0.005090366117656231,0.0011116034584119916
1782970021886809600,2.9518095703125,0.0004673847579397261,0.004716724622994661,0.0021174794528633356
1782970021896736500,2.961736572265625,-0.00045619948650710285,0.004904477391391993,0.0008969526388682425
1782970021906662700,2.97166259765625,-0.002192580606788397,0.004881840664893389,0.0007526093395426869
1782970021916588500,2.981588623046875,0.0009390306076966226,0.004821653012186289,0.001460743835195899
1782970021926514700,2.9915146484375,-0.0010524812387302518,0.00512791657820344,0.003338272450491786
1782970021936441600,3.001441650390625,-0.001038632821291685,0.004282363224774599,0.0014564828015863895
1782970021946367500,3.011367431640625,-0.00008442220860160887,0.005172391422092915,0.004234426189213991
1782970021956293600,3.021293701171875,0.00019148127466905862,0.006819556467235088,0.0001739044237183407
1782970021966220500,3.031220458984375,-0.00002103897168126423,0.004524976946413517,-0.0008705873624421656
1782970021976146700,3.041146728515625,0.0001901497016660869,0.005868541542440653,0.0008239820599555969
1782970021986072600,3.051072509765625,-0.0032682311721146107,0.00484429020434618,0.001654622028581798
1782970021995998700,3.060998779296875,0.0004695153038483113,0.0035894084721803665,0.0031443943735212088
1782970022005925600,3.070925537109375,0.00002210423735959921,0.005513808690011501,0.0006013417732901871
1782970022015851500,3.0808515625,-0.001784850494004786,0.0057622818276286125,0.0005893575726076961
1782970022025777700,3.090777587890625,-0.0025065671652555466,0.007453389000147581,0.0017262609908357263
1782970022035703600,3.10070361328125,-0.0010982876410707831,0.0027622305788099766,0.0016471651615574956
1782970022045630700,3.110630615234375,0.0009619337506592274,0.003937217406928539,-0.000529436394572258
1782970022055556600,3.120556640625,-0.00011105381418019533,0.006848318502306938,0.0017054883064702153
1782970022065482500,3.130482421875,-0.0021286646369844675,0.005480785388499498,-0.0004308994684834033
1782970022075408600,3.14040869140625,0.0013701963471248746,0.0051902346312999725,0.0031529164407402277
1782970022085335600,3.15033544921875,-0.0005430185701698065,0.003628556849434972,0.0021880532149225473
1782970022095261700,3.16026171875,-0.0020903151016682386,0.004515655804425478,-0.0004996090428903699
1782970022105187600,3.1701875,-0.0014152037911117077,0.003840544493868947,0.0031646343413740396
1782970022115113500,3.180113525390625,-0.001430916483514011,0.005938050337135792,-0.0005470133037306368
1782970022125040600,3.19004052734375,-0.0011914982460439205,0.004637096077203751,-0.0016285229939967394
1782970022134966500,3.199966552734375,0.0014908375451341271,0.005864280741661787,0.0035918052308261395
1782970022144892700,3.209892578125,-0.0002623213513288647,0.0041191112250089645,0.0029174929950386286
1782970022154818600,3.219818603515625,-0.002031192881986499,0.005416336935013533,0.0016916398890316486
1782970022164745500,3.229745361328125,-0.0020218719728291035,0.0037854171823710203,0.0043830303475260735
1782970022174671600,3.239671630859375,-0.0018258632626384497,0.005847502965480089,-0.0006032059900462627
1782970022184597500,3.249597412109375,0.001389637473039329,0.005399559158831835,0.003085272153839469
1782970022194523600,3.259523681640625,0.0021310613956302404,0.004815794061869383,0.001115598133765161
1782970022204450600,3.269450439453125,0.0021193434949964285,0.002779274946078658,0.0016698020044714212
1782970022214376700,3.279376708984375,-0.0005946838646195829,0.005329784471541643,0.00038988678716123104
1782970022224302600,3.289302490234375,0.00034594463068060577,0.0051628039218485355,0.002871153876185417
1782970022234229500,3.2992294921875,0.00035260253935121,0.005449360236525536,0.0007432882557623088
1782970022244155600,3.30915576171875,-0.0007954862085171044,0.0032051142770797014,0.00195129809435457
1782970022254081500,3.31908154296875,-0.001127316034398973,0.005726595409214497,0.0016277240356430411
1782970022264007700,3.329007568359375,-0.0005387574783526361,0.006601177155971527,0.0014532869681715965
1782970022273934600,3.3389345703125,-0.00019441076437942684,0.004310326185077429,0.0037089844699949026
1782970022283860700,3.34886083984375,-0.0007262440049089491,0.003846403444185853,-0.0002801645314320922
1782970022293786600,3.35878662109375,-0.00002157160452043172,0.006369215901941061,0.0012383698485791683
1782970022303712500,3.36871240234375,-0.0013547500129789114,0.005528189707547426,0.002558232517912984
1782970022313639700,3.3786396484375,0.00016538229829166085,0.0037646444980055094,0.0003275688213761896
1782970022323565600,3.388565673828125,0.00002450108149787411,0.006701045669615269,0.0015297196805477142
1782970022333491500,3.398491455078125,-0.002966495230793953,0.004796885885298252,0.0037380128633230925
1782970022343417600,3.40841748046875,-0.0012839100090786815,0.004044010303914547,0.0009629990672692657
1782970022353344800,3.4183447265625,-0.0008282430935651064,0.005143629387021065,0.002581668319180608
1782970022363270400,3.4282705078125,0.0017366473330184817,0.004161987919360399,0.0005757753970101476
1782970022373196500,3.438196533203125,-0.0022913836874067783,0.00413482403382659,0.0012130698887631297
1782970022383122700,3.448122802734375,-0.0011954930378124118,0.0062576294876635075,0.001654355670325458
1782970022393049600,3.458049560546875,0.0004524710529949516,0.005653890781104565,0.001472728094086051
1782970022402975500,3.4679755859375,0.00046312372433021665,0.006205165293067694,0.0010207896120846272
1782970022412901600,3.477901611328125,0.00021544973424170166,0.0027238810434937477,0.0025680861435830593
1782970022422827300,3.4878271484375,-0.0003741741238627583,0.003174221608787775,0.0009928264189511538
1782970022432754200,3.497754150390625,0.0013166668359190226,0.005003813188523054,0.0034677020739763975
1782970022442680300,3.507680419921875,-0.0010596717474982142,0.005271993577480316,0.0007637945818714797
1782970022452606500,3.5176064453125,-0.00026791400159709156,0.0056741307489573956,0.0009068063227459788
1782970022462533000,3.527533203125,-0.00227939966134727,0.008351140655577183,0.0025007082149386406
1782970022472459300,3.537459228515625,-0.0015345134306699038,0.005665875039994717,0.0024647556710988283
1782970022482385400,3.547385498046875,-0.0005643238546326756,0.007865645922720432,0.001418665866367519
1782970022492311300,3.557311279296875,0.0009206547983922064,0.0051931641064584255,0.0025513083674013615
1782970022502238200,3.56723828125,0.00045327001134864986,0.0032413334120064974,-0.0007608651067130268
1782970022512164400,3.577164306640625,-0.0012500877492129803,0.0037936728913336992,0.004457865376025438
1782970022522090500,3.587090576171875,-0.0013198626693338156,0.0024173513520509005,0.0014498248929157853
1782970022532016400,3.597016357421875,-0.0011411645682528615,0.006490123458206654,-0.000020772657080669887
1782970022541943300,3.606943359375,0.0007864314829930663,0.005106877535581589,0.0010072075529024005
1782970022551869400,3.616869384765625,-0.0017259946325793862,0.004853344522416592,0.003191798459738493
1782970022561795300,3.62679541015625,0.0030301446095108986,0.0059569585137069225,0.0011701929615810513
1782970022571721200,3.63672119140625,-0.0002519350382499397,0.004287689458578825,0.0009462211164645851
1782970022581648400,3.6466484375,0.0011677960865199566,0.005846703890711069,0.001984853995963931
1782970022591574500,3.656574462890625,-0.00024154871061909944,0.006046174559742212,0.003690076060593128
1782970022601500200,3.666500244140625,-0.001853560097515583,0.0054142065346241,-0.0011411645682528615
1782970022611426300,3.67642626953125,0.001958222361281514,0.004805940669029951,-0.00016884441720321774
1782970022621353500,3.686353515625,-0.003279150230810046,0.005273591727018356,0.0023409186396747828
1782970022631279000,3.696279052734375,-0.001710814656689763,0.004957740660756826,0.002715891692787409
1782970022641205200,3.706205322265625,-0.0012383698485791683,0.0038831550627946854,0.0016487629618495703
1782970022651131400,3.71613134765625,-0.00045087316539138556,0.006539658177644014,0.004482632502913475
1782970022661058300,3.726058349609375,-0.0013630058383569121,0.006552175153046846,-0.0023403859231621027
1782970022670984200,3.735984130859375,-0.00010412959818495438,0.006439789664000273,0.004111388232558966
1782970022680910300,3.745910400390625,-0.003014432033523917,0.0035180358681827784,0.000333161442540586
1782970022690836500,3.75583642578125,-0.002665025182068348,0.005781456362456083,0.0032807481475174427
1782970022700763100,3.76576318359375,-0.0024551681708544493,0.006030728109180927,0.002210956299677491
1782970022710689300,3.775689208984375,0.0009555422002449632,0.0038780951872467995,-0.00036432043998502195
1782970022720615400,3.785615478515625,-0.0005816344055347145,0.006191316992044449,0.0020596887916326523
1782970022730541300,3.795541259765625,-0.00027537086862139404,0.004263454582542181,0.0022828616201877594
1782970022740468200,3.80546826171875,-0.0019342538435012102,0.006116748321801424,0.0017217335989698768
1782970022750394400,3.815394287109375,-0.0030421288684010506,0.005617672111839056,0.002554770326241851
1782970022760320500,3.825320556640625,-0.0003755057114176452,0.00461658975109458,0.0005728459218516946
1782970022770247200,3.8352470703125,0.0011028150329366326,0.004514856729656458,0.0041761030443012714
1782970022780173300,3.84517333984375,-0.0009123989730142057,0.0030543794855475426,0.001978728687390685
1782970022790099500,3.855099365234375,-0.003510046284645796,0.004421646241098642,-0.0006511429091915488
1782970022800025300,3.865025390625,0.0018868496408686042,0.004878911189734936,0.0027055053506046534
1782970022809952300,3.8749521484375,-0.001618136651813984,0.004464523401111364,-0.00024980452144518495
1782970022819878400,3.88487841796875,-0.00239151855930686,0.00333161442540586,0.003293531248345971
1782970022829804500,3.894804443359375,0.0021675468888133764,0.004159324802458286,0.0031502533238381147
1782970022839730200,3.904730224609375,0.0003608583356253803,0.004120708908885717,0.0009645969257690012
1782970022849657300,3.9146572265625,0.001669003046117723,0.0033076461404561996,0.000666589243337512
1782970022859583500,3.92458349609375,0.0026849990244954824,0.006884004920721054,0.0005257080192677677
1782970022869509000,3.934509033203125,-0.0015691345324739814,0.0065130265429615974,0.002382730133831501
1782970022879435300,3.944435302734375,0.0018037590198218822,0.0043654534965753555,0.003716174978762865
1782970022889362400,3.954362548828125,0.00017017599020618945,0.004957207944244146,0.002812031889334321
1782970022899288300,3.964288330078125,0.0008708536624908447,0.004977181553840637,0.0010285128373652697
1782970022909214200,3.974214111328125,-0.001603755634278059,0.004215783905237913,-0.001502555445767939
1782970022919140400,3.984140380859375,-0.0005430185701698065,0.00689039658755064,0.0024825986474752426
1782970022929064200,3.994064208984375,0.00005326322207110934,0.005861084908246994,0.003635481232777238
1782970022938991400,4.003991455078125,-0.0016202671686187387,0.007241667713969946,-0.0016130766598507762
1782970022948917500,4.01391748046875,0.0010490191634744406,0.005140699911862612,0.0005422196118161082
1782970022958843100,4.023843017578125,0.000018375811123405583,0.005203816574066877,0.0022189458832144737
1782970022968769300,4.033769287109375,-0.0004743089957628399,0.0038224351592361927,0.004312989301979542
1782970022978696400,4.043696533203125,-0.0030099046416580677,0.007217166479676962,0.002005093963816762
1782970022988622300,4.053622314453125,-0.0019323896849527955,0.005422462243586779,0.0025771409273147583
1782970022998548200,4.06354833984375,-0.0011355718597769737,0.006415022537112236,0.00016431703988928348
1782970023008474400,4.073474365234375,-0.0021931130904704332,0.005831523798406124,0.0012655340833589435
1782970023018401300,4.0834013671875,0.00033103092573583126,0.005018993280827999,0.0005795038305222988
1782970023028327200,4.0933271484375,-0.0026373283471912146,0.005362008698284626,0.002889263443648815
1782970023038253300,4.10325341796875,-0.00318940170109272,0.00640916358679533,0.002132392954081297
1782970023048179500,4.113179443359375,0.0002798982313834131,0.00669412175193429,-0.00152332813013345
1782970023058106400,4.1231064453125,-0.0006290386663749814,0.003884486621245742,0.0005480785621330142
1782970023068032300,4.1330322265625,0.001047154888510704,0.005026982631534338,0.0018287927377969027
1782970023077958400,4.14295849609375,0.00013688647595699877,0.0017164073651656508,0.004022438544780016
1782970023087884500,4.152884521484375,-0.0011001517996191978,0.006648315116763115,0.0014405038673430681
1782970023097811200,4.162811279296875,-0.0005001416429877281,0.007029680069535971,-0.00162426196038723
1782970023107737300,4.1727373046875,0.000029827404432580806,0.004161987919360399,-0.0024383901618421078
1782970023117663500,4.18266357421875,0.0003483414766378701,0.006700779777020216,0.002243979601189494
1782970023127589000,4.192589111328125,0.0011736550368368626,0.006325007416307926,0.0013363742036744952
1782970023137516300,4.202516357421875,0.0025212145410478115,0.005783320404589176,0.003480218816548586
1782970023147442400,4.2124423828125,-0.0005685848882421851,0.006060022860765457,0.004233094397932291
1782970023157368300,4.222368408203125,-0.002010420197620988,0.00395692465826869,0.001514273346401751
1782970023167294200,4.232294189453125,-0.0007843009079806507,0.0078571243211627,-0.00020160128769930452
1782970023177221400,4.242221435546875,-0.00020479709201026708,0.006274939980357885,0.00213532242923975
1782970023187147300,4.252147216796875,-0.0003784351865760982,0.003242398612201214,0.002359027974307537
1782970023197073200,4.2620732421875,0.0006471481174230576,0.005638178437948227,0.004822185728698969
1782970023207000300,4.272000244140625,-0.0003709783486556262,0.006500776391476393,-0.00003302319601061754
1782970023216926500,4.281926513671875,0.000011984225238848012,0.005279184319078922,0.002581668319180608
1782970023226852400,4.291852294921875,-0.00048176583368331194,0.006650445982813835,0.002258626976981759
1782970023236778200,4.3017783203125,-0.0009446232579648495,0.004505802411586046,0.0007731156656518579
1782970023246705400,4.311705322265625,-0.0005850964807905257,0.006806507240980864,-0.00006578007742064074
1782970023256631300,4.32163134765625,-0.0010370349045842886,0.006905576679855585,0.0010817759903147817
1782970023266557400,4.331557373046875,-0.00016644757124595344,0.004742823541164398,0.0013515542959794402
1782970023276483300,4.3414833984375,0.00023276027059182525,0.003631486324593425,0.00014034859486855567
1782970023286410200,4.35141015625,0.0009038768475875258,0.003451456781476736,0.0031100395135581493
1782970023296336400,4.36133642578125,0.00014620754518546164,0.004014182835817337,0.0034290861804038286
1782970023306262300,4.37126220703125,-0.0003299656673334539,0.0030535804107785225,0.003893807763233781
1782970023316188400,4.3811884765625,-0.0015614113071933389,0.005579322576522827,0.0025931198615580797
1782970023326115300,4.391115234375,0.001561944023706019,0.007488542702049017,0.001020523370243609
1782970023336043300,4.401043212890625,-0.003166232258081436,0.007922371849417686,-0.00007536746124969795
1782970023345969400,4.410969482421875,0.0012926984345540404,0.005868807900696993,0.0008468852029182017
1782970023355896300,4.420896240234375,-0.0008500810363329947,0.005306348204612732,0.003519367426633835
1782970023365822200,4.430822265625,0.00022077605535741895,0.00452843913808465,0.0017670074012130499
1782970023375748400,4.440748291015625,0.001573928166180849,0.004462392535060644,-0.0014058827655389905
1782970023385675500,4.450675537109375,0.001582982949912548,0.003038134193047881,0.0022157500497996807
1782970023395601200,4.46060107421875,-0.002666090615093708,0.005120726302266121,0.0035779569298028946
1782970023405527300,4.47052734375,-0.0013848437229171395,0.005678392015397549,0.003710848744958639
1782970023415454500,4.480454345703125,-0.00036139096482656896,0.004585164599120617,-0.00008149272616719827
1782970023425381400,4.49038134765625,-0.002394980750977993,0.007251787465065718,0.0030035129748284817
1782970023435307300,4.500307373046875,-0.0014215953415259719,0.006636597216129303,0.001898301183246076
1782970023445233400,4.5102333984375,0.001172323478385806,0.004086087923496962,-0.00012064119800925255
1782970023455159600,4.52015966796875,0.004062119405716658,0.004856540355831385,0.004793157335370779
1782970023465086200,4.530086181640625,-0.0013659353135153651,0.006676544900983572,0.002141714096069336
1782970023475012400,4.540012451171875,-0.0024684839881956577,0.006214752793312073,0.002029062481597066
1782970023484938500,4.5499384765625,0.0017483652336522937,0.00737189594656229,0.0009800433181226254
1782970023494864100,4.559864013671875,0.0018181400373578072,0.0019917781464755535,0.001695900922641158
1782970023504791300,4.569791259765625,0.0011052117915824056,0.0039023298304528,0.004096208140254021
1782970023514717400,4.579717529296875,-0.001439971150830388,0.005693838465958834,0.0017614146927371621
1782970023524643300,4.589643310546875,-0.0009584716754034162,0.00544323492795229,0.0026461167726665735
1782970023534569200,4.5995693359375,-0.000931307440623641,0.003829625668004155,0.002418150193989277
1782970023544496400,4.609496337890625,0.002398176584392786,0.004969724919646978,0.0013411679537966847
1782970023554422300,4.61942236328125,-0.002558232517912984,0.004144943784922361,0.0006588660762645304
1782970023564348200,4.62934814453125,-0.0015156050212681293,0.008286425843834877,0.0029172266367822886
1782970023574274300,4.6392744140625,-0.0013382384786382318,0.003864246653392911,0.00021891183860134333
1782970023584201200,4.649201171875,-0.00048629322554916143,0.005338040180504322,0.0013792511308565736
1782970023594127400,4.65912744140625,-0.0014359764754772186,0.0038091193418949842,0.0017483652336522937
1782970023604053200,4.66905322265625,0.0004575310740619898,0.004375573713332415,0.0003275688213761896
1782970023613979400,4.6789794921875,0.00224877311848104,0.004218713380396366,0.0031587753910571337
1782970023623906300,4.68890625,-0.001216531964018941,0.006389722228050232,0.001740109408274293
1782970023633832400,4.69883251953125,-0.00222027744166553,0.006867759861052036,0.0026431872975081205
1782970023643758300,4.70875830078125,0.001097755040973425,0.003397394670173526,0.0036639769095927477
1782970023653684500,4.7186845703125,-0.001359277404844761,0.006856841035187244,0.000045806369598722085
1782970023663611400,4.728611328125,-0.0016349145444110036,0.0065740132704377174,-0.00026764770154841244
1782970023673537300,4.738537353515625,-0.0018932411912828684,0.005511411931365728,0.000502804818097502
1782970023683463400,4.74846337890625,0.0006087986403144896,0.006316485349088907,0.0036519928835332394
1782970023693389300,4.758389404296875,0.0014689996605738997,0.005285841878503561,0.003564907470718026
1782970023703316500,4.76831640625,-0.0015781891997903585,0.005568936001509428,0.0004271710349712521
1782970023713242400,4.778242431640625,0.001998702296987176,0.003906324505805969,-0.00019228023302275687
1782970023723168300,4.788168212890625,-0.0001174454009742476,0.0049156625755131245,0.0010905644157901406
1782970023733094400,4.798094482421875,-0.00002956108801299706,0.00355798308737576,0.0006958839949220419
1782970023743021300,4.808021240234375,-0.0021076255943626165,0.0037436054553836584,0.002141980454325676
1782970023752947500,4.817947509765625,0.00018615495355334133,0.006127933505922556,0.003346261801198125
1782970023762873300,4.827873291015625,-0.0006593986763618886,0.003923634998500347,0.003968109842389822
1782970023772800500,4.837800537109375,0.000803209375590086,0.0032812808640301228,0.0008042746339924634
1782970023782726400,4.847726318359375,-0.0010426276130601764,0.004998220596462488,0.003597398055717349
1782970023792652300,4.85765234375,-0.0003885551996063441,0.0060264673084020615,0.0002324939559912309
1782970023802578400,4.867578369140625,-0.0013816480059176683,0.005281048361212015,0.0009898969437927008
1782970023812505300,4.87750537109375,-0.003102316288277507,0.0046762446872889996,0.0007395598222501576
1782970023822431200,4.88743115234375,0.0004386226355563849,0.003881557146087289,0.0025510420091450214
1782970023832357400,4.897357421875,-0.000672181835398078,0.005883188918232918,0.0019773971289396286
1782970023842283300,4.907283203125,0.0010998855577781796,0.006436061579734087,0.001630120910704136
1782970023852210200,4.917210205078125,-0.0014061490073800087,0.004864263813942671,0.002498843939974904
1782970023862136300,4.92713623046875,-0.002641855739057064,0.003626160090789199,0.0004439489566721022
1782970023872062500,4.9370625,-0.00213585514575243,0.006045109126716852,0.0020330571569502354
1782970023881988400,4.94698828125,0.00048416267964057624,0.0037835529074072838,0.0031470574904233217
1782970023891915300,4.956915283203125,-0.0015523566398769617,0.00484322477132082,0.0011707255616784096
1782970023901841400,4.96684130859375,0.0015062838792800903,0.005578523501753807,0.0012452941155061126
1782970023911767300,4.976767333984375,-0.0001512675517005846,0.006342850625514984,0.004781705792993307
1782970023921693400,4.986693359375,0.00023542344570159912,0.007302387617528439,-0.000532365869730711
1782970023931620400,4.996620361328125,0.0013219931861385703,0.004523112904280424,-0.00039228363311849535
1782970023941546500,5.00654638671875,0.00242161238566041,0.0027507790364325047,0.001505751279182732
1782970023951472400,5.016472412109375,0.001910285442136228,0.004836833104491234,0.0021579593885689974
1782970023961398300,5.026398193359375,-0.0018141453620046377,0.007859786972403526,0.004232828039675951
1782970023971325400,5.036325439453125,0.0011315771844238043,0.0034224283881485462,-0.00041092574247159064
1782970023981251300,5.046251220703125,-0.001547030289657414,0.008083758875727654,0.0009989517275243998
1782970023991177200,5.05617724609375,-0.00253399764187634,0.0025891251862049103,0.002272741636261344
1782970024001103400,5.066103271484375,-0.0010926949325948954,0.00509808911010623,0.0033449302427470684
1782970024011030500,5.076030517578125,0.0006340986583381891,0.006770288106054068,0.0030517163686454296
1782970024020956200,5.0859560546875,0.0002388855500612408,0.005842176266014576,-0.00009853696246864274
1782970024030882300,5.09588232421875,-0.0022418489679694176,0.0035031221341341734,0.0012389025650918484
1782970024040808400,5.105808349609375,0.0010687265312299132,0.00526720006018877,0.0014112089993432164
1782970024050735400,5.1157353515625,-0.00019707392493728548,0.005282646510750055,0.0009116000146605074
1782970024060661200,5.1256611328125,-0.0018745990237221122,0.00558251840993762,0.0024375913199037313
1782970024070587400,5.13558740234375,0.0016551546286791563,0.005858421791344881,0.002787264296784997
1782970024080513300,5.14551318359375,-0.0031973912846297026,0.0038160434924066067,0.002290851203724742
1782970024090440200,5.155440185546875,0.0005134574603289366,0.006945790257304907,0.0022120214998722076
1782970024100366300,5.165366455078125,-0.001800030586309731,0.006217149551957846,0.0006585997180081904
1782970024110292500,5.17529248046875,-0.0010538127971813083,0.004652009811252356,0.003038134193047881
1782970024120219100,5.18521923828125,0.0022975089959800243,0.004248008131980896,0.0010434264549985528
1782970024130145300,5.195145263671875,-0.0011635350529104471,0.005897836294025183,0.0017534252256155014
1782970024140071400,5.205071533203125,0.001050350721925497,0.0020359866321086884,0.004611263517290354
1782970024149997300,5.214997314453125,0.00039414784987457097,0.005592371802777052,0.00324825756251812
1782970024159924200,5.22492431640625,-0.0010362359462305903,0.007191866636276245,0.0015076154377311468
1782970024169850400,5.234850341796875,0.000517718493938446,0.004602741450071335,0.0014093448407948017
1782970024179776500,5.244776611328125,-0.001597363967448473,0.004867991898208857,-0.0005408879951573908
1782970024189702400,5.254702392578125,-0.0012042814632877707,0.006559898145496845,0.00166580721270293
1782970024199629300,5.26462939453125,0.0008040083339437842,0.0049763829447329044,0.00375985074788332
1782970024209555500,5.274555419921875,-0.000004261057711119065,0.0060147494077682495,-0.0005094627267681062
1782970024219481300,5.2844814453125,-0.00017070861940737814,0.004240018781274557,0.0014913701452314854
1782970024229407200,5.2944072265625,-0.0005038700764998794,0.003543868428096175,0.0024000408593565226
1782970024239334400,5.30433447265625,-0.0008372978190891445,0.005819805897772312,0.0016679377295076847
1782970024249260500,5.314260498046875,-0.002436792477965355,0.006189985200762749,0.0012990899849683046
1782970024259186200,5.324186279296875,0.0009398295660503209,0.006673881784081459,0.001228782464750111
1782970024269112300,5.3341123046875,-0.0006434197421185672,0.004169178660959005,0.002597647253423929
1782970024279039500,5.34403955078125,-0.0025563682429492474,0.004388889297842979,0.0015150723047554493
1782970024288965000,5.353965087890625,0.00025779398856684566,0.004448810592293739,0.0009720537927933037
1782970024298891300,5.363891357421875,0.00023702133330516517,0.004756139125674963,0.002424275502562523
1782970024308817400,5.3738173828125,0.0009552759001962841,0.005258677992969751,0.005689843557775021
1782970024318744300,5.383744384765625,-0.0005153216770850122,0.005110073368996382,0.0026322684716433287
1782970024328670200,5.393670166015625,0.001312405802309513,0.005372927524149418,0.001281779375858605
1782970024338596400,5.403596435546875,0.0007680556736886501,0.003943076357245445,0.0025686188600957394
1782970024348522500,5.4135224609375,0.0018181400373578072,0.006055495701730251,0.003495931625366211
1782970024358449200,5.42344921875,-0.002581934677436948,0.005105812568217516,0.0012335762148723006
1782970024368375300,5.433375244140625,0.00004314320904086344,0.0035800873301923275,0.0014849785948172212
1782970024378301400,5.443301513671875,-0.0012839100090786815,0.004907939583063126,0.0018578211311250925
1782970024388227300,5.453227294921875,-0.0005358280031941831,0.006816893350332975,0.0019622170366346836
1782970024398154200,5.463154296875,-0.0014317154418677092,0.005346295889467001,0.0011251855175942183
1782970024408080400,5.473080322265625,-0.0015070828376337886,0.003968109842389822,0.00036245622322894633
1782970024418006300,5.48300634765625,0.0005012069013901055,0.006084524095058441,0.00013502225920092314
1782970024427932200,5.49293212890625,0.0009563411585986614,0.0032051142770797014,0.0008306399104185402
1782970024437859300,5.502859375,-0.0002519350382499397,0.007326888851821423,0.0014106763992458582
1782970024447785200,5.51278515625,-0.0015904398169368505,0.00526586826890707,0.0013283847365528345
1782970024457711000,5.522711181640625,0.001374457380734384,0.007195062469691038,0.0024144218768924475
1782970024467637200,5.53263720703125,-0.00199390877969563,0.005741509143263102,-0.00014168016787152737
1782970024477564200,5.542564208984375,0.00256409146822989,0.004801413044333458,0.00042823629337362945
1782970024487490300,5.552490234375,0.00047111319145187736,0.005409678909927607,-0.0004767058417201042
1782970024497416200,5.562416259765625,-0.0022943131625652313,0.004253867082297802,0.0020852552261203527
1782970024507342000,5.572342041015625,-0.0014583469601348042,0.006826480850577354,0.0024980450980365276
1782970024517269200,5.582269287109375,0.0010993528412654996,0.005032042972743511,0.002061553066596389
1782970024527195100,5.592195068359375,0.0008855010382831097,0.004240817856043577,0.0008817726047709584
1782970024537121300,5.602121337890625,-0.0038338867016136646,0.005276254843920469,0.0030533140525221825
1782970024547047200,5.612047119140625,-0.0031318773981183767,0.005598763469606638,0.002557699801400304
1782970024556974000,5.62197412109375,0.002287921728566289,0.0035835495218634605,0.0020335898734629154
1782970024566900200,5.631900146484375,-0.001859685406088829,0.004984372295439243,0.000782436749432236
1782970024576826000,5.641826171875,-0.0014295848086476326,0.004846154246479273,-0.00011345066013745964
1782970024586752300,5.651752197265625,0.0007243797881528735,0.004332430195063353,0.0007632619817741215
1782970024596679200,5.66167919921875,-0.00046365635353140533,0.007003048434853554,0.0007986819837242365
1782970024606605300,5.671605224609375,-0.0032772859558463097,0.004747617058455944,0.003209375310689211
1782970024616531200,5.68153125,-0.001005343277938664,0.005215800832957029,0.0009369000908918679
1782970024626457000,5.69145703125,-0.0004799016169272363,0.004904477391391993,0.0017150756902992725
1782970024636384300,5.70138427734375,-0.0022775353863835335,0.002673813607543707,0.0008077367674559355
1782970024646310400,5.711310302734375,-0.00021252025908324867,0.005561745725572109,0.0025624935515224934
1782970024656236300,5.721236328125,0.0010924286907538772,0.0035859462805092335,0.0011230550007894635
1782970024666163200,5.7311630859375,-0.0012189288390800357,0.003953728824853897,0.0008607336785644293
1782970024676089300,5.74108935546875,-0.0006940197781659663,0.005290635861456394,0.0013872405979782343
1782970024686015200,5.75101513671875,-0.0023880566004663706,0.0052086105570197105,0.0010183927370235324
1782970024695941000,5.760941162109375,0.0006700513185933232,0.0028807413764297962,0.002532399957999587
1782970024705868300,5.770868408203125,-0.0005067995516583323,0.004277302883565426,0.00024714134633541107
1782970024715794400,5.78079443359375,-0.0010540791554376483,0.005298625212162733,0.0009720537927933037
1782970024725720000,5.790719970703125,0.00043888893560506403,0.005742307752370834,0.0010317085543647408
1782970024735646200,5.800646240234375,0.0011113371001556516,0.004354001954197884,0.001984321279451251
1782970024745573400,5.810573486328125,-0.0014194648247212172,0.0028533106669783592,0.0024668860714882612
1782970024755499000,5.8204990234375,0.0004551342281047255,0.003808053908869624,-0.001502555445767939
1782970024765425200,5.830425048828125,-0.0012516856659203768,0.004865595139563084,0.0024855281226336956
1782970024775351300,5.840351318359375,-0.0011536814272403717,0.00583605095744133,0.001207743538543582
1782970024785278200,5.8502783203125,-0.0013821806060150266,0.005126585252583027,0.0007358313887380064
1782970024795204000,5.8602041015625,-0.0033513219095766544,0.0062400526367127895,0.0018823222490027547
1782970024805130200,5.870130126953125,-0.0009438242996111512,0.007268032990396023,-0.00039175100391730666
1782970024815056400,5.880056396484375,-0.001484179636463523,0.004808337427675724,0.0046610645949840546
1782970024824983000,5.889983154296875,0.0004439489566721022,0.005119128152728081,-0.00031318774563260376
1782970024834909200,5.8999091796875,-0.002376604825258255,0.0049401638098061085,0.0017214673571288586
1782970024844835300,5.90983544921875,-0.000520647969096899,0.004959338344633579,0.004418983124196529
1782970024854761200,5.91976123046875,-0.0009070726810023189,0.004003263544291258,0.0030160299502313137
1782970024864688000,5.929688232421875,0.0000021305288555595325,0.003381948219612241,0.000290018244413659
1782970024874614300,5.9396142578125,0.0012186624808236957,0.004589958116412163,0.0028485171496868134
1782970024884540400,5.94954052734375,0.0005656554130837321,0.005001416429877281,0.0017145430902019143
1782970024894466000,5.959466064453125,-0.00028628981090150774,0.0041161817498505116,0.0007387608638964593
1782970024904393200,5.969393310546875,0.00008016114588826895,0.006975351367145777,0.0008431567694060504
1782970024914319400,5.9793193359375,0.00029827404068782926,0.003079146845266223,0.002867691917344928
1782970024924245000,5.989244873046875,0.0011717908782884479,0.005167065188288689,0.0035308189690113068
1782970024934171100,5.999171142578125,0.00098217383492738,0.004801146686077118,0.004512193612754345
1782970024944098300,6.009098388671875,-0.0012607404496520758,0.006626477465033531,0.0020357202738523483
1782970024954024200,6.019024169921875,0.0014495585346594453,0.004318049177527428,0.003623230615630746
1782970024963950000,6.0289501953125,0.00026285400963388383,0.005285043269395828,-0.0013944311067461967
1782970024973876200,6.038876220703125,0.0024626250378787518,0.004788097459822893,0.0020096213556826115
1782970024983803400,6.048803466796875,0.0014700648607686162,0.006325806491076946,0.004284227266907692
1782970024993729000,6.05872900390625,0.0013086773687973619,0.0051750545389950275,0.0026346652302891016
1782970025003655200,6.0686552734375,-0.00017496968212071806,0.004108458757400513,-0.00032091091270558536
1782970025013581300,6.078581298828125,0.0011574097443372011,0.006382798310369253,-0.0000977380113909021
1782970025023508200,6.08850830078125,-0.0013574132462963462,0.002636529505252838,0.0016538230702280998
1782970025033434000,6.09843408203125,-0.0004593952908180654,0.003967311233282089,0.0005707154050469398
1782970025043360300,6.1083603515625,-0.0017233315156772733,0.004751079250127077,-0.001995772821828723
1782970025053286400,6.118286376953125,0.0011792477453127503,0.004298341926187277,0.0017728663515299559
1782970025063213000,6.128213134765625,0.0003129214164800942,0.004728708881884813,0.0017044231062754989
1782970025073139200,6.13813916015625,-0.0018042916199192405,0.006399309728294611,0.0018130800453945994
1782970025083065300,6.1480654296875,-0.0010388991795480251,0.004774515051394701,-0.00042051312630064785
1782970025092991200,6.1579912109375,0.002407231368124485,0.003885552054271102,0.0026618295814841986
1782970025102918100,6.167918212890625,-0.002624811604619026,0.005683718249201775,0.002097505610436201
1782970025112844300,6.17784423828125,0.0011076086666435003,0.0057226005010306835,0.00173771264962852
1782970025122770400,6.1877705078125,0.002118544653058052,0.0067724185064435005,0.003207244910299778
1782970025132696000,6.197696044921875,0.003308977698907256,0.005667473189532757,0.0011518171522766352
1782970025142623200,6.207623291015625,0.001112935016863048,0.007224889472126961,0.002752376953139901
1782970025152549400,6.21754931640625,0.0003254382754676044,0.005231247283518314,0.0014354437589645386
1782970025162475000,6.22747509765625,-0.0022631543688476086,0.005621666554361582,0.0012897689593955874
1782970025172401200,6.237401123046875,-0.0012319782981649041,0.006601443514227867,0.0008708536624908447
1782970025182328300,6.247328369140625,-0.0008748483960516751,0.004375840071588755,0.003162770066410303
1782970025192254200,6.257254150390625,-0.0010239854454994202,0.002555036684498191,0.0009408948244526982
1782970025202180000,6.26718017578125,-0.0012418320402503014,0.005020058713853359,0.0001150485550169833
1782970025212106200,6.277106201171875,-0.0015595471486449242,0.005074653308838606,0.0002426139690214768
1782970025222033200,6.287033203125,-0.0043595945462584496,0.008534898981451988,0.0028993834275752306
1782970025231959000,6.296958984375,0.0005286374944262207,0.006807572208344936,-0.00019387812062632293
1782970025241885200,6.30688525390625,0.0009675264009274542,0.006462959107011557,0.003008306724950671
1782970025251811300,6.316811279296875,-0.0035955337807536125,0.007245928514748812,0.003991279285401106
1782970025261738200,6.32673828125,-0.00040506679215468466,0.003913781605660915,0.001261805766262114
1782970025271664000,6.3366640625,0.0002234392159152776,0.002235191175714135,0.00006258428766159341
1782970025281590300,6.34659033203125,-0.00017470336752012372,0.007842210121452808,0.004037352278828621
1782970025291516400,6.356516357421875,0.00026791400159709156,0.0049225869588553905,-0.0012841762509196997
1782970025301443000,6.366443115234375,-0.00023409185814671218,0.0052200620993971825,-0.0007850998663343489
1782970025311369200,6.376369140625,0.0003206445835530758,0.0062187472358345985,-0.00013688647595699877
1782970025321295400,6.38629541015625,0.0035276231355965137,0.0047087352722883224,0.0014857775531709194
1782970025331222300,6.39622216796875,-0.002668753731995821,0.005626726895570755,0.0017773937433958054
1782970025341148200,6.406148193359375,-0.0014966964954510331,0.0057044909335672855,0.00166633992921561
1782970025351074300,6.41607421875,-0.0006074670236557722,0.00455800024792552,0.0009062737226486206
1782970025361000200,6.426000244140625,0.0026264095213264227,0.003808053908869624,0.0028972530271857977
1782970025370927000,6.435927001953125,0.0006905576447024941,0.005741509143263102,0.004381965380162001
1782970025380853200,6.445853271484375,0.001502555445767939,0.004721518140286207,0.0021675468888133764
1782970025390779100,6.455779052734375,0.0024370586033910513,0.006933539640158415,0.003451190423220396
1782970025400705000,6.465705078125,-0.0026519757229834795,0.005396096967160702,0.001023186487145722
1782970025410632200,6.475632080078125,0.0019624833948910236,0.004614192992448807,0.002776345470920205
1782970025420558300,6.485558349609375,-0.0012844426091760397,0.005654956214129925,0.00580728892236948
1782970025430484200,6.495484130859375,-0.002656236756592989,0.0038631814531981945,0.0014674017438665032
1782970025440410000,6.50541015625,-0.0011515507940202951,0.006086121778935194,-0.00009480853623244911
1782970025450337300,6.515337158203125,0.001127582392655313,0.004610198084264994,-0.002715625334531069
1782970025460263200,6.52526318359375,0.002544117858633399,0.0026610305067151785,0.0015401060227304697
1782970025470189000,6.53518896484375,-0.0014863101532682776,0.00478277076035738,0.0006021407316438854
1782970025480115200,6.545115234375,-0.003011236200109124,0.002919357270002365,-0.0002079928817693144
1782970025490042000,6.5550419921875,-0.00012490226072259247,0.0021971079986542463,0.000371777277905494
1782970025499968300,6.56496826171875,-0.0012128035305067897,0.006823018658906221,-0.000743554555810988
1782970025509894100,6.57489404296875,-0.0012628709664568305,0.007251254748553038,0.0019054916920140386
1782970025519820300,6.5848203125,-0.0009890979854390025,0.005880259443074465,0.0017542241839691997
1782970025529747200,6.594747314453125,0.0005113269435241818,0.004150270018726587,0.001511343871243298
1782970025539673300,6.60467333984375,0.0015243934467434883,0.004309793468564749,0.0015281217638403177
1782970025549599200,6.61459912109375,0.002916427794843912,0.006570817437022924,0.003418966196477413
1782970025559525400,6.624525390625,-0.0005808354471810162,0.004433896858245134,0.0015720640076324344
1782970025569452300,6.634452392578125,-0.000355532014509663,0.0040914141573011875,-0.00032384038786403835
1782970025579378200,6.644378173828125,-0.00042024682625196874,0.006705839652568102,0.0015515576815232635
1782970025589304300,6.65430419921875,-0.0025803367607295513,0.004970257636159658,0.0021813951898366213
1782970025599230200,6.664230224609375,0.0024138891603797674,0.007511978503316641,0.0008066715090535581
1782970025609157400,6.674157470703125,-0.0001549959706608206,0.0017004283145070076,-0.0010980212828144431
1782970025619083300,6.684083251953125,-0.0004463458026293665,0.00395745737478137,0.0007997472421266139
1782970025629009200,6.694009033203125,0.0013792511308565736,0.0041611893102526665,0.0007310376968234777
1782970025638935300,6.703935302734375,0.0009435579413548112,0.0012684636749327183,0.000570981705095619
1782970025648862200,6.7138623046875,-0.0015781891997903585,0.005560680292546749,0.0018911106744781137
1782970025658788000,6.7237880859375,0.0004319647268857807,0.005754558369517326,0.0025390577502548695
1782970025668714200,6.73371435546875,-0.0010367685463279486,0.004041879437863827,0.0030274814926087856
1782970025678640000,6.74364013671875,-0.0011150655336678028,0.00418382603675127,0.00011691277177305892
1782970025688567000,6.753567138671875,0.0003936151915695518,0.006086920853704214,0.0015707324491813779
1782970025698493200,6.7634931640625,-0.000006924218723725062,0.003412308171391487,0.0037289580795913935
1782970025708419300,6.77341943359375,-0.000964064325671643,0.004277302883565426,0.0018354506464675069
1782970025718345200,6.78334521484375,-0.0006231797160580754,0.003997404593974352,0.0004442152567207813
1782970025728272100,6.793272216796875,-0.0012101404136046767,0.00595456175506115,-0.001606152392923832
1782970025738198300,6.8031982421875,-0.002225603675469756,0.005191300064325333,-0.0008199872681871057
1782970025748124200,6.813124267578125,-0.0024716798216104507,0.005137237720191479,-0.001133174984715879
1782970025758050300,6.82305029296875,-0.003531351685523987,0.005517270881682634,0.0019768644124269485
1782970025767977200,6.832977294921875,-0.0027545075863599777,0.003707120195031166,0.0031182952225208282
1782970025777903400,6.8429033203125,-0.001419198582880199,0.003183010034263134,0.0016468988033011556
1782970025787829200,6.852829345703125,-0.0010695254895836115,0.003677559085190296,0.002302569104358554
1782970025797755100,6.862755126953125,0.000015712650565546937,0.005275455769151449,0.0005358280031941831
1782970025807682300,6.872682373046875,-0.0014405038673430681,0.0054815844632685184,0.002089516259729862
1782970025817608200,6.882608154296875,0.0007392935222014785,0.0033694314770400524,0.0029031119775027037
1782970025827534000,6.8925341796875,0.0009803095599636436,0.005747634451836348,0.0010958907660096884
1782970025837460200,6.902460205078125,-0.0020389161072671413,0.0049585397355258465,0.0037316211964935064
1782970025847387400,6.912387451171875,-0.001862348522990942,0.005684517323970795,0.0003603257064241916
1782970025857313300,6.922313232421875,0.0015603461069986224,0.0046789078041911125,0.0027118970174342394
1782970025867239200,6.9322392578125,0.0008737831376492977,0.005086903925985098,-0.0004892227007076144
1782970025877165300,6.942165283203125,-0.0025965820532292128,0.007552724797278643,0.0008881642133928835
1782970025887092200,6.95209228515625,0.0023188143968582153,0.0029228192288428545,0.0016650082543492317
1782970025897018000,6.96201806640625,-0.0004916195175610483,0.0043859598226845264,0.0034474621061235666
1782970025906944300,6.9719443359375,-0.0016990967560559511,0.007527957204729319,0.0014343785587698221
1782970025916870100,6.9818701171875,-0.0013763216556981206,0.004720453172922134,-0.001005609636195004
1782970025926797000,6.991797119140625,0.00033928672201000154,0.0025939189363271,-0.0024229439441114664
1782970025936723200,7.00172314453125,0.0015241270884871483,0.004929244983941317,0.0031137678306549788
1782970025946649300,7.0116494140625,-0.0005118595436215401,0.004861867055296898,0.00038722361205145717
1782970025956575200,7.0215751953125,0.0015736619243398309,0.003838680451735854,0.0018082864116877317
1782970025966502100,7.031502197265625,0.0004239752306602895,0.0033156354911625385,0.0027145601343363523
1782970025976428300,7.04142822265625,0.0012351741315796971,0.004879177547991276,0.0017536915838718414
1782970025986354200,7.051354248046875,-0.0023150858469307423,0.0057223341427743435,0.002666356973350048
1782970025996280300,7.0612802734375,-0.0003028014034498483,0.006101035512983799,0.0031092404387891293
1782970026006207200,7.071207275390625,-0.0010271812789142132,0.0027318706270307302,0.0040852888487279415
1782970026016133400,7.08113330078125,-0.0003022687742486596,0.006874151527881622,0.0020535634830594063
1782970026026059300,7.091059326171875,-0.0009837717516347766,0.004542021080851555,0.0010381002211943269
1782970026035985200,7.100985107421875,-0.0005052016349509358,0.003154247999191284,-0.00008894957863958552
1782970026045912300,7.110912353515625,0.002284459536895156,0.00392842898145318,0.0020516992080956697
1782970026055838200,7.120838134765625,-0.00006924218905624002,0.004206729121506214,0.004452272783964872
1782970026065764000,7.13076416015625,0.00227860058657825,0.003781156148761511,0.0006506102508865297
1782970026075690200,7.140690185546875,0.0008514125947840512,0.0063124909065663815,0.003477555699646473
1782970026085617400,7.150617431640625,-0.0034639735240489244,0.002718554809689522,0.003133208956569433
1782970026095543000,7.16054296875,0.0014868428697809577,0.004764395300298929,-0.001008272753097117
1782970026105469200,7.17046923828125,-0.0018724685069173574,0.0054815844632685184,-0.00058323226403445
1782970026115395300,7.180395263671875,-0.0030916635878384113,0.006881874520331621,0.0009238505735993385
1782970026125322000,7.190322021484375,-0.0012751214671880007,0.002825613832101226,0.001939580193720758
1782970026135248100,7.200248046875,0.003479952458292246,0.004704207647591829,0.002659166231751442
1782970026145174300,7.21017431640625,0.0002820287481881678,0.004805141594260931,0.0019267969764769077
1782970026155100200,7.22010009765625,0.00236275652423501,0.004790494218468666,0.004453870467841625
1782970026165027000,7.230027099609375,-0.0010271812789142132,0.004485828336328268,0.0022540995851159096
1782970026174953200,7.239953125,0.0002764361270237714,0.0041305627673864365,0.0013859090395271778
1782970026184879400,7.24987939453125,0.002549177734181285,0.005616873037070036,-0.0003486077766865492
1782970026194805200,7.25980517578125,0.0025595640763640404,0.006329535041004419,0.0015299860388040543
1782970026204732200,7.269732177734375,-0.0033569145016372204,0.004644020460546017,0.0020881847012788057
1782970026214658300,7.279658203125,-0.001056209672242403,0.004140949342399836,0.0018437063554301858
1782970026224584200,7.289584228515625,2.6631610694494157e-7,0.0008487494196742773,0.003154247999191284
1782970026234510000,7.299510009765625,-0.00022210762836039066,0.005825664848089218,-0.0004599279200192541
1782970026244437200,7.309437255859375,-0.0018165421206504107,0.007108775898814201,0.003334810258820653
1782970026254363400,7.31936328125,-0.0019686087034642696,0.0049612028524279594,0.003163036424666643
1782970026264289000,7.3292890625,-0.002374474424868822,0.0028072381392121315,0.002243180526420474
1782970026274216200,7.33921630859375,0.00020586235041264445,0.005331914871931076,0.002204298507422209
1782970026284142300,7.349142333984375,-0.0015614113071933389,0.004399808589369059,0.0021992383990436792
1782970026294068200,7.359068115234375,-0.0005113269435241818,0.006442452780902386,0.0008455536444671452
1782970026303994000,7.368994140625,-0.0014026869321241975,0.0035124430432915688,0.0017422399250790477
1782970026313921300,7.37892138671875,-0.0023395870812237263,0.006343649700284004,0.0024021712597459555
1782970026323847200,7.38884716796875,-0.002579271560534835,0.0068448567762970924,0.0010357033461332321
1782970026333773000,7.39877294921875,-0.00018615495355334133,0.007753260899335146,-0.0008394283941015601
1782970026343699200,7.40869921875,-0.0024051007349044085,0.006178800016641617,0.0022154836915433407
1782970026353626400,7.41862646484375,0.0004106594424229115,0.004319380968809128,0.001190166687592864
1782970026363552300,7.42855224609375,-0.00043116576853208244,0.00430153775960207,0.005635781679302454
1782970026373478100,7.43847802734375,-0.0015534218400716782,0.00634924229234457,-0.0001608549355296418
1782970026383404300,7.448404296875,0.0005707154050469398,0.007119162008166313,0.0035984632559120655
1782970026393330200,7.458330078125,-0.00020133497309871018,0.006524212192744017,0.0019747340120375156
1782970026403257000,7.468257080078125,0.0001984054979402572,0.006797718815505505,0.0013941648649051785
1782970026413183200,7.478183349609375,0.0003856257244478911,0.005805158521980047,0.0029731530230492353
1782970026423108900,7.48810888671875,-0.0014269216917455196,0.004427771549671888,0.0023393207229673862
1782970026433035000,7.498034912109375,0.0010626012226566672,0.0038874163292348385,0.0010801780736073852
1782970026442962000,7.5079619140625,0.0018405106384307146,0.004763329867273569,0.0015662050573155284
1782970026452887800,7.5178876953125,-0.0007198524544946849,0.008067780174314976,0.002856240142136812
1782970026462814000,7.52781396484375,0.000003462109361862531,0.0038077877834439278,0.0015243934467434883
1782970026472739800,7.53773974609375,-0.0026136261876672506,0.0056863813661038876,0.0023462448734790087
1782970026482666800,7.547666748046875,-0.0037151097785681486,0.004864796530455351,0.002514024032279849
1782970026492593000,7.557593017578125,0.00012756542128045112,0.00618306128308177,0.004318581894040108
1782970026502518800,7.567518798828125,-0.0016935041639953852,0.004416320007294416,0.003576891729608178
1782970026512446000,7.577446044921875,0.0002767024270724505,0.00624111806973815,0.0014796522445976734
1782970026522371800,7.587371826171875,0.0025928535033017397,0.006131395697593689,0.0024437166284769773
1782970026532297700,7.597297607421875,-0.001413073274306953,0.005344165489077568,-0.0005882922559976578
1782970026542224000,7.607223876953125,-0.0014889733865857124,0.003102049930021167,0.003287938656285405
1782970026552150800,7.61715087890625,0.00021784658019896597,0.0051990230567753315,-0.0008285093936137855
1782970026562077000,7.627076904296875,-0.00013688647595699877,0.003576891729608178,0.0035902075469493866
1782970026572002800,7.6370029296875,0.0013795174891129136,0.0041212416253983974,0.0017129451734945178
1782970026581928700,7.6469287109375,0.001210673013702035,0.003983556292951107,0.0020634171087294817
1782970026591855900,7.65685595703125,-0.0004721784498542547,0.003058374160900712,0.001374457380734384
1782970026601781800,7.66678173828125,-0.0010317085543647408,0.004538558889180422,0.0007491472060792148
1782970026611708000,7.6767080078125,0.0008287757518701255,0.003805124433711171,0.0004165183927398175
1782970026621633800,7.6866337890625,0.00001997370782191865,0.0041526672430336475,0.0036631780676543713
1782970026631560700,7.696560791015625,-0.0054360441863536835,0.005879993550479412,-0.000391218374716118
1782970026641486800,7.70648681640625,-0.0014538196846842766,0.004846953321248293,0.0031156321056187153
1782970026651412700,7.716412841796875,-0.002281530061736703,0.004447745159268379,0.0011283813510090113
1782970026661339000,7.7263388671875,-0.0003294330381322652,0.004214984830468893,0.0017084177816286683
1782970026671265800,7.736265869140625,0.0003707120195031166,0.005339105147868395,0.003471430391073227
1782970026681192000,7.74619189453125,-0.0003653856983873993,0.0030543794855475426,0.004758802708238363
1782970026691117800,7.756117919921875,-0.0018335863715037704,0.005726595409214497,0.004711132030934095
1782970026701044000,7.7660439453125,0.0007507451227866113,0.004219778813421726,0.003200853243470192
1782970026710971000,7.775970947265625,-0.0012543488992378116,0.005309544038027525,0.002377403900027275
1782970026720896800,7.785896728515625,-0.00035420042695477605,0.006821686867624521,0.00056219327962026
1782970026730823000,7.795822998046875,0.00016724651504773647,0.006476008798927069,0.0008591357618570328
1782970026740748800,7.805748779296875,0.00046072687837295234,0.004072505980730057,-0.00006631271389778703
1782970026750676000,7.815676025390625,-0.0008258462767116725,0.004965730011463165,0.005015264730900526
1782970026760601900,7.825601806640625,0.002394448034465313,0.004363855812698603,-0.00010865696822293103
1782970026770527700,7.83552783203125,-0.0005041363765485585,0.005404086317867041,0.001537709147669375
1782970026780454000,7.845453857421875,0.0007257114048115909,0.006157228257507086,0.002380866091698408
1782970026790381000,7.855381103515625,0.0001478054327890277,0.004831506870687008,0.0007374293054454029
1782970026800306700,7.865306640625,-0.0005182511522434652,0.005368932615965605,0.0006846986943855882
1782970026810232800,7.87523291015625,-0.0013622068800032139,0.005906624719500542,0.002395247109234333
1782970026820158700,7.88515869140625,-0.00005273058923194185,0.0062552327290177345,0.0014660701854154468
1782970026830085600,7.895085693359375,0.000850879936479032,0.004059189930558205,-0.0005081311101093888
1782970026840011800,7.90501171875,-0.0002593918761704117,0.005243764258921146,0.002495914464816451
1782970026849938000,7.91493798828125,0.0003486077766865492,0.003792874049395323,0.002802444389089942
1782970026859863800,7.92486376953125,0.0021694109309464693,0.003394198836758733,0.0025537051260471344
1782970026869790700,7.934790771484375,-0.0021582257468253374,0.0066062374971807,0.00012090751260984689
1782970026879716900,7.944716796875,-0.000021305288100847974,0.00663526589050889,0.002121207769960165
1782970026889643000,7.95464306640625,-0.0005185174522921443,0.007522098254412413,0.0009835053933784366
1782970026899569000,7.96456884765625,0.0018314558546990156,0.004910602699965239,-0.00008335694292327389
1782970026909495800,7.974495849609375,0.0009944243356585503,0.005905027035623789,0.003522030543535948
1782970026919422000,7.984421875,-0.002316950121894479,0.004805674310773611,0.0029409287963062525
1782970026929345800,7.994345703125,0.00013395700079854578,0.003939347807317972,0.0008743157959543169
1782970026939272000,8.00427197265625,-0.0006583334179595113,0.0067604342475533485,0.0008247809601016343
1782970026949197800,8.01419775390625,-0.0017190704820677638,0.003372893435880542,0.0023587618488818407
1782970026959124000,8.0241240234375,-0.0018610169645398855,0.00461579067632556,0.0022210762836039066
1782970026969051000,8.03405078125,0.00033662354690022767,0.005035505164414644,0.002264485927298665
1782970026978976800,8.043976806640625,-0.001278849900700152,0.0038219024427235126,-0.00028069718973711133
1782970026988903000,8.05390283203125,0.001189900329336524,0.007200388703495264,0.0005930859479121864
1782970026998828800,8.063828857421875,-0.0005973470397293568,0.003156644757837057,0.0016666061710566282
1782970027008756000,8.073755859375,-0.0011281149927526712,0.003888481529429555,0.0012066783383488655
1782970027018681900,8.083681884765625,-0.0023039006628096104,0.005519134923815727,0.00007856325100874528
1782970027028607700,8.093607666015625,0.0009174589649774134,0.005438175052404404,0.0041406829841434956
1782970027038534000,8.103533935546874,-0.0010154632618650794,0.003634682158008218,0.0005824333056807518
1782970027048460800,8.113460693359375,-0.0008905610884539783,0.006905843038111925,0.0029403960797935724
1782970027058386700,8.12338671875,-0.0023395870812237263,0.005714344792068005,0.0010482202051207423
1782970027068312800,8.133312744140625,-0.0008892294717952609,0.004668254870921373,0.001219727797433734
1782970027078238700,8.14323876953125,0.0009539442835375667,0.0037558560725301504,0.001853826455771923
1782970027088166000,8.153165771484375,-0.0022503710351884365,0.004005128052085638,0.0007901599165052176
1782970027098091800,8.163091796875,0.0014176006661728024,0.0036677054595202208,-0.00014887070574332029
1782970027108018000,8.173017822265624,0.001002413802780211,0.006877347361296415,0.002447977662086487
1782970027117943800,8.18294384765625,-0.0008343683439306915,0.0054331147111952305,0.0017164073651656508
1782970027127870700,8.19287060546875,0.0008966863388195634,0.004652542527765036,0.004188353195786476
1782970027137796900,8.202796875,-0.0020519655663520098,0.004185690078884363,-0.00011345066013745964
1782970027147722800,8.21272265625,-0.001151284552179277,0.005721002817153931,0.0021813951898366213
1782970027157649000,8.22264892578125,0.0010218549286946654,0.004166249185800552,-0.0003611246356740594
1782970027167575800,8.232575927734375,0.00008708536915946752,0.0037550569977611303,0.0008615325787104666
1782970027177502000,8.242501953125,-0.0003217098710592836,0.004307929426431656,0.0009840379934757948
1782970027187427800,8.252427734375,-0.0005179848521947861,0.005516471806913614,0.003820038167759776
1782970027197353700,8.262353759765626,-0.0006578007596544921,0.005330583080649376,-0.00025513084256090224
1782970027207281000,8.272281005859375,-0.0018101505702361465,0.00694978516548872,0.0020865867845714092
1782970027217207000,8.28220703125,0.003468500915914774,0.0038783615455031395,0.00044314999831840396
1782970027227132700,8.292132568359374,-0.0007568703731521964,0.0057497648522257805,0.000871652620844543
1782970027237059800,8.302059814453125,-0.00004900216299574822,0.0017305220244452357,0.003213636577129364
1782970027246986000,8.311986083984374,0.0006580671179108322,0.004652542527765036,-0.0002961435238830745
1782970027256912000,8.321911865234375,0.0024953819811344147,0.005036303773522377,0.0034618431236594915
1782970027266837800,8.331837646484376,-0.0023395870812237263,0.004649346694350243,0.0022833943367004395
1782970027276764000,8.341763916015625,-0.0007659250986762345,0.005403287708759308,0.0013086773687973619
1782970027286691000,8.351691162109375,-0.0011265170760452747,0.00666296249255538,0.0023928501177579165
1782970027296616700,8.36161669921875,0.0009952232940122485,0.003988616168498993,0.0022474415600299835
1782970027306542800,8.37154296875,-0.0026554379146546125,0.0073194317519664764,-0.00037923414492979646
1782970027316469000,8.381468994140626,-0.0011803129455074668,0.004972920753061771,-0.0003483414766378701
1782970027326395600,8.391395751953125,-0.001115864492021501,0.005092762876302004,0.0019829897210001945
1782970027336323800,8.40132373046875,0.0006186523241922259,0.004554804414510727,-0.0005837649223394692
1782970027346249700,8.411249755859375,-0.0015755260828882456,0.006844590418040752,0.001728391507640481
1782970027356176000,8.42117578125,-0.0008921589469537139,0.004049336537718773,0.0031425300985574722
1782970027366101800,8.431101806640624,0.0010402307379990816,0.005561745725572109,-0.001017061178572476
1782970027376028700,8.441028564453125,0.0016801883466541767,0.005483714863657951,0.003757187630981207
1782970027385954800,8.450954833984374,0.00012516857532318681,0.005145759787410498,0.0019148128340020776
1782970027395881000,8.460880859375,0.0021843246649950743,0.0033340114168822765,0.0024607607629150152
1782970027405806800,8.470806884765626,0.0008127967594191432,0.004248807206749916,0.002418150193989277
1782970027415733800,8.480733642578125,0.0006841660942882299,0.006570284720510244,0.003481017891317606
1782970027425660400,8.490660400390626,0.00038775624125264585,0.004008057527244091,0.002371278591454029
1782970027435586600,8.500586669921875,-0.0008652610122226179,0.0031758195254951715,0.0015638081822544336
1782970027445512200,8.51051220703125,0.0005845638806931674,0.007441671099513769,0.0008729841792955995
1782970027455439400,8.520439453125,0.002007757080718875,0.003811249742284417,0.001421861699782312
1782970027465365500,8.530365478515625,0.00004953479583491571,0.0027483822777867317,0.0032320122700184584
1782970027475291400,8.54029150390625,-0.001487641828134656,0.00481206551194191,0.0010687265312299132
1782970027485217300,8.55021728515625,-0.0021438447292894125,0.005044559482485056,0.001678057829849422
1782970027495144400,8.56014453125,0.0014751249691471457,0.003166498616337776,0.00046605319948866963
1782970027505070300,8.5700703125,0.0021795309148728848,0.004953479394316673,0.001714010490104556
1782970027514996200,8.579996337890625,0.0008886968716979027,0.00580862071365118,0.0017041567480191588
1782970027524922400,8.58992236328125,0.0009345032158307731,0.004966262727975845,0.0006000102148391306
1782970027534849300,8.599849365234375,-0.024571655318140984,-0.0016532903537154198,0.006120210513472557
1782970027544775400,8.609775390625,0.060979995876550674,0.013125123456120491,-0.007754592224955559
1782970027554701300,8.619701416015625,-0.05866863951086998,-0.00013741910515818745,0.011178884655237198
1782970027564627500,8.62962744140625,0.06135496869683266,0.0062552327290177345,-0.008268049918115139
1782970027574554400,8.639554443359375,-0.0560118705034256,0.003102049930021167,0.012385030277073383
1782970027584480300,8.649480224609375,0.05649017542600632,0.004727377090603113,-0.009780991822481155
1782970027594406400,8.659406494140624,-0.050287939608097076,0.001942243310622871,0.010094712488353252
1782970027604332500,8.66933251953125,0.05247092992067337,0.008473379537463188,-0.005989182740449905
1782970027614259500,8.679259521484376,-0.046123553067445755,0.0032261533197015524,0.00947952177375555
1782970027624185300,8.689185302734375,0.04469183832406998,0.005371862091124058,-0.006938067264854908
1782970027634111500,8.699111572265625,-0.03705895319581032,0.005289304070174694,0.010398578830063343
1782970027644037400,8.709037353515624,0.03650953993201256,0.006204366218298674,-0.00726430444046855
1782970027653964300,8.71896435546875,-0.02876267209649086,0.002965429797768593,0.009348227642476559
1782970027663890400,8.728890380859376,0.028932848945260048,0.00996022205799818,-0.01019671093672514
1782970027673816300,8.73881640625,-0.02147386595606804,0.0046485476195812225,0.010069412179291248
1782970027683742200,8.7487421875,0.020188892260193825,0.00820972677320242,-0.0054512242786586285
1782970027693669400,8.75866943359375,-0.011293933726847172,0.003938282374292612,0.009012402966618538
1782970027703595500,8.768595458984375,0.013295832090079784,0.007832889445126057,-0.007812915369868279
1782970027713521400,8.778521484375,-0.004147074185311794,0.00330338510684669,0.0072943982668221
1782970027723447300,8.788447265625,0.00851625669747591,0.006327138282358646,-0.0019765980541706085
1782970027733374500,8.79837451171875,0.004107659682631493,0.006657636258751154,0.006201436743140221
1782970027743300400,8.80830029296875,-0.0011563445441424847,0.006164951715618372,-0.0041342913173139095
1782970027753226200,8.818226318359375,0.01437947154045105,0.00515907583758235,0.004914863966405392
1782970027763152400,8.82815234375,-0.011916580609977245,0.006272276863455772,-0.0013941648649051785
1782970027773079300,8.838079345703125,0.023615313693881035,0.0032956618815660477,0.005503688473254442
1782970027783005400,8.84800537109375,-0.01991538517177105,0.0056802560575306416,-0.0019744676537811756
1782970027792931300,8.857931396484375,0.030654581263661385,0.005389172583818436,0.00287408335134387
1782970027802857500,8.867857421875,-0.030001575127243996,0.005794771946966648,-0.0005227785441093147
1782970027812784400,8.877784423828125,0.04041773080825806,0.005322061013430357,0.0026495789643377066
1782970027822710300,8.887710205078125,-0.036554016172885895,0.008117581717669964,0.0033161682076752186
1782970027832636400,8.897636474609374,0.04742184281349182,0.002921754028648138,0.000865793670527637
1782970027842562600,8.9075625,-0.04351205751299858,0.00743181724101305,0.0017651431262493134
1782970027852489500,8.917489501953124,0.05444273725152016,0.004734834190458059,-0.0007390272221527994
1782970027862415400,8.927415283203125,-0.049187518656253815,0.006336192600429058,0.00498224189504981
1782970027872341500,8.937341552734376,0.061579473316669464,0.002026399364694953,-0.003369697602465749
1782970027882267400,8.947267333984374,-0.054174020886421204,0.007160441018640995,0.006874151527881622
1782970027892194300,8.9571943359375,0.06256351619958878,0.004476507660001516,-0.002275937469676137
1782970027902120400,8.967120361328124,-0.06124657765030861,0.006146309431642294,0.005212871357798576
1782970027912046300,8.97704638671875,0.0651899203658104,0.0022485069930553436,-0.002977946773171425
1782970027921972200,8.98697216796875,0.006311691831797361,0.007733819540590048,0.0017510283505544066
1782970027931899400,8.9968994140625,0.0023441144730895758,0.0018375811632722616,0.006430202629417181
1782970027941825300,9.0068251953125,0.002192580606788397,0.0076177059672772884,0.0019542276859283447
1782970027951751400,9.01675146484375,-0.001802693703211844,0.0057132793590426445,-0.0007773766992613673
1782970027961677300,9.02667724609375,-0.0015158712631091475,0.0067961206659674644,0.0021470405627042055
1782970027971604200,9.036604248046874,0.0011182613670825958,0.005453088786453009,-0.0007472829893231392
1782970027981530400,9.0465302734375,-0.00020426444825716317,0.005891977343708277,0.003412308171391487
1782970027991456300,9.056456298828126,0.0005494101205840707,0.003581951605156064,0.0002620550512801856
1782970028001382400,9.06638232421875,-0.001365668955259025,0.003855191869661212,-0.0002407497668173164
1782970028011309300,9.076309326171875,-0.00033449303009547293,0.006200638134032488,0.000011185276889591478
1782970028021235500,9.0862353515625,-0.0016144082183018327,0.004996889270842075,0.0005643238546326756
1782970028031161300,9.096161376953125,0.0022295983508229256,0.0028796761762350798,-0.0006940197781659663
1782970028041087500,9.10608740234375,0.0006146575906313956,0.004773716442286968,0.000018109494703821838
1782970028051014400,9.116014404296875,-0.00039068571641109884,0.003961718175560236,0.0024647556710988283
1782970028060940300,9.125940185546876,-0.0009600695921108127,0.004589425399899483,0.002846652874723077
1782970028070866400,9.135866455078125,-0.0016162724932655692,0.004759601317346096,0.0004040015337523073
1782970028080792300,9.145792236328125,-0.0005523395957425237,0.007702927105128765,0.0009632653673179448
1782970028090719500,9.155719482421874,-0.0015361113473773003,0.005051750224083662,0.002814695006236434
1782970028100645400,9.165645263671875,-0.0026642263401299715,0.006674148142337799,0.004209125880151987
1782970028110571300,9.1755712890625,-0.0021140172611922026,0.0076177059672772884,0.0029435919132083654
1782970028120497400,9.185497314453125,0.0006442186422646046,0.004120975267142057,0.004840828012675047
1782970028130424300,9.19542431640625,-0.002701510675251484,0.007017163094133139,0.004723382648080587
1782970028140350500,9.2053505859375,-0.0013190637109801173,0.007102117873728275,0.0010277138790115714
1782970028150276400,9.2152763671875,0.0014530207263305783,0.006302370689809322,0.0029236183036118746
1782970028160202200,9.2252021484375,-0.0008266451768577099,0.005901564843952656,0.001148355077020824
1782970028170129400,9.23512939453125,0.0009664611425250769,0.004024036228656769,0.000005326322025211994
1782970028180055300,9.24505517578125,-0.00005193164179218002,0.005077849142253399,0.0009486179915256798
1782970028189981400,9.2549814453125,-0.0003755057114176452,0.004939631093293428,0.00284958234988153
1782970028199907300,9.2649072265625,-0.0005882922559976578,0.004896221682429314,0.0017086841398850083
1782970028209834200,9.274834228515624,-0.0004159857635386288,0.003799265483394265,0.0020101540721952915
1782970028219760400,9.284760498046875,-0.0013784521725028753,0.005401156842708588,0.001249555149115622
1782970028229686500,9.2946865234375,0.001148088718764484,0.004173972178250551,0.00011291803093627095
1782970028239612400,9.3046123046875,0.0021827267482876778,0.0049406965263187885,-0.0013401026371866465
1782970028249539300,9.314539306640626,0.0020184097811579704,0.005629123654216528,0.0006197175825946033
1782970028259465500,9.324465576171875,0.0006476807757280767,0.004388356581330299,0.0009723200928419828
1782970028269391400,9.334391357421875,-0.00021225394448265433,0.003859186777845025,0.0016817862633615732
1782970028279317500,9.3443173828125,0.00041092574247159064,0.0030067088082432747,0.0037739656399935484
1782970028289244400,9.354244384765625,0.0008162588928826153,0.00563897704705596,0.0012620720081031322
1782970028299170600,9.364170654296874,-0.00010333064710721374,0.006038983818143606,0.004197407979518175
1782970028309096400,9.374096435546875,-0.002132392954081297,0.006074403878301382,0.0020040287636220455
1782970028319022300,9.384022216796875,-0.002394980750977993,0.007935420610010624,-0.000006125270374468528
1782970028328949500,9.393949462890625,-0.0035595810040831566,0.004991296678781509,-0.000027963191314483993
1782970028338875400,9.40387548828125,0.0002511360798962414,0.005828594323247671,0.0037060549948364496
1782970028348801300,9.41380126953125,-0.0013166668359190226,0.005042961798608303,0.0005661880713887513
1782970028358727400,9.4237275390625,-0.0010910971323028207,0.007208644412457943,-0.001728924224153161
1782970028368654600,9.433654541015626,-0.0010306433541700244,0.005306082312017679,0.0004953479510731995
1782970028378580200,9.443580322265625,0.001181111903861165,0.005375856999307871,0.003631486324593425
1782970028388506400,9.45350634765625,0.0008886968716979027,0.0043838294222950935,-0.000330231967382133
1782970028398432500,9.4634326171875,-0.0016223976854234934,0.008070975542068481,0.004835767671465874
1782970028408359200,9.473359130859375,-0.0014058827655389905,0.00413482403382659,0.000988032785244286
1782970028418285300,9.483285400390624,-0.0009116000146605074,0.006744455546140671,0.0016279903938993812
1782970028428211500,9.49321142578125,0.00013555490295402706,0.005520200356841087,0.00141041015740484
1782970028438137600,9.5031376953125,-0.0029851372819393873,0.00785366166383028,-0.0005382248782552779
1782970028448064500,9.513064453125,-0.0016088156262412667,0.005368399899452925,0.0014034858904778957
1782970028457990400,9.522990478515625,-0.0005230448441579938,0.002223206916823983,0.0011249192757532
1782970028467916500,9.53291650390625,0.00034115093876607716,0.005775597412139177,0.004434429574757814
1782970028477842700,9.5428427734375,-0.0005507417372427881,0.005191565956920385,-0.0002263686910737306
1782970028487769300,9.552769287109374,0.0005454153870232403,0.003566771512851119,0.001258343574590981
1782970028497695500,9.562695556640625,0.0004170510219410062,0.003915912006050348,0.0007648598402738571
1782970028507621600,9.57262158203125,0.0010178601369261742,0.003923102747648954,0.0029499835800379515
1782970028517547300,9.58254736328125,0.0006412891671061516,0.005684250965714455,0.003718305379152298
1782970028527474400,9.592474365234375,-0.001508414396084845,0.0051715923473238945,0.0016338493442162871
1782970028537400600,9.602400634765624,0.0006202502408996224,0.004863731097429991,0.0027981833554804325
1782970028547326500,9.612326416015625,0.001838646363466978,0.005155080929398537,0.0016527577536180615
1782970028557252400,9.62225244140625,-0.0012580773327499628,0.005977198481559753,0.004789695143699646
1782970028567179500,9.632179443359375,-0.0002817624481394887,0.002968359272927046,0.000708134553860873
1782970028577105400,9.64210546875,-0.0033135050907731056,0.005122057627886534,0.0014945659786462784
1782970028587031300,9.65203125,-0.00022849922243040055,0.0017670074012130499,0.0022863238118588924
1782970028596957400,9.66195751953125,-0.000958205375354737,0.005827795248478651,0.0011550129856914282
1782970028606884400,9.67188427734375,-0.00044821001938544214,0.007002782076597214,-0.000028762138754245825
1782970028616810500,9.681810546875,0.0010351707460358739,0.005816876422613859,0.0016306535108014941
1782970028626736400,9.691736328125,0.0004362257895991206,0.002755839144811034,0.0002210423699580133
1782970028636662500,9.70166259765625,0.0015835155500099063,0.005332181230187416,0.001055943313986063
1782970028646589400,9.71158935546875,-0.0016088156262412667,0.0021901836153119802,0.0016788567882031202
1782970028656515300,9.721515380859374,-0.0007004113867878914,0.00603392394259572,0.0015504923649132252
1782970028666441500,9.73144140625,-7.989483492565341e-7,0.006677077617496252,0.0017057546647265553
1782970028676367600,9.74136767578125,-0.0010388991795480251,0.0013933659065514803,0.003924966789782047
1782970028686293200,9.751293212890625,0.0006050702068023384,0.006734601687639952,0.0023989754263311625
1782970028696220400,9.761220458984376,0.001404018490575254,0.006834470201283693,0.002639192622154951
1782970028706146600,9.771146484375,0.000362988852430135,0.004631237126886845,0.0011427623685449362
1782970028716072400,9.781072509765625,-0.00030306773260235786,0.004993160720914602,0.002296177437528968
1782970028725998300,9.790998291015624,-0.0004572647449094802,0.006374808494001627,0.0002263686910737306
1782970028735925500,9.800925537109375,-0.0016620787791907787,0.003363838652148843,-0.001389104756526649
1782970028745851400,9.810851318359376,-0.0003398193512111902,0.007529555354267359,0.0004695153038483113
1782970028755777300,9.82077734375,0.0014562164433300495,0.004794222768396139,-0.00018216021999251097
1782970028765703400,9.830703369140625,0.0009297095239162445,0.004293548408895731,-0.0010167949367314577
1782970028775630600,9.840630615234375,0.0013480921043083072,0.006619819439947605,0.0029763488564640284
1782970028785556500,9.850556396484375,-0.0008325041271746159,0.00475454144179821,0.0020804614759981632
1782970028795482400,9.860482421875,-0.0010852381819859147,0.006337790749967098,0.0001637844106880948
1782970028805408500,9.870408447265625,0.0007712514488957822,0.003811782458797097,0.004581968765705824
1782970028815335400,9.88033544921875,-0.0015448997728526592,0.004622715059667826,0.0023278691805899143
1782970028825261300,9.89026123046875,-0.0016476977616548538,0.0039265644736588,0.0008753810543566942
1782970028835187500,9.9001875,0.0017616810509935021,0.004303401801735163,-0.0011717908782884479
1782970028845113600,9.910113525390624,-0.0008351673022843897,0.004917527083307505,0.001282312092371285
1782970028855040500,9.92004052734375,-0.0025742114521563053,0.005263737868517637,0.001198688754811883
1782970028864966400,9.92996630859375,-0.0011552792275324464,0.006569219287484884,0.0006788397440686822
1782970028874892500,9.939892578125,-0.0015763250412419438,0.005744970869272947,0.001794171635992825
1782970028884818400,9.949818359375,0.0009065400226972997,0.005594502668827772,0.003605653764680028
1782970028894745300,9.959745361328125,0.0015161376213654876,0.003637611633166671,0.0005928196478635073
1782970028904671500,9.96967138671875,0.001618136651813984,0.006876281928271055,-0.0010540791554376483
1782970028914597600,9.97959765625,0.0023971113841980696,0.00583605095744133,0.0016841830220073462
1782970028924523300,9.989523193359375,-0.000520647969096899,0.006473345682024956,0.0019052254501730204
1782970028934450400,9.999450439453126,-0.0005118595436215401,0.02677622064948082,0.013170663267374039
1782970028944376600,10.00937646484375,-0.0011912320042029023,0.02346990630030632,0.013128318823873997
1782970028954302500,10.019302490234375,0.0010106696281582117,0.011625496670603752,0.0036799560766667128
1782970028964228400,10.029228271484374,-0.003206712193787098,0.00404640706256032,0.0011584750609472394
1782970028974155500,10.039155517578125,0.00014753911818843335,0.0030916635878384113,-0.002625077962875366
1782970028984081400,10.049081298828124,0.00021997711155563593,-0.0002633866388350725,0.0005147890187799931
1782970028994007300,10.05900732421875,0.0009555422002449632,-0.0022005699574947357,-0.005247758701443672
1782970029003933400,10.068933349609376,0.002118278294801712,-0.011754659935832024,-0.00583711639046669
1782970029013860400,10.0788603515625,-0.0006298375665210187,-0.005375324282795191,-0.005121258553117514
1782970029023786500,10.088786376953125,0.00021784658019896597,0.010491789318621159,0.0010122675448656082
1782970029033712400,10.09871240234375,0.0006085322820581496,-0.00043302998528815806,-0.00284984870813787
1782970029043638500,10.108638427734375,-0.0018556906143203378,0.0075692362152040005,0.0009398295660503209
1782970029053565400,10.1185654296875,0.001181378262117505,0.004716458264738321,0.0007933556917123497
1782970029063491300,10.1284912109375,0.00029055087361484766,0.00478330347687006,0.000803209375590086
1782970029073417500,10.13841748046875,-0.00015526228526141495,0.006441387813538313,0.0009321063989773393
1782970029083343600,10.148343505859375,-0.000838895735796541,0.005197691265493631,0.005520466715097427
1782970029093269200,10.158269287109375,-0.0010578075889497995,0.004372644238173962,0.0025688852183520794
1782970029103196400,10.168196533203124,0.0013675332302227616,0.005870406050235033,0.00045619948650710285
1782970029113122600,10.17812255859375,0.0014759238110855222,0.005575860384851694,0.0007515440811403096
1782970029123048400,10.18804833984375,-0.00096086849225685,0.0037324202712625265,0.0014796522445976734
1782970029132974300,10.197974365234375,-0.0014080132823437452,0.004986502695828676,0.0024865935556590557
1782970029142901500,10.207901611328126,-0.000916393706575036,0.0049524144269526005,0.0026261431630700827
1782970029152827400,10.217827392578124,0.0013369068037718534,0.0020532971248030663,0.0020445086993277073
1782970029162753300,10.227753173828125,0.00043649208964779973,0.002025067573413253,0.0005816344055347145
1782970029172679400,10.237679443359376,-0.0007150587625801563,0.00672208471223712,0.0008740494376979768
1782970029182606300,10.2476064453125,0.0015667376574128866,0.002046106616035104,0.003066629869863391
1782970029192532500,10.257532470703126,0.0016016251174733043,0.0036911412607878447,0.0026735474821180105
1782970029202458400,10.267458251953125,0.0013195963110774755,0.006885869428515434,0.0009166600648313761
1782970029212384500,10.277384521484375,-0.00030652983696199954,0.005647233221679926,0.003108441596850753
1782970029222311400,10.2873115234375,0.0013438310706987977,0.0044408212415874004,0.0014495585346594453
1782970029232237600,10.297237548828125,-0.0010604707058519125,0.005399292800575495,-0.00030413299100473523
1782970029242163500,10.30716357421875,0.0024027039762586355,0.004459995776414871,0.0015933692920953035
1782970029252089600,10.317089599609375,-0.0015299860388040543,0.004111121874302626,0.0014503574930131435
1782970029262016500,10.3270166015625,0.0011046791914850473,0.004577973857522011,0.0030088394414633512
1782970029271942400,10.3369423828125,-0.0005281048361212015,0.00538491178303957,0.00034168356796726584
1782970029281868500,10.34686865234375,-0.00030413299100473523,0.004726844374090433,0.0006503439508378506
1782970029291794400,10.35679443359375,-0.00353428116068244,0.004117779433727264,0.004218180663883686
1782970029301721600,10.3667216796875,0.0014807175612077117,0.003933755215257406,0.0005478122038766742
1782970029311647500,10.3766474609375,-0.0006870955694466829,0.003040264593437314,0.0021971079986542463
1782970029321573400,10.386573486328125,-0.0031728900503367186,0.004960403777658939,-0.00019094864546786994
1782970029331499500,10.39649951171875,-0.0011595403775572777,0.0041468082927167416,0.0009715211344882846
1782970029341426400,10.406426513671875,0.0009030779474414885,0.005334045272320509,-0.00018615495355334133
1782970029351352600,10.4163525390625,0.001318264752626419,0.004355067387223244,0.003069825703278184
1782970029361278500,10.426278564453124,0.0019656792283058167,0.005931392312049866,-0.0006697850185446441
1782970029371204400,10.436204345703125,-0.001535046030767262,0.003736947663128376,0.0008988168556243181
1782970029381131500,10.446131591796876,-0.0002468750171829015,0.005144162103533745,0.0010974886827170849
1782970029391057400,10.456057373046875,0.0010375675046816468,0.0046999468468129635,0.0018077536951750517
1782970029400983600,10.465983642578125,-0.00016831177345011383,0.005842442624270916,0.0009435579413548112
1782970029410909400,10.475909423828124,-0.0005118595436215401,0.0047031426802277565,0.00006391586794052273
1782970029420836400,10.48583642578125,0.0005305017111822963,0.005085039883852005,0.00253399764187634
1782970029430762000,10.495761962890626,0.00004793690095539205,0.00649678148329258,0.0037531929556280375
1782970029440687900,10.50568798828125,0.0001395496365148574,0.005388640332967043,-0.00003462109452812001
1782970029450614000,10.515614013671875,-0.00011478224041638896,0.0046751792542636395,0.00010705907334340736
1782970029460540200,10.5255400390625,-0.00009028115891851485,0.004234426189213991,0.0024730113800615072
1782970029470466800,10.535466796875,-0.0005145227187313139,0.005361742340028286,0.004740426782518625
1782970029480393000,10.54539306640625,-0.0007057376787997782,0.0027316042687743902,0.0037499971222132444
1782970029490319000,10.555319091796875,-0.0003837615076918155,0.0051566786132752895,0.0008868326549418271
1782970029500244700,10.56524462890625,-0.0007097324123606086,0.006889065261930227,0.001204547705128789
1782970029510172000,10.575171875,-0.0016610135789960623,0.006941795814782381,-0.002656236756592989
1782970029520098000,10.58509814453125,0.001580053474754095,0.02412584237754345,0.010072074830532074
1782970029530024000,10.59502392578125,0.0003432814555708319,-0.005944175645709038,-0.001877262257039547
1782970029539949800,10.60494970703125,-0.001663144095800817,-0.005142830312252045,-0.00021784658019896597
1782970029549877000,10.614876953125,-0.0024889903143048286,-0.0043920851312577724,-0.004720453172922134
1782970029559803100,10.62480322265625,0.0009709885343909264,-0.02231595851480961,-0.016093483194708824
1782970029569728800,10.634728759765625,0.0001430117554264143,-0.008048605173826218,-0.005359079223126173
1782970029579655000,10.644655029296874,-0.0015190670965239406,0.010616425424814224,0.0046482812613248825
1782970029589582000,10.65458203125,0.0006221143994480371,-0.0008711199625395238,-0.0018615495646372437
