time,seconds_elapsed,z,y,x
1782970042979549000,0.072548828125,-0.0038397242933511733,0.0010691818677820266,0.004472304842155427
1782970042989474800,0.082474853515625,0.010223287850618362,0.012035196110792457,-0.001242967532109469
1782970042999401000,0.09240087890625,0.01111702181994915,0.007329740099888294,-0.009158508163318037
1782970043009327900,0.102327880859375,0.02233984210193157,0.004041274747438728,-0.0010953757549636066
1782970043019254000,0.11225390625,0.018300795844197273,-0.008376746668480336,-0.00010486688027158378
1782970043029180000,0.122179931640625,0.01875087769925594,-0.00006975903427228332,0.0030422903053462505
1782970043039105800,0.132105712890625,0.01171907936632633,-0.009826105226576327,-0.0035798312481492758
1782970043049033000,0.142032958984375,0.005732406172156333,0.008033577520307153,0.00332656887313351
1782970043058958800,0.151958740234375,0.028623452416062352,0.017024273102357983,-0.0024816972805187104
1782970043068884700,0.161884765625,0.01949438954293728,0.017359806933347134,-0.01276323639070615
1782970043078811000,0.171810791015625,0.016050386568903924,0.0010387684632092713,-0.004695190345216542
1782970043088736800,0.18173681640625,0.013207272097468376,0.0019403021465055643,0.003677081077545881
1782970043098663700,0.19166357421875,0.02113689605295658,0.017030702843144535,-0.006566464109811931
1782970043108589800,0.20158984375,0.0212841955691576,0.006116528385225683,-0.005116484497208148
1782970043118516000,0.211515869140625,0.01005903719961643,0.0022490941010415554,0.008483239250257612
1782970043128441900,0.22144189453125,0.011257891595363617,-0.006206051565892994,0.008153970763273536
1782970043138368800,0.23136865234375,0.008114917394518853,-0.005098912307899445,-0.004765680031850934
1782970043148295000,0.241294921875,0.015151391902565954,0.004741385840810835,-0.013017722608428447
1782970043158220800,0.251220703125,0.008717559462785721,0.011666052271146327,-0.0035196254935115573
1782970043168147000,0.26114697265625,0.019193360769748688,-0.005215213897638023,-0.01272096815155819
1782970043178072800,0.27107275390625,0.010364742147922516,0.004379292796459049,-0.005712459362670779
1782970043188000000,0.281,0.016801497197151183,-0.0007907119862735271,0.007722063885722309
1782970043197926000,0.29092578125,0.014557517662644386,0.006313621859904378,0.004895334293507039
1782970043207851800,0.300851806640625,0.030869185516238212,0.011872772090695798,0.003171195648331195
1782970043217778000,0.31077783203125,0.010221534284949303,-0.004310940267983824,0.004866071666404605
1782970043227704800,0.320704833984375,0.005135609322786331,0.010047949550021439,0.0007142674828879535
1782970043237630700,0.330630615234375,0.017706921604275703,0.004424721107073128,0.02794827483454719
1782970043247556900,0.340556884765625,0.019951485660672185,0.015825382173992694,0.011610504425317048
1782970043257482800,0.350482666015625,0.03595978665351868,-0.010875906540453433,0.0021100874891504646
1782970043267409000,0.360408935546875,0.025484569868445394,0.010633768347650766,-0.006946512935962527
1782970043277335800,0.370335693359375,0.016955226454138755,0.007511197614017874,0.002301737603731453
1782970043287262000,0.380261962890625,0.02414016952216625,-0.005659888925217091,0.002775930986739695
1782970043297187800,0.390187744140625,0.021744214296340943,0.004724672168027609,0.011358118833135812
1782970043307114000,0.400114013671875,0.0293751475661993,0.00039214112274348734,-0.0013579174149781464
1782970043317041000,0.410041015625,0.004688450077176094,-0.0040343335499987,0.0010841054422780871
1782970043326966800,0.419966796875,0.003645663025975227,-0.004666037315968424,-0.006022365562058985
1782970043336893000,0.429892822265625,0.01980535518825054,0.0005415777971036732,-0.009820095610897988
1782970043346818800,0.43981884765625,0.008731587988138199,-0.004062828992120921,0.011549732415098697
1782970043356744700,0.44974462890625,0.015619009414315222,0.005933554767444729,0.01539829760203138
1782970043366672000,0.459671875,0.012929039677977561,0.008784761213790624,-0.0009880063903518021
1782970043376597800,0.46959765625,0.010987257960438727,-0.011957765226718037,0.006405811921693384
1782970043386524000,0.47952392578125,0.02251110701560974,-0.010817984074447303,0.008745269453618676
1782970043396449800,0.48944970703125,0.0407645565867424,0.010900218997802585,0.0037891631498932835
1782970043406377000,0.499376953125,0.015475217029452324,0.014036471196915954,-0.0014191095503047109
1782970043416302800,0.509302734375,0.01023731637597084,0.004258515961002558,0.019171660394594073
1782970043426229000,0.51922900390625,0.0241553670912981,0.009162380620837211,0.013116525074094533
1782970043436154600,0.529154541015625,0.01353168174624443,-0.004305113315396011,0.00005636982973664999
1782970043446080800,0.539080810546875,0.021764088040590285,-0.0014990246524102986,0.008653609114792198
1782970043456007700,0.549007568359375,0.01876782883405685,-0.00043945086318999526,0.01407404499463737
1782970043465933600,0.55893359375,0.01667348690330982,0.010617547865211963,0.005809179469104856
1782970043475859700,0.568859619140625,0.01667348690330982,0.010973813956975937,-0.0031968598125502465
1782970043485785600,0.57878564453125,0.018767244312167166,0.01354518054863438,-0.0033095264067873357
1782970043495712800,0.588712646484375,0.031787469404935834,0.0017069500483572482,0.003938709422107786
1782970043505638700,0.598638671875,0.028494857600331304,-0.006240045167040079,0.009948653894010931
1782970043515564800,0.608564697265625,0.030290508845448493,0.018206833950430153,0.005429495969135314
1782970043525490700,0.61849072265625,0.015326163947582244,0.007189180851727724,-0.007907832248788327
1782970043535416600,0.62841650390625,0.022809213179349898,0.005235708696395158,0.017019286399986594
1782970043545343700,0.63834375,0.020418518650531767,0.007728932017926126,0.015520060818176716
1782970043555269600,0.64826953125,0.02161561948060989,0.003265303672570735,-0.0033358116255141792
1782970043565195500,0.658195556640625,0.008898761248588561,0.009663608141243457,0.002374327915906906
1782970043575121700,0.66812158203125,0.009648702833056449,0.003956793068069965,0.010999021463468671
1782970043585048600,0.678048583984375,0.022366145586967468,0.009038370648678391,-0.01328959835236892
1782970043594974700,0.687974609375,0.026409868019819257,0.0015185148041695355,0.00018405133001506328
1782970043604900600,0.697900634765625,0.018476736932992933,0.004984747876320034,0.010142623829841614
1782970043614826800,0.70782666015625,0.022215923461318014,0.0005841930961236357,0.005234192592743784
1782970043624752600,0.717752685546875,0.008302548921108245,0.00591830239938572,0.005115297187119722
1782970043634679600,0.727679443359375,0.02237082176208496,0.0038390667062252757,-0.0005624379220418632
1782970043644605700,0.737605712890625,0.010250175857543944,0.0051484322717413305,-0.0000874590877443552
1782970043654531800,0.74753173828125,0.021175474497675893,0.009928031231090427,0.0046243535987101495
1782970043664457500,0.75745751953125,0.021173136410117147,0.015513758941553532,0.0035220914452336726
1782970043674384600,0.767384521484375,0.021471242573857307,-0.002680452989321202,-0.006219239841029047
1782970043684310800,0.777310791015625,0.025063714107871053,0.007145359976310282,-0.007405892342329025
1782970043694236700,0.787236572265625,0.02057049434185028,0.010446922272350638,0.0058208151079714296
1782970043704162600,0.79716259765625,0.015780921977758405,0.009772603207360953,0.0032927762013860045
1782970043714088700,0.807088623046875,0.025358313140273092,0.005342493539117276,0.0016765914427116513
1782970043724015600,0.817015625,0.014732874229550361,0.016449998612049967,-0.0030570494830608366
1782970043733941500,0.82694140625,0.009343582406640053,0.015338639836665242,-0.001497435483522713
1782970043743867600,0.83686767578125,0.010993103179335594,0.009886128318123518,-0.002679594472795725
1782970043753793800,0.846793701171875,0.014136077380180358,0.00813049855614081,-0.008590718212723732
1782970043763720700,0.856720703125,0.009795417827367783,0.010190719021577388,-0.008952646860294044
1782970043773646600,0.866646484375,0.025658172869682312,0.008424458267726004,-0.002597432614676654
1782970043783572700,0.87657275390625,0.02387128945291042,0.006319467078801244,-0.00980486150914803
1782970043793499000,0.886498779296875,0.008164601755142211,0.004384224699903279,-0.011309512184746563
1782970043803424500,0.896424560546875,0.031211130821704864,-0.0031645649781450627,-0.004651570399198681
1782970043813351700,0.9063515625,0.02447568508684635,0.0021768873813562094,0.0007307802262715995
1782970043823277800,0.91627783203125,0.017294249150156975,-0.0022747765315696594,0.0036260998089797792
1782970043833203500,0.926203369140625,0.010263619861006736,-0.012997465271688997,0.0004514883608557284
1782970043843129600,0.936129638671875,0.006370704075694083,0.0133650747413747,0.010292845955491065
1782970043853055700,0.9460556640625,0.009810615396499633,0.014143365637492388,0.0028594080191105603
1782970043862982700,0.955982666015625,0.01759060174822807,0.01850532370666042,-0.005454137220047414
1782970043872908500,0.965908447265625,0.002471358549594879,0.0028953926479443905,0.0021103249511681497
1782970043882834700,0.975834716796875,0.02551321144104004,0.007704053304996341,-0.007202898849826306
1782970043892760800,0.9857607421875,0.011595160725712775,0.012146620596013962,-0.008257759931311011
1782970043902687700,0.995687744140625,-0.001429156020283699,0.017170732368342576,-0.005037665373645722
1782970043912613600,1.005613525390625,0.01009352399110794,0.0012050284082069992,-0.006292177213076502
1782970043922539800,1.015539794921875,0.015181787040829658,-0.0010444492853246628,-0.016068689410574735
1782970043932465700,1.025465576171875,0.015481062248349189,-0.0019460195012390613,-0.0019942608234472573
1782970043942391600,1.0353916015625,0.017126491367816923,0.009305789413210004,-0.0031686018324457105
1782970043952318700,1.045318603515625,0.020717209336161613,0.008474544487148523,0.002623151577822864
1782970043962244900,1.055244873046875,0.02819967404603958,0.011725874433293938,-0.005162734791729599
1782970043972170500,1.06517041015625,0.022213000851869582,0.01405934061584994,-0.011316873507294803
1782970043982096600,1.0750966796875,0.014283961418271063,0.01622729577207938,0.004547014046180993
1782970043992023800,1.08502392578125,0.010989011526107787,0.01908854868840426,-0.007301737848110497
1782970044001949700,1.09494970703125,0.011136311042308807,-0.005626443313341587,0.0061918951763771475
1782970044011875600,1.10487548828125,0.032983401191234586,0.006641100248601288,-0.007116901066806167
1782970044021801700,1.1148017578125,0.014127894073724745,0.016087540241517127,0.0008227328260429203
1782970044031727900,1.124727783203125,0.004999415722489357,0.007877016985416412,0.004877689038962125
1782970044041654500,1.134654541015625,0.0009580313771963119,0.006572090133000165,-0.002848557831533253
1782970044051580700,1.14458056640625,0.00663841510117054,0.013715148554369807,-0.011465415132511406
1782970044061506800,1.1545068359375,0.016511574339866636,0.00694410178316757,-0.011702475291397422
1782970044071432700,1.1644326171875,0.02339256602525711,-0.0055732518213801084,-0.000420472168084234
1782970044081358600,1.174358642578125,0.02773205653429031,-0.0022529848248697814,-0.0014717895856127142
1782970044091285800,1.18428564453125,0.013368600139021873,0.0003957761182449758,-0.0006419328990392387
1782970044101212000,1.1942119140625,0.021299977660179138,0.007716419596225023,0.0035339097471907732
1782970044111137500,1.204137451171875,0.01695931810736656,0.01600674835657701,-0.010538838339503854
1782970044121063700,1.214063720703125,0.01217091478705406,-0.006187639126367867,-0.009456267267186194
1782970044130990800,1.223990966796875,0.0254886615216732,0.007277534988615661,0.0028378537744283673
1782970044140916500,1.23391650390625,0.015609072542190551,0.013139504090882837,0.001801825257577002
1782970044150842600,1.243842529296875,0.019201544076204297,0.007539473860431462,-0.005387647855095565
1782970044160768800,1.253768798828125,0.023541034585237503,0.007913951462320983,0.006047573068551719
1782970044170694700,1.263694580078125,0.02608428932726383,0.025501173943374304,-0.005639120131824165
1782970044180621600,1.27362158203125,0.030125673672556877,-0.000031728578824549914,-0.0036892647056840358
1782970044190547700,1.283547607421875,0.023244097465276718,0.010232421005144715,-0.002372409953456372
1782970044200473900,1.293473876953125,0.02833352955877781,0.009311141441762446,0.007576043011154979
1782970044210399700,1.303399658203125,0.011128712257742882,0.009191898976266384,0.018270218042843043
1782970044220326700,1.31332666015625,0.011427402943372725,0.008959752454515546,0.0068710548132658
1782970044230252800,1.323252685546875,0.03207563869655132,0.002405672902241349,-0.003847487474698573
1782970044240178700,1.3331787109375,0.025643559822440147,0.011012501999549567,-0.004048343809042126
1782970044250104600,1.3431044921875,0.018310148194432257,0.006578574672713875,-0.0015082674047909677
1782970044260030700,1.35303076171875,0.029083471143245696,0.013421956027764826,-0.00113097679130733
1782970044269958000,1.3629580078125,0.009630582654476165,0.001200388765707612,-0.0010270232264883816
1782970044279883500,1.372883544921875,0.01980886231958866,0.007314213737193495,-0.0040072994126006956
1782970044289809700,1.3828095703125,0.031628479450941084,-0.0020140249698422847,0.006321458106487989
1782970044299735800,1.39273583984375,0.02325052720606327,-0.007821761400531977,-0.013257705376762897
1782970044309661700,1.40266162109375,0.01037760162949562,0.004386855048406869,0.0011097148075699806
1782970044319588600,1.412588623046875,0.015464111113548278,0.010751147649623453,-0.02719208617238328
1782970044329514800,1.4225146484375,0.019803017100691794,-0.00009529533432796598,-0.004467281607165932
1782970044339440600,1.432440673828125,0.012920271849632263,0.013504629342537372,0.002248600910697132
1782970044349366800,1.44236669921875,0.014716507616639136,0.0003339446621015668,0.00027408596733584996
1782970044359293700,1.452293701171875,0.023994039049744606,0.005403064619936049,0.005359097614046186
1782970044369219800,1.4622197265625,0.03566577214300632,0.018115301475767044,-0.0031473946476355194
1782970044379145700,1.472145751953125,0.020254267999529837,0.02461765084080398,-0.004022369117569178
1782970044389071600,1.482071533203125,0.01726385401189327,0.019106522736512123,-0.004173888151161372
1782970044398997800,1.491997802734375,0.011721417453885078,0.013400182587374,0.0008000643365085124
1782970044408924700,1.501924560546875,0.01680851145982742,0.004313296621851623,0.014408373249229042
1782970044418850600,1.5118505859375,0.01621171461045742,0.016486841757409273,0.008111775589361787
1782970044428776700,1.521776611328125,0.024142507609724997,0.003390884547308087,-0.0039163331935182216
1782970044438703000,1.531703125,0.007976970228552817,0.005792703258339315,0.005631685744039714
1782970044448629200,1.541629150390625,0.024290391647815702,0.01565963368564844,0.0042575478466227645
1782970044458556200,1.55155615234375,0.01830956367254257,0.005354439705237746,-0.0003521013732999563
1782970044468482300,1.561482421875,0.004244797962903976,0.009959705010987818,-0.003382956969179213
1782970044478408200,1.571408203125,0.015918284621834755,0.014248707441799341,-0.01780203427551314
1782970044488334000,1.581333984375,0.011578209590911865,-0.0006044869654811918,0.006050221683364361
1782970044498261200,1.59126123046875,0.03477203817367554,0.00573143805777654,0.005994162380881607
1782970044508187100,1.601187255859375,0.02788812387883663,0.026065274099539962,0.018034016400482505
1782970044518113000,1.611113037109375,0.010980828219652175,0.011166706180572509,-0.00831500654388219
1782970044528039200,1.6210390625,0.011877484798431396,0.01303860099967569,-0.002784680548775941
1782970044537965000,1.630965087890625,0.02354804884791374,-0.007147296205069869,-0.0061871642023324964
1782970044547892000,1.64089208984375,0.026992051821947097,0.0036790173063054677,0.005306490643974393
1782970044557818000,1.650818115234375,-0.00009060089290142059,0.007433931126724928,0.01055993592645973
1782970044567744300,1.660744140625,0.016520342168211934,-0.0015255473331548272,0.008080996858607976
1782970044577670100,1.670670166015625,0.02474924133121967,-0.005141892933100462,0.005205240492895245
1782970044587596300,1.68059619140625,0.006792728880047798,0.011304379351902753,-0.001528415143676102
1782970044597523200,1.690523193359375,0.028640403550863263,0.007945314714964478,0.005228347373846918
1782970044607449000,1.700448974609375,0.0072451488226652145,0.011845208230335264,-0.01379394941162318
1782970044617375200,1.710375244140625,0.018618191230297086,0.002576042766775936,-0.0024452559939585625
1782970044627301000,1.720301025390625,0.018465046495199203,0.006559413314517587,-0.0010055603133514524
1782970044637228300,1.730228271484375,0.021757073777914047,0.014875899429433046,0.00834193108342588
1782970044647154200,1.740154296875,0.015473463463783263,0.00960995999155566,-0.009814688783418386
1782970044657080000,1.750080078125,0.003203764477372169,0.03050064446479082,-0.0067940623206086456
1782970044667006200,1.760006103515625,0.008893500551581382,0.016842011870630086,-0.018932682273257524
1782970044676932000,1.76993212890625,0.026552491360902784,0.00973256345791742,0.001397938898112625
1782970044686859000,1.77985888671875,0.010688567274808883,0.006378832583222538,-0.006767466574627906
1782970044696785200,1.78978515625,0.019514847809076308,0.015485811488702893,-0.0012295417949557304
1782970044706711300,1.799711181640625,0.015024550652503967,0.016144841653015465,0.0106110450591892
1782970044716637200,1.80963720703125,0.030738252612948415,0.004790156885981559,-0.0004428666629828512
1782970044726563300,1.819563232421875,0.013231237494945525,0.004002897232118993,-0.0028295974027365443
1782970044736490200,1.829490234375,0.009938041168451308,0.014059578077867627,-0.001321640525199473
1782970044746416000,1.839416015625,0.019365794727206228,0.011463862496241926,-0.008322039072867483
1782970044756342300,1.84934228515625,0.01861585314273834,0.0070050381901673965,-0.004658274134621024
1782970044766268200,1.85926806640625,0.019662147325277327,-0.0026777313092723487,0.0008878522178158163
1782970044776195300,1.8691953125,0.023850831186771393,0.0022778452714905142,0.002143953226134181
1782970044786121200,1.879121337890625,0.012928455156087875,0.00874936110684648,-0.003509962616022676
1782970044796047000,1.889047119140625,0.027743162450194356,0.005743749550078064,-0.005001278886012732
1782970044805973200,1.89897314453125,0.017268530187010765,0.02065683918474242,0.012087821347173303
1782970044815899100,1.908899169921875,0.014272855502367019,-0.00032594401873648165,-0.006565057604014873
1782970044825826000,1.918825927734375,0.024745149677991865,0.0197591779589653,0.004908760030660778
1782970044835752200,1.928752197265625,0.016515081471204757,0.015983020421117544,-0.004177577945590019
1782970044845678000,1.938677978515625,0.015764555364847183,0.013970657685399054,0.00964088485278189
1782970044855604200,1.948604248046875,0.015910101315379142,0.003475329694058746,0.00045046544754877684
1782970044865530400,1.9585302734375,0.024736966371536252,-0.002012636730354279,-0.0035184199171140788
1782970044875457300,1.968457275390625,0.02174479881823063,0.0025107955108396706,-0.004498900588136166
1782970044885383200,1.978383056640625,0.019205051207542418,0.012390530620794742,-0.00905557751180604
1782970044895309300,1.988309326171875,0.005887888994812965,0.004515449864137918,0.01568056687582284
1782970044905235200,1.998235107421875,0.01800853489935398,0.00020989815732464192,0.00876508839894086
1782970044915162000,2.008162109375,0.01710837118923664,0.012753792708925902,0.007553063994366675
1782970044925088300,2.018088134765625,0.007533902636170387,0.014856354478746652,0.003220222421828657
1782970044935014100,2.02801416015625,0.022647885137796402,-0.00673407576167956,-0.009786229873914271
1782970044944940000,2.03793994140625,0.0033422961652278898,0.01619564025849104,-0.003685775840654969
1782970044954866200,2.0478662109375,-0.0005500350981950759,0.005744608066603541,-0.014080346871260552
1782970044964793000,2.05779296875,0.017258593314886092,0.01715010970542207,-0.0037639556434005497
1782970044974719200,2.06771923828125,0.007832593321800231,0.0050095717903226615,-0.001099321277718991
1782970044984645000,2.07764501953125,0.014268179327249527,0.0015927490841597318,-0.006871968128718435
1782970044994571300,2.0875712890625,0.012172083830833434,0.01027768491897732,0.011430051558185368
1782970045004497400,2.097497314453125,0.013219547057151794,-0.0028285927557386457,0.002244527523778379
1782970045014424000,2.107424072265625,0.011121697995066642,-0.004544000105187297,0.005918795589730143
1782970045024350200,2.11735009765625,0.012765373548865318,0.01748737883577123,-0.0017710465268231928
1782970045034276400,2.1272763671875,0.011716741278767585,0.019144900251831857,0.009966500077955425
1782970045044202000,2.137201904296875,0.016057985353469847,0.0014740546079352497,0.012434917751792817
1782970045054129200,2.147129150390625,0.01980067901313305,0.012792773012444376,0.00011277619209140538
1782970045064055300,2.15705517578125,0.01501344473659992,0.006792893276829272,-0.008468407007306814
1782970045073981200,2.166981201171875,0.01770750612616539,0.002894753327127546,-0.005660035055689514
1782970045083907000,2.176906982421875,0.01830488749742508,-0.006215166454110294,-0.004561334832478315
1782970045093833200,2.186833251953125,0.03326806335151195,0.007274356650840491,0.004282189097534865
1782970045103760100,2.196760009765625,0.024139585000276565,0.020583573019132016,-0.004493749488983303
1782970045113686000,2.20668603515625,0.028026071044802665,0.012873327435366809,0.007634476933814585
1782970045123612200,2.216612060546875,0.017703998994827268,0.0006821735778823494,0.00018147578043863175
1782970045133538300,2.226538330078125,0.025039748710393904,0.0035810185582377013,0.004429342483263462
1782970045143464200,2.236464111328125,0.0025946926683187484,-0.002262775566522032,0.0064990431630983945
1782970045153391000,2.24639111328125,0.011425064855813979,0.013585877885203807,-0.005268825514707714
1782970045163317200,2.256317138671875,0.020702596288919448,0.009308072701841592,0.003672825027536601
1782970045173243400,2.266243408203125,0.014864391654729843,0.0013525836527347563,0.0080048628824763
1782970045183169000,2.2761689453125,0.009629413610696792,0.00339468393959105,-0.008685447291471063
1782970045193096200,2.28609619140625,0.014567454534769058,0.009185195240844041,-0.004291669311933219
1782970045203022300,2.296022216796875,0.004693710774183273,0.014979524200689046,0.003254508283920586
1782970045212948000,2.305947998046875,0.018015549162030218,0.019846363052073865,-0.003194594790227711
1782970045222874000,2.3158740234375,0.015019289955496787,0.005294270483218133,0.007225220279488712
1782970045232800300,2.32580029296875,0.014420155018568038,0.0036525311581790446,-0.002347184180654585
1782970045242727200,2.33572705078125,0.0277414088845253,0.009719247318617999,-0.009344459189474581
1782970045252653000,2.345653076171875,0.0029027357041835782,0.007539364262577146,0.015968115112930534
1782970045262579200,2.3555791015625,0.022503508231043814,-0.002746266500838101,0.002397544394712895
1782970045272505300,2.36550537109375,0.01906418143212795,0.020477208301518113,-0.0035892383973114192
1782970045282431200,2.37543115234375,0.018166355809569358,0.008618647399265319,-0.0011442746642976998
1782970045292358100,2.385358154296875,0.020708441507816314,0.01658571728831157,-0.0007968677324242889
1782970045302284300,2.3952841796875,0.02983399724960327,0.004995524998661131,0.004362012868095189
1782970045312210200,2.405210205078125,0.01831131723821163,0.009195826232712716,-0.00043240006789565085
1782970045322136000,2.415135986328125,0.012172668352723121,0.005629402455408126,-0.0059302668318152426
1782970045332062200,2.425062255859375,0.02159925286769867,0.007461367122922093,-0.006520944467652588
1782970045341989400,2.4349892578125,0.021747136905789374,0.003220350285992026,-0.006094882808998227
1782970045351915000,2.4449150390625,0.01576338632106781,-0.000552701979316771,-0.009588570143654941
1782970045361841200,2.454841064453125,0.011571779850125313,0.008153532371856271,0.006641173313837498
1782970045371767300,2.464767333984375,0.01486322261095047,0.021262422128766775,0.0031258952018804846
1782970045381694000,2.47469384765625,0.004839841246604919,0.012146985922195017,0.004033347169309854
1782970045391620000,2.4846201171875,0.023545710760354995,0.016746022416558117,-0.004386307059135288
1782970045401546200,2.494546142578125,0.0061871642023324964,-0.003106185854412615,-0.004842526394035667
1782970045411472100,2.50447216796875,0.006487023931741714,0.00870681887306273,0.005160433236788958
1782970045421398300,2.514398193359375,0.017260931402444838,-0.0047632140801288185,0.0018816490281373262
1782970045431325200,2.5243251953125,0.018907529565691947,0.006848806448839604,0.00009100275170058011
1782970045441251600,2.53425146484375,0.018610592445731163,0.010880728846043347,0.01689045412223786
1782970045451177500,2.544177490234375,0.030281156495213506,-0.011250311077106744,-0.0020761852195486426
1782970045461103600,2.554103515625,0.017715689432621,-0.006802355224918574,0.00014211188443005084
1782970045471029500,2.564029541015625,0.019060089778900145,0.006168806561734527,0.006126556588895619
1782970045480956700,2.573956787109375,0.029388007047772405,-0.0007274192254059016,0.0002931925266049802
1782970045490882600,2.583882568359375,0.021457214048504827,0.006339614817686378,0.004450695798546076
1782970045500808700,2.59380859375,0.011879822885990142,0.01323996879067272,0.0006050166884437203
1782970045510734600,2.603734619140625,0.01966156280338764,0.006344601520057767,0.010611940108332782
1782970045520660700,2.61366064453125,0.026548984229564664,0.007220233577117323,0.010251217037159949
1782970045530587600,2.623587646484375,0.021164953103661534,-0.0008968209755606948,0.0020302454522810875
1782970045540513500,2.633513427734375,0.015928221493959425,0.001129296290874481,-0.009916815717332064
1782970045550439700,2.643439697265625,0.02295943530499935,0.0036983065286651253,-0.009237564748898149
1782970045560365600,2.653365478515625,0.025356559574604032,0.008443309098668396,-0.008906232168991118
1782970045570292700,2.663292724609375,0.011891513323783874,0.0011334427430294454,0.001688336679432541
1782970045580218600,2.673218505859375,0.023713468542695043,0.005116758491843939,-0.002153342108987272
1782970045590144500,2.68314453125,0.01712882945537567,0.010095588084030896,0.0003730162971653044
1782970045600070700,2.693070556640625,0.022817981007695196,0.00881322012329474,0.003896148922014981
1782970045609996500,2.70299658203125,0.008153495839238167,0.008812544269859791,-0.005533047675155103
1782970045619923700,2.712923828125,0.00022211831808090208,-0.0018922434873878955,0.0010304390262812376
1782970045629849600,2.722849609375,0.015484569379687308,0.0031365261937491592,-0.003833148422092199
1782970045639775500,2.732775390625,0.010400982505083084,0.019698716476000844,-0.004748016510996968
1782970045649701600,2.74270166015625,0.026713819402456283,0.014484762953687459,0.00975820935582742
1782970045659627800,2.752627685546875,0.02267711123228073,0.00478772746687755,0.000864471342228353
1782970045669554700,2.7625546875,0.01684650538265705,0.0002487871292978525,0.004489986629318446
1782970045679480600,2.77248046875,0.027620412853360175,0.022553612716775386,-0.004205982056166976
1782970045689406700,2.78240673828125,0.01220890870988369,0.008273048831988126,-0.004957257081195712
1782970045699332600,2.79233251953125,0.02642331202328205,0.013329400639794766,-0.01576946900198236
1782970045709258500,2.802258544921875,0.026865795093774795,0.011815580277051776,0.00183050336278975
1782970045719185700,2.812185546875,0.030150223591923712,0.010884838765580206,-0.001762461361568421
1782970045729111600,2.822111572265625,0.020725392642617226,-0.001823982290457934,-0.015057959731761366
1782970045739037400,2.832037353515625,0.013393734580278396,-0.008319372191745788,-0.006229779501352459
1782970045748963600,2.841963623046875,0.011603344032168388,-0.009847148014605045,0.0066786923126317555
1782970045758890800,2.851890869140625,0.023874796584248542,0.0052857401168905195,0.012114435359463094
1782970045768816600,2.861816650390625,0.002481295421719551,-0.002026354728452861,-0.006548544860631227
1782970045778742500,2.871742431640625,0.01146247425675392,-0.0024983378880657253,-0.00581973739573732
1782970045788668700,2.881668701171875,0.021639584878087044,0.011238419709913431,-0.005416015433054417
1782970045798594800,2.8915947265625,0.004729366609454154,0.011710457668453455,-0.0046623840541578825
1782970045808521700,2.901521728515625,0.020893150424957273,0.017156082788482307,-0.0011166012060828507
1782970045818447600,2.911447509765625,0.021193010154366494,0.011000245306175202,-0.011022292741201818
1782970045828373800,2.921373779296875,0.019250059393048285,0.018947624114062638,-0.009677947193849831
1782970045838299400,2.93129931640625,0.02808160062432289,0.008957688361592591,-0.005551441848371178
1782970045848225500,2.9412255859375,0.02104921776950359,-0.0023588563521392642,-0.0009965550229884684
1782970045858152700,2.951152587890625,0.013565584015846252,0.003072977704554796,-0.01038273446233943
1782970045868078600,2.96107861328125,0.02179915935397148,0.008490564040187746,-0.0038771336942911147
1782970045878004500,2.97100439453125,0.01850654754936695,0.006866890094801783,-0.007589815808180719
1782970045887930600,2.9809306640625,0.0084831661850214,0.006489855209644883,0.011059117620252072
1782970045897856800,2.990856689453125,0.01671323439180851,0.0021857465412467715,-0.020258085658121854
1782970045907783700,3.00078369140625,0.02344751108288765,0.008895528111886233,-0.00006884571881964802
1782970045917709600,3.01070947265625,0.02389700841605663,0.0004124532584100961,0.00522734272684902
1782970045927635700,3.0206357421875,0.017462591454386712,0.009708141402713954,0.014638802737928926
1782970045937561900,3.030561767578125,0.01791091974377632,0.007523143780138343,-0.0032005313406698404
1782970045947488500,3.040488525390625,0.02150514484345913,0.0012511508385650812,-0.002774122622143477
1782970045957414700,3.05041455078125,0.024649288088083265,0.0014234751981683075,0.003538001400418579
1782970045967340800,3.0603408203125,0.02464695000052452,-0.00009564239419996738,-0.005580777540709823
1782970045977266400,3.070266357421875,0.01506838979423046,0.009512016042415052,0.0025524609617888928
1782970045987192600,3.080192626953125,0.007142272970080375,0.007816811230778693,0.0010179083382710814
1782970045997119700,3.09011962890625,0.023753216031193732,0.01026323626851663,0.00015095277801156044
1782970046007045600,3.100045654296875,0.023607085558772084,-0.0005872618360444903,-0.01089404498534277
1782970046016971500,3.109971435546875,0.01567746160328388,0.009121244892850518,0.0007132080369628965
1782970046026897700,3.119897705078125,0.01867079820036888,0.013362243463471531,-0.006699150578770786
1782970046036823800,3.12982373046875,0.016426234143972394,0.01583157445276156,-0.0013926964674144983
1782970046046750500,3.13975048828125,0.027654315122961997,0.005509538935404271,-0.007522431394085287
1782970046056676600,3.149676513671875,0.028850831431150435,0.001499609174299985,0.012829616157803684
1782970046066602800,3.159602783203125,0.020916531300544737,0.01653000504570082,-0.012169544813875109
1782970046076528600,3.169528564453125,0.017471943804621696,0.012087949211336671,-0.0017263123359531163
1782970046086454500,3.17945458984375,0.024652795219421385,0.0027764424433931708,0.0032056824398227035
1782970046096381700,3.189381591796875,0.029893033960461616,0.01977187304375693,-0.004101243040058762
1782970046106307800,3.199307861328125,0.018068156132102012,-0.0073545822801999745,0.00857747513866052
1782970046116233500,3.2092333984375,0.009988310050964355,-0.0027114509157836436,0.002525189362373203
1782970046126159600,3.21915966796875,0.004752747485041618,-0.0009505604567937552,0.006952175491768867
1782970046136085800,3.229085693359375,0.00894201586842537,-0.00924925518669188,-0.00012306012408807874
1782970046146012700,3.2390126953125,0.014179332000017164,0.006472301286645233,0.0052735747550614175
1782970046155938600,3.2489384765625,0.02256196042001247,-0.002995199760608375,-0.002484400694258511
1782970046165864700,3.25886474609375,0.017326982375979422,0.011172898459341376,-0.004526172187551856
1782970046175790600,3.26879052734375,0.02765022346973419,0.009082794312294572,-0.004422510883677751
1782970046185717500,3.278717529296875,0.02764846990406513,0.0034027393818832933,0.004645177191030234
1782970046195643600,3.2886435546875,0.01657587174773216,-0.001053253646288067,0.01625931661184877
1782970046205569800,3.29856982421875,0.026004794350266456,0.0017620412364602088,0.01692994588240981
1782970046215495700,3.30849560546875,0.01822597704231739,0.0015787205588072538,0.0077131681932136415
1782970046225421600,3.318421630859375,0.018975918626785278,-0.0028870632110163568,-0.011116930488403886
1782970046235348700,3.3283486328125,0.027505262041091917,-0.002000562700070441,-0.02306881396360695
1782970046245274600,3.338274658203125,0.015984920117259025,0.007325283120479435,-0.003028170448448509
1782970046255200500,3.348200439453125,0.01583645155727863,0.011188662284053862,0.0009646803136914968
1782970046265126700,3.358126708984375,0.01868131959438324,0.005464293287880719,-0.014192885601334273
1782970046275052500,3.368052490234375,0.014043138399720191,0.008098349852208048,-0.013113967790827154
1782970046284979500,3.3779794921875,0.01509410875737667,-0.00021002602148801087,0.0021727774618193504
1782970046294905600,3.387905517578125,0.03155249160528183,0.01111952430428937,-0.0009913125922903418
1782970046304831700,3.397831787109375,0.027810966989398,0.010933682875987142,0.0037096316402778027
1782970046314757600,3.407757568359375,0.012993921607732772,0.008901409863401204,-0.01144998010136187
1782970046324683800,3.417683837890625,0.011647767695784569,0.012522632567863911,-0.009703099901415407
1782970046334610700,3.427610595703125,0.014043722921609878,0.014149777111969887,0.010417824042029677
1782970046344536600,3.43753662109375,0.016140987461805343,0.003806260415166616,0.014491959879454225
1782970046354462700,3.447462646484375,0.013446926072239875,0.004947685535252094,0.0014099946620874106
1782970046364388600,3.457388671875,0.013446926072239875,0.009102942051179707,0.002327949757222086
1782970046374315800,3.467315673828125,0.015543606090545654,0.0026362667877227065,-0.007923723937664181
1782970046384241700,3.47724169921875,0.021534370937943456,-0.0033287973628379403,-0.014206128675397485
1782970046394167600,3.48716748046875,0.019443536138534546,-0.0033560141633264718,0.009806615074817091
1782970046404093700,3.49709375,0.01390986740887165,0.0065468826265074305,-0.0044486134393140675
1782970046414019600,3.50701953125,0.012261515679955481,0.007387278973404318,-0.007550360580626875
1782970046423946500,3.516946533203125,0.015405658924579619,0.013068265485577284,-0.0007653218166902661
1782970046433872600,3.52687255859375,0.028425299495458602,-0.007261972093302756,-0.012658424309361725
1782970046443798300,3.53679833984375,0.01869651716351509,0.0203306394376792,-0.013495423122774809
1782970046453724200,3.54672412109375,0.014058335968852042,0.012011632572114466,-0.00821130870738998
1782970046463650300,3.556650390625,0.007323474755883216,0.0171310579450801,0.002023614782094955
1782970046473577200,3.5665771484375,0.025133856734633444,0.01092199243819341,-0.013509561245981603
1782970046483503400,3.57650341796875,0.01570844126343727,0.013422978941071778,0.0006202873228117824
1782970046493429200,3.58642919921875,0.023040683847665784,0.012098616735823452,-0.002217639516852796
1782970046503355400,3.59635546875,0.014212065225839614,-0.00638992023281753,0.007728384028654545
1782970046513281300,3.60628125,0.013765490502119063,-0.001117697184626013,0.004285385701619088
1782970046523208200,3.616208251953125,0.01975216369628906,0.001505764920450747,0.004572459014691412
1782970046533134300,3.62613427734375,0.004785480710864067,0.007396722655184567,0.012625946811866014
1782970046543060200,3.636060302734375,0.008522329151630401,0.0009575381868518889,0.0014749313907697797
1782970046552986000,3.645986083984375,0.017648469415307046,0.016399620131682602,-0.006984433793555945
1782970046562913300,3.655913330078125,0.028573183533549307,0.012781155639886856,-0.00910100582242012
1782970046572839200,3.665839111328125,0.007027706679701804,0.00489054852053523,-0.0022632870231755076
1782970046582765300,3.675765380859375,0.00882218888103962,-0.004357957747485488,-0.009418273344356565
1782970046592691200,3.685691162109375,0.013759060761332511,0.011682619813457132,0.0002000160841271281
1782970046602617300,3.695617431640625,0.02258767938315868,0.01080662243021652,-0.005946121988072991
1782970046612544300,3.705544189453125,0.019447627791762352,0.017280933010857553,-0.011061784501373767
1782970046622470100,3.71547021484375,0.009272855257987975,0.011602942173369228,0.0008717595995403826
1782970046632396300,3.725396240234375,0.01810147387981415,0.004579893402475863,0.0028034035155549645
1782970046642322200,3.735322265625,0.016455460238456725,-0.0013298055653460322,-0.0029536439075134695
1782970046652248000,3.745248046875,0.0044815293282270425,-0.02489646778218448,0.004610270274430513
1782970046662175200,3.75517529296875,0.02079085909426212,0.008664623699150978,-0.001802245382685214
1782970046672101400,3.765101318359375,0.021392332118749618,0.01605597605947405,0.0033689649764448402
1782970046682027300,3.77502734375,0.018849077376723287,0.011301621139235794,-0.01826188860591501
1782970046691953200,3.784953125,0.028726328268647194,0.0038846594136208294,-0.005505502081103623
1782970046701879300,3.79487939453125,0.023340543577075004,-0.002338379819691181,0.004075688473694026
1782970046711806200,3.80480615234375,0.026481764212250708,0.005235069375578313,0.00989180914023891
1782970046721732000,3.814732177734375,0.014362871873378752,0.0011680208660662173,0.0028050840159878133
1782970046731658200,3.824658203125,0.01391337454020977,0.012517609332874416,0.0009241656402125954
1782970046741584400,3.83458447265625,0.01735153229534626,0.01513798443172127,-0.007658460597600787
1782970046751510000,3.844510009765625,0.023632804521918297,-0.003636858665011823,0.01821320889228955
1782970046761437200,3.854437255859375,0.024675591573119163,-0.003666961542330682,0.006099138859007507
1782970046771363300,3.86436328125,0.015994856989383698,0.0010695654602721333,0.001604896179679781
1782970046781289200,3.874289306640625,0.016742460486292837,0.0006819178495556116,-0.009344751450419426
1782970046791215000,3.884215087890625,0.01629413219690323,-0.010563863182906062,-0.0021964140657335517
1782970046801142300,3.894142333984375,0.012250409764051437,0.0009625796881504356,-0.00722216980587691
1782970046811068400,3.904068359375,0.004020926079154014,0.005183996775466948,-0.0017611096546985207
1782970046820994000,3.913994140625,0.007763035216927528,0.01829869521865621,-0.012689495301060378
1782970046830920200,3.923920166015625,0.03544540739059448,0.0046584567977115505,0.005459032590873539
1782970046840846300,3.933846435546875,0.03634381753504276,-0.0020008732273243367,-0.00032249168632552023
1782970046850773200,3.943773193359375,0.02497369773685932,0.013727660976070909,-0.018726473910361526
1782970046860699100,3.95369921875,0.024223171630501746,0.014337901828903704,-0.0073854706088081
1782970046870625300,3.963625244140625,0.020332009410858155,0.001249561669677496,-0.0013033011509105562
1782970046880551400,3.973551513671875,0.01928337714076042,-0.0012138875680975615,-0.0032367899641394613
1782970046890477000,3.98347705078125,0.017043489259481428,0.004042370725981891,-0.00443418305516243
1782970046900402400,3.99340234375,0.02123451120853424,-0.007119494882691651,-0.014442896573338656
1782970046910328000,4.003328125,0.023778350472450256,0.006247333424352109,-0.01851688628029078
1782970046920254200,4.013254150390625,0.013451017725467682,0.000784757169522345,-0.0033554844403639434
1782970046930181400,4.023181396484375,0.01674538309574127,0.005944806813821197,0.0055583282468840475
1782970046940107300,4.033107177734375,0.01644260075688362,0.0015987221672199665,-0.024007190792262552
1782970046950033200,4.043033203125,0.02706511705815792,0.00898050298159942,0.009698697720933704
1782970046959959300,4.052959228515625,-0.0016676409512758254,0.009842910230904818,0.006448226291313767
1782970046969885400,4.062885498046875,0.005962123274803161,0.010050671230070292,0.0003261814807541668
1782970046979812000,4.07281201171875,0.017338088291883467,-0.007846694912388921,0.002923303568176925
1782970046989738200,4.08273828125,0.009705985978245735,0.00901358326729387,-0.0026731464657001195
1782970046999664400,4.092664306640625,0.028709377133846282,0.005592248782794922,-0.00010945172384381294
1782970047009590300,4.10259033203125,0.01614332554936409,-0.004636774688865989,0.006024447921290994
1782970047019517200,4.11251708984375,0.02377718142867088,0.0012550963613204658,-0.005397438596747815
1782970047029443300,4.122443359375,0.025277649119496343,0.00019543124055489898,0.0021698731186799705
1782970047039369500,4.132369384765625,0.013159925824403762,-0.0007312734166160226,-0.006943133668787777
1782970047049295000,4.142295166015625,0.0218418294519186,0.004361830205004662,0.003677154142782092
1782970047059221200,4.15222119140625,0.02094517287313938,-0.004984985338337719,-0.001269855539035052
1782970047069148400,4.1621484375,0.017353285861015318,-0.006173793264105915,-0.00767595972167328
1782970047079074000,4.172073974609375,0.01106909102499485,-0.004131583379395306,-0.0016705087617971002
1782970047089000200,4.182000244140625,0.010171265402436255,0.0033756687118671833,0.0014362616145052016
1782970047098926300,4.19192626953125,0.013162263911962508,0.009613046997785568,-0.002439374242443591
1782970047108852200,4.201852294921875,0.030070728614926337,0.0021328107776120305,-0.005405548837967217
1782970047118779100,4.211779052734375,0.013162263911962508,-0.008745287719927728,-0.007413162333332002
1782970047128705300,4.221705322265625,0.030068975049257277,-0.0034762430095113812,0.011368585428223013
1782970047138631400,4.23163134765625,0.030665771898627278,0.011339468931593,0.002951050091627985
1782970047148557300,4.241557373046875,0.02707154679894447,0.006339231225196272,-0.012397818878106773
1782970047158483200,4.251483154296875,0.011509820529818535,0.0012209566297009587,-0.020607995074335486
1782970047168410400,4.261410400390625,0.02332885313928127,0.0031875622612424193,0.015699161978438497
1782970047178336300,4.271336181640625,0.02198036113977432,0.005409896219521761,-0.0031938093389384447
1782970047188262100,4.28126220703125,0.006420388436317443,0.011019571061152963,-0.01641828829953447
1782970047198188300,4.291188232421875,0.015697919869422913,0.005846990728843957,0.0034336277104914186
1782970047208114200,4.3011142578125,0.020935820522904394,0.004027264488395303,0.002085519303474575
1782970047218041000,4.311041015625,0.015248422536253928,0.010172617109306156,-0.0068489343130029735
1782970047227967200,4.32096728515625,0.027969956943392753,0.016329020847193895,-0.019428539498802272
1782970047237893400,4.330893310546875,0.019890110862255096,0.0062483380713500075,0.004998593738581985
1782970047247819300,4.3408193359375,0.018394903868436813,0.011539868608210236,-0.008422193245403468
1782970047257746200,4.35074609375,0.017793430843949316,0.0028109840338118373,0.0036113588975742457
1782970047267672300,4.36067236328125,0.01779284632205963,-0.0021470219660550353,0.005765267262142151
1782970047277598200,4.37059814453125,0.026024083572626113,0.013987517488654701,0.0040857166773639614
1782970047287524000,4.380524169921875,0.011509236007928848,0.007885346422344446,-0.010031308942474424
1782970047297450200,4.3904501953125,0.014502572605013846,0.0034010406151413915,-0.007823149640019983
1782970047307377400,4.40037744140625,0.02108896525800228,0.000027874387614428996,-0.005771678736619651
1782970047317303300,4.41030322265625,0.033809915143251414,0.009500873593892902,0.005000292505323887
1782970047327229200,4.420229248046875,0.016156185030937194,0.01477053935881704,-0.00841532511319965
1782970047337155300,4.4301552734375,0.009722352591156959,0.012152027423493564,-0.017494338299520313
1782970047347081200,4.440081298828125,0.02917348751425743,0.004533369113318622,-0.006334372386988252
1782970047357008100,4.450008056640625,0.03396013726890087,-0.0026944449820555747,-0.0003466397468931973
1782970047366934300,4.459934326171875,0.0221381820499897,0.005626315449178219,-0.005482121205516159
1782970047376860200,4.469860107421875,0.021687515673041342,-0.0008513926649466156,-0.004145502306893468
1782970047386786300,4.479786376953125,0.0173497787296772,0.005512790338415652,-0.006420114441681653
1782970047396712200,4.489712158203125,0.0077770637422800055,0.02061108208056539,-0.0009730280169285833
1782970047406639400,4.499639404296875,0.03620470132529735,-0.00010181640665978193,0.0012251213481649756
1782970047416565200,4.509565185546875,0.017800445106625557,0.0020871998039074242,-0.005526855396386235
1782970047426491100,4.5194912109375,0.022888123634457587,0.012601579555589704,-0.012426953641045837
1782970047436417300,4.529417236328125,0.016153262421488762,0.0012970906058326363,0.007908818629477173
1782970047446343700,4.53934375,0.028727497312426565,0.0007849032999947666,0.008017795429285615
1782970047456270600,4.5492705078125,0.024687282010912893,-0.0008540047471411526,-0.00515679824128747
1782970047466196500,4.559196533203125,0.009724690678715705,0.017279398640897125,-0.010476294497307389
1782970047476122600,4.56912255859375,0.028577275186777114,0.005670793911721557,-0.0084996971947141
1782970047486048800,4.579048828125,0.026033435922861097,-0.0018623050068505107,-0.0009774484637193382
1782970047495974700,4.588974609375,0.038894671061635015,-0.003565072070434689,0.006649009560421109
1782970047505901600,4.598901611328125,0.039485622692108154,-0.0017304770544171331,0.007932400434464216
1782970047515827700,4.60882763671875,0.020028058028221128,0.006262804988119751,0.004196647972241044
1782970047525753900,4.61875390625,0.043212534260749814,0.003585439005028456,0.0024181670576334
1782970047535679500,4.628679443359375,0.0168704707801342,0.0007540149713866413,-0.00446949183056131
1782970047545606700,4.638606689453125,0.011937106031179428,0.006883183642476797,-0.012021258916985243
1782970047555532800,4.64853271484375,0.011189502534270286,0.006176788938790559,0.0040626463290303946
1782970047565458400,4.65845849609375,0.027796938464045524,-0.001415693750511855,0.01297817604932934
1782970047575384600,4.668384521484375,0.02449789691865444,0.019494499140791592,0.004711374295037239
1782970047585310700,4.678310791015625,0.010588614031672477,0.002539217887725681,-0.011613627964165062
1782970047595237600,4.688237548828125,0.021517419803142545,0.007465933700185268,-0.0023041487565264103
1782970047605163500,4.69816357421875,0.019428338569402695,-0.00012212854232639074,-0.006837901462335139
1782970047615089700,4.708089599609375,0.028258710756897926,0.014271028871461748,0.003215893306583166
1782970047625015800,4.718015869140625,0.010599719947576523,0.013556870986428111,-0.011359981996659189
1782970047634941700,4.727941650390625,0.03842822259366512,-0.011124401408806443,0.009785115629062056
1782970047644868600,4.73786865234375,-0.005261866050958633,0.009640957918018103,-0.004608553241379559
1782970047654794800,4.747794677734375,0.027660160341858864,0.0011709800081327556,0.017364263912755994
1782970047664720600,4.757720703125,-0.007943652480840682,0.008887399604357778,-0.002092113441042602
1782970047674646500,4.767646484375,0.0375491016715765,-0.004917893185187131,-0.004762647824548185
1782970047684572700,4.77757275390625,0.004631751453876495,0.0037615992895327507,0.0031762919485569
1782970047694499800,4.787499755859375,0.02154430781006813,-0.002430076691135764,0.0007810491087846457
1782970047704425500,4.797425537109375,0.020947510960698128,0.013972740044631064,0.004337828274909407
1782970047714351600,4.8073515625,0.01675765805542469,0.01277801383472979,0.011360164659749716
1782970047724277800,4.81727783203125,0.012714520144462584,0.0034587256191298365,-0.009361866982001811
1782970047734204400,4.827204345703125,0.017204817301034927,0.01715615585371852,-0.003978548242151737
1782970047744130600,4.837130615234375,0.02184533658325672,0.002548223178088665,0.010502871976979076
1782970047754056700,4.847056640625,0.018403087174892425,-0.005676237271819263,-0.004723649254720658
1782970047763982600,4.856982666015625,0.021093641433119772,0.0002937953148037195,-0.006341149187646806
1782970047773908700,4.86690869140625,0.016151508855819702,0.0015519238834269344,-0.005998290566727519
1782970047783835600,4.876835693359375,0.01270867492556572,0.007347513218596577,0.00877027603071183
1782970047793761800,4.88676171875,0.024532968232035636,0.003053250090777874,-0.008524301913008092
1782970047803687700,4.896687744140625,0.03246200766563415,0.0032007688026875255,-0.005577672268170863
1782970047813613600,4.906613525390625,0.012711597535014153,-0.00034941622586920855,-0.002702354293875396
1782970047823539700,4.916539794921875,0.014059505012631415,-0.007037424356117844,-0.007753865529783069
1782970047833466600,4.926466552734375,0.02034603793621063,0.0015847667071036994,0.005678082169033587
1782970047843392500,4.936392578125,0.0288742123067379,0.0024056363696232435,-0.009294427768979222
1782970047853318700,4.946318603515625,0.024236615633964537,0.008833751454669981,-0.003963569868728518
1782970047863244500,4.95624462890625,0.016757073533535,0.009345025445055216,0.006171235980838537
1782970047873170700,4.966170654296875,0.022443886998295783,-0.000013571867626160383,0.015636928663495926
1782970047883097600,4.97609765625,0.020498013627529142,0.0015963658133521675,-0.0007683540239930152
1782970047893023700,4.986023681640625,0.020797288835048673,0.005453698828630149,0.008680277926009148
1782970047902949600,4.99594970703125,0.025883213797211646,0.00007408814951777457,-0.009168499834369867
1782970047912875800,5.005875732421875,0.02902326538860798,-0.006294533566944301,-0.004759469486773014
1782970047922801700,5.0158017578125,0.017797522497177122,0.008573127757105977,-0.0043458471845835445
1782970047932728600,5.025728515625,0.018097382226586342,0.00687348423236981,-0.0014822744470089674
1782970047942654700,5.03565478515625,0.010765724164247512,-0.003295954539161175,-0.013203728433512151
1782970047952580600,5.04558056640625,0.013606500548124312,0.013906835201568902,-0.009014368718583136
1782970047962506500,5.055506591796875,0.020337854629755018,0.01338423609957099,-0.0007292823889292776
1782970047972432600,5.0654326171875,0.005972060146927833,0.01516492723757401,-0.007423427999019622
1782970047982359600,5.075359619140625,0.027219430837035177,0.0031666290710680185,-0.0023742913832888006
1782970047992285700,5.08528564453125,0.018390812215209006,-0.003354205798730254,-0.005435870910994708
1782970048002211600,5.095211669921875,0.010161913052201271,0.005765742186177521,0.005860142471361905
1782970048012137700,5.1051376953125,0.014653963774442672,0.005713116949796676,-0.006223459358420223
1782970048022063600,5.115063720703125,0.010465279912948608,0.0008595211724750697,-0.0038286366437561806
1782970048031990500,5.124990478515625,0.011813187390565872,0.00829617397924885,-0.011185374348424374
1782970048041916700,5.134916748046875,0.021686346629261968,0.0068383763863705095,-0.0037189109252765773
1782970048051842800,5.1448427734375,0.03410743678510189,-0.0008220935052260756,-0.0007619060168974101
1782970048061768400,5.1547685546875,0.015251345145702361,0.0026980982438661156,-0.003448368621896952
1782970048071695600,5.164695556640625,0.01914133832156658,0.007310341279674321,-0.0043018984450027345
1782970048081621800,5.174621826171875,0.016297639328241346,0.0057051163064315916,0.0049863735778257244
1782970048091547600,5.184547607421875,0.03320435046553612,0.0017063655264675617,-0.004193177373521029
1782970048101473500,5.1944736328125,0.02572013218998909,0.011859729946032165,0.0023974347968585786
1782970048111399700,5.204399658203125,0.01764087063074112,0.006592621464375406,0.01252215764382854
1782970048121326600,5.21432666015625,0.018688918378949163,0.010888546826317905,0.0028143815672956405
1782970048131252500,5.22425244140625,0.008514730367064476,0.007840867959801108,-0.010358202809281647
1782970048141178600,5.2341787109375,0.019287468793988228,0.01515999533412978,-0.006995941568259149
1782970048151104800,5.244104736328125,0.014348843348026274,0.0028537454633042214,-0.005426609892304987
1782970048161030700,5.25403076171875,0.013300795599818229,-0.0037718284226022658,0.00005216857865452766
1782970048170957600,5.26395751953125,0.008064063990116119,0.006175181503593921,-0.008121328868996351
1782970048180883700,5.2738837890625,0.014646949511766432,0.004296930008940399,0.007730082795396447
1782970048190809600,5.2838095703125,0.025269465813040733,-0.005007343300618231,0.0014192008818499744
1782970048200735500,5.293735595703125,0.019880173990130423,0.006013122809678316,-0.009742372465878724
1782970048210661600,5.30366162109375,0.018979425758123395,-0.0017231522644869982,0.00024387349216267466
1782970048220588800,5.3135888671875,0.0177811558842659,0.007892945206910371,0.002209273547306657
1782970048230514400,5.323514404296875,0.02271802776455879,0.001796491495333612,0.011983429390937089
1782970048240440600,5.333440673828125,0.011644845086336135,0.004935922032222152,0.012581103023141622
1782970048250366700,5.34336669921875,0.010295184043049811,-0.006581004091817885,-0.00013844035631045698
1782970048260292600,5.353292724609375,0.01792787087857723,-0.0002985628214664757,-0.0069352426232770084
1782970048270219500,5.363219482421875,0.0164303257972002,-0.0014573226688429713,-0.0063005431826226406
1782970048280145700,5.373145751953125,0.013287936118245124,-0.0022050540299154817,0.0005976370995864271
1782970048290071800,5.38307177734375,0.015832359904050824,0.007981883865687996,-0.0063362538168206806
1782970048299997700,5.392997802734375,0.013735095363855362,0.01479903480093926,0.006575250204466283
1782970048309923600,5.402923583984375,0.03123918787240982,0.008336378125473857,0.007853928370773791
1782970048319850800,5.412850830078125,0.02764846990406513,0.008232588957436383,0.0011771174879744647
1782970048329776600,5.422776611328125,0.019568039301037787,-0.004263703592773527,0.0006678527915850281
1782970048339702500,5.43270263671875,0.020615502527356146,0.011958916004188358,-0.006430836765095592
1782970048349628700,5.442628662109375,0.01687573147714138,0.022332225051056594,0.010953629685472697
1782970048359554600,5.452554443359375,0.022563129463791846,-0.003673007690627128,-0.010538217284996062
1782970048369481500,5.4624814453125,0.009096329647302627,0.005056918063387274,-0.014507614106312393
1782970048379407600,5.47240771484375,0.025257775375247,-0.002982943067234009,-0.0012849069776944815
1782970048389333800,5.482333740234375,0.007003741282224655,-0.004790248217526823,0.003136562726367265
1782970048399259600,5.492259765625,0.01763210280239582,0.004371346952021122,-0.011788747069053352
1782970048409186600,5.5021865234375,0.01927811644375324,-0.004889032416883856,-0.0004336421769112348
1782970048419112700,5.51211279296875,0.01927694739997387,-0.002039963128697127,-0.008022106278222054
1782970048429038600,5.52203857421875,0.020474048230051993,0.0019234240769408642,0.00881382291149348
1782970048438964500,5.531964599609375,0.01074701946377754,0.006930054991506039,0.012828008722607045
1782970048448890000,5.54189013671875,0.017330489507317543,-0.006069839699286967,0.005507493108790368
1782970048458817300,5.5518173828125,0.01733282759487629,0.006920282516162842,0.004065769867878407
1782970048468743200,5.5617431640625,0.01089957967698574,0.005057648715749383,-0.008938088611979037
1782970048478669000,5.5716689453125,0.019727613776922226,0.010077833231631667,0.0010370148975402116
1782970048488595200,5.58159521484375,0.006410451564192772,0.001435494429524988,0.006781970024015754
1782970048498521000,5.59152099609375,0.026463644033670426,0.0029024069106206294,0.0029773535766638814
1782970048508448000,5.601447998046875,0.016291209587454794,0.00370097340978682,0.0035131592201068994
1782970048518374100,5.6113740234375,0.024971359649300574,0.013644567536190151,0.0051727447290904815
1782970048528300300,5.62130029296875,0.005368833556771278,0.0034466333225369452,0.006686382428742945
1782970048538226200,5.63122607421875,0.021830723536014555,0.010571863826271146,0.025196638038847596
1782970048548152300,5.64115234375,0.017641455152630804,0.025318382988683878,0.0020605492589995263
1782970048558079200,5.651079345703125,0.02198211470544338,0.009989880953542888,0.0036870910149067637
1782970048568005000,5.661005126953125,0.01539689109623432,-0.0005041318635456264,-0.005362184620276093
1782970048577931300,5.67093115234375,0.02003273420333862,-0.0035704788979142904,-0.005712733357306569
1782970048587857200,5.680857177734375,0.026168460479378697,-0.001321256932709366,0.004578231168352067
1782970048597783000,5.690782958984375,0.023175708404183388,0.0033240481224842367,-0.017268457121774553
1782970048607710200,5.700710205078125,0.009860299757122992,0.004638108129426837,-0.013616620083339512
1782970048617636000,5.710635986328125,0.01076104798913002,0.0037918300310149787,-0.002308350007608533
1782970048627562200,5.720562255859375,0.015248422536253928,0.004303268418181687,0.004141319322120398
1782970048637488000,5.730488037109375,0.012408815196156501,0.014652484203409403,-0.0008582425308413803
1782970048647414300,5.740414306640625,0.013605331504344939,0.005299878240097314,-0.01811203180644661
1782970048657341200,5.750341064453125,0.024678514182567595,0.02064224440380931,-0.005185987803153693
1782970048667267000,5.76026708984375,0.023031916019320486,0.013456698547583072,0.0026548984229564664
1782970048677193200,5.770193115234375,0.025423195070028305,-0.003983443612977862,-0.010117745116911828
1782970048687119400,5.780119384765625,0.015397475618124008,-0.008266381629183889,-0.011088416779972613
1782970048697045000,5.790044921875,0.00911444982588291,0.0033770021524280307,-0.008173899306450039
1782970048706972200,5.79997216796875,0.019886603730916975,0.002419025574158877,-0.01489171805307269
1782970048716898300,5.809898193359375,0.018989362630248068,0.008894925323687493,0.008682652546186
1782970048726824200,5.81982421875,0.025720716711878776,0.003266253520641476,-0.002915741316229105
1782970048736750000,5.82975,0.014046061009168625,-0.007862349139247089,-0.015576686376240104
1782970048746677200,5.83967724609375,0.011802081474661826,-0.0003698379593901336,-0.010084719630144536
1782970048756603100,5.84960302734375,0.012398293802142142,0.002072513691429049,0.0006467734709382057
1782970048766529000,5.859529052734375,0.00042319384813308713,0.003565784456487745,-0.0016674217555671929
1782970048776455200,5.869455078125,0.01568798299729824,0.0041775596792809665,-0.015117142573092131
1782970048786381300,5.87938134765625,0.015990765336155892,0.009188592774327844,-0.007008892381377518
1782970048796308200,5.88930810546875,0.02466916183233261,-0.0020720753000117837,0.0016036723369732499
1782970048806234000,5.899234130859375,0.014641104292869567,0.009360551807750016,-0.003431015628296882
1782970048816160300,5.90916015625,0.02331716270148754,0.0004940305946394801,-0.006650142071582377
1782970048826086400,5.91908642578125,0.01523965470790863,0.011336619387380778,-0.006426927774958312
1782970048836012000,5.929011962890625,0.014939210456609725,0.017262538837641478,-0.008395049510151147
1782970048845939200,5.938939208984375,0.010452420431375503,0.00682650328548625,-0.017266265164688228
1782970048855865300,5.948865234375,0.020326748713850974,-0.00012134309103712439,-0.01021159741282463
1782970048865791000,5.958791015625,0.0315448928207159,0.00544776227818802,0.003953486866131424
1782970048875717000,5.968717041015625,0.021965748092532156,0.007980477359890938,-0.00041117461677640674
1782970048885643300,5.978643310546875,0.01119067157804966,0.0059561501917429266,-0.005187942298222333
1782970048895570200,5.988570068359375,0.00849836375415325,0.0057787843308411534,-0.007009275973867624
1782970048905496000,5.99849609375,0.009096914169192314,0.018863105902075766,-0.01218406652957201
1782970048915422200,6.008422119140625,0.004160042288899422,0.013259312811959535,-0.009940306190773844
1782970048925348400,6.018348388671875,0.0198725752055645,-0.004453746272157878,-0.01112027322296053
1782970048935274200,6.028274169921875,0.012837854263186455,-0.002770323229860514,0.013500574221927672
1782970048945201200,6.038201171875,0.022264438778162,0.00008086495017632841,-0.009380717812944203
1782970048955127300,6.048127197265625,0.010891980892419814,0.011485325409378857,-0.005978617751877755
1782970048965053200,6.05805322265625,0.018372107514739035,0.010183923954609781,0.00649928062511608
1782970048974979000,6.06797900390625,0.021961071917414664,-0.0011200352721847592,-0.006139233407378196
1782970048984905200,6.0779052734375,0.027199557092785834,0.00887424786183983,-0.006018949762266129
1782970048994832400,6.087832275390625,0.015230302357673644,0.015082473118510097,-0.0033476664600893854
1782970049004758000,6.097758056640625,0.022861235627532003,0.012996387559454887,0.00310459668552503
1782970049014684200,6.10768408203125,0.023157003703713416,0.010564338106941431,0.0011071940569207072
1782970049024610300,6.1176103515625,0.013278583768010138,0.014375895751733331,0.002206405736785382
1782970049034536200,6.1275361328125,0.022554361635446548,0.013340506555698812,0.005735730640403926
1782970049044463000,6.137463134765625,0.003850830209255218,0.004506608970556408,-0.01107267122156918
1782970049054389200,6.14738916015625,0.031683424508571624,0.005216912664379924,0.002871646446175873
1782970049064315100,6.157315185546875,0.029738720181584355,0.008474507954530417,-0.014185560811404138
1782970049074241300,6.1672412109375,0.029891280394792556,0.01057553535439074,0.0021187091870233416
1782970049084167200,6.177167236328125,0.015225626182556152,0.0102157803975977,0.005824687565490603
1782970049094094300,6.18709423828125,0.008042436680197716,0.023013247851468622,0.0005428381724283099
1782970049104020200,6.197020263671875,0.018072832307219504,0.005962305937893688,0.0089651775483042
1782970049113946000,6.206946044921875,0.022262100690603255,-0.00015606734454631804,-0.004208283611107618
1782970049123872300,6.216872314453125,0.022113047608733175,0.00905530351717025,0.004970865481439978
1782970049133799200,6.226799072265625,0.023309563916921613,0.008889226235263049,0.007843425243068487
1782970049143725000,6.23672509765625,0.024055998370051384,0.007949278504028916,-0.008627543091773986
1782970049153651200,6.246651123046875,0.019268764093518256,-0.0074632668190635736,0.000008548632636666298
1782970049163577000,6.2565771484375,0.02764730086028576,0.004529587987344712,-0.0013099135547876358
1782970049173503200,6.266503173828125,0.013432897546887397,0.00022063874704763293,-0.0030320977048948405
1782970049183430100,6.27643017578125,0.012532149314880371,0.009603493718151003,-0.0068740687542594965
1782970049193356300,6.286356201171875,0.027050504010915754,-0.00028449776349589225,-0.006765037155523896
1782970049203282200,6.2962822265625,0.0016121113717555999,0.0019046097786165773,-0.00984312942661345
1782970049213208300,6.306208251953125,0.006699789899587631,0.012445804471988231,0.0074271725923754275
1782970049223134200,6.31613427734375,0.009092822515964508,-0.0022085976938717067,-0.005826970854122191
1782970049233061000,6.32606103515625,0.016869886258244513,0.0019715375349856914,0.008025485545396805
1782970049242987300,6.3359873046875,0.021209376767277716,0.0023182138144969937,-0.005029573398735374
1782970049252913200,6.3459130859375,0.01941547908782959,0.00971911945445463,0.010338803989067674
1782970049262839000,6.355839111328125,0.021958733829855918,0.009403769894968718,-0.011303776563704014
1782970049272765200,6.36576513671875,0.014176409390568733,0.007255615417752414,-0.001913633335288614
1782970049282692000,6.375692138671875,0.025700258445739744,0.003836454624030739,0.008579794959910214
1782970049292618200,6.3856181640625,0.01852057607471943,0.0006768763482570648,0.0015513028289191424
1782970049302544100,6.395544189453125,0.0167266783952713,0.005281118740700185,-0.00823047006558627
1782970049312470300,6.40547021484375,0.03243453513681888,0.0013963679955340921,0.006962897815182805
1782970049322396200,6.415396240234375,0.016419219881296156,-0.006289291136246174,-0.006062642773520201
1782970049332323000,6.425322998046875,0.013427636849880218,-0.0005886318092234432,-0.006429905183333903
1782970049342249200,6.435249267578125,0.021508651974797247,0.012093922294396906,-0.004933273417409509
1782970049352175400,6.44517529296875,0.023901100069284437,0.012611863487586378,0.000016183949820697307
1782970049362101000,6.45510107421875,0.02360124033987522,0.014389960809703915,-0.010699928919039666
1782970049372027100,6.465027099609375,0.023756138640642164,-0.0018514365529641507,0.006291245631314814
1782970049381954300,6.474954345703125,0.02016483615040779,0.014199059613794087,0.015093652099650353
1782970049391880200,6.484880126953125,0.01941664813160896,0.007054211094137281,0.004411222304683178
1782970049401806000,6.49480615234375,0.020016952112317084,-0.0036668884770944712,0.0020242906355299054
1782970049411732200,6.504732177734375,0.020915362256765366,0.010421623434312641,0.0024238844123668966
1782970049421658400,6.514658447265625,0.01956570121347904,0.0006553221035748719,-0.007719269140437245
1782970049431585000,6.5245849609375,0.015824176597595215,0.005905333319958299,-0.017270429883152246
1782970049441511200,6.53451123046875,0.014176409390568733,0.0007674041759222745,-0.01170853970600292
1782970049451437000,6.54443701171875,0.018812252497673033,0.003291132233571261,0.004937730396818369
1782970049461363000,6.554363037109375,0.01985854668021202,-0.008757288684975356,0.003436276325304061
1782970049471288800,6.564288818359375,0.02389876198172569,-0.004323617086466402,-0.001745565025694668
1782970049481216000,6.574216064453125,0.015521394258737563,0.011507920833677052,-0.005280168892629444
1782970049491142000,6.584141845703125,0.016416297271847725,0.007476254164800048,-0.008132708779536188
1782970049501067800,6.59406787109375,0.025844050830602646,0.0020822496341541407,0.009511778580397368
1782970049510994000,6.603993896484375,0.01941547908782959,0.0007967216019518673,-0.012144940095581114
1782970049520919800,6.613919921875,0.02076397108733654,-0.0035626426513306795,0.00408489469345659
1782970049530846700,6.6238466796875,0.018223054432868955,0.014315014143660664,0.010131298718228935
1782970049540772900,6.63377294921875,0.014037293180823326,0.01165830735610798,-0.008079973945301026
1782970049550699000,6.643698974609375,0.022419337078928948,0.005825034625362604,-0.0034415187560021877
1782970049560625000,6.653625,0.009255904123187065,0.0006236300573684275,-0.01734714838117361
1782970049570551800,6.6635517578125,0.014492051210999488,-0.006729911043215543,-0.003329053091164678
1782970049580478000,6.67347802734375,0.033493104279041286,0.00734510206580162,-0.007504329481814056
1782970049590403800,6.68340380859375,0.02885141595304012,0.018696699826605618,-0.0185602139653638
1782970049600330000,6.693330078125,0.013590718457102774,0.014974866291880606,-0.01389346426334232
1782970049610256000,6.703255859375,0.023913959550857542,0.0064227995891124,-0.020369290947634726
1782970049620183000,6.71318310546875,0.030797873845696447,0.01768288314156234,-0.002190751509927213
1782970049630109000,6.72310888671875,0.021967501658201216,0.02033224687287584,-0.01072405871329829
1782970049640034800,6.733034912109375,0.012839607828855513,0.012037680328823625,0.004478624985087663
1782970049649961000,6.7429609375,0.01269113926887512,-0.0028530148109421134,-0.006162504685111344
1782970049659886800,6.752886962890625,0.013738017973303793,0.002946209519729018,0.008713339945394546
1782970049669813800,6.762813720703125,0.011344400835037231,-0.0010799041911959647,-0.0000023380875587463378
1782970049679740000,6.772739990234375,0.036632571348547936,0.0009591638883575796,-0.0003712992641143501
1782970049689665800,6.782665771484375,0.016876315999031066,0.008728957639634608,-0.009252214328758418
1782970049699592000,6.792592041015625,0.017477789023518563,0.005888199522066861,-0.01883570643849671
1782970049709518000,6.80251806640625,0.01852349868416786,-0.006208206990361213,-0.0033679420631378887
1782970049719445000,6.812445068359375,0.009095745125412941,0.004523614904284477,-0.006144402772840112
1782970049729371000,6.822370849609375,0.01971826142668724,0.004053458375576883,-0.011981164368614555
1782970049739297000,6.832297119140625,0.025706688186526296,0.01147765355957672,-0.01194901566468179
1782970049749223000,6.842222900390625,0.02376373742520809,0.011065492562111466,-0.0073239496799185864
1782970049759148800,6.852148681640625,0.01852875938117504,0.017250117747485638,-0.01784211055757478
1782970049769076000,6.862075927734375,0.007455576702952385,0.0057038924637250596,0.005092610431276261
1782970049779001900,6.872001953125,0.011494622960686682,0.014356661328300832,-0.00005810512909665704
1782970049788927700,6.881927734375,0.01852700581550598,0.003587320434860885,-0.012892927184980361
1782970049798854000,6.89185400390625,0.014186930784583092,-0.003074512074515223,-0.0076837046367116265
1782970049808780000,6.901780029296875,0.021818448576331136,0.0029441271604970097,-0.004303122287709266
1782970049818707000,6.91170703125,0.02002455089688301,0.010683562306128441,-0.008071169584337621
1782970049828632800,6.9216328125,0.01657820983529091,0.003591521685943007,-0.0076095982208848
1782970049838559000,6.93155908203125,0.01687690052092075,-0.0020147190895862875,-0.019783362552151084
1782970049848485000,6.941485107421875,0.024360534274578093,0.007635719042830169,-0.009606087534036486
1782970049858410800,6.95141064453125,0.028251696494221684,0.010046743973623961,0.009643515201285481
1782970049868338000,6.961337890625,0.028551556223630904,0.000851739724818617,0.013409644535463302
1782970049878264000,6.97126416015625,0.0031149171501398086,0.011774755076318979,0.0008749196710065006
1782970049888189700,6.981189697265625,0.009400865551829337,0.01318995563648641,0.005524736504536122
1782970049898115800,6.99111572265625,0.006406944432854652,0.0051401941663585604,-0.004465948166605085
1782970049908042000,7.0010419921875,0.00865267753303051,0.00236092044506222,0.0005114018545486033
1782970049917969000,7.010968994140625,0.010897826111316681,-0.0031946861217729745,0.0037859665458090603
1782970049927894800,7.020894775390625,0.02586392457485199,-0.004135693298932165,-0.010509502647165209
1782970049937821000,7.030821044921875,0.02705985636115074,0.025465810369048266,-0.009094466483779252
1782970049947747000,7.0407470703125,0.014639350727200507,0.00007118380637839436,-0.00399659535549581
1782970049957673000,7.0506728515625,0.02810907315313816,-0.0000434190166182816,-0.006270860430411994
1782970049967599900,7.060599853515625,0.02167933236658573,0.005053739725612104,-0.014625285669229923
1782970049977526000,7.070526123046875,0.014198621222376823,0.005883322417549789,-0.01730765662100166
1782970049987452000,7.080451904296875,0.008214870637655258,0.007733407263644039,-0.008809183268994093
1782970049997377800,7.090377685546875,0.025876199534535408,0.014378325170837342,0.002415427111275494
1782970050007305000,7.100304931640625,0.030069559571146962,0.004631203464604914,-0.00507538530183956
1782970050017231000,7.110231201171875,0.02214110465943813,0.0011966259060427545,-0.01418550601247698
1782970050027156700,7.12015673828125,0.013760814327001571,0.0018699585903435944,-0.0003230214092880487
1782970050037083000,7.130082763671875,0.029326047727465627,0.01271914152065292,0.0039135019156150514
1782970050047009000,7.140009033203125,0.016907295659184456,0.0027981976174749432,-0.0064323894013650715
1782970050056935700,7.149935791015625,0.015860416954755784,0.005030943371914327,-0.01856547466237098
1782970050066861800,7.15986181640625,0.01855447834432125,-0.0008624437819235027,0.0019298538177274166
1782970050076788000,7.1697880859375,0.02289279980957508,-0.005807407637126743,-0.0024827567264437676
1782970050086713900,7.1797138671875,0.02573182262778282,0.005660729175433516,0.005449479311238974
1782970050096639700,7.1896396484375,0.030520810469985008,0.013451437850575893,-0.007159498099517077
1782970050106567000,7.19956689453125,0.0022428104907274244,-0.0055316959682852026,-0.019347546684462577
1782970050116493000,7.2094931640625,0.012118307816982268,0.003932023952994496,-0.012022738488018513
1782970050126419000,7.2194189453125,0.01660392879843712,0.018571593875903635,0.0024291085767559704
1782970050136344800,7.2293447265625,0.02468085227012634,-0.0034854492292739447,-0.007045625928882509
1782970050146271000,7.23927099609375,0.016297639328241346,-0.006727700819820165,-0.003166848266776651
1782970050156198000,7.249197998046875,0.016443185278773306,0.00032724092667922377,-0.009967358594480901
1782970050166123800,7.259123779296875,0.017338672813773156,0.0007581979561597108,-0.0002465769059024751
1782970050176050000,7.2690498046875,0.0168880064368248,0.01588105788398534,0.016909177089016885
1782970050185975800,7.278975830078125,0.017783493971824646,0.013755316167976707,-0.0013521269950084386
1782970050195902000,7.28890185546875,0.017331658551096914,0.004079816659539937,-0.007340133629739284
1782970050205828900,7.298828857421875,0.01927636287808418,0.01027457964643836,-0.007670845155138522
1782970050215755000,7.308755126953125,0.0322942498832941,0.006971957904472947,-0.011512523943558334
1782970050225681000,7.318680908203125,0.023916297638416288,-0.0010049757914617657,-0.0028818755792453885
1782970050235606800,7.328606689453125,-0.001967500680685043,0.01381758601553738,-0.014928323736414312
1782970050245533000,7.338532958984375,0.0023737433940172192,-0.008193407724518329,-0.0029039230142720042
1782970050255459800,7.3484599609375,0.01374912388920784,-0.0019526319051161407,0.005056370074115693
1782970050265386000,7.358385986328125,0.021527941197156904,0.00858328382493928,-0.0023590024826116857
1782970050275311900,7.368311767578125,0.02033084036707878,0.009802304225880652,-0.0016250256522558628
1782970050285237800,7.37823779296875,0.01928162357509136,0.014054463511332868,-0.007116462675388902
1782970050295164000,7.388163818359375,0.016437340059876442,0.0067457661994732914,-0.003332414092030376
1782970050305090800,7.3980908203125,0.024212650236487387,0.007217237902432679,-0.004671973866410553
1782970050315017000,7.408016845703125,0.01014671548306942,0.0014714425257407128,-0.005229881743807345
1782970050324942800,7.41794287109375,0.020471710142493247,-0.005697170461993664,0.0027022081634029745
1782970050334869000,7.427868896484375,0.014938041412830352,0.0017550817727111279,0.0012153306065127254
1782970050344795000,7.437794921875,0.015385200658440588,0.011164733419194817,-0.004054189027938992
1782970050354721800,7.4477216796875,0.017179682859778403,0.005811481024045497,0.0021142704739235342
1782970050364648000,7.45764794921875,0.023762568381428716,0.011043920051120221,-0.009322119493503122
1782970050374573800,7.46757373046875,0.01613163511157036,0.004800970540940762,0.0015362148576416074
1782970050384499700,7.477499755859375,0.026607436418533324,0.008664879427477717,0.0013462452434934674
1782970050394425900,7.48742578125,0.008953706306219101,0.010960552616603671,0.0009149776867590844
1782970050404353000,7.49735302734375,0.011200608450174331,0.014562193837761878,0.0013689502656459808
1782970050414279000,7.50727880859375,0.015541268002986906,0.004891717564314603,-0.009362433237582445
1782970050424204800,7.517204833984375,0.015542437046766281,0.009585702333133668,-0.0030322803679853675
1782970050434131000,7.527130859375,0.013598317241668701,-0.0025624343665316698,-0.009227408681064843
1782970050444057000,7.53705712890625,0.027663082951307295,0.0036472704611718652,-0.004901891898456961
1782970050453983700,7.546983642578125,0.0065641808211803435,0.0009316000279970466,0.003211308463010937
1782970050463910000,7.556909912109375,0.017490648505091667,0.006037069940846413,-0.01000738007761538
1782970050473836000,7.5668359375,0.020786767441034314,-0.0019333244164474307,-0.005113160028960556
1782970050483761700,7.57676171875,0.020786767441034314,0.0051746626915410154,0.005003105516918003
1782970050493687800,7.586687744140625,0.020485738667845727,-0.0020641477218829095,-0.006373992011323571
1782970050503615000,7.596614990234375,0.034549335333704946,0.004012176517117768,-0.00722675464944914
1782970050513540900,7.606540771484375,0.031105916881561276,0.00903316475059837,-0.0062989722800441085
1782970050523466800,7.616466796875,0.017639117065072058,0.00263412962956354,-0.012040365476254374
1782970050533393000,7.626392822265625,0.029010405907034874,0.0035334530894644556,0.008060301130451262
1782970050543320000,7.636320068359375,0.022875848674774168,0.0055583465131931005,0.0007486994754523039
1782970050553245700,7.64624560546875,0.016140987461805343,0.012955270097777246,0.01604370109979063
1782970050563171800,7.656171875,0.016737784311175345,0.008769983769766987,0.0023469832512550055
1782970050573098000,7.666097900390625,0.011800327908992766,0.012414623882435262,0.00526467906255275
1782970050583023900,7.67602392578125,0.012698738053441046,0.008739168506395072,-0.0023282968170940874
1782970050592950800,7.68595068359375,0.015993103423714638,0.0058921998437494036,-0.011263261890225112
1782970050602877000,7.695876953125,0.007311784318089484,0.012950484324805438,0.004832443391438573
1782970050612803000,7.705802978515625,0.02871113069951534,0.0018437464368529616,0.0058623709610663354
1782970050622728700,7.715728759765625,0.030957448321580885,0.013153550882544367,-0.017669055545609443
1782970050632654800,7.72565478515625,0.01374912388920784,0.005612579184770584,-0.011919625173415988
1782970050642582000,7.73558203125,0.01599251890182495,0.008433262628689408,0.00701862832410261
1782970050652508000,7.7455078125,0.01704173569381237,-0.0007687010838650166,-0.006479205951467156
1782970050662433800,7.755433837890625,0.012999766826629637,0.005063932326063513,-0.007883976449165492
1782970050672360000,7.76535986328125,0.03200315798223018,0.005701682240329683,-0.007134783783368766
1782970050682285800,7.775285888671875,0.021377719071507453,0.011009634189028292,0.004072564934846014
1782970050692212700,7.785212646484375,0.02392155833542347,0.012260803293902426,0.0068846084145829075
1782970050702139000,7.795138916015625,0.005810732105374336,0.017597652543522416,-0.0026961985477246342
1782970050712065000,7.80506494140625,0.017778817796707154,0.008297635283973067,-0.003402812447119504
1782970050721991000,7.814990966796875,0.015535422784090041,-0.004751888968516141,-0.0011748159330338239
1782970050731916800,7.824916748046875,0.02062368583381176,0.013821074880566447,-0.0019759214491583406
1782970050741844000,7.834843994140625,0.020626023921370504,0.021404479214269665,-0.009100439566839485
1782970050751769900,7.844769775390625,0.00835632493495941,-0.003170391930732876,-0.016884755033813415
1782970050761695700,7.85469580078125,0.02586509361863136,-0.004746628271508961,-0.013580872916523367
1782970050771622000,7.864621826171875,0.020328502279520034,0.00812098180912435,0.001543082989845425
1782970050781547800,7.8745478515625,0.011948211947083473,0.0031953985078260303,0.005009443926159292
1782970050791475000,7.884474853515625,0.013591887500882149,-0.0020572065244428813,0.00782738742372021
1782970050801400800,7.89440087890625,0.01224631811082363,0.009188337046001105,0.0008611651402898132
1782970050811327000,7.904326904296875,0.0007259761869907379,0.013705503943189978,0.005822879200894385
1782970050821252900,7.9142529296875,0.004163549420237541,0.00664442471684888,-0.012903795638866723
1782970050831179000,7.924178955078125,0.003564414483308792,0.003118113754224032,-0.01562830696562305
1782970050841106000,7.93410595703125,0.01598901177048683,0.004301441787276416,-0.0036161629368551074
1782970050851031800,7.94403173828125,0.00895896700322628,0.02369196909694001,-0.003854885329864919
1782970050860958000,7.9539580078125,0.029756255838274955,0.009766319597046822,0.0071823857847601175
1782970050870883800,7.9638837890625,0.021674656191468238,0.0020084537455812095,-0.008777016298752277
1782970050880809700,7.973809814453125,-0.001219312661886215,0.01661426752936095,-0.00037164632398635147
1782970050890737000,7.98373681640625,0.021974515920877454,-0.001293820936512202,0.009904613822884857
1782970050900662800,7.993662841796875,0.0068646250724792475,0.006939863999467342,0.00014994813101366162
1782970050910589000,8.0035888671875,0.011503390789031983,0.014310502365324645,0.0029628683935850855
1782970050920514800,8.013514892578126,0.023473814567923544,0.006923680049646645,0.0013784487463533877
1782970050930441000,8.02344091796875,0.007015431720018387,-0.0015721994864754379,0.00274686928903684
1782970050940368000,8.033367919921876,0.010460603737831115,0.003059150108601898,0.003307151786610484
1782970050950293800,8.043293701171875,0.02093640504479408,0.0015378222928382455,0.007591021384578198
1782970050960220000,8.053219970703125,0.015102292063832281,0.0019755378566682336,0.004210548633430153
1782970050970146000,8.06314599609375,0.008218377768993377,0.005245298508647829,-0.0011134228683076799
1782970050980071700,8.07307177734375,0.013601239851117133,0.011296835366263984,-0.0057379956627264615
1782970050989998800,8.082998779296876,0.017938976794481275,0.007814655806310475,-0.008418138124793768
1782970050999925000,8.092925048828125,0.017940730360150335,-0.0056070079605095085,0.00818363524917513
1782970051009851000,8.102850830078125,0.012850129222869872,0.010516462110914289,0.012280202114116399
1782970051019776800,8.11277685546875,0.01853226651251316,0.008217647116631269,-0.010789452099706977
1782970051029703000,8.122702880859375,0.010600304469466209,0.013879581868462264,-0.007081829753424972
1782970051039629800,8.1326298828125,0.024962591820955275,-0.010341105544008314,0.002488601945340633
1782970051049555700,8.1425556640625,0.01957739165127277,0.009248214007075876,0.0027018245709128676
1782970051059481900,8.15248193359375,0.03618482758104801,0.0015753412916325032,0.004056271387171
1782970051069408000,8.162407958984375,0.015385200658440588,0.000908986337389797,0.021477507917862383
1782970051079334000,8.172333984375,0.035738837379217146,0.002652523802779615,0.002073372207954526
1782970051089260800,8.1822607421875,0.021972762355208397,-0.006925579745788127,-0.010829071724042296
1782970051099187000,8.19218701171875,0.009249474382400513,0.0034043285507708784,-0.008656951849348843
1782970051109113000,8.202113037109376,0.023609423646330834,0.007030227430351078,0.0029822124148719013
1782970051119038700,8.212038818359375,0.013881225836277006,-0.003956720002833754,-0.0025286782274022697
1782970051128964900,8.22196484375,0.007594108390808105,0.02253722783755511,-0.004667279424984008
1782970051138892000,8.23189208984375,0.025849311527609824,0.019270974316913634,0.0016376111391931771
1782970051148817700,8.241817626953125,0.018220131823420523,0.013965250857919454,-0.004876994919218123
1782970051158743800,8.251743896484374,0.014328385081887244,0.0003311499168165028,-0.005377656184043735
1782970051168670000,8.261669921875,0.03826514098644256,-0.0038289106383919713,-0.01184504383355379
1782970051178595800,8.271595947265626,0.013273323071002959,0.01013396559935063,0.009347637527249753
1782970051188522800,8.281522705078125,0.032877602729201316,0.0038420623809099193,-0.0006202142575755714
1782970051198449000,8.291448974609375,0.0316799173772335,0.005047510914225131,-0.00047271381197497243
1782970051208375000,8.301375,0.007888122901320457,0.012216105635650456,0.006110080378130078
1782970051218301000,8.311301025390625,0.011779869642853736,0.006103285311162472,-0.008353566722292453
1782970051228226800,8.321226806640626,0.020609657308459282,0.0128749531368725,-0.011904336272738873
1782970051238154000,8.331154052734375,0.020011691415309906,-0.0005613236771896481,-0.004345920249819756
1782970051248080000,8.341079833984375,0.02360065581798553,0.011379106822237372,-0.008813147058058529
1782970051258005800,8.351005859375,0.021054478466510772,-0.0012941497300751506,-0.019939046304207293
1782970051267932000,8.360931884765625,0.0008487257838249206,0.010954853528179228,-0.0021360987132415174
1782970051277857800,8.37085791015625,0.01985328598320484,0.005721574250888079,-0.0069811641242355105
1782970051287784700,8.38078466796875,0.015517302605509757,0.011263225357607006,-0.0014968509616330266
1782970051297710800,8.3907109375,0.006087210959196091,0.0011513619922101496,-0.019202073799166827
1782970051307638800,8.400638671875,0.015810148072242736,0.012146218737214803,-0.018622173285670576
1782970051317565000,8.41056494140625,0.025087094983458517,0.014123163099680095,-0.0052975036199204625
1782970051327490800,8.42049072265625,-0.0015507365733385084,-0.00025952771902084347,0.009974263259302825
1782970051337417000,8.4304169921875,0.0006961655706167221,0.005237279598973691,-0.015271565949823707
1782970051347342800,8.4403427734375,0.00473871895968914,0.007211940672807395,0.0019320275085046887
1782970051357269800,8.450269775390625,0.00802782363295555,0.0015452566806226967,-0.004665251864679158
1782970051367196000,8.46019580078125,0.027029461222887036,0.0054594892485998565,-0.006492686487548053
1782970051377122000,8.4701220703125,0.01132043543756008,0.0014324622222222387,-0.0044289771570824085
1782970051387047700,8.480047607421875,0.014610709154605864,0.008506948919408022,-0.012459686866868287
1782970051396973800,8.489973876953124,0.027324644777178764,-0.004033292370382696,-0.009361757384147495
1782970051406901000,8.49990087890625,0.017449731972813604,-0.003403250838536769,0.0032519875332713125
1782970051416827000,8.509826904296874,0.015506196689605713,0.0033291626890189943,0.0006198671977035701
1782970051426752800,8.519752685546875,0.012663082218170165,0.005548482706304639,0.012925112421531229
1782970051436679000,8.529678955078126,0.025827099695801735,0.012905914530716836,0.007745755288563669
1782970051446605300,8.539605224609375,0.028967735809087753,0.009008413901831954,0.00333676147358492
1782970051456532200,8.5495322265625,0.014456395375728607,-0.010975494457408785,0.0018760595375671982
1782970051466458000,8.5594580078125,0.018648001846671102,0.019997790754120795,-0.001199511982873082
1782970051476384300,8.56938427734375,0.02493278120458126,0.021497509526275098,0.005238868767861277
1782970051486310100,8.57931005859375,0.00592646743953228,0.016706457591149956,-0.0048189263227395715
1782970051496236000,8.589236083984375,0.021639584878087044,0.00881510155312717,-0.0002803330450318754
1782970051506163200,8.5991630859375,0.023735095852613446,0.01978909817319363,-0.002888049591705203
1782970051516089000,8.609089111328124,0.010417349117994308,0.012490611728094517,-0.007127349395584314
1782970051526015200,8.61901513671875,0.016999650117754936,0.010223433981090784,-0.010880765378661453
1782970051535941000,8.628941162109374,0.019244798696041107,0.01725886730952188,-0.021541111205983905
1782970051545867300,8.6388671875,0.017751345267891884,0.004832863516546785,0.01090814657593146
1782970051555794200,8.648794189453126,0.014760931280255317,0.012390676751267165,-0.009035283642448485
1782970051565720000,8.658719970703125,0.01535772812962532,0.00906894845003262,0.004569189345370978
1782970051575646200,8.668646240234375,0.013265139764547348,0.0070662851244211195,0.0007527911286801099
1782970051585572400,8.678572265625,0.025085925939679145,0.009591218758467584,-0.001014090679679066
1782970051595498000,8.688498046875,0.013265139764547348,0.014454276483878493,-0.013528339011687785
1782970051605425200,8.698425048828126,0.022992753052711486,0.006923935777973384,-0.005007233702763915
1782970051615351300,8.708351318359375,0.019104513442516326,0.017420505878329277,-0.001116582939773798
1782970051625277200,8.718277099609375,0.027035306441783903,-0.009919446065835655,0.009461948089301585
1782970051635203000,8.728203125,0.012818565040826797,-0.0008286876427941024,-0.025008093196805564
1782970051645129200,8.738129150390625,0.0336187764853239,0.005327442100457847,-0.007857599898893385
1782970051655056100,8.74805615234375,0.019850363373756407,0.0011041435833089052,0.00006457140250131487
1782970051664982000,8.75798193359375,0.014763269367814063,0.003730035107489675,-0.004108348634280264
1782970051674908200,8.767908203125,0.021495207971334456,-0.000028002251777797935,-0.0009772475343197585
1782970051684834300,8.777834228515625,0.025533669707179067,0.021501911706756797,-0.007461969911120831
1782970051694760200,8.78776025390625,0.003835632640123367,0.015256076119747011,-0.016432663884758947
1782970051704687000,8.79768701171875,0.012811550778150558,0.015018614102061838,-0.013083590918872505
1782970051714613200,8.80761328125,0.019241876086592672,0.01700576933128759,0.0037193858493119476
1782970051724539400,8.817539306640626,0.017298925325274467,0.0018508885636925696,0.0008039185277186334
1782970051734465000,8.827465087890625,0.02013970170915127,0.012173983526974916,-0.016134119329601525
1782970051744392200,8.83739208984375,0.017447393885254858,0.023567575532291083,-0.022376192056946454
1782970051754318300,8.847318359375,0.01445581085383892,0.013156930149719118,-0.004851623015943914
1782970051764244000,8.857243896484375,0.012962941947579383,0.016882800538744778,0.0037894188782200216
1782970051774170000,8.867170166015624,0.01296528003513813,0.0063095484729856245,0.007669073323160409
1782970051784096300,8.87709619140625,0.009972527959942816,0.016580164330359547,0.008754530472308397
1782970051794023200,8.887023193359376,0.01057107837498188,0.0050629276790656146,0.006799651811178773
1782970051803949000,8.896948974609375,0.01191606324315071,0.010286178752686828,0.01845025078486651
1782970051813875200,8.906875244140625,0.0026356092005968093,-0.004769150630570948,-0.020631430748850106
1782970051823801300,8.91680126953125,0.010712532672286033,-0.0022971892927773296,-0.011402688627224414
1782970051833727200,8.926727294921875,0.011610942816734313,0.02499685941673815,-0.005496423725504428
1782970051843654100,8.936654052734376,0.028816344639658927,-0.004558119962085038,0.005200125926360487
1782970051853580300,8.946580322265625,0.027317630514502523,0.008271879788208753,0.006297949366737157
1782970051863506200,8.956506103515625,0.014746902754902839,0.011829024280514567,-0.012015687692724167
1782970051873432000,8.96643212890625,0.021928923213481902,0.003797035929095,-0.005135791985876858
1782970051883358200,8.976358154296875,0.015639467680454253,0.012626147741265595,-0.007720237254817039
1782970051893285400,8.986285400390624,0.00007364975810050964,0.015187029471527785,0.005789817181508988
1782970051903211000,8.9962109375,0.01698036089539528,0.011997421383671462,0.00834969426477328
1782970051913137200,9.00613720703125,0.03164718415141105,0.009739669052138925,0.018109565854724497
1782970051923063300,9.016063232421875,0.012792846077680588,0.010596760805509984,-0.0014585282452404499
1782970051932989200,9.0259892578125,0.006059738430380821,0.010006740756798535,-0.01808483327226713
1782970051942916000,9.035916015625,0.013090952241420746,0.015134367702528833,-0.010853712974954396
1782970051952842200,9.04584228515625,0.010996025788784027,0.010528170815017075,0.0027295162954367696
1782970051962768100,9.05576806640625,0.01877835022807121,0.0022741006781347097,-0.002542195296101272
1782970051972694300,9.0656943359375,0.02057224790751934,0.010816120910923927,0.007560333985369652
1782970051982620200,9.0756201171875,0.01638473308980465,0.015024952511303126,0.0014172829193994402
1782970051992547300,9.08554736328125,0.017434534403681753,-0.005067165462765842,-0.0001511171747930348
1782970052002473200,9.09547314453125,0.009058920246362685,-0.002713715938106179,-0.0027566417643800378
1782970052012399000,9.105399169921874,0.016838322076201437,0.005375281563866883,-0.01536859658351168
1782970052022325200,9.1153251953125,0.023571429723501205,0.006710621820855885,0.0023170447707176207
1782970052032251100,9.125251220703126,0.017886369824409484,0.0129292954063043,-0.01995280083492398
1782970052042178000,9.135177978515625,0.019531214421987533,-0.0006991064463742077,-0.01793514086958021
1782970052052104200,9.145104248046875,0.025065467673540114,0.0029119967228733003,-0.00421316071562469
1782970052062030000,9.155030029296874,0.012047580668330192,0.019578761624451727,-0.0007304149000905454
1782970052071956200,9.164956298828125,0.025218612408638,0.016375928728841246,-0.016532836323603986
1782970052081882000,9.174882080078126,0.01250292322039604,0.00572968449210748,-0.00012289572730660438
1782970052091809300,9.184809326171875,0.026569442495703696,0.008248279716912657,-0.004606763143092394
1782970052101735200,9.194735107421875,0.01205459493100643,0.020282178919762372,-0.004968070736154914
1782970052111661300,9.204661376953124,0.01175356615781784,-0.002083309080079198,0.005216638669744133
1782970052121587200,9.214587158203125,0.0014314941078424452,0.010897460785135626,-0.0011919131983071565
1782970052131513000,9.22451318359375,0.011759411376714705,0.019168208062183112,0.00923515359610319
1782970052141440300,9.234440185546875,0.0210357737660408,0.008407470600306987,0.006000811317376792
1782970052151366100,9.2443662109375,0.006367781466245651,0.008915566252917052,-0.0030059220840223133
1782970052161292000,9.2542919921875,0.0020271219134330746,0.013636968751624226,-0.010043054179195314
1782970052171218200,9.26421826171875,0.0145960961073637,-0.008764284681342542,0.0005746580827981233
1782970052181144300,9.274144287109374,0.013545710271596907,0.01025331766270101,0.008187599038239568
1782970052191071200,9.2840712890625,0.008756137907505035,0.006672098175063729,0.008850958317797631
1782970052200997000,9.2939970703125,0.024021511578559872,0.021562519320193676,0.0026520306124351916
1782970052210923300,9.30392333984375,0.025970307558774948,0.006515555906482041,0.0016336108175106345
1782970052220849200,9.31384912109375,0.03270516877174377,0.015466978924069553,0.0051986646216362715
1782970052230775000,9.323775146484374,0.008165186277031899,0.016867182844504714,-0.007016893024742603
1782970052240702200,9.3337021484375,0.03404898459613323,0.002332151008304208,-0.0030661278386600313
1782970052250628400,9.34362841796875,0.02477203768491745,0.016744268850889057,-0.004484251008275896
1782970052260554000,9.353553955078125,0.02686637961566448,0.0015593400049023329,-0.005127152021694928
1782970052270480100,9.363480224609376,0.03180325149595737,0.005721866511832922,-0.006226089706923813
1782970052280406300,9.37340625,0.01923719991147518,0.014152005601674317,0.005788538539875298
1782970052290333200,9.383333251953125,0.00876373669207096,0.015148377961572259,-0.0015573672435246408
1782970052300259000,9.393259033203124,0.02791851901710033,0.016581388173066078,0.004572696476709098
1782970052310185200,9.403185302734375,0.011460136169195174,0.008885974832251668,-0.019858784142229705
1782970052320111400,9.413111328125,0.011610942816734313,-0.007612283368315547,-0.005507821902353317
1782970052330037000,9.423037109375,0.013405425018072127,0.006177519591152668,-0.0021609408935531972
1782970052339964200,9.432964111328126,0.016100070929527283,0.009646090750861912,0.004316840285807848
1782970052349890300,9.442890380859374,0.020137948143482208,0.0021438984272070228,0.00478327048746869
1782970052359816200,9.452816162109375,0.01355564714372158,0.004940616473648697,0.010690667900349945
1782970052369742000,9.4627421875,0.002932546320557594,0.01980327282901853,-0.0017015797534957527
1782970052379668200,9.472668212890625,0.028219547790288922,0.011257215741928665,-0.0008203216732479632
1782970052389595400,9.482595458984376,0.023276830691099166,0.0014082776290364563,-0.0008981726824305951
1782970052399521000,9.49252099609375,0.013551555490493774,0.019096932924259454,-0.0009893580972217023
1782970052409447200,9.502447265625,0.009511924710869788,0.010055895394459367,-0.010978143072221428
1782970052419373300,9.512373291015624,0.01878945614397526,0.013356635706592351,-0.00275152719784528
1782970052429299200,9.52229931640625,0.0080126260638237,0.0076189871037378905,-0.011063720730133354
1782970052439226000,9.53222607421875,-0.001861117696762085,0.0010025646386668085,0.00858671789104119
1782970052449152000,9.542152099609375,0.011906710892915725,0.011267755402252078,0.006041344257164746
1782970052459078100,9.552078125,0.014600772282481193,0.009472670412715524,-0.004921820441633463
1782970052469004000,9.562004150390624,0.011460720691084862,-0.008230780592840164,-0.0027573358841240406
1782970052478930000,9.571929931640625,0.011461305212974547,0.012369012908730655,0.004307360071409493
1782970052488857000,9.581857177734374,0.002481295421719551,0.016116017417330295,0.009619458472263068
1782970052498783200,9.591783203125,0.023133038306236267,0.004762227699439972,0.012063143563643098
1782970052508708900,9.601708984375,0.025830606827139852,0.005617218827269971,0.0009445143084973097
1782970052518635000,9.611635009765624,0.020444822135567663,0.0035570348944514987,-0.0006478511831723153
1782970052528561200,9.62156103515625,0.01760287670791149,0.010494670404214411,-0.0009409706445410847
1782970052538487800,9.63148779296875,0.01775485239923,0.010216620647814124,-0.006482439088169485
1782970052548414000,9.6414140625,0.015665186643600462,0.005660290784016251,-0.004890384123753756
1782970052558340000,9.651340087890626,0.03437339424490928,0.0017449622374959288,-0.011943681902438401
1782970052568266000,9.661265869140625,0.0179161804407835,0.005146696972381323,-0.007455448838789016
1782970052578192000,9.67119189453125,0.013579028019309044,0.008041925223544239,-0.007033606697525828
1782970052588119000,9.681119140625,0.006699789899587631,-0.0003782039289362728,-0.010960917942784726
1782970052598045200,9.691045166015625,0.022263269734382626,0.0035700953054241835,-0.014371913696359841
1782970052607971000,9.70097119140625,0.02061842513680458,0.014511833623703568,-0.021188352245558054
1782970052617897000,9.71089697265625,0.011490531307458876,0.010141893177479504,0.003522675967123359
1782970052627823000,9.720822998046875,0.03228723562061787,0.008146572908107191,0.009114906483609228
1782970052637750000,9.73075,0.01791793400645256,0.005596267370786517,-0.00455117876464501
1782970052647676000,9.740676025390625,0.017319383591413495,0.005104775793105363,-0.0022559257006272673
1782970052657602000,9.75060205078125,0.014925181931257248,0.014215170498378574,0.0026862982082180675
1782970052667528000,9.76052783203125,0.020164251628518103,0.00776811325084418,-0.0015770583246834575
1782970052677454000,9.7704541015625,0.02150982101857662,0.004276983199454844,0.00033516850480809805
1782970052687381000,9.780381103515625,0.02614800221323967,0.00454301372449845,-0.0001923442343249917
1782970052697307100,9.79030712890625,0.01073532902598381,0.009262479994446038,-0.010615922163706272
1782970052707233000,9.80023291015625,0.00684533585011959,0.0034083654050715267,-0.004329297908581793
1782970052717159000,9.810158935546875,0.016121698239445686,0.004056563648115843,0.0015026413816027343
1782970052727085000,9.8200849609375,0.027941899892687794,0.011295300996303558,0.0036187567527405915
1782970052737012000,9.830011962890625,0.016867548170685767,0.014726700217090546,0.006669102500379085
1782970052746938000,9.839938232421876,0.010732990938425063,0.014076419614814222,0.007750120936427265
1782970052756864000,9.849864013671874,0.016121698239445686,0.0020389950143173334,0.00935741000259295
1782970052766790000,9.859789794921875,0.018512392768263816,0.0165913067788817,-0.012171170515380799
1782970052776716000,9.869716064453126,0.02584463535249233,0.006377974066697061,-0.0025736316139809787
1782970052786643000,9.879642822265625,0.02389700841605663,-0.00005304536148905754,-0.004226622985396534
1782970052796569000,9.889569091796876,0.0162649061024189,0.0012686682289466261,-0.0022313575149513778
1782970052806495000,9.899494873046875,0.022850714233517644,0.01942886829236522,0.005998692425526678
1782970052816421000,9.909421142578125,0.013128361642360687,0.010141217324044554,-0.004556384662725031
1782970052826347000,9.919346923828124,0.029292729979753494,0.006555321661289781,-0.00503454183479771
1782970052836274000,9.92927392578125,0.018216624692082403,-0.004947904730960726,-0.0033927842434495685
1782970052846200000,9.939199951171876,0.021955811220407486,0.01181486789099872,-0.008102404972817749
1782970052856126000,9.9491259765625,0.009082301121950149,0.014469948977045713,-0.00509226337140426
1782970052866051800,9.9590517578125,0.017913842353224754,0.011821790822129696,0.006366849884483963
1782970052875978000,9.96897802734375,0.01896364366710186,0.0026678675023838875,-0.01111661996114999
1782970052885905200,9.9789052734375,0.020014029502868652,0.007852868924848735,-0.0010367591692134737
1782970052895831000,9.9888310546875,0.020310966622829437,0.0028534714686684307,0.001387874161824584
1782970052905757000,9.9987568359375,0.010138532176613807,0.0042513007689267395,0.006709653706476092
1782970052915683000,10.00868310546875,0.026444939333200454,0.003928169761784375,-0.00260928744925186
1782970052925609200,10.018609130859375,0.027640286597609517,-0.0002908179064281285,0.0012735635997727513
1782970052935535900,10.028535888671875,0.01836100159883499,0.0041787287230603395,-0.008936663839872926
1782970052945462000,10.0384619140625,0.012523381486535071,0.0057254467084072525,-0.011871950106788426
1782970052955388200,10.04838818359375,0.009382745373249053,0.01641222388492897,-0.0005200052861124277
1782970052965313800,10.058313720703126,0.023749124377965926,0.012344389924127609,-0.011485179278906434
1782970052975240000,10.068239990234375,0.022401801422238347,0.009700652216002345,-0.005360631984006613
1782970052985167000,10.0781669921875,0.026142741516232488,0.005005699332803488,-0.009340878992900252
1782970052995093000,10.088093017578124,0.018958967491984367,0.0001442490425892174,-0.016841427348740397
1782970053005019000,10.098018798828125,0.006534954726696014,0.0022167444677092135,-0.0038583376622758803
1782970053014945000,10.107945068359374,0.020298107141256332,0.004367072635702789,-0.011959281330369413
1782970053024871200,10.11787109375,0.01775485239923,0.005641805279254913,0.013687931753881276
1782970053034797000,10.127797119140626,0.0072808046579360955,0.010420308260060846,0.00020299349250271916
1782970053044724000,10.137723876953125,0.02149637701511383,-0.000607701835874468,-0.020817820166423917
1782970053054650000,10.147650146484375,0.013117255726456641,0.006800985251739621,-0.009104019763413816
1782970053064576000,10.157575927734374,0.016855273211002348,0.0026133060372434554,-0.01611499450402334
1782970053074502000,10.167501953125,0.012218261060118675,0.014158216146752237,-0.02178538655694574
1782970053084429000,10.177428955078126,0.012966449078917502,0.011694913039449601,-0.0003143631787970662
1782970053094355200,10.187355224609375,0.0072796356141567225,0.000279547593742609,-0.002320314440038055
1782970053104280800,10.19728076171875,0.002939560583233833,0.009447535971459,-0.008032262346055358
1782970053114207000,10.20720703125,0.006083703827857971,0.008820216119661927,0.0006032448564656078
1782970053124133000,10.217133056640625,0.014766191977262496,0.005505995271448046,0.003257814485859126
1782970053134059000,10.22705908203125,0.012821487650275229,0.003020535131264478,-0.0032714046197943386
1782970053143986000,10.23698583984375,0.022552608069777488,0.015694814596883953,-0.007827058630157261
1782970053153912000,10.246912109375,0.03317629341483116,0.01510788155440241,0.007002864499390125
1782970053163838000,10.256837890625,0.008487257838249206,0.012132774733752011,-0.007601031321939081
1782970053173764000,10.26676416015625,0.02150514484345913,0.0006954166519455611,-0.0034563509989529845
1782970053183691000,10.27669091796875,0.02719137378633022,0.0012123897307552397,-0.0038255496375262737
1782970053193617200,10.2866171875,0.017014847686886787,0.012589925650414079,0.004177486614044755
1782970053203543000,10.29654296875,0.01611760658621788,0.00991820395682007,0.00276570185367018
1782970053213469000,10.306468994140625,-0.034576807862520216,0.010419614140316844,-0.016926603147853166
1782970053223395000,10.31639501953125,-0.22350129687190054,0.033079134916979815,-0.0697919866938144
1782970053233322000,10.326322021484375,0.29082535908222196,-0.03565035537816584,0.07425689368080347
1782970053243247900,10.336247802734375,-0.1195966857612133,0.017631664410978555,-0.054431993541866536
1782970053253174000,10.346174072265624,0.24147008428275585,-0.01587241791980341,0.05533210245305672
1782970053263100000,10.356099853515625,0.08043488819599151,0.00406423549791798,0.020993012336548416
1782970053273026000,10.366026123046876,-0.03929214594662189,0.026540892254654315,-0.012307491979841143
1782970053282952200,10.3759521484375,0.008271569260954856,0.010805526451673358,-0.0021185995891690253
1782970053292879000,10.385879150390625,0.045347208201885224,0.005752718307822942,0.000963365139439702
1782970053302805000,10.395804931640624,-0.040420273193717,0.01664654409745708,-0.021833079889882354
1782970053312731100,10.405731201171875,-0.06286708280146122,0.027557357554510234,-0.024304822031967342
