time,seconds_elapsed,z,y,x
1782970042968382700,0.0613828125,-0.9970855712890625,-0.016632080078125,-0.017364501953125
1782970042978308900,0.071308837890625,-1.0002288818359375,-0.016693115234375,-0.0171661376953125
1782970042988235000,0.081235107421875,-0.998687744140625,-0.016021728515625,-0.0183563232421875
1782970042998161000,0.091160888671875,-0.9992523193359375,-0.0158538818359375,-0.019378662109375
1782970043008087800,0.101087890625,-0.9966278076171875,-0.0167236328125,-0.0186614990234375
1782970043018014000,0.111013916015625,-0.9979400634765625,-0.017608642578125,-0.0179443359375
1782970043027939800,0.12093994140625,-0.9977264404296875,-0.0176544189453125,-0.01861572265625
1782970043037866000,0.130865966796875,-0.9991912841796875,-0.017669677734375,-0.018402099609375
1782970043047793000,0.14079296875,-0.9986572265625,-0.0169219970703125,-0.0181884765625
1782970043057719000,0.150718994140625,-0.9969940185546875,-0.0163726806640625,-0.017578125
1782970043067645000,0.16064501953125,-0.99786376953125,-0.0146942138671875,-0.018646240234375
1782970043077570800,0.17057080078125,-0.9982757568359375,-0.0161590576171875,-0.019500732421875
1782970043087497000,0.1804970703125,-0.997711181640625,-0.0170745849609375,-0.0179290771484375
1782970043097424000,0.190423828125,-0.997589111328125,-0.015869140625,-0.0182647705078125
1782970043107349800,0.200349853515625,-0.997406005859375,-0.0169677734375,-0.017974853515625
1782970043117276000,0.21027587890625,-0.9985198974609375,-0.0166473388671875,-0.0181884765625
1782970043127201800,0.220201904296875,-0.997833251953125,-0.017822265625,-0.017242431640625
1782970043137128700,0.230128662109375,-0.99884033203125,-0.01763916015625,-0.0186309814453125
1782970043147054800,0.240054931640625,-0.99835205078125,-0.0165863037109375,-0.0196380615234375
1782970043156981000,0.24998095703125,-0.9990081787109375,-0.016571044921875,-0.01898193359375
1782970043166907000,0.259906982421875,-0.997589111328125,-0.01763916015625,-0.0191802978515625
1782970043176833000,0.2698330078125,-0.998260498046875,-0.017181396484375,-0.019378662109375
1782970043186760000,0.279760009765625,-0.9983367919921875,-0.0170135498046875,-0.01776123046875
1782970043196685800,0.289685791015625,-0.9986572265625,-0.0170745849609375,-0.0183563232421875
1782970043206612000,0.299612060546875,-0.9973602294921875,-0.0162200927734375,-0.0185546875
1782970043216537900,0.309537841796875,-0.9983062744140625,-0.0173797607421875,-0.0180511474609375
1782970043226465000,0.319465087890625,-0.99932861328125,-0.0168914794921875,-0.0186004638671875
1782970043236391000,0.329390869140625,-0.9980010986328125,-0.0165863037109375,-0.0164642333984375
1782970043246316800,0.33931689453125,-0.997650146484375,-0.015899658203125,-0.016021728515625
1782970043256243000,0.349242919921875,-0.9963836669921875,-0.0178375244140625,-0.01873779296875
1782970043266168800,0.3591689453125,-0.9964141845703125,-0.01617431640625,-0.0190887451171875
1782970043276095700,0.369095703125,-0.997802734375,-0.0156402587890625,-0.0185699462890625
1782970043286022000,0.37902197265625,-0.996551513671875,-0.0178680419921875,-0.0177001953125
1782970043295947800,0.38894775390625,-0.9972991943359375,-0.01715087890625,-0.016265869140625
1782970043305874000,0.3988740234375,-0.9970245361328125,-0.017425537109375,-0.0186920166015625
1782970043315800800,0.40880078125,-0.9987030029296875,-0.0173492431640625,-0.017913818359375
1782970043325727000,0.41872705078125,-0.9990997314453125,-0.0178070068359375,-0.0187225341796875
1782970043335652900,0.42865283203125,-0.9976959228515625,-0.016876220703125,-0.0188446044921875
1782970043345579000,0.4385791015625,-0.9987030029296875,-0.016754150390625,-0.0178680419921875
1782970043355505000,0.4485048828125,-0.9984130859375,-0.0172882080078125,-0.016571044921875
1782970043365431800,0.458431884765625,-0.99810791015625,-0.0160980224609375,-0.0181732177734375
1782970043375358000,0.46835791015625,-0.9987945556640625,-0.0179595947265625,-0.0176239013671875
1782970043385283800,0.478283935546875,-0.9973297119140625,-0.0178680419921875,-0.0180206298828125
1782970043395209700,0.488209716796875,-0.9959564208984375,-0.016357421875,-0.018035888671875
1782970043405137000,0.498136962890625,-0.9969940185546875,-0.0151519775390625,-0.0185089111328125
1782970043415062800,0.508062744140625,-0.99822998046875,-0.0162506103515625,-0.0171356201171875
1782970043424989000,0.517989013671875,-0.997711181640625,-0.016204833984375,-0.0169830322265625
1782970043434914600,0.52791455078125,-0.99884033203125,-0.01806640625,-0.0183868408203125
1782970043444840700,0.5378408203125,-0.99713134765625,-0.017547607421875,-0.017547607421875
1782970043454767600,0.547767578125,-0.997802734375,-0.01666259765625,-0.0167236328125
1782970043464693800,0.55769384765625,-0.9975128173828125,-0.016571044921875,-0.0175018310546875
1782970043474619600,0.56761962890625,-0.9981842041015625,-0.0168609619140625,-0.019195556640625
1782970043484545800,0.5775458984375,-0.9974517822265625,-0.0151519775390625,-0.0186767578125
1782970043494472700,0.58747265625,-0.9968719482421875,-0.0162200927734375,-0.01776123046875
1782970043504398600,0.597398681640625,-0.9971923828125,-0.0175018310546875,-0.017578125
1782970043514324700,0.60732470703125,-0.996978759765625,-0.01556396484375,-0.0180206298828125
1782970043524250600,0.617250732421875,-0.9977264404296875,-0.016265869140625,-0.01849365234375
1782970043534176500,0.627176513671875,-0.99774169921875,-0.0163421630859375,-0.0175628662109375
1782970043544103700,0.637103759765625,-0.9984130859375,-0.0160675048828125,-0.0167236328125
1782970043554029800,0.64702978515625,-0.997528076171875,-0.01666259765625,-0.018585205078125
1782970043563955700,0.656955810546875,-0.9986419677734375,-0.0167694091796875,-0.01910400390625
1782970043573881600,0.666881591796875,-0.9986724853515625,-0.016571044921875,-0.01739501953125
1782970043583808800,0.676808837890625,-0.9980621337890625,-0.0165557861328125,-0.0190582275390625
1782970043593734700,0.686734619140625,-0.996551513671875,-0.0168914794921875,-0.017578125
1782970043603660500,0.69666064453125,-0.9975738525390625,-0.0169525146484375,-0.016754150390625
1782970043613586700,0.706586669921875,-0.9973297119140625,-0.016571044921875,-0.017333984375
1782970043623512800,0.716512939453125,-0.9988250732421875,-0.0167388916015625,-0.01715087890625
1782970043633439700,0.726439697265625,-0.9986114501953125,-0.01666259765625,-0.0180816650390625
1782970043643365600,0.73636572265625,-0.9981231689453125,-0.01690673828125,-0.0182342529296875
1782970043653291800,0.746291748046875,-0.9976043701171875,-0.01678466796875,-0.017791748046875
1782970043663217700,0.7562177734375,-0.9976654052734375,-0.016021728515625,-0.017791748046875
1782970043673144600,0.76614453125,-0.9977264404296875,-0.016998291015625,-0.01922607421875
1782970043683070700,0.77607080078125,-0.9970703125,-0.0168304443359375,-0.018585205078125
1782970043692996900,0.785996826171875,-0.9974517822265625,-0.016693115234375,-0.017486572265625
1782970043702922500,0.795922607421875,-0.9979400634765625,-0.01605224609375,-0.018035888671875
1782970043712848600,0.8058486328125,-0.9975738525390625,-0.0159759521484375,-0.0176849365234375
1782970043722775800,0.81577587890625,-0.9975433349609375,-0.0157623291015625,-0.01873779296875
1782970043732701700,0.82570166015625,-0.99786376953125,-0.015472412109375,-0.018463134765625
1782970043742627600,0.835627685546875,-0.999542236328125,-0.01593017578125,-0.0178070068359375
1782970043752553700,0.8455537109375,-0.9990081787109375,-0.0162506103515625,-0.0181732177734375
1782970043762480600,0.855480712890625,-0.9985504150390625,-0.0168304443359375,-0.0187225341796875
1782970043772406500,0.865406494140625,-0.9971160888671875,-0.0159149169921875,-0.0186309814453125
1782970043782332700,0.875332763671875,-0.9964599609375,-0.0170135498046875,-0.019012451171875
1782970043792258800,0.8852587890625,-0.9984283447265625,-0.016143798828125,-0.0193634033203125
1782970043802184700,0.895184814453125,-0.9970550537109375,-0.0176239013671875,-0.0186309814453125
1782970043812111600,0.905111572265625,-0.9966583251953125,-0.0174102783203125,-0.0179595947265625
1782970043822037800,0.915037841796875,-0.9977874755859375,-0.0168609619140625,-0.017486572265625
1782970043831964000,0.9249638671875,-0.99920654296875,-0.0182342529296875,-0.017669677734375
1782970043841889500,0.9348896484375,-0.99920654296875,-0.0159454345703125,-0.0178985595703125
1782970043851815700,0.944815673828125,-0.9987640380859375,-0.015625,-0.017303466796875
1782970043861742800,0.954742919921875,-0.9972991943359375,-0.015167236328125,-0.0182952880859375
1782970043871668500,0.96466845703125,-0.9993896484375,-0.0166778564453125,-0.0180511474609375
1782970043881594600,0.9745947265625,-0.9972381591796875,-0.0164337158203125,-0.017852783203125
1782970043891520800,0.984520751953125,-0.9982757568359375,-0.016937255859375,-0.0184326171875
1782970043901447700,0.99444775390625,-0.999420166015625,-0.015533447265625,-0.019561767578125
1782970043911373600,1.00437353515625,-0.998870849609375,-0.0170745849609375,-0.018707275390625
1782970043921299700,1.0142998046875,-0.998260498046875,-0.017333984375,-0.01910400390625
1782970043931225900,1.024225830078125,-0.998077392578125,-0.017303466796875,-0.018157958984375
1782970043941151700,1.03415185546875,-0.99774169921875,-0.01605224609375,-0.018707275390625
1782970043951078700,1.04407861328125,-0.9976806640625,-0.016387939453125,-0.017730712890625
1782970043961004800,1.0540048828125,-0.99658203125,-0.01708984375,-0.0185394287109375
1782970043970930700,1.0639306640625,-0.996368408203125,-0.0164947509765625,-0.019287109375
1782970043980856600,1.073856689453125,-0.998138427734375,-0.0157470703125,-0.01739501953125
1782970043990783700,1.08378369140625,-0.9990386962890625,-0.0153656005859375,-0.0184173583984375
1782970044000710000,1.0937099609375,-0.9989471435546875,-0.01800537109375,-0.018402099609375
1782970044010635500,1.103635498046875,-0.9969482421875,-0.0178070068359375,-0.0189971923828125
1782970044020561700,1.113561767578125,-0.99810791015625,-0.0162811279296875,-0.0180511474609375
1782970044030487800,1.12348779296875,-0.998748779296875,-0.0163421630859375,-0.0174713134765625
1782970044040414500,1.13341455078125,-0.99920654296875,-0.01666259765625,-0.018096923828125
1782970044050340600,1.143340576171875,-0.9990997314453125,-0.016204833984375,-0.018951416015625
1782970044060266800,1.153266845703125,-0.9979248046875,-0.0166473388671875,-0.01934814453125
1782970044070192600,1.163192626953125,-0.9978790283203125,-0.0172271728515625,-0.01910400390625
1782970044080118800,1.173118896484375,-0.9968414306640625,-0.01702880859375,-0.01806640625
1782970044090045700,1.183045654296875,-0.9978790283203125,-0.017364501953125,-0.01763916015625
1782970044099971800,1.192971923828125,-0.99749755859375,-0.0166168212890625,-0.0178070068359375
1782970044109897700,1.202897705078125,-0.9976348876953125,-0.0162811279296875,-0.0184783935546875
1782970044119823600,1.21282373046875,-0.9978790283203125,-0.0172576904296875,-0.0192413330078125
1782970044129750800,1.222750732421875,-0.9974822998046875,-0.0170135498046875,-0.018463134765625
1782970044139676700,1.2326767578125,-0.99755859375,-0.0157928466796875,-0.018218994140625
1782970044149602600,1.2426025390625,-0.997833251953125,-0.017059326171875,-0.0180511474609375
1782970044159528700,1.25252880859375,-0.997772216796875,-0.0159759521484375,-0.0175018310546875
1782970044169454600,1.26245458984375,-0.9969635009765625,-0.0152130126953125,-0.0190582275390625
1782970044179381500,1.272381591796875,-0.996429443359375,-0.016754150390625,-0.0185546875
1782970044189307600,1.2823076171875,-0.996826171875,-0.0171966552734375,-0.018463134765625
1782970044199233800,1.29223388671875,-0.9969635009765625,-0.01593017578125,-0.017303466796875
1782970044209159700,1.30215966796875,-0.9990386962890625,-0.01727294921875,-0.016754150390625
1782970044219086600,1.312086669921875,-0.998565673828125,-0.0157012939453125,-0.0178680419921875
1782970044229012700,1.3220126953125,-0.9970855712890625,-0.0172882080078125,-0.0184173583984375
1782970044238938600,1.331938720703125,-0.9973907470703125,-0.0163421630859375,-0.0184478759765625
1782970044248864800,1.34186474609375,-0.9980316162109375,-0.015716552734375,-0.0178680419921875
1782970044258790700,1.351790771484375,-0.9972686767578125,-0.0166168212890625,-0.018035888671875
1782970044268717800,1.3617177734375,-0.997955322265625,-0.01715087890625,-0.018035888671875
1782970044278643700,1.371643798828125,-0.9980316162109375,-0.0162506103515625,-0.0186004638671875
1782970044288569600,1.381569580078125,-0.9971771240234375,-0.0167694091796875,-0.017242431640625
1782970044298495700,1.391495849609375,-0.997467041015625,-0.0174713134765625,-0.0189056396484375
1782970044308421600,1.401421630859375,-0.998321533203125,-0.016937255859375,-0.01806640625
1782970044318348500,1.4113486328125,-0.99810791015625,-0.0160980224609375,-0.0198974609375
1782970044328274700,1.421274658203125,-0.997650146484375,-0.0181427001953125,-0.0188140869140625
1782970044338200600,1.43120068359375,-0.998138427734375,-0.01678466796875,-0.0178680419921875
1782970044348126700,1.441126708984375,-0.9984130859375,-0.0164031982421875,-0.0186920166015625
1782970044358053600,1.4510537109375,-0.998077392578125,-0.0174713134765625,-0.0184783935546875
1782970044367979800,1.460979736328125,-0.9965667724609375,-0.01593017578125,-0.0181427001953125
1782970044377905700,1.47090576171875,-0.9978790283203125,-0.015045166015625,-0.0184478759765625
1782970044387831800,1.480831787109375,-0.9978485107421875,-0.016265869140625,-0.0180206298828125
1782970044397757700,1.4907578125,-0.998199462890625,-0.0156707763671875,-0.018035888671875
1782970044407684600,1.5006845703125,-0.9977569580078125,-0.0169219970703125,-0.0167694091796875
1782970044417610800,1.51061083984375,-0.997711181640625,-0.0163421630859375,-0.017578125
1782970044427536600,1.52053662109375,-0.9972686767578125,-0.0171661376953125,-0.017974853515625
1782970044437463300,1.53046337890625,-0.9988861083984375,-0.0168914794921875,-0.0175628662109375
1782970044447389200,1.54038916015625,-0.9970245361328125,-0.01593017578125,-0.017578125
1782970044457316000,1.550316162109375,-0.997528076171875,-0.0167236328125,-0.01824951171875
1782970044467242200,1.5602421875,-0.99951171875,-0.0166168212890625,-0.018280029296875
1782970044477168000,1.570168212890625,-0.998321533203125,-0.01617431640625,-0.0195159912109375
1782970044487094300,1.58009423828125,-0.9992523193359375,-0.017120361328125,-0.018218994140625
1782970044497021200,1.590021240234375,-0.9969482421875,-0.0165557861328125,-0.0178680419921875
1782970044506947300,1.599947265625,-0.9967803955078125,-0.0152435302734375,-0.0165252685546875
1782970044516873200,1.609873291015625,-0.9990386962890625,-0.0157012939453125,-0.0189361572265625
1782970044526799000,1.619799072265625,-0.99957275390625,-0.0160369873046875,-0.0182952880859375
1782970044536725200,1.629725341796875,-0.9973907470703125,-0.0181732177734375,-0.01885986328125
1782970044546652200,1.639652099609375,-0.9974822998046875,-0.0171051025390625,-0.01739501953125
1782970044556578000,1.649578125,-0.999786376953125,-0.015716552734375,-0.017181396484375
1782970044566504200,1.659504150390625,-0.9986572265625,-0.017974853515625,-0.0168914794921875
1782970044576430000,1.66943017578125,-0.9974365234375,-0.018096923828125,-0.0178375244140625
1782970044586356200,1.679356201171875,-0.9981689453125,-0.015777587890625,-0.018829345703125
1782970044596283100,1.689283203125,-0.997344970703125,-0.016143798828125,-0.0174102783203125
1782970044606209300,1.699209228515625,-0.9986572265625,-0.0159759521484375,-0.019500732421875
1782970044616135200,1.70913525390625,-0.9986419677734375,-0.016754150390625,-0.0186309814453125
1782970044626061300,1.719061279296875,-0.997802734375,-0.016265869140625,-0.01788330078125
1782970044635988200,1.72898828125,-0.99786376953125,-0.0154876708984375,-0.0178680419921875
1782970044645914000,1.7389140625,-0.9979705810546875,-0.01702880859375,-0.0193634033203125
1782970044655840300,1.74884033203125,-0.999114990234375,-0.014312744140625,-0.0191497802734375
1782970044665766100,1.75876611328125,-0.9989471435546875,-0.0162353515625,-0.02008056640625
1782970044675692000,1.768692138671875,-0.9970855712890625,-0.0163421630859375,-0.017852783203125
1782970044685619200,1.778619140625,-0.998565673828125,-0.016754150390625,-0.01873779296875
1782970044695545000,1.788545166015625,-0.9979095458984375,-0.015167236328125,-0.018280029296875
1782970044705471200,1.79847119140625,-0.9972686767578125,-0.0159454345703125,-0.0172271728515625
1782970044715397000,1.808397216796875,-0.9973907470703125,-0.0168609619140625,-0.01788330078125
1782970044725323300,1.8183232421875,-0.997467041015625,-0.01666259765625,-0.0179595947265625
1782970044735250200,1.828250244140625,-0.9984588623046875,-0.01629638671875,-0.0182342529296875
1782970044745176000,1.838176025390625,-0.9979248046875,-0.016326904296875,-0.0186004638671875
1782970044755102200,1.848102294921875,-0.997833251953125,-0.0169525146484375,-0.018310546875
1782970044765028400,1.8580283203125,-0.99713134765625,-0.0174560546875,-0.0185546875
1782970044774955300,1.867955322265625,-0.9979248046875,-0.0169219970703125,-0.017333984375
1782970044784881200,1.877881103515625,-0.9979095458984375,-0.0155029296875,-0.0185546875
1782970044794807300,1.887807373046875,-0.996612548828125,-0.0164337158203125,-0.01824951171875
1782970044804733200,1.897733154296875,-0.9975433349609375,-0.0157012939453125,-0.01708984375
1782970044814659000,1.9076591796875,-0.998077392578125,-0.0176239013671875,-0.01904296875
1782970044824586200,1.917586181640625,-0.997528076171875,-0.016448974609375,-0.0177764892578125
1782970044834512100,1.92751220703125,-0.9972991943359375,-0.0151824951171875,-0.0184173583984375
1782970044844438000,1.93743798828125,-0.9976959228515625,-0.016021728515625,-0.01776123046875
1782970044854364200,1.9473642578125,-0.998565673828125,-0.0162200927734375,-0.0179901123046875
1782970044864290300,1.957290283203125,-0.9976959228515625,-0.0171356201171875,-0.01885986328125
1782970044874217200,1.96721728515625,-0.99688720703125,-0.0177154541015625,-0.01849365234375
1782970044884143000,1.97714306640625,-0.9971771240234375,-0.0163116455078125,-0.019287109375
1782970044894069200,1.9870693359375,-0.998260498046875,-0.0162811279296875,-0.0169219970703125
1782970044903995400,1.996995361328125,-0.99835205078125,-0.0167083740234375,-0.01702880859375
1782970044913922000,2.006922119140625,-0.997772216796875,-0.0169677734375,-0.017303466796875
1782970044923848200,2.01684814453125,-0.9986419677734375,-0.0162811279296875,-0.01837158203125
1782970044933774300,2.0267744140625,-0.996917724609375,-0.0172119140625,-0.0188446044921875
1782970044943700000,2.036699951171875,-0.9985504150390625,-0.016510009765625,-0.0186767578125
1782970044953626000,2.046626220703125,-0.999603271484375,-0.016143798828125,-0.019073486328125
1782970044963553300,2.05655322265625,-0.9977874755859375,-0.015625,-0.0189666748046875
1782970044973479200,2.066479248046875,-0.9989776611328125,-0.01690673828125,-0.018035888671875
1782970044983405000,2.076405029296875,-0.9984130859375,-0.016815185546875,-0.0182952880859375
1782970044993331200,2.086331298828125,-0.998260498046875,-0.0162353515625,-0.017578125
1782970045003257300,2.09625732421875,-0.9982147216796875,-0.0168609619140625,-0.0186004638671875
1782970045013184000,2.10618408203125,-0.99810791015625,-0.017303466796875,-0.0176239013671875
1782970045023110100,2.116110107421875,-0.9982147216796875,-0.0153961181640625,-0.018829345703125
1782970045033036300,2.126036376953125,-0.9983062744140625,-0.0147857666015625,-0.0172576904296875
1782970045042962200,2.135962158203125,-0.9980316162109375,-0.01654052734375,-0.0173187255859375
1782970045052889000,2.14588916015625,-0.9976348876953125,-0.0168609619140625,-0.0180206298828125
1782970045062815200,2.155815185546875,-0.998779296875,-0.0159759521484375,-0.0184478759765625
1782970045072741400,2.165741455078125,-0.99810791015625,-0.016937255859375,-0.0185089111328125
1782970045082667000,2.1756669921875,-0.9979095458984375,-0.0179290771484375,-0.018768310546875
1782970045092593200,2.18559326171875,-0.9970703125,-0.0159149169921875,-0.017181396484375
1782970045102520300,2.195520263671875,-0.996826171875,-0.01611328125,-0.0187530517578125
1782970045112446000,2.205446044921875,-0.9967498779296875,-0.01568603515625,-0.0175323486328125
1782970045122372000,2.2153720703125,-0.998046875,-0.0169525146484375,-0.0175628662109375
1782970045132298200,2.22529833984375,-0.997161865234375,-0.0168914794921875,-0.018310546875
1782970045142224100,2.23522412109375,-0.998870849609375,-0.0175018310546875,-0.0179901123046875
1782970045152151000,2.245151123046875,-0.9985198974609375,-0.0155487060546875,-0.018310546875
1782970045162077200,2.2550771484375,-0.9976959228515625,-0.016845703125,-0.0177459716796875
1782970045172003300,2.26500341796875,-0.997772216796875,-0.0173492431640625,-0.0170440673828125
1782970045181929200,2.27492919921875,-0.998626708984375,-0.017120361328125,-0.018646240234375
1782970045191856000,2.284856201171875,-0.9984130859375,-0.016998291015625,-0.0181427001953125
1782970045201782300,2.2947822265625,-0.999114990234375,-0.01629638671875,-0.017364501953125
1782970045211708200,2.304708251953125,-0.997802734375,-0.01513671875,-0.0190582275390625
1782970045221634000,2.314634033203125,-0.9980010986328125,-0.0164642333984375,-0.01751708984375
1782970045231560200,2.324560302734375,-0.997650146484375,-0.0173797607421875,-0.0181427001953125
1782970045241487400,2.3344873046875,-0.996673583984375,-0.016204833984375,-0.018890380859375
1782970045251413000,2.3444130859375,-0.99871826171875,-0.0165557861328125,-0.01666259765625
1782970045261339100,2.354339111328125,-0.9977874755859375,-0.0171051025390625,-0.0177764892578125
1782970045271265300,2.364265380859375,-0.9969482421875,-0.015045166015625,-0.018951416015625
1782970045281191200,2.374191162109375,-0.9977264404296875,-0.0167236328125,-0.0184173583984375
1782970045291118000,2.3841181640625,-0.9975128173828125,-0.0162811279296875,-0.0180206298828125
1782970045301044200,2.394044189453125,-0.99713134765625,-0.01690673828125,-0.0177764892578125
1782970045310970000,2.40397021484375,-0.99749755859375,-0.01715087890625,-0.0174713134765625
1782970045320896300,2.413896240234375,-0.998016357421875,-0.0166473388671875,-0.0193634033203125
1782970045330822100,2.423822265625,-0.997528076171875,-0.016937255859375,-0.0187225341796875
1782970045340749300,2.433749267578125,-0.998046875,-0.0166473388671875,-0.018707275390625
1782970045350675200,2.44367529296875,-0.9979248046875,-0.0168304443359375,-0.0190887451171875
1782970045360601000,2.45360107421875,-0.998992919921875,-0.0169219970703125,-0.0173797607421875
1782970045370527200,2.46352734375,-0.9982757568359375,-0.015533447265625,-0.0181427001953125
1782970045380454100,2.4734541015625,-0.9993896484375,-0.016326904296875,-0.01776123046875
1782970045390380000,2.483380126953125,-0.9973907470703125,-0.0151214599609375,-0.01873779296875
1782970045400306200,2.49330615234375,-0.998077392578125,-0.0172119140625,-0.0186767578125
1782970045410232000,2.503232177734375,-0.9994354248046875,-0.0167388916015625,-0.01776123046875
1782970045420158200,2.513158203125,-0.9987030029296875,-0.018463134765625,-0.017242431640625
1782970045430085000,2.523085205078125,-0.997314453125,-0.016998291015625,-0.017608642578125
1782970045440011800,2.53301171875,-0.9979248046875,-0.0167694091796875,-0.0168304443359375
1782970045449937700,2.542937744140625,-0.9966583251953125,-0.017608642578125,-0.01812744140625
1782970045459863600,2.552863525390625,-0.998199462890625,-0.0178680419921875,-0.0178985595703125
1782970045469789700,2.562789794921875,-0.998382568359375,-0.0171661376953125,-0.018157958984375
1782970045479716600,2.572716552734375,-0.996734619140625,-0.0175628662109375,-0.0188140869140625
1782970045489642500,2.582642578125,-0.9970855712890625,-0.0163116455078125,-0.01739501953125
1782970045499568600,2.592568603515625,-0.99847412109375,-0.0158538818359375,-0.0183563232421875
1782970045509494500,2.60249462890625,-0.997589111328125,-0.0170440673828125,-0.0172576904296875
1782970045519420700,2.612420654296875,-0.9973297119140625,-0.0164947509765625,-0.0179901123046875
1782970045529347600,2.62234765625,-0.997344970703125,-0.0172119140625,-0.0179901123046875
1782970045539273700,2.632273681640625,-0.99871826171875,-0.017120361328125,-0.0190887451171875
1782970045549199600,2.64219970703125,-0.997100830078125,-0.0170745849609375,-0.0190887451171875
1782970045559125800,2.652125732421875,-0.9970703125,-0.01654052734375,-0.0196380615234375
1782970045569052700,2.662052734375,-0.9984893798828125,-0.016754150390625,-0.017974853515625
1782970045578978600,2.671978515625,-0.997802734375,-0.01678466796875,-0.0188140869140625
1782970045588904700,2.68190478515625,-0.99798583984375,-0.0162506103515625,-0.0184173583984375
1782970045598830600,2.69183056640625,-0.9971160888671875,-0.0166015625,-0.018035888671875
1782970045608756500,2.701756591796875,-0.99847412109375,-0.015960693359375,-0.0179595947265625
1782970045618683600,2.71168359375,-0.9988250732421875,-0.0173187255859375,-0.017730712890625
1782970045628609500,2.721609619140625,-0.998443603515625,-0.01739501953125,-0.0180511474609375
1782970045638535700,2.73153564453125,-0.999542236328125,-0.0159759521484375,-0.0177764892578125
1782970045648461600,2.741461669921875,-0.9972381591796875,-0.0158843994140625,-0.01715087890625
1782970045658387700,2.7513876953125,-0.9970703125,-0.0168304443359375,-0.0181427001953125
1782970045668314600,2.761314697265625,-0.9977569580078125,-0.0164794921875,-0.0181884765625
1782970045678240500,2.771240478515625,-0.9966583251953125,-0.015106201171875,-0.01837158203125
1782970045688166700,2.781166748046875,-0.998291015625,-0.0156707763671875,-0.0183258056640625
1782970045698092800,2.7910927734375,-0.9973297119140625,-0.01611328125,-0.01971435546875
1782970045708018400,2.801018310546875,-0.9971771240234375,-0.015380859375,-0.017822265625
1782970045717945600,2.810945556640625,-0.99725341796875,-0.0157623291015625,-0.0178375244140625
1782970045727871700,2.820871826171875,-0.9967041015625,-0.017425537109375,-0.019073486328125
1782970045737797600,2.830797607421875,-0.998748779296875,-0.017364501953125,-0.018157958984375
1782970045747723500,2.8407236328125,-0.9986724853515625,-0.0186920166015625,-0.017852783203125
1782970045757650700,2.850650634765625,-0.998199462890625,-0.01727294921875,-0.01654052734375
1782970045767576600,2.86057666015625,-0.998809814453125,-0.0177154541015625,-0.017791748046875
1782970045777502500,2.87050244140625,-0.99884033203125,-0.0169219970703125,-0.018829345703125
1782970045787428600,2.8804287109375,-0.997161865234375,-0.01531982421875,-0.0191192626953125
1782970045797354800,2.890354736328125,-0.999114990234375,-0.016448974609375,-0.0178985595703125
1782970045807281700,2.90028173828125,-0.9985504150390625,-0.01513671875,-0.0181732177734375
1782970045817207600,2.91020751953125,-0.9977569580078125,-0.0162353515625,-0.0184326171875
1782970045827133700,2.9201337890625,-0.9974365234375,-0.015533447265625,-0.01971435546875
1782970045837059800,2.930059814453125,-0.997406005859375,-0.0162506103515625,-0.0182342529296875
1782970045846985500,2.9399853515625,-0.9971466064453125,-0.017578125,-0.01788330078125
1782970045856912600,2.94991259765625,-0.9985198974609375,-0.01666259765625,-0.01910400390625
1782970045866838800,2.9598388671875,-0.997589111328125,-0.016204833984375,-0.0186767578125
1782970045876764400,2.969764404296875,-0.9971771240234375,-0.016448974609375,-0.01873779296875
1782970045886690600,2.979690673828125,-0.9987945556640625,-0.0168304443359375,-0.0174560546875
1782970045896616700,2.98961669921875,-0.9979705810546875,-0.017364501953125,-0.0204010009765625
1782970045906543600,2.999543701171875,-0.997222900390625,-0.016571044921875,-0.018280029296875
1782970045916469500,3.009469482421875,-0.9975433349609375,-0.0177459716796875,-0.017669677734375
1782970045926395600,3.019395751953125,-0.9978179931640625,-0.01654052734375,-0.0168914794921875
1782970045936321800,3.02932177734375,-0.997650146484375,-0.0167388916015625,-0.018157958984375
1782970045946248400,3.03924853515625,-0.997589111328125,-0.017364501953125,-0.01806640625
1782970045956174600,3.049174560546875,-0.997955322265625,-0.0167388916015625,-0.018096923828125
1782970045966100700,3.059100830078125,-0.9971160888671875,-0.016876220703125,-0.0186614990234375
1782970045976026600,3.069026611328125,-0.997894287109375,-0.0158538818359375,-0.01849365234375
1782970045985952500,3.078952392578125,-0.9989013671875,-0.017120361328125,-0.01837158203125
1782970045995879700,3.088879638671875,-0.9976959228515625,-0.0162811279296875,-0.018402099609375
1782970046005805800,3.098805908203125,-0.9978179931640625,-0.016998291015625,-0.0191802978515625
1782970046015731500,3.1087314453125,-0.9979400634765625,-0.0160980224609375,-0.01873779296875
1782970046025657600,3.11865771484375,-0.9973907470703125,-0.0152130126953125,-0.01837158203125
1782970046035583700,3.128583740234375,-0.9976348876953125,-0.0156402587890625,-0.0177459716796875
1782970046045510700,3.1385107421875,-0.997039794921875,-0.0160369873046875,-0.019073486328125
1782970046055436500,3.1484365234375,-0.9969940185546875,-0.016845703125,-0.0164947509765625
1782970046065362700,3.15836279296875,-0.997528076171875,-0.0155181884765625,-0.0192108154296875
1782970046075288600,3.16828857421875,-0.998199462890625,-0.0157623291015625,-0.0191192626953125
1782970046085214700,3.178214599609375,-0.9979248046875,-0.0167694091796875,-0.0178375244140625
1782970046095141600,3.1881416015625,-0.996063232421875,-0.014984130859375,-0.0186614990234375
1782970046105067800,3.19806787109375,-0.9974822998046875,-0.0170135498046875,-0.0177001953125
1782970046114993700,3.20799365234375,-0.9983673095703125,-0.0172271728515625,-0.0174407958984375
1782970046124919600,3.21791943359375,-0.9986114501953125,-0.0167388916015625,-0.018096923828125
1782970046134845700,3.227845703125,-0.999114990234375,-0.0171966552734375,-0.0179595947265625
1782970046144772600,3.237772705078125,-0.9975738525390625,-0.017333984375,-0.0173492431640625
1782970046154698500,3.247698486328125,-0.9977874755859375,-0.0165557861328125,-0.0185089111328125
1782970046164624600,3.257624755859375,-0.9976043701171875,-0.016082763671875,-0.01806640625
1782970046174550500,3.267550537109375,-0.9969482421875,-0.01617431640625,-0.0179595947265625
1782970046184477400,3.2774775390625,-0.997711181640625,-0.0164031982421875,-0.017578125
1782970046194403600,3.287403564453125,-0.997650146484375,-0.0168914794921875,-0.0165863037109375
1782970046204329700,3.297329833984375,-0.9970855712890625,-0.01611328125,-0.0168304443359375
1782970046214255600,3.307255615234375,-0.9970703125,-0.0169830322265625,-0.01708984375
1782970046224181800,3.317181640625,-0.9978485107421875,-0.0168609619140625,-0.0187225341796875
1782970046234108700,3.327108642578125,-0.99639892578125,-0.0174713134765625,-0.0198516845703125
1782970046244034600,3.33703466796875,-0.9981689453125,-0.0162353515625,-0.0185089111328125
1782970046253960700,3.346960693359375,-0.9979248046875,-0.0153350830078125,-0.0181884765625
1782970046263886600,3.356886474609375,-0.9983978271484375,-0.0164642333984375,-0.0193939208984375
1782970046273812500,3.3668125,-0.99822998046875,-0.0164337158203125,-0.0200042724609375
1782970046283739600,3.37673974609375,-0.9980316162109375,-0.0178985595703125,-0.0170135498046875
1782970046293665500,3.38666552734375,-0.9966278076171875,-0.015899658203125,-0.017913818359375
1782970046303591700,3.396591796875,-0.9971466064453125,-0.0158538818359375,-0.017486572265625
1782970046313517600,3.406517578125,-0.997283935546875,-0.0168304443359375,-0.0189361572265625
1782970046323443700,3.416443603515625,-0.9992523193359375,-0.0163116455078125,-0.0195770263671875
1782970046333370600,3.42637060546875,-0.997528076171875,-0.015899658203125,-0.0171051025390625
1782970046343296500,3.436296630859375,-0.9979400634765625,-0.0158538818359375,-0.01678466796875
1782970046353222700,3.44622265625,-0.9978485107421875,-0.0162200927734375,-0.017547607421875
1782970046363148800,3.456148681640625,-0.998779296875,-0.01568603515625,-0.0182952880859375
1782970046373075700,3.46607568359375,-0.997955322265625,-0.015899658203125,-0.0189056396484375
1782970046383001600,3.476001708984375,-0.99725341796875,-0.0170440673828125,-0.0198211669921875
1782970046392927700,3.485927734375,-0.9985198974609375,-0.01690673828125,-0.01702880859375
1782970046402853600,3.495853515625,-0.9984130859375,-0.017059326171875,-0.017852783203125
1782970046412779500,3.505779541015625,-0.9976806640625,-0.016357421875,-0.0195159912109375
1782970046422706700,3.515706787109375,-0.9984588623046875,-0.0157623291015625,-0.018035888671875
1782970046432632600,3.525632568359375,-0.9967498779296875,-0.01751708984375,-0.0194549560546875
1782970046442558200,3.53555810546875,-0.99798583984375,-0.0152740478515625,-0.018768310546875
1782970046452484400,3.545484375,-0.9981536865234375,-0.0156707763671875,-0.019287109375
1782970046462410200,3.55541015625,-0.9986572265625,-0.015106201171875,-0.018035888671875
1782970046472337200,3.565337158203125,-0.9975433349609375,-0.0153045654296875,-0.0185546875
1782970046482263300,3.57526318359375,-0.9987030029296875,-0.015625,-0.0177459716796875
1782970046492189200,3.585189208984375,-0.9975433349609375,-0.0148773193359375,-0.0188446044921875
1782970046502115300,3.595115234375,-0.997833251953125,-0.017578125,-0.017333984375
1782970046512041200,3.605041259765625,-0.9979095458984375,-0.0168914794921875,-0.0170135498046875
1782970046521968400,3.614968505859375,-0.9972991943359375,-0.0162811279296875,-0.01763916015625
1782970046531894300,3.624894287109375,-0.9986724853515625,-0.0164947509765625,-0.017181396484375
1782970046541820200,3.634820068359375,-0.99859619140625,-0.017364501953125,-0.0177001953125
1782970046551746300,3.644746337890625,-0.998382568359375,-0.015411376953125,-0.0194091796875
1782970046561673200,3.654673095703125,-0.9967803955078125,-0.01605224609375,-0.019256591796875
1782970046571599400,3.664599365234375,-0.9978179931640625,-0.015594482421875,-0.0181732177734375
1782970046581525200,3.674525146484375,-0.9990692138671875,-0.0172882080078125,-0.0195159912109375
1782970046591451100,3.684451171875,-0.9983062744140625,-0.01654052734375,-0.017791748046875
1782970046601377300,3.694377197265625,-0.9975128173828125,-0.0163116455078125,-0.0189971923828125
1782970046611304200,3.70430419921875,-0.99822998046875,-0.01519775390625,-0.018646240234375
1782970046621230300,3.714230224609375,-0.9986572265625,-0.015625,-0.01788330078125
1782970046631156200,3.72415625,-0.9982757568359375,-0.0169677734375,-0.01806640625
1782970046641082400,3.734082275390625,-0.998260498046875,-0.0167694091796875,-0.0187835693359375
1782970046651008300,3.74400830078125,-0.999786376953125,-0.018890380859375,-0.017730712890625
1782970046660935200,3.75393505859375,-0.99810791015625,-0.016326904296875,-0.01751708984375
1782970046670861300,3.763861328125,-0.9971160888671875,-0.0151824951171875,-0.017913818359375
1782970046680787200,3.773787109375,-0.9983978271484375,-0.016204833984375,-0.0191650390625
1782970046690713000,3.783713134765625,-0.996856689453125,-0.01617431640625,-0.01947021484375
1782970046700639200,3.79363916015625,-0.99658203125,-0.016937255859375,-0.0179595947265625
1782970046710566400,3.80356640625,-0.9968414306640625,-0.0158233642578125,-0.0175018310546875
1782970046720492300,3.8134921875,-0.998291015625,-0.0166473388671875,-0.0176849365234375
1782970046730418200,3.823418212890625,-0.99896240234375,-0.015625,-0.0171661376953125
1782970046740344300,3.83334423828125,-0.998321533203125,-0.015289306640625,-0.018768310546875
1782970046750270500,3.8432705078125,-0.9980621337890625,-0.01678466796875,-0.016326904296875
1782970046760197000,3.853197021484375,-0.9974517822265625,-0.0166473388671875,-0.016571044921875
1782970046770123300,3.863123291015625,-0.9980621337890625,-0.0166473388671875,-0.0176544189453125
1782970046780049400,3.87304931640625,-0.9983673095703125,-0.01629638671875,-0.018829345703125
1782970046789975000,3.88297509765625,-0.9976806640625,-0.018157958984375,-0.01776123046875
1782970046799902200,3.892902099609375,-0.99786376953125,-0.016876220703125,-0.0183868408203125
1782970046809828400,3.902828369140625,-0.9993743896484375,-0.0160369873046875,-0.0187225341796875
1782970046819754200,3.912754150390625,-0.9998626708984375,-0.01513671875,-0.018707275390625
1782970046829680000,3.92268017578125,-0.9964141845703125,-0.0158538818359375,-0.0185546875
1782970046839606300,3.932606201171875,-0.9963226318359375,-0.0176239013671875,-0.0178070068359375
1782970046849533400,3.942533447265625,-0.996490478515625,-0.0164642333984375,-0.019622802734375
1782970046859459000,3.952458984375,-0.9976654052734375,-0.0150909423828125,-0.0190582275390625
1782970046869385200,3.96238525390625,-0.9976959228515625,-0.017181396484375,-0.01776123046875
1782970046879311400,3.972311279296875,-0.998046875,-0.0174713134765625,-0.018829345703125
1782970046889237200,3.9822373046875,-0.9984130859375,-0.0169219970703125,-0.0184783935546875
1782970046899161300,3.992161376953125,-0.9975433349609375,-0.0175628662109375,-0.019256591796875
1782970046909087200,4.002087158203125,-0.99810791015625,-0.0168304443359375,-0.019805908203125
1782970046919014100,4.01201416015625,-0.997802734375,-0.016815185546875,-0.01812744140625
1782970046928940300,4.021940185546875,-0.99786376953125,-0.0165863037109375,-0.0174102783203125
1782970046938866200,4.0318662109375,-0.997802734375,-0.016815185546875,-0.0201873779296875
1782970046948792300,4.041792236328125,-0.997222900390625,-0.016754150390625,-0.017608642578125
1782970046958718200,4.05171826171875,-0.999847412109375,-0.016510009765625,-0.01702880859375
1782970046968645400,4.061645263671875,-0.9997100830078125,-0.016632080078125,-0.018280029296875
1782970046978571300,4.0715712890625,-0.9981842041015625,-0.0178985595703125,-0.0171051025390625
1782970046988497200,4.0814970703125,-0.99871826171875,-0.015472412109375,-0.0187225341796875
1782970046998423300,4.09142333984375,-0.99755859375,-0.0159149169921875,-0.018157958984375
1782970047008350500,4.1013505859375,-0.997314453125,-0.01776123046875,-0.0178375244140625
1782970047018276000,4.111276123046875,-0.998077392578125,-0.016876220703125,-0.0184783935546875
1782970047028202200,4.1212021484375,-0.997650146484375,-0.0169219970703125,-0.018341064453125
1782970047038128000,4.131128173828125,-0.998626708984375,-0.0170440673828125,-0.0186309814453125
1782970047048054300,4.14105419921875,-0.9984588623046875,-0.0169830322265625,-0.01715087890625
1782970047057981200,4.150981201171875,-0.99761962890625,-0.016815185546875,-0.0178070068359375
1782970047067907300,4.1609072265625,-0.9983673095703125,-0.017608642578125,-0.01898193359375
1782970047077833200,4.170833251953125,-0.998870849609375,-0.016632080078125,-0.018157958984375
1782970047087759400,4.18075927734375,-0.998870849609375,-0.015960693359375,-0.017425537109375
1782970047097685200,4.190685302734375,-0.99853515625,-0.016387939453125,-0.0184783935546875
1782970047107612400,4.2006123046875,-0.9969024658203125,-0.0163421630859375,-0.0180511474609375
1782970047117538300,4.210538330078125,-0.9980010986328125,-0.017303466796875,-0.0186309814453125
1782970047127464200,4.220464111328125,-0.9972686767578125,-0.017242431640625,-0.017059326171875
1782970047137390300,4.230390380859375,-0.9969940185546875,-0.016632080078125,-0.0178680419921875
1782970047147316200,4.240316162109375,-0.9968414306640625,-0.0166015625,-0.0190277099609375
1782970047157243100,4.2502431640625,-0.9983673095703125,-0.01666259765625,-0.019927978515625
1782970047167169300,4.260169189453125,-0.9976806640625,-0.0174560546875,-0.01629638671875
1782970047177095200,4.27009521484375,-0.9976959228515625,-0.0161590576171875,-0.018035888671875
1782970047187021300,4.280021240234375,-0.9989776611328125,-0.0157012939453125,-0.019256591796875
1782970047196947500,4.289947509765625,-0.9976654052734375,-0.015655517578125,-0.0179595947265625
1782970047206874400,4.299874267578125,-0.9978179931640625,-0.01666259765625,-0.0180511474609375
1782970047216800300,4.30980029296875,-0.9981842041015625,-0.01519775390625,-0.018646240234375
1782970047226726400,4.319726318359375,-0.99627685546875,-0.0154876708984375,-0.019866943359375
1782970047236652300,4.32965234375,-0.9976959228515625,-0.0157318115234375,-0.01776123046875
1782970047246579200,4.3395791015625,-0.9976043701171875,-0.016326904296875,-0.0188140869140625
1782970047256505300,4.34950537109375,-0.9974822998046875,-0.0161895751953125,-0.017578125
1782970047266431200,4.35943115234375,-0.997222900390625,-0.0169219970703125,-0.017364501953125
1782970047276357000,4.369357177734375,-0.997650146484375,-0.0162353515625,-0.0176849365234375
1782970047286283300,4.379283203125,-0.998138427734375,-0.0163726806640625,-0.0188446044921875
1782970047296210200,4.389210205078125,-0.9975738525390625,-0.0167999267578125,-0.0183868408203125
1782970047306136300,4.39913623046875,-0.9977874755859375,-0.017059326171875,-0.0184326171875
1782970047316063200,4.409063232421875,-0.9969940185546875,-0.0155029296875,-0.0168609619140625
1782970047325989000,4.418989013671875,-0.9974365234375,-0.0156707763671875,-0.018402099609375
1782970047335915300,4.428915283203125,-0.9987030029296875,-0.015594482421875,-0.01922607421875
1782970047345841200,4.438841064453125,-0.997314453125,-0.0165557861328125,-0.017822265625
1782970047355768300,4.448768310546875,-0.99688720703125,-0.017547607421875,-0.0182037353515625
1782970047365694200,4.458694091796875,-0.9969940185546875,-0.0166015625,-0.0185089111328125
1782970047375620400,4.468620361328125,-0.9979095458984375,-0.017242431640625,-0.018707275390625
1782970047385546200,4.478546142578125,-0.9980010986328125,-0.0176239013671875,-0.0185394287109375
1782970047395472400,4.488472412109375,-0.9994659423828125,-0.014617919921875,-0.0178985595703125
1782970047405399300,4.4983994140625,-0.995849609375,-0.016937255859375,-0.017425537109375
1782970047415325200,4.5083251953125,-0.997528076171875,-0.0165252685546875,-0.019134521484375
1782970047425251300,4.518251220703125,-0.99700927734375,-0.0159759521484375,-0.019439697265625
1782970047435177200,4.52817724609375,-0.9973297119140625,-0.0164794921875,-0.0174407958984375
1782970047445103600,4.538103515625,-0.996795654296875,-0.0170440673828125,-0.01727294921875
1782970047455030800,4.54803076171875,-0.99749755859375,-0.016357421875,-0.0178680419921875
1782970047464956400,4.557956298828125,-0.998931884765625,-0.015228271484375,-0.0190887451171875
1782970047474882600,4.567882568359375,-0.9972991943359375,-0.01654052734375,-0.0184783935546875
1782970047484808700,4.57780859375,-0.996826171875,-0.01751708984375,-0.0179901123046875
1782970047494734600,4.587734619140625,-0.9966278076171875,-0.0174407958984375,-0.0174102783203125
1782970047504661500,4.59766162109375,-0.9952545166015625,-0.0174713134765625,-0.0164642333984375
1782970047514587600,4.607587646484375,-0.9987335205078125,-0.0165252685546875,-0.0180511474609375
1782970047524513800,4.617513671875,-0.995941162109375,-0.015960693359375,-0.017486572265625
1782970047534439700,4.627439697265625,-0.997528076171875,-0.0162506103515625,-0.01788330078125
1782970047544366600,4.63736669921875,-0.9979248046875,-0.0157470703125,-0.019317626953125
1782970047554292700,4.647292724609375,-0.9989471435546875,-0.0158843994140625,-0.019439697265625
1782970047564218600,4.657218505859375,-0.9950408935546875,-0.0167999267578125,-0.0159149169921875
1782970047574144500,4.66714453125,-0.9981689453125,-0.0150909423828125,-0.0183258056640625
1782970047584070700,4.677070556640625,-0.99774169921875,-0.0164947509765625,-0.0187530517578125
1782970047593997800,4.686997802734375,-0.997894287109375,-0.015960693359375,-0.0188446044921875
1782970047603923500,4.69692333984375,-0.997406005859375,-0.017059326171875,-0.019012451171875
1782970047613849600,4.706849609375,-0.9967193603515625,-0.01617431640625,-0.0178680419921875
1782970047623775700,4.716775634765625,-0.9988555908203125,-0.0151824951171875,-0.018768310546875
1782970047633701600,4.72670166015625,-0.99639892578125,-0.01800537109375,-0.0173492431640625
1782970047643628500,4.736628662109375,-1.00018310546875,-0.01617431640625,-0.0186920166015625
1782970047653554700,4.7465546875,-0.9969482421875,-0.01678466796875,-0.01605224609375
1782970047663480600,4.75648046875,-1.0003204345703125,-0.0160064697265625,-0.0178375244140625
1782970047673406700,4.76640673828125,-0.9965362548828125,-0.0172576904296875,-0.01910400390625
1782970047683332600,4.77633251953125,-0.99951171875,-0.0167083740234375,-0.017730712890625
1782970047693259800,4.786259765625,-0.9974365234375,-0.0167694091796875,-0.0172271728515625
1782970047703185700,4.796185546875,-0.9981536865234375,-0.0160369873046875,-0.017608642578125
1782970047713111600,4.806111572265625,-0.997833251953125,-0.0159149169921875,-0.015960693359375
1782970047723037700,4.81603759765625,-0.9986419677734375,-0.016937255859375,-0.0185546875
1782970047732964600,4.825964599609375,-0.9976348876953125,-0.0152587890625,-0.0186309814453125
1782970047742890500,4.835890380859375,-0.9985504150390625,-0.0164642333984375,-0.017181396484375
1782970047752816600,4.845816650390625,-0.996978759765625,-0.017242431640625,-0.0179595947265625
1782970047762742500,4.855742431640625,-0.9976959228515625,-0.0173187255859375,-0.019134521484375
1782970047772668700,4.865668701171875,-0.998626708984375,-0.0164337158203125,-0.018218994140625
1782970047782595600,4.875595703125,-0.998779296875,-0.0159912109375,-0.0171051025390625
1782970047792521700,4.885521728515625,-0.99798583984375,-0.016998291015625,-0.0191192626953125
1782970047802447600,4.895447509765625,-0.996124267578125,-0.0166015625,-0.0188446044921875
1782970047812373800,4.905373779296875,-0.9982757568359375,-0.0166168212890625,-0.0180511474609375
1782970047822299600,4.915299560546875,-0.9984893798828125,-0.0178070068359375,-0.0180511474609375
1782970047832226600,4.9252265625,-0.997406005859375,-0.0167388916015625,-0.017913818359375
1782970047842152700,4.935152587890625,-0.997039794921875,-0.01611328125,-0.018310546875
1782970047852078600,4.94507861328125,-0.996795654296875,-0.0165863037109375,-0.01885986328125
1782970047862004500,4.95500439453125,-0.997467041015625,-0.0160369873046875,-0.017791748046875
1782970047871930600,4.9649306640625,-0.9972381591796875,-0.01690673828125,-0.016387939453125
1782970047881857500,4.974857421875,-0.997222900390625,-0.016326904296875,-0.0172271728515625
1782970047891783700,4.98478369140625,-0.9969940185546875,-0.01629638671875,-0.017608642578125
1782970047901709600,4.99470947265625,-0.9965362548828125,-0.016143798828125,-0.0181884765625
1782970047911635700,5.0046357421875,-0.9968719482421875,-0.0177459716796875,-0.0193634033203125
1782970047921561600,5.0145615234375,-0.9978790283203125,-0.01556396484375,-0.0175018310546875
1782970047931488500,5.024488525390625,-0.9978179931640625,-0.016357421875,-0.0185394287109375
1782970047941414700,5.03441455078125,-0.99847412109375,-0.0176544189453125,-0.0188446044921875
1782970047951340800,5.0443408203125,-0.9987030029296875,-0.0159759521484375,-0.0184326171875
1782970047961266400,5.054266357421875,-0.99700927734375,-0.015350341796875,-0.0180206298828125
1782970047971192600,5.064192626953125,-0.9985198974609375,-0.015411376953125,-0.018310546875
1782970047981119700,5.07411962890625,-0.996826171875,-0.0168304443359375,-0.0182647705078125
1782970047991045600,5.084045654296875,-0.997314453125,-0.0173797607421875,-0.018798828125
1782970048000971500,5.093971435546875,-0.9993896484375,-0.0167236328125,-0.0170745849609375
1782970048010897700,5.103897705078125,-0.9990234375,-0.016143798828125,-0.0182952880859375
1782970048020823800,5.11382373046875,-0.99871826171875,-0.0167236328125,-0.018585205078125
1782970048030750500,5.12375048828125,-0.998626708984375,-0.0161285400390625,-0.0189361572265625
1782970048040676600,5.133676513671875,-0.9971923828125,-0.0157470703125,-0.01800537109375
1782970048050602800,5.143602783203125,-0.996063232421875,-0.0162811279296875,-0.017974853515625
1782970048060528600,5.153528564453125,-0.997406005859375,-0.0164642333984375,-0.018646240234375
1782970048070455600,5.16345556640625,-0.9983673095703125,-0.015411376953125,-0.0188751220703125
1782970048080381700,5.173381591796875,-0.9985504150390625,-0.0164031982421875,-0.0177154541015625
1782970048090307800,5.183307861328125,-0.996856689453125,-0.016510009765625,-0.0181121826171875
1782970048100233500,5.1932333984375,-0.9968414306640625,-0.0162811279296875,-0.0179443359375
1782970048110159600,5.20315966796875,-0.9987030029296875,-0.01580810546875,-0.0166473388671875
1782970048120086800,5.213086669921875,-0.997406005859375,-0.0159912109375,-0.017822265625
1782970048130012700,5.2230126953125,-0.998931884765625,-0.0161590576171875,-0.0189666748046875
1782970048139938600,5.2329384765625,-0.9969940185546875,-0.0153656005859375,-0.01861572265625
1782970048149864700,5.24286474609375,-0.9980010986328125,-0.0167999267578125,-0.018524169921875
1782970048159790600,5.25279052734375,-0.9987030029296875,-0.0169219970703125,-0.0176849365234375
1782970048169717500,5.262717529296875,-0.99847412109375,-0.01666259765625,-0.018524169921875
1782970048179643600,5.2726435546875,-0.9993133544921875,-0.0164642333984375,-0.017669677734375
1782970048189569800,5.28256982421875,-0.9979095458984375,-0.0171356201171875,-0.018524169921875
1782970048199495700,5.29249560546875,-0.9980621337890625,-0.015960693359375,-0.0190582275390625
1782970048209421600,5.302421630859375,-0.997955322265625,-0.01702880859375,-0.018341064453125
1782970048219348700,5.3123486328125,-0.997772216796875,-0.016815185546875,-0.01812744140625
1782970048229274600,5.322274658203125,-0.9974822998046875,-0.017333984375,-0.017333984375
1782970048239200500,5.332200439453125,-0.9979248046875,-0.0171661376953125,-0.0168914794921875
1782970048249126700,5.342126708984375,-0.9982757568359375,-0.017425537109375,-0.018463134765625
1782970048259052500,5.352052490234375,-0.997589111328125,-0.0172576904296875,-0.0180816650390625
1782970048268979500,5.3619794921875,-0.9979400634765625,-0.01763916015625,-0.0184326171875
1782970048278905600,5.371905517578125,-0.99884033203125,-0.0166168212890625,-0.017852783203125
1782970048288831700,5.381831787109375,-0.9976654052734375,-0.0162811279296875,-0.0188140869140625
1782970048298757600,5.391757568359375,-0.9981231689453125,-0.01611328125,-0.01708984375
1782970048308683500,5.40168359375,-0.9973907470703125,-0.016357421875,-0.017547607421875
1782970048318610700,5.411610595703125,-0.9975433349609375,-0.016143798828125,-0.0183868408203125
1782970048328536800,5.421536865234375,-0.99810791015625,-0.017181396484375,-0.0177764892578125
1782970048338462500,5.43146240234375,-0.997589111328125,-0.0163421630859375,-0.018463134765625
1782970048348388600,5.441388671875,-0.99774169921875,-0.01513671875,-0.017608642578125
1782970048358314500,5.451314453125,-0.996734619140625,-0.017120361328125,-0.018035888671875
1782970048368241700,5.46124169921875,-0.9989013671875,-0.016632080078125,-0.0193634033203125
1782970048378167600,5.47116748046875,-0.9979248046875,-0.016845703125,-0.0183868408203125
1782970048388093700,5.48109375,-0.9992828369140625,-0.0175628662109375,-0.0179290771484375
1782970048398019600,5.49101953125,-0.9985504150390625,-0.0166778564453125,-0.01885986328125
1782970048407946500,5.500946533203125,-0.99761962890625,-0.017303466796875,-0.0180816650390625
1782970048417872600,5.51087255859375,-0.9971923828125,-0.017791748046875,-0.018218994140625
1782970048427798800,5.520798828125,-0.9971466064453125,-0.017669677734375,-0.018035888671875
1782970048437724700,5.530724609375,-0.9987640380859375,-0.0166473388671875,-0.016937255859375
1782970048447650300,5.540650390625,-0.997314453125,-0.017333984375,-0.0176849365234375
1782970048457577200,5.5505771484375,-0.9981689453125,-0.016082763671875,-0.017364501953125
1782970048467503000,5.560503173828125,-0.9992218017578125,-0.0166015625,-0.0188446044921875
1782970048477429200,5.57042919921875,-0.9975128173828125,-0.01678466796875,-0.018585205078125
1782970048487355100,5.580355224609375,-0.9988250732421875,-0.01641845703125,-0.017608642578125
1782970048497281000,5.590281005859375,-0.997528076171875,-0.017425537109375,-0.016845703125
1782970048507208200,5.600208251953125,-0.99774169921875,-0.01708984375,-0.0183258056640625
1782970048517134000,5.610134033203125,-0.9965667724609375,-0.0155792236328125,-0.0180206298828125
1782970048527060200,5.620060302734375,-0.9990997314453125,-0.01611328125,-0.0175323486328125
1782970048536986000,5.629986083984375,-0.9975433349609375,-0.0165863037109375,-0.0156402587890625
1782970048546912300,5.639912353515625,-0.997894287109375,-0.0147247314453125,-0.0177459716796875
1782970048556839200,5.649839111328125,-0.9982147216796875,-0.0154876708984375,-0.017333984375
1782970048566765000,5.65976513671875,-0.9986419677734375,-0.0178070068359375,-0.0181884765625
1782970048576691200,5.669691162109375,-0.9977569580078125,-0.0168609619140625,-0.01812744140625
1782970048586617300,5.679617431640625,-0.9964141845703125,-0.016998291015625,-0.0176239013671875
1782970048596543000,5.68954296875,-0.997314453125,-0.0169219970703125,-0.0204620361328125
1782970048606470100,5.69947021484375,-0.999237060546875,-0.0162353515625,-0.018829345703125
1782970048616396300,5.709396240234375,-0.998870849609375,-0.01678466796875,-0.0181427001953125
1782970048626322200,5.719322265625,-0.9981536865234375,-0.0167999267578125,-0.0182647705078125
1782970048636248000,5.729248046875,-0.997894287109375,-0.0150299072265625,-0.0182647705078125
1782970048646174200,5.73917431640625,-0.998046875,-0.0161285400390625,-0.0198822021484375
1782970048656101000,5.74910107421875,-0.9972991943359375,-0.01507568359375,-0.0185394287109375
1782970048666027000,5.759027099609375,-0.997344970703125,-0.015533447265625,-0.0173492431640625
1782970048675953200,5.768953125,-0.9973907470703125,-0.016357421875,-0.0188446044921875
1782970048685879300,5.77887939453125,-0.998046875,-0.0186767578125,-0.019439697265625
1782970048695805200,5.78880517578125,-0.9983978271484375,-0.016998291015625,-0.018310546875
1782970048705732000,5.798732177734375,-0.997467041015625,-0.0169677734375,-0.0192413330078125
1782970048715658200,5.808658203125,-0.997589111328125,-0.0169525146484375,-0.0179443359375
1782970048725584400,5.81858447265625,-0.9972991943359375,-0.0161285400390625,-0.0179290771484375
1782970048735510000,5.828510009765625,-0.9984130859375,-0.017730712890625,-0.0197906494140625
1782970048745437200,5.838437255859375,-0.998321533203125,-0.0172271728515625,-0.0189208984375
1782970048755363300,5.84836328125,-0.998260498046875,-0.016357421875,-0.0176544189453125
1782970048765289000,5.8582890625,-0.9994659423828125,-0.016693115234375,-0.0180511474609375
1782970048775215000,5.868215087890625,-0.9984283447265625,-0.0158538818359375,-0.0186614990234375
1782970048785141200,5.878141357421875,-0.9980926513671875,-0.0166168212890625,-0.0184478759765625
1782970048795068200,5.888068115234375,-0.997283935546875,-0.0167999267578125,-0.0181121826171875
1782970048804994000,5.897994140625,-0.9980621337890625,-0.0169830322265625,-0.017578125
1782970048814920200,5.907920166015625,-0.99755859375,-0.0167999267578125,-0.01824951171875
1782970048824846300,5.917846435546875,-0.99835205078125,-0.01666259765625,-0.0187530517578125
1782970048834772200,5.927772216796875,-0.99835205078125,-0.0152587890625,-0.018402099609375
1782970048844699100,5.93769921875,-0.9978485107421875,-0.01605224609375,-0.0193939208984375
1782970048854625300,5.947625244140625,-0.997589111328125,-0.01739501953125,-0.0189056396484375
1782970048864551200,5.95755126953125,-0.9959869384765625,-0.0166015625,-0.0175018310546875
1782970048874477000,5.96747705078125,-0.9970703125,-0.0157012939453125,-0.018035888671875
1782970048884403200,5.9774033203125,-0.998443603515625,-0.01690673828125,-0.0181427001953125
1782970048894330400,5.987330322265625,-0.99786376953125,-0.01666259765625,-0.018585205078125
1782970048904256000,5.997256103515625,-0.9981689453125,-0.014984130859375,-0.0192413330078125
1782970048914182100,6.00718212890625,-0.9994964599609375,-0.0157470703125,-0.0188751220703125
1782970048924108300,6.0171083984375,-0.997802734375,-0.0179443359375,-0.0189056396484375
1782970048934034200,6.0270341796875,-0.99810791015625,-0.0174560546875,-0.0173492431640625
1782970048943961000,6.036961181640625,-0.9974365234375,-0.0169830322265625,-0.0186004638671875
1782970048953887200,6.04688720703125,-0.9987030029296875,-0.015899658203125,-0.0184326171875
1782970048963813000,6.056813232421875,-0.9976959228515625,-0.0165557861328125,-0.0171661376953125
1782970048973739300,6.0667392578125,-0.9972076416015625,-0.0172576904296875,-0.018707275390625
1782970048983665200,6.0766650390625,-0.9974517822265625,-0.0160064697265625,-0.018280029296875
1782970048993592300,6.08659228515625,-0.9988555908203125,-0.0164794921875,-0.01910400390625
1782970049003518200,6.096518310546875,-0.9974212646484375,-0.0150604248046875,-0.017822265625
1782970049013444000,6.106444091796875,-0.997283935546875,-0.0164337158203125,-0.0182647705078125
1782970049023370200,6.116370361328125,-0.99859619140625,-0.0150299072265625,-0.0180206298828125
1782970049033296100,6.126296142578125,-0.9980010986328125,-0.015960693359375,-0.0172271728515625
1782970049043223000,6.13622314453125,-0.9993438720703125,-0.0164337158203125,-0.0184326171875
1782970049053149200,6.146149169921875,-0.996673583984375,-0.0169219970703125,-0.0183258056640625
1782970049063075000,6.156074951171875,-0.9973297119140625,-0.0169830322265625,-0.0189971923828125
1782970049073001200,6.166001220703125,-0.996307373046875,-0.0160064697265625,-0.0178070068359375
1782970049082927000,6.175927001953125,-0.99798583984375,-0.01568603515625,-0.0178070068359375
1782970049092854300,6.185854248046875,-0.9988861083984375,-0.01513671875,-0.0184173583984375
1782970049102780200,6.1957802734375,-0.9976654052734375,-0.0166015625,-0.0177154541015625
1782970049112706300,6.205706298828125,-0.9970855712890625,-0.017608642578125,-0.017852783203125
1782970049122632200,6.215632080078125,-0.9969024658203125,-0.016510009765625,-0.0179443359375
1782970049132559000,6.22555908203125,-0.9973602294921875,-0.0158843994140625,-0.016571044921875
1782970049142485200,6.2354853515625,-0.9977874755859375,-0.0164794921875,-0.0192108154296875
1782970049152411100,6.2454111328125,-0.998046875,-0.017913818359375,-0.0177001953125
1782970049162337000,6.2553369140625,-0.996551513671875,-0.01690673828125,-0.018035888671875
1782970049172263200,6.26526318359375,-0.997344970703125,-0.016937255859375,-0.0178070068359375
1782970049182190000,6.275190185546875,-0.9984893798828125,-0.0164794921875,-0.0182647705078125
1782970049192116200,6.2851162109375,-0.9966888427734375,-0.016998291015625,-0.018035888671875
1782970049202042000,6.2950419921875,-0.99884033203125,-0.0164337158203125,-0.019439697265625
1782970049211968300,6.30496826171875,-0.9993438720703125,-0.015625,-0.0176239013671875
1782970049221894100,6.31489404296875,-0.99835205078125,-0.0169525146484375,-0.0184173583984375
1782970049231821000,6.324821044921875,-0.9984130859375,-0.0166168212890625,-0.0172271728515625
1782970049241747200,6.334747314453125,-0.997528076171875,-0.016876220703125,-0.0177001953125
1782970049251673300,6.34467333984375,-0.9974517822265625,-0.0161590576171875,-0.016998291015625
1782970049261599000,6.354598876953125,-0.99810791015625,-0.01593017578125,-0.0187530517578125
1782970049271525000,6.364525146484375,-0.99761962890625,-0.016510009765625,-0.0189666748046875
1782970049281452300,6.374452392578125,-0.9971923828125,-0.01666259765625,-0.0168914794921875
1782970049291378200,6.384378173828125,-0.9979248046875,-0.0164947509765625,-0.018280029296875
1782970049301304000,6.394303955078125,-0.9980621337890625,-0.0169677734375,-0.0183868408203125
1782970049311230200,6.404230224609375,-0.9966278076171875,-0.0169677734375,-0.0177154541015625
1782970049321156400,6.41415625,-0.9975738525390625,-0.0166168212890625,-0.018768310546875
1782970049331083000,6.4240830078125,-0.9980926513671875,-0.0172882080078125,-0.0188751220703125
1782970049341009200,6.434009033203125,-0.9980621337890625,-0.016845703125,-0.018463134765625
1782970049350935300,6.443935302734375,-0.9967041015625,-0.0159912109375,-0.0174407958984375
1782970049360861200,6.453861083984375,-0.9982452392578125,-0.0153656005859375,-0.0189666748046875
1782970049370787000,6.463787109375,-0.9966888427734375,-0.0167388916015625,-0.0182952880859375
1782970049380714200,6.47371435546875,-0.9976806640625,-0.0153961181640625,-0.0168304443359375
1782970049390640400,6.483640380859375,-0.9972076416015625,-0.0159149169921875,-0.01763916015625
1782970049400566000,6.49356591796875,-0.998138427734375,-0.0172119140625,-0.017669677734375
1782970049410492200,6.5034921875,-0.997772216796875,-0.016021728515625,-0.017852783203125
1782970049420418300,6.513418212890625,-0.9972686767578125,-0.0171661376953125,-0.0181884765625
1782970049430345000,6.523344970703125,-0.9974212646484375,-0.01629638671875,-0.019927978515625
1782970049440271000,6.53327099609375,-0.998199462890625,-0.016845703125,-0.019195556640625
1782970049450197000,6.543197021484375,-0.9982147216796875,-0.0160675048828125,-0.0180206298828125
1782970049460123000,6.553122802734375,-0.9974822998046875,-0.0175628662109375,-0.01751708984375
1782970049470049000,6.563049072265625,-0.997467041015625,-0.0177001953125,-0.018798828125
1782970049479976000,6.572975830078125,-0.9984588623046875,-0.015899658203125,-0.0184173583984375
1782970049489901800,6.58290185546875,-0.9980621337890625,-0.016357421875,-0.01885986328125
1782970049499828000,6.592827880859375,-0.9976043701171875,-0.0171661376953125,-0.0164031982421875
1782970049509753900,6.60275390625,-0.9974517822265625,-0.0174560546875,-0.0184326171875
1782970049519679700,6.6126796875,-0.9978485107421875,-0.017486572265625,-0.01800537109375
1782970049529607000,6.62260693359375,-0.9971466064453125,-0.016204833984375,-0.01678466796875
1782970049539532800,6.63253271484375,-0.99774169921875,-0.0155181884765625,-0.0179443359375
1782970049549459000,6.642458984375,-0.9979705810546875,-0.016754150390625,-0.01873779296875
1782970049559384800,6.652384765625,-0.998992919921875,-0.017333984375,-0.0196380615234375
1782970049569311700,6.662311767578125,-0.9980926513671875,-0.018341064453125,-0.018402099609375
1782970049579238000,6.67223779296875,-0.9961090087890625,-0.01715087890625,-0.0183258056640625
1782970049589163800,6.682163818359375,-0.996734619140625,-0.0150909423828125,-0.01971435546875
1782970049599090000,6.69208984375,-0.9978179931640625,-0.015289306640625,-0.01922607421875
1782970049609016000,6.70201611328125,-0.99755859375,-0.01708984375,-0.019989013671875
1782970049618943000,6.71194287109375,-0.996337890625,-0.01513671875,-0.01812744140625
1782970049628868900,6.721868896484375,-0.9974517822265625,-0.01580810546875,-0.019622802734375
1782970049638795000,6.731794921875,-0.99810791015625,-0.015350341796875,-0.0172271728515625
1782970049648721000,6.741720947265625,-0.998382568359375,-0.0175628662109375,-0.0178680419921875
1782970049658646800,6.751646728515625,-0.9981536865234375,-0.016571044921875,-0.0172271728515625
1782970049668574000,6.761573974609375,-0.9986114501953125,-0.0178375244140625,-0.0175323486328125
1782970049678499800,6.771499755859375,-0.9954376220703125,-0.016693115234375,-0.01837158203125
1782970049688425700,6.78142578125,-0.9978485107421875,-0.0166778564453125,-0.019134521484375
1782970049698351900,6.791351806640625,-0.9982147216796875,-0.0157928466796875,-0.019775390625
1782970049708278000,6.801278076171875,-0.9980010986328125,-0.01727294921875,-0.01849365234375
1782970049718205000,6.811204833984375,-0.998870849609375,-0.0167999267578125,-0.0183258056640625
1782970049728130800,6.821130859375,-0.9972076416015625,-0.0165252685546875,-0.01898193359375
1782970049738057000,6.831056884765625,-0.9976654052734375,-0.016265869140625,-0.0200042724609375
1782970049747983000,6.840983154296875,-0.9970245361328125,-0.0157470703125,-0.0189971923828125
1782970049757908700,6.85090869140625,-0.9976806640625,-0.015594482421875,-0.019439697265625
1782970049767836000,6.8608359375,-0.9981231689453125,-0.0172119140625,-0.0174560546875
1782970049777762000,6.870761962890625,-0.9983673095703125,-0.0156097412109375,-0.01806640625
1782970049787687700,6.880687744140625,-0.9975738525390625,-0.0172576904296875,-0.0185089111328125
1782970049797613800,6.89061376953125,-0.99835205078125,-0.017730712890625,-0.018280029296875
1782970049807540000,6.9005400390625,-0.99774169921875,-0.01715087890625,-0.0188751220703125
1782970049817467000,6.910466796875,-0.9979705810546875,-0.0155029296875,-0.01873779296875
1782970049827392800,6.920392822265625,-0.99761962890625,-0.016998291015625,-0.0195465087890625
1782970049837319000,6.93031884765625,-0.997589111328125,-0.017333984375,-0.0192108154296875
1782970049847245000,6.9402451171875,-0.9980316162109375,-0.0166778564453125,-0.0187835693359375
1782970049857171000,6.9501708984375,-0.99700927734375,-0.0165863037109375,-0.0178985595703125
1782970049867097900,6.960097900390625,-0.9970703125,-0.0164337158203125,-0.016571044921875
1782970049877024000,6.97002392578125,-0.9996337890625,-0.0161285400390625,-0.0178070068359375
1782970049886950000,6.979949951171875,-0.9983978271484375,-0.0160064697265625,-0.01690673828125
1782970049896875800,6.989875732421875,-0.998016357421875,-0.0160675048828125,-0.0179290771484375
1782970049906802000,6.999802001953125,-0.9987640380859375,-0.016998291015625,-0.0185546875
1782970049916729000,7.00972900390625,-0.998748779296875,-0.0172119140625,-0.01763916015625
1782970049926654700,7.01965478515625,-0.996856689453125,-0.0178375244140625,-0.0186920166015625
1782970049936580900,7.029580810546875,-0.9969024658203125,-0.014801025390625,-0.0188751220703125
1782970049946507000,7.039507080078125,-0.998382568359375,-0.0164794921875,-0.01861572265625
1782970049956433000,7.049432861328125,-0.9968719482421875,-0.0174102783203125,-0.0186614990234375
1782970049966359800,7.05935986328125,-0.9979705810546875,-0.01702880859375,-0.019256591796875
1782970049976286000,7.069285888671875,-0.998077392578125,-0.017303466796875,-0.0196380615234375
1782970049986211800,7.0792119140625,-0.9993896484375,-0.015716552734375,-0.0181427001953125
1782970049996138000,7.089137939453125,-0.9970245361328125,-0.0163421630859375,-0.0175628662109375
1782970050006065000,7.09906494140625,-0.99688720703125,-0.0166473388671875,-0.0185546875
1782970050015991000,7.108990966796875,-0.9964447021484375,-0.0167236328125,-0.0188140869140625
1782970050025917000,7.1189169921875,-0.998504638671875,-0.016693115234375,-0.0177001953125
1782970050035842800,7.1288427734375,-0.997283935546875,-0.0159912109375,-0.0168609619140625
1782970050045769000,7.13876904296875,-0.997894287109375,-0.0171966552734375,-0.0177459716796875
1782970050055696000,7.14869580078125,-0.998443603515625,-0.0165863037109375,-0.019378662109375
1782970050065621800,7.158621826171875,-0.9973602294921875,-0.016998291015625,-0.0184326171875
1782970050075548000,7.1685478515625,-0.998199462890625,-0.018035888671875,-0.0180816650390625
1782970050085473800,7.178473876953125,-0.9970245361328125,-0.0161895751953125,-0.0174407958984375
1782970050095400000,7.18839990234375,-0.99688720703125,-0.01531982421875,-0.0187225341796875
1782970050105326800,7.198326904296875,-0.9985198974609375,-0.0168914794921875,-0.019775390625
1782970050115253000,7.2082529296875,-0.99932861328125,-0.017181396484375,-0.0185546875
1782970050125179000,7.218178955078125,-0.998382568359375,-0.0147705078125,-0.0172576904296875
1782970050135104800,7.228104736328125,-0.9981689453125,-0.017242431640625,-0.01904296875
1782970050145031000,7.238031005859375,-0.998016357421875,-0.0175323486328125,-0.0179290771484375
1782970050154957800,7.247957763671875,-0.9985809326171875,-0.016571044921875,-0.018524169921875
1782970050164884000,7.257884033203125,-0.9974365234375,-0.0173492431640625,-0.0185394287109375
1782970050174809900,7.267809814453125,-0.9984588623046875,-0.0158843994140625,-0.016357421875
1782970050184735700,7.27773583984375,-0.99725341796875,-0.0155181884765625,-0.0182037353515625
1782970050194662000,7.287661865234375,-0.997833251953125,-0.016815185546875,-0.0186004638671875
1782970050204588800,7.2975888671875,-0.997528076171875,-0.0159912109375,-0.01861572265625
1782970050214515000,7.307514892578125,-0.9966278076171875,-0.016815185546875,-0.01947021484375
1782970050224440800,7.31744091796875,-0.996307373046875,-0.0172882080078125,-0.0173492431640625
1782970050234367000,7.327366943359375,-1.0000152587890625,-0.0160980224609375,-0.0195159912109375
1782970050244292900,7.33729296875,-0.9994964599609375,-0.0183258056640625,-0.0187530517578125
1782970050254219800,7.3472197265625,-0.9980926513671875,-0.0178375244140625,-0.0179901123046875
1782970050264146000,7.35714599609375,-0.997283935546875,-0.0164031982421875,-0.0178985595703125
1782970050274071800,7.36707177734375,-0.9977874755859375,-0.015899658203125,-0.0179443359375
1782970050283997700,7.376997802734375,-0.9980621337890625,-0.01593017578125,-0.01849365234375
1782970050293923800,7.386923828125,-0.9972076416015625,-0.0164337158203125,-0.01788330078125
1782970050303851000,7.39685107421875,-0.9979705810546875,-0.0159454345703125,-0.0184478759765625
1782970050313777000,7.40677685546875,-0.9988861083984375,-0.01727294921875,-0.019195556640625
1782970050323702800,7.416702880859375,-0.9975738525390625,-0.0177001953125,-0.0180816650390625
1782970050333629000,7.42662890625,-0.9981842041015625,-0.0169219970703125,-0.0181884765625
1782970050343555000,7.43655517578125,-0.998046875,-0.0161590576171875,-0.0184173583984375
1782970050353481700,7.446481689453125,-0.997100830078125,-0.016571044921875,-0.017181396484375
1782970050363408000,7.456407958984375,-0.99798583984375,-0.01611328125,-0.0182342529296875
1782970050373334000,7.466333984375,-0.9983367919921875,-0.0163421630859375,-0.0186004638671875
1782970050383259600,7.476259765625,-0.99749755859375,-0.01708984375,-0.0180816650390625
1782970050393185800,7.486185791015625,-0.9985198974609375,-0.0153656005859375,-0.01776123046875
1782970050403113000,7.496113037109375,-0.9989776611328125,-0.0159149169921875,-0.018218994140625
1782970050413038800,7.506038818359375,-0.9989776611328125,-0.0162353515625,-0.0186767578125
1782970050422964700,7.51596484375,-0.9977569580078125,-0.01556396484375,-0.0181884765625
1782970050432891000,7.525890869140625,-0.9980926513671875,-0.017120361328125,-0.0184478759765625
1782970050442817000,7.535817138671875,-0.9968414306640625,-0.0166473388671875,-0.018798828125
1782970050452743700,7.54574365234375,-0.9992218017578125,-0.0171051025390625,-0.0175018310546875
1782970050462669800,7.555669921875,-0.997711181640625,-0.0169219970703125,-0.0191802978515625
1782970050472596000,7.565595947265625,-0.9976959228515625,-0.0168609619140625,-0.0187225341796875
1782970050482521900,7.57552197265625,-0.9976348876953125,-0.0170440673828125,-0.0174560546875
1782970050492447700,7.58544775390625,-0.9976959228515625,-0.0179290771484375,-0.0176849365234375
1782970050502375000,7.595375,-0.9958953857421875,-0.0171661376953125,-0.0191650390625
1782970050512301000,7.605301025390625,-0.9971160888671875,-0.0162506103515625,-0.01812744140625
1782970050522226700,7.615226806640625,-0.998382568359375,-0.016448974609375,-0.01849365234375
1782970050532152800,7.62515283203125,-0.996978759765625,-0.0172271728515625,-0.016845703125
1782970050542080000,7.635080078125,-0.9979095458984375,-0.0165557861328125,-0.0176544189453125
1782970050552006000,7.645005859375,-0.9979705810546875,-0.015838623046875,-0.016845703125
1782970050561931800,7.654931884765625,-0.998382568359375,-0.016326904296875,-0.017303466796875
1782970050571858000,7.66485791015625,-0.9983062744140625,-0.0165557861328125,-0.0178070068359375
1782970050581783800,7.67478369140625,-0.99749755859375,-0.0164794921875,-0.0172271728515625
1782970050591710700,7.684710693359375,-0.998382568359375,-0.0166778564453125,-0.0193634033203125
1782970050601636900,7.694636962890625,-0.998992919921875,-0.0162353515625,-0.0178680419921875
1782970050611563000,7.70456298828125,-0.9972076416015625,-0.0173492431640625,-0.017303466796875
1782970050621489000,7.714489013671875,-0.9968109130859375,-0.016204833984375,-0.0187530517578125
1782970050631414800,7.724414794921875,-0.99755859375,-0.0160980224609375,-0.0194244384765625
1782970050641342000,7.734342041015625,-0.9980316162109375,-0.0164337158203125,-0.0171051025390625
1782970050651267800,7.744267822265625,-0.9979095458984375,-0.016754150390625,-0.018524169921875
1782970050661193700,7.75419384765625,-0.9982757568359375,-0.017425537109375,-0.018341064453125
1782970050671120000,7.764119873046875,-0.9971466064453125,-0.01690673828125,-0.0185699462890625
1782970050681045800,7.774045654296875,-0.997161865234375,-0.0163116455078125,-0.01763916015625
1782970050690973000,7.783972900390625,-0.997589111328125,-0.015838623046875,-0.018035888671875
1782970050700898800,7.79389892578125,-0.99847412109375,-0.014892578125,-0.0178985595703125
1782970050710825000,7.803824951171875,-0.9976806640625,-0.0163726806640625,-0.019134521484375
1782970050720750800,7.813750732421875,-0.9982147216796875,-0.01727294921875,-0.01776123046875
1782970050730677000,7.823677001953125,-0.99774169921875,-0.0163726806640625,-0.018890380859375
1782970050740604000,7.83360400390625,-0.996978759765625,-0.014984130859375,-0.018341064453125
1782970050750529800,7.84352978515625,-0.9982452392578125,-0.016815185546875,-0.0198211669921875
1782970050760456000,7.8534560546875,-0.99639892578125,-0.0176239013671875,-0.0192413330078125
1782970050770381800,7.8633818359375,-0.9973297119140625,-0.0163421630859375,-0.018768310546875
1782970050780307700,7.8733076171875,-0.9984283447265625,-0.016754150390625,-0.01776123046875
1782970050790235000,7.88323486328125,-0.9980010986328125,-0.0171356201171875,-0.0173187255859375
1782970050800160800,7.893160888671875,-0.998382568359375,-0.0167694091796875,-0.01751708984375
1782970050810087000,7.9030869140625,-0.9995574951171875,-0.0158843994140625,-0.0174713134765625
1782970050820012800,7.9130126953125,-0.998565673828125,-0.016326904296875,-0.01904296875
1782970050829939000,7.92293896484375,-0.9995269775390625,-0.016204833984375,-0.0196990966796875
1782970050839865900,7.932865966796875,-0.997283935546875,-0.0167388916015625,-0.018463134765625
1782970050849791700,7.942791748046875,-0.998931884765625,-0.0148773193359375,-0.0182952880859375
1782970050859718000,7.9527177734375,-0.9967193603515625,-0.0159454345703125,-0.0175933837890625
1782970050869644000,7.96264404296875,-0.9971466064453125,-0.0171051025390625,-0.018585205078125
1782970050879569700,7.972569580078125,-1.0002288818359375,-0.0154266357421875,-0.0176544189453125
1782970050889496800,7.982496826171875,-0.9966888427734375,-0.0171966552734375,-0.01641845703125
1782970050899423000,7.992423095703125,-0.9983978271484375,-0.01611328125,-0.017913818359375
1782970050909347800,8.002347900390625,-0.9986572265625,-0.0151519775390625,-0.0172119140625
1782970050919273700,8.012273681640625,-0.998016357421875,-0.0173187255859375,-0.0173797607421875
1782970050929201000,8.022200927734374,-0.9984283447265625,-0.017578125,-0.0174407958984375
1782970050939127000,8.032126953125,-0.9992218017578125,-0.016448974609375,-0.017791748046875
1782970050949053000,8.042052978515626,-0.9979248046875,-0.017822265625,-0.017578125
1782970050958978800,8.051978759765625,-0.9976043701171875,-0.017486572265625,-0.0168914794921875
1782970050968905000,8.061905029296875,-0.9986572265625,-0.0169219970703125,-0.0186004638671875
1782970050978832000,8.071831787109375,-0.99810791015625,-0.0161895751953125,-0.018157958984375
1782970050988757800,8.0817578125,-0.9978179931640625,-0.01654052734375,-0.018707275390625
1782970050998684000,8.091683837890624,-0.99761962890625,-0.017425537109375,-0.0173797607421875
1782970051008609800,8.10160986328125,-0.9984588623046875,-0.0166778564453125,-0.0171966552734375
1782970051018536000,8.111535888671876,-0.9980316162109375,-0.0159149169921875,-0.0179901123046875
1782970051028462800,8.121462890625,-0.9983367919921875,-0.0164031982421875,-0.01904296875
1782970051038389000,8.131388916015625,-0.9974517822265625,-0.0175933837890625,-0.0178070068359375
1782970051048315000,8.14131494140625,-0.9985198974609375,-0.0157928466796875,-0.0176239013671875
1782970051058240800,8.15124072265625,-0.9962158203125,-0.01739501953125,-0.0176849365234375
1782970051068167000,8.1611669921875,-0.9975433349609375,-0.0176544189453125,-0.0163116455078125
1782970051078093800,8.17109375,-0.996307373046875,-0.0164031982421875,-0.01788330078125
1782970051088020000,8.18102001953125,-0.9970855712890625,-0.01727294921875,-0.0179290771484375
1782970051097945900,8.19094580078125,-0.9983978271484375,-0.0169525146484375,-0.0186920166015625
1782970051107871700,8.200871826171875,-0.997650146484375,-0.0164947509765625,-0.01715087890625
1782970051117798000,8.2107978515625,-0.9978179931640625,-0.0175933837890625,-0.0182037353515625
1782970051127724800,8.220724853515625,-0.9986572265625,-0.015594482421875,-0.0178680419921875
1782970051137651000,8.23065087890625,-0.99658203125,-0.01495361328125,-0.0177154541015625
1782970051147576800,8.240576904296875,-0.9975433349609375,-0.0160980224609375,-0.019073486328125
1782970051157503000,8.2505029296875,-0.9977264404296875,-0.0175018310546875,-0.0178375244140625
1782970051167428900,8.260428955078124,-0.9958038330078125,-0.0175018310546875,-0.019622802734375
1782970051177355800,8.270355712890625,-0.997955322265625,-0.0156402587890625,-0.0172271728515625
1782970051187282000,8.280281982421876,-0.9968719482421875,-0.0166778564453125,-0.017974853515625
1782970051197207800,8.290207763671875,-0.996429443359375,-0.016693115234375,-0.0178985595703125
1782970051207133700,8.3001337890625,-0.998748779296875,-0.0160675048828125,-0.0169219970703125
1782970051217059800,8.310059814453124,-0.99908447265625,-0.0164031982421875,-0.018829345703125
1782970051226987000,8.319987060546875,-0.9977874755859375,-0.0152740478515625,-0.019195556640625
1782970051236913000,8.329912841796874,-0.997039794921875,-0.0167388916015625,-0.0182342529296875
1782970051246838800,8.3398388671875,-0.9972991943359375,-0.0158843994140625,-0.0188140869140625
1782970051256765000,8.349764892578126,-0.997039794921875,-0.016845703125,-0.0201263427734375
1782970051266691000,8.359691162109375,-0.9996490478515625,-0.0157470703125,-0.017608642578125
1782970051276617700,8.36961767578125,-0.998199462890625,-0.0173797607421875,-0.0192718505859375
1782970051286544000,8.3795439453125,-0.99835205078125,-0.0162811279296875,-0.01763916015625
1782970051296470000,8.389469970703125,-0.998687744140625,-0.017242431640625,-0.0196533203125
1782970051306399000,8.39939892578125,-0.9982147216796875,-0.0162353515625,-0.0194244384765625
1782970051316324900,8.409324951171875,-0.99676513671875,-0.016143798828125,-0.01837158203125
1782970051326250800,8.419250732421874,-0.999725341796875,-0.0176849365234375,-0.016693115234375
1782970051336177000,8.429177001953125,-0.9998321533203125,-0.017364501953125,-0.01904296875
1782970051346103000,8.43910302734375,-0.998321533203125,-0.0168914794921875,-0.0184783935546875
1782970051356030000,8.449030029296875,-0.999603271484375,-0.01727294921875,-0.017974853515625
1782970051365955800,8.458955810546875,-0.9974517822265625,-0.0170135498046875,-0.018280029296875
1782970051375882000,8.468882080078124,-0.9982757568359375,-0.0171051025390625,-0.0184478759765625
1782970051385808000,8.478807861328125,-0.99774169921875,-0.0162200927734375,-0.0186767578125
1782970051395733800,8.488733642578126,-0.997467041015625,-0.0181121826171875,-0.019073486328125
1782970051405661000,8.498660888671875,-0.9982757568359375,-0.0175628662109375,-0.0176544189453125
1782970051415587000,8.508587158203126,-0.99859619140625,-0.016937255859375,-0.017974853515625
1782970051425512700,8.5185126953125,-0.9989013671875,-0.0170135498046875,-0.0166168212890625
1782970051435438800,8.52843896484375,-0.9975128173828125,-0.0164947509765625,-0.0167388916015625
1782970051445365200,8.538365234375,-0.997039794921875,-0.015380859375,-0.0178680419921875
1782970051455292200,8.548292236328125,-0.9978485107421875,-0.0179443359375,-0.01776123046875
1782970051465218000,8.558218017578126,-0.9983673095703125,-0.0158843994140625,-0.01800537109375
1782970051475144200,8.568144287109375,-0.996673583984375,-0.0155029296875,-0.017486572265625
1782970051485070300,8.5780703125,-0.99908447265625,-0.016021728515625,-0.018463134765625
1782970051494996000,8.587995849609374,-0.9984283447265625,-0.016632080078125,-0.0181121826171875
1782970051504923100,8.597923095703125,-0.9969635009765625,-0.0145721435546875,-0.018402099609375
1782970051514849300,8.607849365234374,-0.998443603515625,-0.01617431640625,-0.0196075439453125
1782970051524775200,8.617775146484375,-0.998504638671875,-0.01629638671875,-0.018157958984375
1782970051534701000,8.627701171875,-0.9974212646484375,-0.0154876708984375,-0.020111083984375
1782970051544627200,8.637627197265624,-0.997894287109375,-0.0173187255859375,-0.017242431640625
1782970051554554000,8.64755419921875,-0.9981842041015625,-0.0156097412109375,-0.0184478759765625
1782970051564480000,8.65747998046875,-0.9984893798828125,-0.016204833984375,-0.0177001953125
1782970051574406100,8.66740625,-0.9982452392578125,-0.016448974609375,-0.017669677734375
1782970051584332300,8.677332275390626,-0.997100830078125,-0.0163421630859375,-0.01763916015625
1782970051594258200,8.687258056640625,-0.99755859375,-0.015380859375,-0.01959228515625
1782970051604185000,8.69718505859375,-0.9979248046875,-0.0167999267578125,-0.0182342529296875
1782970051614111200,8.707111328125,-0.99749755859375,-0.0159149169921875,-0.01824951171875
1782970051624037400,8.717037353515625,-0.996734619140625,-0.018035888671875,-0.0173187255859375
1782970051633963000,8.726962890625,-0.997833251953125,-0.017913818359375,-0.020751953125
1782970051643889200,8.73688916015625,-0.9971466064453125,-0.0174713134765625,-0.0186767578125
1782970051653816300,8.74681640625,-0.9976654052734375,-0.01629638671875,-0.0180816650390625
1782970051663742000,8.756741943359375,-0.9983673095703125,-0.015960693359375,-0.018951416015625
1782970051673668000,8.766668212890625,-0.997802734375,-0.017120361328125,-0.0181121826171875
1782970051683594200,8.77659423828125,-0.99774169921875,-0.015655517578125,-0.01806640625
1782970051693520100,8.78652001953125,-0.9986572265625,-0.0150604248046875,-0.0196380615234375
1782970051703447000,8.796447021484376,-0.99822998046875,-0.0149993896484375,-0.0183563232421875
1782970051713373200,8.806373291015625,-0.997772216796875,-0.0156097412109375,-0.01800537109375
1782970051723299300,8.81629931640625,-0.99798583984375,-0.017333984375,-0.017608642578125
1782970051733225200,8.82622509765625,-0.9979400634765625,-0.0171051025390625,-0.019195556640625
1782970051743152000,8.836152099609375,-0.9980010986328125,-0.0152130126953125,-0.0206451416015625
1782970051753078300,8.846078369140624,-0.9982757568359375,-0.0164031982421875,-0.0188446044921875
1782970051763004200,8.856004150390625,-0.998321533203125,-0.01568603515625,-0.0180206298828125
1782970051772930000,8.865929931640625,-0.9988555908203125,-0.0158233642578125,-0.0167694091796875
1782970051782856200,8.875856201171874,-0.9981536865234375,-0.0155487060546875,-0.0170745849609375
1782970051792783400,8.885783447265625,-0.997955322265625,-0.0165863037109375,-0.0181121826171875
1782970051802709000,8.895708984375,-0.998748779296875,-0.0152130126953125,-0.0162811279296875
1782970051812635100,8.90563525390625,-0.9993133544921875,-0.0172882080078125,-0.0199127197265625
1782970051822561300,8.915561279296876,-0.99920654296875,-0.017578125,-0.0191497802734375
1782970051832487200,8.925487060546875,-0.997772216796875,-0.0147705078125,-0.0184783935546875
1782970051842414000,8.9354140625,-0.9970855712890625,-0.016876220703125,-0.017669677734375
1782970051852340200,8.94534033203125,-0.996551513671875,-0.01702880859375,-0.0177459716796875
1782970051862266000,8.95526611328125,-0.9986572265625,-0.0157012939453125,-0.019744873046875
1782970051872192300,8.965192138671876,-0.9968414306640625,-0.0172119140625,-0.018951416015625
1782970051882118100,8.9751181640625,-0.997406005859375,-0.0166473388671875,-0.0179901123046875
1782970051892045300,8.98504541015625,-0.9993133544921875,-0.0162506103515625,-0.0175323486328125
1782970051901971200,8.99497119140625,-0.9982147216796875,-0.016204833984375,-0.0177154541015625
1782970051911897000,9.00489697265625,-0.996551513671875,-0.0162506103515625,-0.0162811279296875
1782970051921823200,9.0148232421875,-0.99774169921875,-0.01568603515625,-0.0172119140625
1782970051931749000,9.0247490234375,-0.9989776611328125,-0.01702880859375,-0.0199127197265625
1782970051941676000,9.034676025390626,-0.9983673095703125,-0.015777587890625,-0.0185699462890625
1782970051951602200,9.044602294921875,-0.99908447265625,-0.016326904296875,-0.0176849365234375
1782970051961528000,9.054528076171875,-0.9981536865234375,-0.0170745849609375,-0.017547607421875
1782970051971454200,9.0644541015625,-0.9969024658203125,-0.0160064697265625,-0.0176849365234375
1782970051981380400,9.07438037109375,-0.9977569580078125,-0.0158538818359375,-0.017608642578125
1782970051991307300,9.084307373046874,-0.9977874755859375,-0.0172576904296875,-0.0182952880859375
1782970052001233200,9.094233154296875,-0.9981536865234375,-0.0172271728515625,-0.018341064453125
1782970052011159300,9.1041591796875,-0.9981842041015625,-0.0170135498046875,-0.0189971923828125
1782970052021085200,9.114085205078124,-0.996612548828125,-0.0165557861328125,-0.01763916015625
1782970052031011000,9.124010986328125,-0.997528076171875,-0.0153961181640625,-0.0195159912109375
1782970052040938200,9.133938232421874,-0.9977569580078125,-0.01751708984375,-0.019195556640625
1782970052050864000,9.143864013671875,-0.997314453125,-0.017181396484375,-0.0181732177734375
1782970052060790000,9.1537900390625,-0.9987945556640625,-0.0163726806640625,-0.018157958984375
1782970052070716200,9.163716064453125,-0.99676513671875,-0.015289306640625,-0.0189361572265625
1782970052080642300,9.173642333984375,-0.998260498046875,-0.0162811279296875,-0.0180816650390625
1782970052090569200,9.1835693359375,-0.9972381591796875,-0.016510009765625,-0.0180511474609375
1782970052100495000,9.1934951171875,-0.99847412109375,-0.0148773193359375,-0.0186767578125
1782970052110421200,9.203421142578126,-0.998382568359375,-0.017242431640625,-0.017547607421875
1782970052120347100,9.21334716796875,-0.9995880126953125,-0.01678466796875,-0.0177001953125
1782970052130273000,9.22327294921875,-0.9979400634765625,-0.0157928466796875,-0.0168914794921875
1782970052140200200,9.2332001953125,-0.99749755859375,-0.0160675048828125,-0.0174102783203125
1782970052150126300,9.243126220703125,-0.999267578125,-0.0165863037109375,-0.0179290771484375
1782970052160052000,9.253052001953124,-0.999267578125,-0.0156707763671875,-0.019287109375
1782970052169978000,9.26297802734375,-0.9984893798828125,-0.0175018310546875,-0.0179443359375
1782970052179904300,9.272904296875,-0.997283935546875,-0.0166015625,-0.017486572265625
1782970052189831200,9.2828310546875,-0.998199462890625,-0.017242431640625,-0.017669677734375
1782970052199757000,9.292757080078125,-0.9972991943359375,-0.014373779296875,-0.0175628662109375
1782970052209683200,9.30268310546875,-0.9970703125,-0.01654052734375,-0.0174407958984375
1782970052219609300,9.312609375,-0.996612548828125,-0.016326904296875,-0.017333984375
1782970052229535000,9.322534912109376,-0.9986572265625,-0.0154571533203125,-0.018829345703125
1782970052239462100,9.332462158203125,-0.9965362548828125,-0.0167388916015625,-0.0183563232421875
1782970052249388300,9.34238818359375,-0.997039794921875,-0.0155029296875,-0.0179290771484375
1782970052259314200,9.352314208984374,-0.9971466064453125,-0.0165863037109375,-0.0181732177734375
1782970052269240000,9.362239990234375,-0.99676513671875,-0.016845703125,-0.018798828125
1782970052279166200,9.372166259765624,-0.9974365234375,-0.016143798828125,-0.0169830322265625
1782970052289093400,9.38209326171875,-0.998291015625,-0.015594482421875,-0.0186004638671875
1782970052299019000,9.39201904296875,-0.996490478515625,-0.0159454345703125,-0.0175323486328125
1782970052308945200,9.401945068359375,-0.998443603515625,-0.016876220703125,-0.0196685791015625
1782970052318871300,9.411871337890625,-0.9981536865234375,-0.0178375244140625,-0.018280029296875
1782970052328797200,9.421797119140624,-0.9984588623046875,-0.0172119140625,-0.018280029296875
1782970052338724000,9.43172412109375,-0.998260498046875,-0.016326904296875,-0.0181884765625
1782970052348650200,9.441650146484376,-0.997344970703125,-0.016845703125,-0.016937255859375
1782970052358576000,9.451576171875,-0.998321533203125,-0.017059326171875,-0.0166778564453125
1782970052368502000,9.461501953125,-0.9987335205078125,-0.01568603515625,-0.01824951171875
1782970052378428200,9.47142822265625,-0.997772216796875,-0.015899658203125,-0.0182952880859375
1782970052388355300,9.481355224609375,-0.99639892578125,-0.017242431640625,-0.0174102783203125
1782970052398281200,9.49128125,-0.9977874755859375,-0.015716552734375,-0.0174713134765625
1782970052408207000,9.50120703125,-0.998931884765625,-0.0163116455078125,-0.01861572265625
1782970052418133200,9.51113330078125,-0.99725341796875,-0.0166168212890625,-0.0182342529296875
1782970052428059100,9.52105908203125,-0.9986114501953125,-0.016754150390625,-0.0186920166015625
1782970052437986000,9.530986083984375,-0.99908447265625,-0.0176239013671875,-0.0169677734375
1782970052447912000,9.540911865234374,-0.999176025390625,-0.0162811279296875,-0.01708984375
1782970052457838000,9.550838134765625,-0.99798583984375,-0.015777587890625,-0.0191497802734375
1782970052467764000,9.560763916015626,-0.998443603515625,-0.0178070068359375,-0.0179443359375
1782970052477689900,9.57068994140625,-0.99786376953125,-0.016754150390625,-0.017730712890625
1782970052487617000,9.580616943359376,-0.9988250732421875,-0.0154876708984375,-0.0169525146484375
1782970052497543200,9.590543212890625,-0.998443603515625,-0.016693115234375,-0.0166473388671875
1782970052507469000,9.600468994140625,-0.99664306640625,-0.0170745849609375,-0.018035888671875
1782970052517395000,9.61039501953125,-0.9972686767578125,-0.01702880859375,-0.0181884765625
1782970052527321000,9.620321044921875,-0.998016357421875,-0.0168304443359375,-0.017822265625
1782970052537248000,9.630248046875,-0.998443603515625,-0.0160064697265625,-0.0186004638671875
1782970052547174000,9.640173828125,-0.9983062744140625,-0.0164947509765625,-0.0189666748046875
1782970052557100000,9.65010009765625,-0.996124267578125,-0.0166778564453125,-0.0189208984375
1782970052567026000,9.66002587890625,-0.998016357421875,-0.01629638671875,-0.01898193359375
1782970052576952000,9.6699521484375,-0.998504638671875,-0.01617431640625,-0.0184783935546875
1782970052586879000,9.67987890625,-0.998626708984375,-0.016571044921875,-0.0184326171875
1782970052596805000,9.68980517578125,-0.9977264404296875,-0.0165252685546875,-0.0190582275390625
1782970052606731000,9.69973095703125,-0.99658203125,-0.0159149169921875,-0.0194854736328125
1782970052616657000,9.709656982421874,-0.9985809326171875,-0.016265869140625,-0.0178375244140625
1782970052626583000,9.7195830078125,-0.99676513671875,-0.0164794921875,-0.01702880859375
1782970052636510000,9.729510009765624,-0.9968719482421875,-0.0167236328125,-0.017791748046875
1782970052646436000,9.73943603515625,-0.9979400634765625,-0.016448974609375,-0.0180206298828125
1782970052656362000,9.749362060546876,-0.997650146484375,-0.0165863037109375,-0.0171661376953125
1782970052666287900,9.759287841796874,-0.9981231689453125,-0.017242431640625,-0.0180816650390625
1782970052676214000,9.769214111328125,-0.9975738525390625,-0.016357421875,-0.0186004638671875
1782970052686141000,9.779140869140624,-0.997406005859375,-0.016143798828125,-0.0178985595703125
1782970052696067000,9.789067138671875,-0.99822998046875,-0.0166778564453125,-0.0187225341796875
1782970052705993000,9.798992919921876,-0.99908447265625,-0.016845703125,-0.0186920166015625
1782970052715919000,9.808919189453125,-0.9974365234375,-0.016326904296875,-0.0172576904296875
1782970052725845000,9.818844970703125,-0.9967498779296875,-0.01629638671875,-0.0180511474609375
1782970052735772000,9.82877197265625,-0.99798583984375,-0.015838623046875,-0.017730712890625
1782970052745698000,9.838697998046875,-0.99835205078125,-0.0161590576171875,-0.0177001953125
1782970052755624000,9.8486240234375,-0.9976654052734375,-0.01690673828125,-0.0176544189453125
1782970052765549800,9.8585498046875,-0.9983673095703125,-0.0157623291015625,-0.0182647705078125
1782970052775476000,9.86847607421875,-0.997650146484375,-0.0172271728515625,-0.018310546875
1782970052785403100,9.878403076171875,-0.9969329833984375,-0.0169830322265625,-0.01788330078125
1782970052795329000,9.8883291015625,-0.997772216796875,-0.0173797607421875,-0.0177459716796875
1782970052805255000,9.8982548828125,-0.9976654052734375,-0.0156402587890625,-0.0166168212890625
1782970052815181000,9.90818115234375,-0.99737548828125,-0.01568603515625,-0.01812744140625
1782970052825107200,9.918107177734376,-0.99664306640625,-0.0160064697265625,-0.01824951171875
1782970052835033900,9.928033935546875,-0.9975738525390625,-0.0171661376953125,-0.0175628662109375
1782970052844960000,9.9379599609375,-0.997589111328125,-0.016571044921875,-0.017852783203125
1782970052854886100,9.94788623046875,-0.999420166015625,-0.0155792236328125,-0.0189361572265625
1782970052864811800,9.957811767578125,-0.998077392578125,-0.01641845703125,-0.0169219970703125
1782970052874738000,9.967738037109376,-0.9981689453125,-0.0172271728515625,-0.0192413330078125
1782970052884665000,9.9776650390625,-0.9981842041015625,-0.016937255859375,-0.0180511474609375
1782970052894591000,9.987591064453126,-0.9979705810546875,-0.016845703125,-0.0181884765625
1782970052904516900,9.997516845703124,-0.9986114501953125,-0.016815185546875,-0.017608642578125
1782970052914443000,10.007443115234375,-0.9973602294921875,-0.0166168212890625,-0.018280029296875
1782970052924369200,10.017369140625,-0.996612548828125,-0.0173492431640625,-0.0179901123046875
1782970052934295800,10.0272958984375,-0.9978179931640625,-0.01702880859375,-0.018707275390625
1782970052944222000,10.037221923828126,-0.9986419677734375,-0.0166015625,-0.0189208984375
1782970052954148000,10.047148193359375,-0.998382568359375,-0.016204833984375,-0.017425537109375
1782970052964074000,10.057073974609375,-0.997222900390625,-0.01593017578125,-0.018768310546875
1782970052973999900,10.066999755859374,-0.9972686767578125,-0.0169677734375,-0.01904296875
1782970052983927000,10.076927001953125,-0.997528076171875,-0.0175018310546875,-0.0186004638671875
1782970052993853200,10.086853271484374,-0.9970550537109375,-0.0176849365234375,-0.0198822021484375
1782970053003778800,10.09677880859375,-0.9996795654296875,-0.017608642578125,-0.0181427001953125
1782970053013705000,10.106705078125,-0.9977569580078125,-0.0166778564453125,-0.019195556640625
1782970053023631000,10.116631103515624,-0.9968719482421875,-0.017059326171875,-0.01739501953125
1782970053033557000,10.126556884765625,-0.9986572265625,-0.01617431640625,-0.0172271728515625
1782970053043484000,10.13648388671875,-0.9978179931640625,-0.0178985595703125,-0.0203094482421875
1782970053053410000,10.14641015625,-0.9977874755859375,-0.0164794921875,-0.0186920166015625
1782970053063336000,10.1563359375,-0.99798583984375,-0.0164031982421875,-0.0194854736328125
1782970053073262000,10.166261962890625,-0.9984130859375,-0.01568603515625,-0.019805908203125
1782970053083189000,10.17618896484375,-0.998687744140625,-0.0167388916015625,-0.018096923828125
1782970053093115100,10.186115234375,-0.9989471435546875,-0.0170745849609375,-0.018035888671875
1782970053103041000,10.196041015625,-0.9997711181640625,-0.01641845703125,-0.018585205078125
1782970053112967000,10.205966796875,-0.999298095703125,-0.0166473388671875,-0.017333984375
1782970053122893000,10.21589306640625,-0.998565673828125,-0.0168609619140625,-0.0174560546875
1782970053132819000,10.22581884765625,-0.9985504150390625,-0.0171661376953125,-0.0178070068359375
1782970053142745900,10.235745849609375,-0.9970245361328125,-0.0161285400390625,-0.0189971923828125
1782970053152672000,10.245672119140625,-0.9965362548828125,-0.01568603515625,-0.0170745849609375
1782970053162598000,10.255597900390624,-0.99871826171875,-0.016448974609375,-0.0183563232421875
1782970053172524000,10.26552392578125,-0.998016357421875,-0.0169525146484375,-0.01800537109375
1782970053182451000,10.275450927734376,-0.99749755859375,-0.017669677734375,-0.0184173583984375
1782970053192377000,10.285377197265625,-0.998382568359375,-0.0164031982421875,-0.017181396484375
1782970053202303000,10.295302978515625,-0.9981231689453125,-0.0160369873046875,-0.0181121826171875
1782970053212229000,10.30522900390625,-1.0002288818359375,-0.016845703125,-0.0181884765625
1782970053222155000,10.315155029296875,-1.025054931640625,-0.013916015625,-0.024566650390625
1782970053232082000,10.32508203125,-0.9723968505859375,-0.0207977294921875,-0.009552001953125
1782970053242008000,10.335008056640625,-1.0077362060546875,-0.0166473388671875,-0.0208587646484375
1782970053251934000,10.344933837890625,-0.9796295166015625,-0.018829345703125,-0.011810302734375
1782970053261859800,10.35485986328125,-0.9876708984375,-0.01824951171875,-0.0130157470703125
1782970053271786000,10.364785888671875,-1.0032501220703125,-0.0152435302734375,-0.0178985595703125
1782970053281712000,10.374712158203126,-1.000213623046875,-0.0160675048828125,-0.017730712890625
1782970053291639000,10.38463916015625,-0.994781494140625,-0.0166778564453125,-0.0171661376953125
1782970053301565000,10.39456494140625,-1.0023040771484375,-0.01556396484375,-0.0197601318359375
1782970053311491000,10.404490966796875,-1.005828857421875,-0.014404296875,-0.0199432373046875
