time,seconds_elapsed,z,y,x
1782970042968382700,0.0613828125,0.0007337008719332516,0.004465588368475437,0.0022125542163848877
1782970042978308900,0.071308837890625,-0.0013494236627593637,0.005499694030731916,-0.0013824469642713666
1782970042988235000,0.081235107421875,-0.000009054747351910919,0.006317817140370607,0.0007251787465065718
1782970042998161000,0.091160888671875,-0.00005885586142539978,0.005151086021214724,0.0016655409708619118
1782970043008087800,0.101087890625,0.00199284334667027,0.0037702370900660753,-0.0011635350529104471
1782970043018014000,0.111013916015625,0.0008356999605894089,0.005505819339305162,0.003326021833345294
1782970043027939800,0.12093994140625,-0.0022240057587623596,0.004962800536304712,0.0015193333383649588
1782970043037866000,0.130865966796875,0.000508663768414408,0.0027683558873832226,-0.0003632551815826446
1782970043047793000,0.14079296875,-0.001987250754609704,0.006219546310603619,0.0018975022248923779
1782970043057719000,0.150718994140625,-0.0015108112711459398,0.00458649592474103,0.002494050422683358
1782970043067645000,0.16064501953125,0.0005222458858042955,0.005756688769906759,0.0011339739430695772
1782970043077570800,0.17057080078125,-0.001386175281368196,0.003936684690415859,0.003096457337960601
1782970043087497000,0.1804970703125,0.0011611381778493524,0.006183593533933163,0.00041278995922766626
1782970043097424000,0.190423828125,-0.0015779229579493403,0.0049153962172567844,-0.0004993426846340299
1782970043107349800,0.200349853515625,0.002061819192022085,0.0041313618421554565,0.0014612764352932572
1782970043117276000,0.21027587890625,-0.00037230990710668266,0.005916478578001261,0.0018674085149541497
1782970043127201800,0.220201904296875,-0.00020985709852539003,0.005083974450826645,0.0006311691831797361
1782970043137128700,0.230128662109375,0.00017363809456583112,0.0044322991743683815,0.002494050422683358
1782970043147054800,0.240054931640625,-0.0012229235144332051,0.005030711181461811,0.0037649108562618494
1782970043156981000,0.24998095703125,-0.0009542105835862458,0.006783337332308292,-0.00041252365917898715
1782970043166907000,0.259906982421875,0.0005360943032428622,0.005873069167137146,0.0031348068732768297
1782970043176833000,0.2698330078125,0.0005422196118161082,0.005646434146910906,-0.0009946906939148903
1782970043186760000,0.279760009765625,-0.0003430151555221528,0.005905027035623789,0.001019990653730929
1782970043196685800,0.289685791015625,0.001341434195637703,0.005213404074311256,0.0007398261222988367
1782970043206612000,0.299612060546875,0.00018722022650763392,0.0046424223110079765,-0.00039308256236836314
1782970043216537900,0.309537841796875,-0.000023169501218944788,0.005106078926473856,0.002287122653797269
1782970043226465000,0.319465087890625,-0.002526274649426341,0.004824049770832062,0.0028522454667836428
1782970043236391000,0.329390869140625,-0.0019459717441350222,0.005577990785241127,0.000925448490306735
1782970043246316800,0.33931689453125,0.00035979304811917245,0.0051625375635921955,-0.00019707392493728548
1782970043256243000,0.349242919921875,-0.0022272015921771526,0.003430950455367565,0.0019797938875854015
1782970043266168800,0.3591689453125,-0.001996838254854083,0.004924184642732143,0.0012602078495547175
1782970043276095700,0.369095703125,-0.0014444985426962376,0.001597363967448473,0.0005129248020239174
1782970043286022000,0.37902197265625,0.00012383698776829988,0.0061521683819592,0.0033483924344182014
1782970043295947800,0.38894775390625,-0.0012626046082004905,0.0029385320376604795,0.00018349179299548268
1782970043305874000,0.3988740234375,-0.0007547398563474417,0.007001450285315514,0.0008349010022357106
1782970043315800800,0.40880078125,0.0011885687708854675,0.0037470676470547915,0.00007829693640815094
1782970043325727000,0.41872705078125,-0.0014444985426962376,0.005323392804712057,-0.00025513084256090224
1782970043335652900,0.42865283203125,0.0003755057114176452,0.0037294907961040735,0.0018924422329291701
1782970043345579000,0.4385791015625,0.0013044163351878524,0.005371595732867718,0.0019718045368790627
1782970043355505000,0.4485048828125,-0.00014567491598427296,0.007219829596579075,-0.00012836436508223414
1782970043365431800,0.458431884765625,-0.0023377228062599897,0.006901315413415432,0.0021992383990436792
1782970043375358000,0.46835791015625,-0.0025891251862049103,0.005603556986898184,0.0016767261549830437
1782970043385283800,0.478283935546875,-0.0011286477092653513,0.0018663433147594333,0.0012623383663594723
1782970043395209700,0.488209716796875,-0.00032384038786403835,0.005840578582137823,0.003138801548629999
1782970043405137000,0.498136962890625,-0.002493251347914338,0.006841128226369619,-0.0010495517635717988
1782970043415062800,0.508062744140625,-0.0001752359967213124,0.0037230991292744875,0.0015992282424122095
1782970043424989000,0.517989013671875,-0.0015994944842532277,0.00509888818487525,0.0025654230266809464
1782970043434914600,0.52791455078125,0.00007403588097076863,0.0025513083674013615,-0.00030652983696199954
1782970043444840700,0.5378408203125,0.0001549959706608206,0.004610997159034014,0.003725229762494564
1782970043454767600,0.547767578125,0.0023840616922825575,0.00296329939737916,0.00261868629604578
1782970043464693800,0.55769384765625,0.0003968109958805144,0.0057066213339567184,-0.00035366779775358737
1782970043474619600,0.56761962890625,0.0036099147982895374,0.0034466630313545465,0.00016698020044714212
1782970043484545800,0.5775458984375,-0.00096086849225685,0.006078931502997875,0.00236328924074769
1782970043494472700,0.58747265625,0.00011611382069531828,0.004983573220670223,0.0035356127191334963
1782970043504398600,0.597398681640625,-0.0008021441171877086,0.004769721534103155,0.0027169568929821253
1782970043514324700,0.60732470703125,-0.0005917543894611299,0.006557235028594732,0.002657302189618349
1782970043524250600,0.617250732421875,-0.0021920478902757168,0.006380401086062193,0.0024442493449896574
1782970043534176500,0.627176513671875,-0.001829591696150601,0.007178816944360733,0.0011507519520819187
1782970043544103700,0.637103759765625,0.00033635724685154855,0.0049556102603673935,0.0008412926108576357
1782970043554029800,0.64702978515625,-0.0016373114194720984,0.0037286917213350534,0.001967277145013213
1782970043563955700,0.656955810546875,-0.0009161274065263569,0.007543670013546944,0.000556334329303354
1782970043573881600,0.666881591796875,0.0015126754296943545,0.006131928414106369,0.0033422671258449554
1782970043583808800,0.676808837890625,0.0003779025573749095,0.0034019220620393753,0.0021723404061049223
1782970043593734700,0.686734619140625,-0.0003134540456812829,0.0041036647744476795,0.0016706009628251195
1782970043603660500,0.69666064453125,-0.000336090917699039,0.0037979339249432087,0.004321777727454901
1782970043613586700,0.706586669921875,-0.003418699838221073,0.004008856136351824,0.003334810258820653
1782970043623512800,0.716512939453125,-0.0012660667998716235,0.005499694030731916,-0.00040959418402053416
1782970043633439700,0.726439697265625,0.0005222458858042955,0.006899717729538679,0.0013728595804423094
1782970043643365600,0.73636572265625,-0.0018442390719428658,0.004764128942042589,-0.00033635724685154855
1782970043653291800,0.746291748046875,-0.0024224112275987864,0.007959389127790928,0.0021166803780943155
1782970043663217700,0.7562177734375,-0.00038535939529538155,0.007188138086348772,0.004542553797364235
1782970043673144600,0.76614453125,-0.00009321063407696784,0.0065015750005841255,0.0009600695921108127
1782970043683070700,0.77607080078125,-0.0024857944808900356,0.005284244194626808,0.0010069411946460605
1782970043692996900,0.785996826171875,-0.002270344877615571,0.003117496380582452,0.0003249056462664157
1782970043702922500,0.795922607421875,-0.0001430117554264143,0.00452817277982831,0.0017395768081769347
1782970043712848600,0.8058486328125,-0.0021401161793619394,0.0026908579748123884,0.0014242585748434067
1782970043722775800,0.81577587890625,-0.0024791366886347532,0.005183043889701366,0.0012399677652865648
1782970043732701700,0.82570166015625,-0.0010157296201214194,0.00714712543413043,0.0053553506731987
1782970043742627600,0.835627685546875,0.0021904499735683203,0.005047755315899849,0.000222373942960985
1782970043752553700,0.8455537109375,0.00017869810108095407,0.004653075244277716,-0.00039707732503302395
1782970043762480600,0.855480712890625,-0.0007257114048115909,0.005673598498106003,-0.0000031957933970261365
1782970043772406500,0.865406494140625,0.0012966931099072099,0.006786266807466745,0.0035233621019870043
1782970043782332700,0.875332763671875,0.002424009144306183,0.0049247173592448235,0.0012391688069328666
1782970043792258800,0.8852587890625,-0.0010221211705356836,0.005152684170752764,0.0014647386269643903
1782970043802184700,0.895184814453125,-0.0001280980504816398,0.0049313753843307495,0.0035063179675489664
1782970043812111600,0.905111572265625,0.0007222492713481188,0.0057564228773117065,0.004203266929835081
1782970043822037800,0.915037841796875,0.0009691243176348507,0.004542553797364235,0.0023161512799561024
1782970043831964000,0.9249638671875,0.0015302523970603943,0.007138070650398731,0.0019563580863177776
1782970043841889500,0.9348896484375,-0.000925182132050395,0.002980876248329878,0.004287156742066145
1782970043851815700,0.944815673828125,-0.0034700988326221704,0.006455236114561558,0.0021313277538865805
1782970043861742800,0.954742919921875,-0.0024919197894632816,0.004797684494405985,0.0021462414879351854
1782970043871668500,0.96466845703125,-0.00012729909212794155,0.0030397321097552776,0.0022485069930553436
1782970043881594600,0.9745947265625,-0.0023521038237959146,0.006462160497903824,0.003724430687725544
1782970043891520800,0.984520751953125,-0.0005230448441579938,0.0027182884514331818,0.0013579458463937044
1782970043901447700,0.99444775390625,-0.0021973741240799427,0.003762780223041773,0.0008551410282962024
1782970043911373600,1.00437353515625,-0.0000476705827168189,0.005659483373165131,0.0024778051301836967
1782970043921299700,1.0142998046875,-0.0005496764206327498,0.007047789636999369,-0.0011044129496440291
1782970043931225900,1.024225830078125,0.00027750138542614877,0.005857356358319521,0.0008969526388682425
1782970043941151700,1.03415185546875,-0.002531600883230567,0.0062762717716395855,0.0017544905422255397
1782970043951078700,1.04407861328125,-0.0005211806274019182,0.005830458365380764,0.001065264455974102
1782970043961004800,1.0540048828125,-0.0012479572324082255,0.005616073962301016,-0.000005060006060375599
1782970043970930700,1.0639306640625,-0.0005906891310587525,0.006072806194424629,0.0035894084721803665
1782970043980856600,1.073856689453125,0.0007387608638964593,0.006641124840825796,-0.0006815029191784561
1782970043990783700,1.08378369140625,0.00039947417099028826,0.004295945167541504,0.0016708672046661377
1782970044000710000,1.0937099609375,-0.0011134676169604063,0.00566880451515317,0.0034586472902446985
1782970044010635500,1.103635498046875,-0.0006503439508378506,0.006717291194945574,0.002424009144306183
1782970044020561700,1.113561767578125,-0.00227806787006557,0.006136189214885235,0.0008703210623934865
1782970044030487800,1.12348779296875,-0.0017923073610290885,0.004020041786134243,0.0001930791768245399
1782970044040414500,1.13341455078125,-0.0008274441352114081,0.006400108803063631,0.0036341496743261814
1782970044050340600,1.143340576171875,0.0008780442294664681,0.005735650192946196,0.0017699368763715029
1782970044060266800,1.153266845703125,0.0006969492533244193,0.006163087207823992,0.0011917646043002605
1782970044070192600,1.163192626953125,0.001958488719537854,0.0065196845680475235,-0.0009448895580135286
1782970044080118800,1.173118896484375,0.0003307645965833217,0.0040914141573011875,0.0016255935188382864
1782970044090045700,1.183045654296875,-0.0007099987124092877,0.00580755528062582,0.001984054921194911
1782970044099971800,1.192971923828125,-0.0003211772127542645,0.004791026934981346,0.0024804682470858097
1782970044109897700,1.202897705078125,-0.0002596582053229213,0.005317267496138811,0.0014535533264279366
1782970044119823600,1.21282373046875,-0.0020732709672302008,0.004962534178048372,0.0015699334908276796
1782970044129750800,1.222750732421875,-0.00043755737715400755,0.0047260457649827,0.0017262609908357263
1782970044139676700,1.2326767578125,-0.0023092268966138363,0.003135872073471546,0.0012170645641162992
1782970044149602600,1.2426025390625,-0.00006631271389778703,0.004671717062592506,-0.0005350290448404849
1782970044159528700,1.25252880859375,0.0009496832499280572,0.005514075048267841,0.0005866943974979222
1782970044169454600,1.26245458984375,0.0011163970921188593,0.007502391003072262,-0.000535561703145504
1782970044179381500,1.272381591796875,-0.0043707797303795815,0.004984372295439243,0.00004953479583491571
1782970044189307600,1.2823076171875,-0.0004628573951777071,0.007865379564464092,-0.0005616606795229018
1782970044199233800,1.29223388671875,0.0014514228096231818,0.005123655777424574,0.0037180392537266016
1782970044209159700,1.30215966796875,-0.0015515576815232635,0.004750014282763004,0.001321194227784872
1782970044219086600,1.312086669921875,-0.0009944243356585503,0.0054794540628790855,-0.0010572749888524413
1782970044229012700,1.3220126953125,-0.0009566074586473405,0.00646668765693903,0.001847701147198677
1782970044238938600,1.331938720703125,0.0005936186062172055,0.006968693342059851,0.0005339637864381075
1782970044248864800,1.34186474609375,0.0002109223569277674,0.005224322900176048,0.003424292430281639
1782970044258790700,1.351790771484375,-0.0003456783015280962,0.0041731735691428185,0.0030210898257791996
1782970044268717800,1.3617177734375,-0.001567802974022925,0.004786765668541193,0.0024517059791833162
1782970044278643700,1.371643798828125,-0.00027057717670686543,0.0034586472902446985,0.003459978848695755
1782970044288569600,1.381569580078125,-0.000841825210954994,0.005702094174921513,0.0018836538074538112
1782970044298495700,1.391495849609375,0.0003001382574439049,0.005363606382161379,-0.00045673211570829153
1782970044308421600,1.401421630859375,-0.002417883835732937,0.006297843065112829,0.002805373864248395
1782970044318348500,1.4113486328125,-0.001050617080181837,0.005849100649356842,0.0005406216951087117
1782970044328274700,1.421274658203125,-0.0025326660834252834,0.00603419030085206,0.0018839201657101512
1782970044338200600,1.43120068359375,0.00022983079543337226,0.005428054835647345,0.0022365227341651917
1782970044348126700,1.441126708984375,-0.0002620550512801856,0.0031880701426416636,0.0009358347742818296
1782970044358053600,1.4510537109375,0.002156627830117941,0.006173473782837391,0.0001728391507640481
1782970044367979800,1.460979736328125,-0.0016160061350092292,0.0057103498838841915,0.0014479606179520488
1782970044377905700,1.47090576171875,0.0002913498319685459,0.004731638357043266,0.0007656587986275554
1782970044387831800,1.480831787109375,0.0011944277212023735,0.004958007019013166,0.0014386395923793316
1782970044397757700,1.4907578125,-0.0006146575906313956,0.005005677696317434,0.0016357135027647018
1782970044407684600,1.5006845703125,-0.00047697214176878333,0.006069077644497156,0.0015217302134260535
1782970044417610800,1.51061083984375,-0.000041811628761934116,0.004867726005613804,0.0015448997728526592
1782970044427536600,1.52053662109375,0.0012516856659203768,0.007625428959727287,0.0008580705034546554
1782970044437463300,1.53046337890625,-0.0025007082149386406,0.005423527676612139,0.0015219965716823936
1782970044447389200,1.54038916015625,0.001148088718764484,0.008499212563037872,0.0000673779723001644
1782970044457316000,1.550316162109375,-0.002213619416579604,0.0041156490333378315,0.0006175870657898486
1782970044467242200,1.5602421875,-0.00039840888348408043,0.003784085623919964,0.0014892396284267306
1782970044477168000,1.570168212890625,-0.0015720640076324344,0.005587578285485506,0.0015808524331077933
1782970044487094300,1.58009423828125,-0.0008319715270772576,0.005438707303255796,0.0018916432745754719
1782970044497021200,1.590021240234375,0.0002942793071269989,0.003840810852125287,0.000904409505892545
1782970044506947300,1.599947265625,-0.0012628709664568305,0.0070078419521451,-0.0005155879771336913
1782970044516873200,1.609873291015625,-0.0009731190511956811,0.005320463329553604,0.0014471617760136724
1782970044526799000,1.619799072265625,-0.0015805860748514533,0.005004878621548414,-0.000609863898716867
1782970044536725200,1.629725341796875,0.0011385013349354267,0.003709516953676939,0.0005635248962789774
1782970044546652200,1.639652099609375,0.00045140579459257424,0.00595429539680481,-0.0005531385540962219
1782970044556578000,1.649578125,-0.00021678130724467337,0.006013950332999229,0.001555552356876433
1782970044566504200,1.659504150390625,-0.0001459412305848673,0.004326837603002787,-0.00006364954606397077
1782970044576430000,1.66943017578125,0.000526506919413805,0.005533515941351652,0.003796602366492152
1782970044586356200,1.679356201171875,0.001586178783327341,0.004329234827309847,0.0009832390351220965
1782970044596283100,1.689283203125,-0.0026027073618024588,0.004478105343878269,0.00037950044497847557
1782970044606209300,1.699209228515625,-0.000925182132050395,0.006638461723923683,0.0005363606614992023
1782970044616135200,1.70913525390625,-0.0019441075855866075,0.005873601883649826,0.0009113337146118283
1782970044626061300,1.719061279296875,0.0001030643325066194,0.002907639369368553,0.001668736687861383
1782970044635988200,1.72898828125,-0.0037292244378477335,0.004763329867273569,-0.0004857605672441423
1782970044645914000,1.7389140625,0.00013741910515818745,0.0037614486645907164,0.003612311789765954
1782970044655840300,1.74884033203125,0.0004588626616168767,0.0038096518255770206,0.000031158982892520726
1782970044665766100,1.75876611328125,-0.0005126585019752383,0.003350256709381938,-0.0003296993381809443
1782970044675692000,1.768692138671875,-0.00010412959818495438,0.004072772338986397,0.001067661214619875
1782970044685619200,1.778619140625,-0.0002008023438975215,0.005616873037070036,-0.0003094593121204525
1782970044695545000,1.788545166015625,-0.0013171994360163808,0.005477323196828365,0.0027598338201642036
1782970044705471200,1.79847119140625,-0.00012357067316770554,0.005812881514430046,0.0027150926180183887
1782970044715397000,1.808397216796875,-0.000040480048483004794,0.008645419962704182,-0.0012152004055678844
1782970044725323300,1.8183232421875,-0.0012402341235429049,0.004649346694350243,-0.0012772521004080772
1782970044735250200,1.828250244140625,-0.0010777813149616122,0.0049465554766356945,0.0017928400775417686
1782970044745176000,1.838176025390625,0.0010330402292311192,0.005209941882640123,-0.0005275722360238433
1782970044755102200,1.848102294921875,-0.0011914982460439205,0.004006459377706051,0.0005986785981804132
1782970044765028400,1.8580283203125,-0.0023606258910149336,0.00560968229547143,0.003721501212567091
1782970044774955300,1.867955322265625,-0.00013022858183830976,0.00523683987557888,0.0024642229545861483
1782970044784881200,1.877881103515625,0.0009307747823186219,0.00663606496527791,0.001119060325436294
1782970044794807300,1.887807373046875,0.0005526058957912028,0.00498170917853713,0.0005627259379252791
1782970044804733200,1.897733154296875,0.0008953547803685069,0.005254949443042278,0.001841842196881771
1782970044814659000,1.9076591796875,0.0004897553008049726,0.006600910797715187,0.004583033733069897
1782970044824586200,1.917586181640625,0.000036485307646216825,0.004311391618102789,0.0015491608064621687
1782970044834512100,1.92751220703125,0.0001227717293659225,0.00780679052695632,0.004994492046535015
1782970044844438000,1.93743798828125,0.0026706180069595575,0.005312739871442318,0.004196076653897762
1782970044854364200,1.9473642578125,-0.0016556872287765145,0.0038948729634284973,0.0023036343045532703
1782970044864290300,1.957290283203125,0.0003664509567897767,0.004449343308806419,-0.00019041601626668125
1782970044874217200,1.96721728515625,-0.002609631512314081,0.005193696822971106,-0.00017736652807798237
1782970044884143000,1.97714306640625,-0.0012069445801898837,0.0031704932916909456,0.00022423815971706063
1782970044894069200,1.9870693359375,0.0004599279200192541,0.003706853836774826,-0.00034914040588773787
1782970044903995400,1.996995361328125,-0.00005832322858623229,0.0055060856975615025,0.004850947763770819
1782970044913922000,2.006922119140625,0.001449025934562087,0.0032738239970058203,0.0018929748330265284
1782970044923848200,2.01684814453125,0.0028072381392121315,0.005440571811050177,0.000568318588193506
1782970044933774300,2.0267744140625,-0.0011022823164239526,0.006689327768981457,-0.0010852381819859147
1782970044943700000,2.036699951171875,0.0006793724023737013,0.005026450380682945,0.001955026527866721
1782970044953626000,2.046626220703125,-0.00013422331539914012,0.006095975637435913,0.0022474415600299835
1782970044963553300,2.05655322265625,0.002168878447264433,0.00580782163888216,-0.00108257494866848
1782970044973479200,2.066479248046875,-0.0024437166284769773,0.00606348505243659,0.0030221552588045597
1782970044983405000,2.076405029296875,-0.00039414784987457097,0.006177734583616257,0.0019920445047318935
1782970044993331200,2.086331298828125,0.0007717840489931405,0.005216333549469709,0.0008530105114914477
1782970045003257300,2.09625732421875,-0.0013038836186751723,0.005026982631534338,0.0030479878187179565
1782970045013184000,2.10618408203125,-0.0008735168376006186,0.004327636677771807,-0.0014769891276955605
1782970045023110100,2.116110107421875,-0.00033875409280881286,0.004060255363583565,0.0006370281334966421
1782970045033036300,2.126036376953125,-0.0003664509567897767,0.005945773329585791,0.0031039142049849033
1782970045042962200,2.135962158203125,-0.0024474449455738068,0.00726377172395587,0.0015523566398769617
1782970045052889000,2.14588916015625,-0.0008724515791982412,0.006915430538356304,-0.000046871635277057067
1782970045062815200,2.155815185546875,0.001017593895085156,0.0038219024427235126,0.0021515677217394114
1782970045072741400,2.165741455078125,-0.001249555149115622,0.005526325665414333,0.0009395632077939808
1782970045082667000,2.1756669921875,-0.0009882990270853043,0.0037558560725301504,0.0018871158827096224
1782970045092593200,2.18559326171875,-0.0006524744676426053,0.004789961501955986,0.0006354302167892456
1782970045102520300,2.195520263671875,-0.00022849922243040055,0.0035782232880592346,0.004839762579649687
1782970045112446000,2.205446044921875,-0.0012748552253469825,0.004478105343878269,0.0024676851462572813
1782970045122372000,2.2153720703125,0.0004929511342197657,0.00612180819734931,-0.0003336940717417747
1782970045132298200,2.22529833984375,0.0022977753542363644,0.0017856494523584843,0.0017973673529922962
1782970045142224100,2.23522412109375,0.0005736448802053928,0.004216849338263273,0.002668753731995821
1782970045152151000,2.245151123046875,0.0025896579027175903,0.004804342519491911,0.002635730430483818
1782970045162077200,2.2550771484375,0.0017576862592250109,0.005092496518045664,0.0024383901618421078
1782970045172003300,2.26500341796875,-0.001121457084082067,0.004875981714576483,0.00236195744946599
1782970045181929200,2.27492919921875,0.00019893812714144588,0.004797418136149645,0.002275671111419797
1782970045191856000,2.284856201171875,-0.0036218990571796894,0.0031731564085930586,0.0023302659392356873
1782970045201782300,2.2947822265625,0.0008016114588826895,0.005952964071184397,0.00042290997225791216
1782970045211708200,2.304708251953125,-0.0009155947482213378,0.005662412848323584,-0.0001347559446003288
1782970045221634000,2.314634033203125,0.0011616708943620324,0.0043593281880021095,0.0027089675422757864
1782970045231560200,2.324560302734375,0.0012775183422490954,0.00413509039208293,0.0021022993605583906
1782970045241487400,2.3344873046875,0.0007150587625801563,0.005364671815186739,0.0022442457266151905
1782970045251413000,2.3444130859375,-0.000179230744834058,0.006797985173761845,0.0012034825049340725
1782970045261339100,2.354339111328125,-0.00007962851668708026,0.003721234854310751,0.002189118415117264
1782970045271265300,2.364265380859375,0.0010423612548038363,0.0052261874079704285,0.001791242160834372
1782970045281191200,2.374191162109375,-0.0010319749126210809,0.004735100548714399,-0.001586178783327341
1782970045291118000,2.3841181640625,0.0010586065473034978,0.0062216767109930515,0.003013632958754897
1782970045301044200,2.394044189453125,-0.0021920478902757168,0.005340170580893755,0.0024429175537079573
1782970045310970000,2.40397021484375,0.0007600661483593285,0.003999269101768732,0.0029883331153541803
1782970045320896300,2.413896240234375,-0.001487641828134656,0.004058124963194132,0.00185036426410079
1782970045330822100,2.423822265625,0.002816559048369527,0.0026698189321905375,0.0019355855183675885
1782970045340749300,2.433749267578125,0.0004825647920370102,0.0030240193009376526,-0.00028096348978579044
1782970045350675200,2.44367529296875,0.0013622068800032139,0.005962018854916096,0.00035712990211322904
1782970045360601000,2.45360107421875,-0.0013957626651972532,0.0046821036376059055,0.0005020058597438037
1782970045370527200,2.46352734375,0.0005568669876083732,0.00324799120426178,0.0014138722326606512
1782970045380454100,2.4734541015625,-0.00020186760229989886,0.0070304786786437035,0.001303351018577814
1782970045390380000,2.483380126953125,0.0003787015157286078,0.0047026099637150764,0.002299639629200101
1782970045400306200,2.49330615234375,-0.0007512777228839695,0.005001416429877281,0.0035654399544000626
1782970045410232000,2.503232177734375,-0.00001997370782191865,0.004008856136351824,0.00006950850365683436
1782970045420158200,2.513158203125,0.0005305017111822963,0.005905293393880129,0.0033489251509308815
1782970045430085000,2.523085205078125,-0.0000399474156438373,0.003870904678478837,0.0037974014412611723
1782970045440011800,2.53301171875,-0.002868224401026964,0.005879727192223072,0.0014761901693418622
1782970045449937700,2.542937744140625,-0.0011917646043002605,0.0033779535442590714,0.0018908443162217736
1782970045459863600,2.552863525390625,-0.0006319681415334344,0.0054943677969276905,-0.0003765709698200226
1782970045469789700,2.562789794921875,0.00008149272616719827,0.007711449172347784,0.0010801780736073852
1782970045479716600,2.572716552734375,-0.0004679173871409148,0.005288771353662014,0.0006138586322776973
1782970045489642500,2.582642578125,-0.001564873498864472,0.007662979885935783,0.0013523531379178166
1782970045499568600,2.592568603515625,-0.0007150587625801563,0.003912982530891895,0.0016998957144096494
1782970045509494500,2.60249462890625,0.002793922321870923,0.004680505488067865,0.0010279801208525896
1782970045519420700,2.612420654296875,-0.00004420847471919842,0.005827528890222311,0.003439206164330244
1782970045529347600,2.62234765625,-0.00043223105603829026,0.005727394018322229,0.001885784324258566
1782970045539273700,2.632273681640625,-0.0005014732014387846,0.005210208240896463,0.0016189356101676822
1782970045549199600,2.64219970703125,-0.0012245214311406016,0.002674612682312727,-0.00017230652156285942
1782970045559125800,2.652125732421875,-0.0008354336023330688,0.0065103634260594845,-0.0015217302134260535
1782970045569052700,2.662052734375,-0.0014122743159532547,0.005711681675165892,0.004412857815623283
1782970045578978600,2.671978515625,-0.00005965480886516161,0.004533232655376196,0.0018993664998561144
1782970045588904700,2.68190478515625,-0.003260241821408272,0.007768440991640091,0.0003328951424919069
1782970045598830600,2.69183056640625,-0.002282062778249383,0.005879194475710392,-0.0005470133037306368
1782970045608756500,2.701756591796875,-0.0010010822443291545,0.0038860845379531384,0.0022066952660679817
1782970045618683600,2.71168359375,-0.002305764937773347,0.005481318105012178,0.0011209244839847088
1782970045628609500,2.721609619140625,0.000018908443962573074,0.00583658367395401,0.0010516822803765535
1782970045638535700,2.73153564453125,-0.000568052229937166,0.0037491980474442244,0.002436792477965355
1782970045648461600,2.741461669921875,-0.0013962953817099333,0.006895722821354866,0.000904409505892545
1782970045658387700,2.7513876953125,0.00023568976030219346,0.006229133810847998,0.001508414396084845
1782970045668314600,2.761314697265625,-0.0034328147303313017,0.00683180708438158,0.0008010788587853312
1782970045678240500,2.771240478515625,0.0035260252188891172,0.004434429574757814,0.003674363251775503
1782970045688166700,2.781166748046875,-0.002403769176453352,0.006893059704452753,0.004618453793227673
1782970045698092800,2.7910927734375,0.002103364560753107,0.000699079770129174,0.0006849650526419282
1782970045708018400,2.801018310546875,0.0019137475173920393,0.003026416292414069,0.0033747577108442783
1782970045717945600,2.810945556640625,0.0011017497163265944,0.005423794034868479,0.0033252229914069176
1782970045727871700,2.820871826171875,-0.00004234426160110161,0.003793140407651663,0.0015097459545359015
1782970045737797600,2.830797607421875,-0.00006604639202123508,0.0019795275293290615,0.002522812457755208
1782970045747723500,2.8407236328125,0.0012708604335784912,0.005131112411618233,0.0025390577502548695
1782970045757650700,2.850650634765625,-0.002689260058104992,0.007564975414425135,0.001463939668610692
1782970045767576600,2.86057666015625,0.0007084008539095521,0.005851497408002615,0.0019771307706832886
1782970045777502500,2.87050244140625,-0.0008522115531377494,0.007023554760962725,0.0016727314796298742
1782970045787428600,2.8804287109375,0.00041625206358730793,0.004933239426463842,0.0003073287953156978
1782970045797354800,2.890354736328125,0.0010543455136939883,0.003766242414712906,0.0019443739438429475
1782970045807281700,2.90028173828125,0.00031079089967533946,0.0037920749746263027,0.002255431143566966
1782970045817207600,2.91020751953125,-0.0015398397808894515,0.006095709279179573,0.001981924520805478
1782970045827133700,2.9201337890625,0.001044758129864931,0.006473079323768616,-0.0022415826097130775
1782970045837059800,2.930059814453125,-0.001284975209273398,0.0039009982720017433,0.0024106933269649744
1782970045846985500,2.9399853515625,0.0004956142511218786,0.004128698725253344,0.002323608146980405
1782970045856912600,2.94991259765625,-0.0003225088003091514,0.005881857592612505,0.0022082931827753782
1782970045866838800,2.9598388671875,-0.0026082999538630247,0.005074120592325926,0.0005874933558516204
1782970045876764400,2.969764404296875,0.00046046054922044277,0.00484402384608984,0.0036727653350681067
1782970045886690600,2.979690673828125,-0.0032719597220420837,0.005330050364136696,-0.000355532014509663
1782970045896616700,2.98961669921875,0.00321922916918993,0.006942860782146454,0.0010524812387302518
1782970045906543600,2.999543701171875,0.0002897519152611494,0.005176652688533068,-0.001050617080181837
1782970045916469500,3.009469482421875,-0.0031667647417634726,0.005565740168094635,-0.00012596751912496984
1782970045926395600,3.019395751953125,-0.0009384979493916035,0.004962267819792032,0.0029585056472569704
1782970045936321800,3.02932177734375,0.002118811011314392,0.004532966297119856,-0.0008013451588340104
1782970045946248400,3.03924853515625,-0.002436259761452675,0.004777710884809494,0.0003150519623886794
1782970045956174600,3.049174560546875,0.0007858988246880472,0.0025752766523510218,0.004668254870921373
1782970045966100700,3.059100830078125,-0.0002743055811151862,0.007592139765620232,0.0012175972806289792
1782970045976026600,3.069026611328125,-0.0014181332662701607,0.006791327148675919,-0.001627457677386701
1782970045985952500,3.078952392578125,0.0012626046082004905,0.004286091309040785,0.004175037611275911
1782970045995879700,3.088879638671875,0.001160072977654636,0.005000617355108261,0.0033276197500526905
1782970046005805800,3.098805908203125,-0.0001739044237183407,0.006750847212970257,0.0013739247806370258
1782970046015731500,3.1087314453125,-0.002663161139935255,0.005359877832233906,0.003394731320440769
1782970046025657600,3.11865771484375,-0.000806138850748539,0.0046629286371171474,0.0016578177455812693
1782970046035583700,3.128583740234375,-0.0017723336350172758,0.007822503335773945,0.0019014970166608691
1782970046045510700,3.1385107421875,-0.003139067906886339,0.007398527581244707,0.0035489285364747047
1782970046055436500,3.1484365234375,-0.000045540054998127744,0.004203266929835081,0.0011587414192035794
1782970046065362700,3.15836279296875,-0.0029489181470125914,0.005094893276691437,0.002207494108006358
1782970046075288600,3.16828857421875,-0.0008713863207958639,0.0054943677969276905,0.002112152986228466
1782970046085214700,3.178214599609375,0.0015571502735838294,0.005166266113519669,0.002922286745160818
1782970046095141600,3.1881416015625,0.0002516687090974301,0.005883721634745598,0.001353418454527855
1782970046105067800,3.19806787109375,-0.0004886900424025953,0.0018413095967844129,0.0031736891251057386
1782970046114993700,3.20799365234375,-0.0009781790431588888,0.00669305631890893,0.0015869776252657175
1782970046124919600,3.21791943359375,0.0010349043877795339,0.0030123014003038406,0.0018578211311250925
1782970046134845700,3.227845703125,-0.001139566651545465,0.007255249656736851,0.0024650217965245247
1782970046144772600,3.237772705078125,-0.00018429075134918094,0.0060112872160971165,0.001520132296718657
1782970046154698500,3.247698486328125,-0.0014514228096231818,0.007701861672103405,0.0008431567694060504
1782970046164624600,3.257624755859375,-0.0017973673529922962,0.004018177278339863,0.003237072378396988
1782970046174550500,3.267550537109375,-0.0019014970166608691,0.0046360306441783905,0.0031843415927141905
1782970046184477400,3.2774775390625,0.001844771672040224,0.006718090269714594,0.0016074840677902102
1782970046194403600,3.287403564453125,0.001315068919211626,0.005363073665648699,0.0011464908020570874
1782970046204329700,3.297329833984375,-0.0012213257141411304,0.005263471510261297,0.0009358347742818296
1782970046214255600,3.307255615234375,0.00007456851017195731,0.004531901329755783,0.0003962783666793257
1782970046224181800,3.317181640625,-0.002061286708340049,0.002886600326746702,0.0034756914246827364
1782970046234108700,3.327108642578125,-0.0013249226612970233,0.007042197044938803,0.0018333201296627522
1782970046244034600,3.33703466796875,0.0013486248208209872,0.004923119675368071,0.003168362658470869
1782970046253960700,3.346960693359375,0.0015792545164003968,0.00427224300801754,0.0006620618514716625
1782970046263886600,3.356886474609375,0.002460228279232979,0.0044112601317465305,0.0022804648615419865
1782970046273812500,3.3668125,-0.0005225121858529747,0.004880242515355349,0.002385659608989954
1782970046283739600,3.37673974609375,0.0003374225052539259,0.006658968050032854,0.0009369000908918679
1782970046293665500,3.38666552734375,-0.0017329188995063305,0.0026940538082271814,0.0008202536264434457
1782970046303591700,3.396591796875,0.00042051312630064785,0.004816060420125723,-0.0017004283145070076
1782970046313517600,3.406517578125,-0.0012279836228117347,0.006446447689086199,0.00224903947673738
1782970046323443700,3.416443603515625,0.0005954828229732811,0.0046541402116417885,0.0032410670537501574
1782970046333370600,3.42637060546875,0.0011134676169604063,0.004890096373856068,0.0014884406700730324
1782970046343296500,3.436296630859375,-0.0013257216196507215,0.0057444386184215546,0.0015590144321322441
1782970046353222700,3.44622265625,-0.0013949638232588768,0.003427754621952772,0.0018785938154906034
1782970046363148800,3.456148681640625,-0.0019361181184649467,0.00694978516548872,0.0022295983508229256
1782970046373075700,3.46607568359375,0.000018109494703821838,0.007163636852055788,0.0002996056282427162
1782970046383001600,3.476001708984375,-0.0018365158466622233,0.004144943784922361,0.002359027974307537
1782970046392927700,3.485927734375,-0.0009443568997085094,0.007960987277328968,0.000254331884207204
1782970046402853600,3.495853515625,0.000029827404432580806,0.005345496814697981,0.004597681108862162
1782970046412779500,3.505779541015625,0.00009347695595351979,0.006714095361530781,0.0026261431630700827
1782970046422706700,3.515706787109375,0.0011757856700569391,0.003346528159454465,0.00011930961773032323
1782970046432632600,3.525632568359375,0.0015816513914614916,0.003169161733239889,0.001303351018577814
1782970046442558200,3.53555810546875,0.0010993528412654996,0.004326305352151394,-0.00027616979787126184
1782970046452484400,3.545484375,-0.0009813748765736818,0.005553755909204483,0.0001752359967213124
1782970046462410200,3.55541015625,-0.0037497307639569044,0.006450974848121405,0.002198439557105303
1782970046472337200,3.565337158203125,-0.0012903015594929457,0.004239752423018217,0.003299656556919217
1782970046482263300,3.57526318359375,-0.0026754115242511034,0.00452843913808465,0.0004676510870922357
1782970046492189200,3.585189208984375,-0.002668487373739481,0.006028064992278814,0.002070607617497444
1782970046502115300,3.595115234375,-0.0012210593558847904,0.0070701600052416325,0.003120958572253585
1782970046512041200,3.605041259765625,0.00012383698776829988,0.0046789078041911125,0.0018642127979546785
1782970046521968400,3.614968505859375,0.00035686357296071947,0.006604905705899,0.00035926041891798377
1782970046531894300,3.624894287109375,0.0002359560749027878,0.004704740364104509,0.002270078519359231
1782970046541820200,3.634820068359375,-0.0014732606941834092,0.004292216617614031,-0.0012447615154087543
1782970046551746300,3.644746337890625,-0.0015864450251683593,0.006104231346398592,0.001660480978898704
1782970046561673200,3.654673095703125,-0.0004138552176300436,0.005887183826416731,0.0014711301773786545
1782970046571599400,3.664599365234375,0.0005243764026090503,0.006029130425304174,0.0032293491531163454
1782970046581525200,3.674525146484375,-0.0011310444679111242,0.0035412053111940622,0.0014562164433300495
1782970046591451100,3.684451171875,0.0013510215794667602,0.004559065215289593,0.0008258462767116725
1782970046601377300,3.694377197265625,-0.0013243899447843432,0.0046578687615692616,0.0019150790758430958
1782970046611304200,3.70430419921875,-0.0011757856700569391,0.0026911243330687284,-0.0009563411585986614
1782970046621230300,3.714230224609375,0.0006567355012521148,0.0038980687968432903,0.003427221905440092
1782970046631156200,3.72415625,-0.003652791725471616,0.006917028222233057,-0.00003808320252574049
1782970046641082400,3.734082275390625,0.00008309062832267955,0.005948969163000584,0.0022975089959800243
1782970046651008300,3.74400830078125,0.0002282329078298062,0.006453372072428465,-0.0015701997326686978
1782970046660935200,3.75393505859375,0.0008700547041371465,0.005772667936980724,0.002213353058323264
1782970046670861300,3.763861328125,-0.0029699571896344423,0.005441637244075537,-0.0001371527905575931
1782970046680787200,3.773787109375,-0.0009158611064776778,0.004269846249371767,0.0007331682136282325
1782970046690713000,3.783713134765625,-0.0008149272762238979,0.005225654691457748,0.001415736391209066
1782970046700639200,3.79363916015625,-0.00216514989733696,0.00717748561874032,0.004637628793716431
1782970046710566400,3.80356640625,-0.0009843043517321348,0.0054826498962938786,0.001689775730483234
1782970046720492300,3.8134921875,-0.001178448786959052,0.006130064371973276,0.003050118451938033
1782970046730418200,3.823418212890625,-0.0002388855500612408,0.005060538649559021,0.0039039277471601963
1782970046740344300,3.83334423828125,-0.0019286612514406443,0.0035603800788521767,0.002365685999393463
1782970046750270500,3.8432705078125,0.00011584750609472394,0.007638745009899139,0.0007970841252245009
1782970046760197000,3.853197021484375,0.0023393207229673862,0.003597131697461009,0.0025569009594619274
1782970046770123300,3.863123291015625,-0.000648479734081775,0.005346029531210661,0.001734250457957387
1782970046780049400,3.87304931640625,0.0019915117882192135,0.004944424610584974,0.0034410704392939806
1782970046789975000,3.88297509765625,0.0012993563432246447,0.00293347192928195,0.00427117757499218
1782970046799902200,3.892902099609375,-0.000723048229701817,0.0028493159916251898,0.0019563580863177776
1782970046809828400,3.902828369140625,-0.002145442645996809,0.005334311630576849,0.002514823107048869
1782970046819754200,3.912754150390625,-0.00016351809608750045,0.007015299052000046,0.0019236012594774365
1782970046829680000,3.92268017578125,0.00138058268930763,0.006115682888776064,0.0014916365034878254
1782970046839606300,3.932606201171875,-0.0025981799699366093,0.006198773626238108,0.0016831178218126297
1782970046849533400,3.942533447265625,-0.0013086773687973619,0.008442486636340618,0.0020532971248030663
1782970046859459000,3.952458984375,0.0001651159836910665,0.005683718249201775,-0.0005121259018778801
1782970046869385200,3.96238525390625,-0.0005584649043157697,0.004830707795917988,-0.0005776396137662232
1782970046879311400,3.972311279296875,0.001252750982530415,0.0037771612405776978,0.0005739112384617329
1782970046889237200,3.9822373046875,0.0004822984628845006,0.006387059111148119,0.001261273049749434
1782970046899161300,3.992161376953125,-0.0012053466634824872,0.004180363845080137,0.0029736857395619154
1782970046909087200,4.002087158203125,-0.002644518855959177,0.006649114191532135,0.0010258496040478349
1782970046919014100,4.01201416015625,0.0012082761386409402,0.0041057956404984,-0.00043755737715400755
1782970046928940300,4.021940185546875,-0.000609863898716867,0.005046423990279436,0.00004900216299574822
1782970046938866200,4.0318662109375,-0.00006178533658385277,0.005724464543163776,0.001955026527866721
1782970046948792300,4.041792236328125,-0.0014868428697809577,0.003656520042568445,0.0007669904152862728
1782970046958718200,4.05171826171875,-0.00040559942135587335,0.004267715383321047,0.002407231368124485
1782970046968645400,4.061645263671875,-0.003111371072009206,0.00313001312315464,0.0011965582380071282
1782970046978571300,4.0715712890625,0.0014349111588671803,0.0037947380915284157,0.0013148026773706079
1782970046988497200,4.0814970703125,-0.0020905814599245787,0.0049193911254405975,0.00452897185459733
1782970046998423300,4.09142333984375,-0.00043649208964779973,0.00615110294893384,0.0014966964954510331
1782970047008350500,4.1013505859375,-0.00026525085559114814,0.005585181526839733,0.0008655273704789579
1782970047018276000,4.111276123046875,-0.0012338425731286407,0.0060024987906217575,0.00162426196038723
1782970047028202200,4.1212021484375,0.0010780475568026304,0.005304217804223299,0.0019076223252341151
1782970047038128000,4.131128173828125,-0.0024796691723167896,0.005800365004688501,0.002835201332345605
1782970047048054300,4.14105419921875,-0.0007478156476281583,0.0049223206005990505,0.00035686357296071947
1782970047057981200,4.150981201171875,-0.0001054611784638837,0.005032841581851244,0.0025475798174738884
1782970047067907300,4.1609072265625,-0.0014761901693418622,0.004808870144188404,0.0014692660188302398
1782970047077833200,4.170833251953125,-0.0013382384786382318,0.005815544631332159,0.0013928331900388002
1782970047087759400,4.18075927734375,-0.0013345100451260805,0.0039265644736588,0.005260808393359184
1782970047097685200,4.190685302734375,0.00033156355493701994,0.006449909880757332,0.0017249294323846698
1782970047107612400,4.2006123046875,0.00022024342615623027,0.00404534162953496,0.00015526228526141495
1782970047117538300,4.210538330078125,-0.00006072007090551779,0.0060355220921337605,0.002290584845468402
1782970047127464200,4.220464111328125,0.0008463526028208435,0.0032780850306153297,-0.00005858954318682663
1782970047137390300,4.230390380859375,-0.0008146609761752188,0.0038280277512967587,0.0013696637470275164
1782970047147316200,4.240316162109375,0.0009760485263541341,0.00734233483672142,0.0021318604703992605
1782970047157243100,4.2502431640625,0.0000798948312876746,0.0057340520434081554,0.0008631304954178631
1782970047167169300,4.260169189453125,-0.00344506511464715,0.003938016481697559,-0.00032570460462011397
1782970047177095200,4.27009521484375,0.00009427589975530282,0.00509835546836257,0.0018959043081849813
1782970047187021300,4.280021240234375,-0.0026644926983863115,0.007489341776818037,0.00005193164179218002
1782970047196947500,4.289947509765625,0.0015030881622806191,0.003976099658757448,-0.00033422670094296336
1782970047206874400,4.299874267578125,-0.0007829693495295942,0.005497563164681196,-0.0014258564915508032
1782970047216800300,4.30980029296875,0.0021254688035696745,0.003963849041610956,0.0017608820926398039
1782970047226726400,4.319726318359375,-0.0012889700010418892,0.006930876523256302,-0.00003062635369133204
1782970047236652300,4.32965234375,0.0005273058777675033,0.006714095361530781,0.002998719457536936
1782970047246579200,4.3395791015625,0.000055926382628967986,0.006155364215373993,0.004013117402791977
1782970047256505300,4.34950537109375,-0.0002585929469205439,0.003346528159454465,-0.0001882854849100113
1782970047266431200,4.35943115234375,0.0001579254458192736,0.00743261631578207,0.001326786819845438
1782970047276357000,4.369357177734375,-0.0010671286145225167,0.00264851376414299,0.0003206445835530758
1782970047286283300,4.379283203125,-0.00006684534309897572,0.003728159237653017,0.0018583538476377726
1782970047296210200,4.389210205078125,-0.0007131945458240807,0.004787298385053873,0.0025806031189858913
1782970047306136300,4.39913623046875,-0.0015792545164003968,0.008432100526988506,0.0016682040877640247
1782970047316063200,4.409063232421875,-0.0023031015880405903,0.004699414130300283,-0.001461010193452239
1782970047325989000,4.418989013671875,0.00038722361205145717,0.010296845808625221,0.0016900419723242521
1782970047335915300,4.428915283203125,-0.0005344964447431266,0.003314037574455142,0.0010823087068274617
1782970047345841200,4.438841064453125,-0.0009065400226972997,0.0046791741624474525,0.001454618526622653
1782970047355768300,4.448768310546875,-0.00036485306918621063,0.0030328077264130116,-0.0016050871927291155
1782970047365694200,4.458694091796875,-0.0025904567446559668,0.002703907433897257,0.0019270633347332478
1782970047375620400,4.468620361328125,0.002377403900027275,0.0031137678306549788,-0.001615473534911871
1782970047385546200,4.478546142578125,-0.0024567660875618458,0.005185174755752087,0.0023936491925269365
1782970047395472400,4.488472412109375,0.0003022687742486596,0.0049225869588553905,0.0008631304954178631
1782970047405399300,4.4983994140625,-0.0010495517635717988,0.0009867012267932296,0.0023153522051870823
1782970047415325200,4.5083251953125,-0.0012831110507249832,0.0073082465678453445,0.002356098499149084
1782970047425251300,4.518251220703125,-0.002133192028850317,0.006885869428515434,-0.000046072687837295234
1782970047435177200,4.52817724609375,-0.002513491315767169,0.006205165293067694,0.0011001517996191978
1782970047445103600,4.538103515625,-0.00040240364614874125,0.005797967780381441,0.001475391210988164
1782970047455030800,4.54803076171875,0.0007720504072494805,0.007013700902462006,0.003433879930526018
1782970047464956400,4.557956298828125,-0.002016811864450574,0.004710599314421415,-0.0005012069013901055
1782970047474882600,4.567882568359375,-0.000027430558475316502,0.0046418895944952965,0.0020967067684978247
1782970047484808700,4.57780859375,0.0005661880713887513,0.005408081226050854,0.0024402544368058443
1782970047494734600,4.587734619140625,-0.0014421016676351428,-0.015596536919474602,-0.007562312297523022
1782970047504661500,4.59766162109375,-0.002439455594867468,0.012092615477740765,0.003875964554026723
1782970047514587600,4.607587646484375,-0.0014543522847816348,0.003959055058658123,-0.0022205437999218702
1782970047524513800,4.617513671875,0.0014136058744043112,-0.008536496199667454,-0.004370247479528189
1782970047534439700,4.627439697265625,-0.0012918994762003422,0.0022034994326531887,0.0009217200567945838
1782970047544366600,4.63736669921875,-0.001520665013231337,0.022012358531355858,0.011937885545194149
1782970047554292700,4.647292724609375,-0.002171275205910206,-0.00749200489372015,-0.0051596080884337425
1782970047564218600,4.657218505859375,-0.00014274542627390474,0.01127901952713728,0.007906658574938774
1782970047574144500,4.66714453125,-0.002832271857187152,-0.00011957593233091757,-0.0006442186422646046
1782970047584070700,4.677070556640625,-0.002029328839853406,0.012172776274383068,0.004613127559423447
1782970047593997800,4.686997802734375,-0.0013933659065514803,0.011785286478698254,0.005634449888020754
1782970047603923500,4.69692333984375,0.0012634035665541887,0.008897088468074799,0.003221093211323023
1782970047613849600,4.706849609375,0.0001512675517005846,0.006916761863976717,0.004716191906481981
1782970047623775700,4.716775634765625,0.00020373181905597448,0.0044115264900028706,0.0002495381922926754
1782970047633701600,4.72670166015625,0.0006476807757280767,0.004172907210886478,0.0018698053900152445
1782970047643628500,4.736628662109375,0.00017683389887679368,0.008903746493160725,0.003184075467288494
1782970047653554700,4.7465546875,0.0002759034978225827,0.012686500325798988,0.004066913388669491
1782970047663480600,4.75648046875,-0.001722798915579915,0.01323777437210083,0.004276770167052746
1782970047673406700,4.76640673828125,0.0018074874533340335,0.008861934766173363,0.0023393207229673862
1782970047683332600,4.77633251953125,0.0007653924985788763,0.004730040207505226,-0.0009440905996598303
1782970047693259800,4.786259765625,-0.0011970909545198083,0.008444351144134998,0.00162426196038723
1782970047703185700,4.796185546875,0.002088983543217182,0.004601942375302315,0.0018181400373578072
1782970047713111600,4.806111572265625,0.002751844236627221,0.005245894659310579,0.001255946815945208
1782970047723037700,4.81603759765625,-0.0011598066193982959,0.005801429972052574,0.0013646037550643086
1782970047732964600,4.825964599609375,0.0000428768944402691,0.004051466938108206,-0.0008250473183579743
1782970047742890500,4.835890380859375,0.0009859022684395313,0.003885019337758422,0.003837615018710494
1782970047752816600,4.845816650390625,0.00018136126163881272,0.005279184319078922,0.001924666459672153
1782970047762742500,4.855742431640625,0.0012213257141411304,0.004640291910618544,0.002680205274373293
1782970047772668700,4.865668701171875,-0.0015246596885845065,0.005816876422613859,-0.0008777778712101281
1782970047782595600,4.875595703125,0.001291100517846644,0.006587595213204622,0.001341434195637703
1782970047792521700,4.885521728515625,0.0003374225052539259,0.005461877211928368,0.002939597237855196
1782970047802447600,4.895447509765625,0.0012777847005054355,0.004072239622473717,0.0007041397620923817
1782970047812373800,4.905373779296875,-0.0016823188634589314,0.006196110509335995,0.0018873822409659624
1782970047822299600,4.915299560546875,0.00002157160452043172,0.0041281660087406635,-0.00017496968212071806
1782970047832226600,4.9252265625,-0.00017470336752012372,0.003743072971701622,0.0019206717843189836
1782970047842152700,4.935152587890625,-0.002511360915377736,0.00506906071677804,0.000913197931367904
1782970047852078600,4.94507861328125,0.0021142836194485426,0.005476790945976973,0.0005339637864381075
1782970047862004500,4.95500439453125,-0.00036991306114941835,0.0030740867368876934,0.003257844829931855
1782970047871930600,4.9649306640625,-0.0003025351034011692,0.003722300287336111,0.0012783173006027937
1782970047881857500,4.974857421875,-0.0023491743486374617,0.006969492416828871,-0.0003299656673334539
1782970047891783700,4.98478369140625,-0.002502039773389697,0.005216599907726049,0.0019033611752092838
1782970047901709600,4.99470947265625,-0.0008950884221121669,0.005501824431121349,0.0017744642682373524
1782970047911635700,5.0046357421875,-0.0014716627774760127,0.004624579101800919,0.002020007697865367
1782970047921561600,5.0145615234375,-0.00037497308221645653,0.004747617058455944,0.0023614249657839537
1782970047931488500,5.024488525390625,0.0009408948244526982,0.003981692250818014,-0.0003403519804123789
1782970047941414700,5.03441455078125,-0.00017124126316048205,0.0037798245903104544,0.00028815402765758336
1782970047951340800,5.0443408203125,0.0023180153220891953,0.005190767347812653,0.001876995898783207
1782970047961266400,5.054266357421875,0.0005605954211205244,0.003322825999930501,0.001335841603577137
1782970047971192600,5.064192626953125,0.00015286543930415064,0.004835767671465874,0.002400573343038559
1782970047981119700,5.07411962890625,-0.00035473305615596473,0.00330258603207767,0.0017696705181151628
1782970047991045600,5.084045654296875,-0.00044607947347685695,0.0035832831636071205,0.0013542174128815532
1782970048000971500,5.093971435546875,-0.0011893677292391658,0.006609166972339153,0.0023726101499050856
1782970048010897700,5.103897705078125,-0.0009369000908918679,0.005766009911894798,-0.001252750982530415
1782970048020823800,5.11382373046875,-0.00047404266661033034,0.004233893472701311,0.003756921272724867
1782970048030750500,5.12375048828125,0.0010546117555350065,0.0033774208277463913,0.0029606360476464033
1782970048040676600,5.133676513671875,-0.00361683894880116,0.006274141371250153,0.0009701895760372281
1782970048050602800,5.143602783203125,-0.00015472965606022626,0.0019797938875854015,0.0015638081822544336
1782970048060528600,5.153528564453125,-0.0002985403698403388,0.005273059010505676,0.0021457087714225054
1782970048070455600,5.16345556640625,-0.0014498248929157853,0.0028016455471515656,0.002660498023033142
1782970048080381700,5.173381591796875,0.0000852211524033919,0.005767341703176498,-0.0005515406373888254
1782970048090307800,5.183307861328125,-0.0002490055630914867,0.004801679402589798,0.0008807073463685811
1782970048100233500,5.1932333984375,0.0002383529208600521,0.006418484263122082,0.0028929917607456446
1782970048110159600,5.20315966796875,-0.0006181196658872068,0.00615136930719018,0.0005331648280844092
1782970048120086800,5.213086669921875,0.0024138891603797674,0.0054482948035001755,0.004336158744990826
1782970048130012700,5.2230126953125,-0.0005150553770363331,0.005497563164681196,-0.0008705873624421656
1782970048139938600,5.2329384765625,0.00009214537567459047,0.0016647420125082135,0.000630902883131057
1782970048149864700,5.24286474609375,0.000218645524000749,0.005279717035591602,0.002046372974291444
1782970048159790600,5.25279052734375,-0.00148125016130507,0.0029433255549520254,-0.00040772996726445854
1782970048169717500,5.262717529296875,-0.001204547705128789,0.004877579398453236,0.0037268276792019606
1782970048179643600,5.2726435546875,0.0010910971323028207,0.0073386067524552345,0.002302036387845874
1782970048189569800,5.28256982421875,0.002441852353513241,0.0039047268219292164,0.0028269453905522823
1782970048199495700,5.29249560546875,0.0012679309584200382,0.00497984467074275,0.0012913667596876621
1782970048209421600,5.302421630859375,-0.0006831008358858526,0.004515655804425478,0.0011281149927526712
1782970048219348700,5.3123486328125,0.00301736150868237,0.0056392434053123,0.0011579424608498812
1782970048229274600,5.322274658203125,-0.0013701963471248746,0.0036005936563014984,0.000565389113035053
1782970048239200500,5.332200439453125,0.0006314354832284153,0.004343615844845772,0.002549444092437625
1782970048249126700,5.342126708984375,0.0012170645641162992,0.0018764632986858487,0.0010660634143278003
1782970048259052500,5.352052490234375,-0.0019853864796459675,0.006175071466714144,0.002484462922438979
1782970048268979500,5.3619794921875,-0.002296443795785308,0.004585430957376957,0.002383262850344181
1782970048278905600,5.371905517578125,0.0005379585199989378,0.004716191906481981,0.00170761882327497
1782970048288831700,5.381831787109375,0.0013965616235509515,0.004313522018492222,0.0018077536951750517
1782970048298757600,5.391757568359375,0.0009832390351220965,0.0028415927663445473,-0.0003552656853571534
1782970048308683500,5.40168359375,0.0013171994360163808,0.0031643679831176996,0.0007478156476281583
1782970048318610700,5.411610595703125,-0.0024490428622812033,0.006767624989151955,0.000844754686113447
1782970048328536800,5.421536865234375,0.0005339637864381075,0.005645102355629206,0.005561213009059429
1782970048338462500,5.43146240234375,0.0015249260468408465,0.0062704128213226795,-0.0001579254458192736
1782970048348388600,5.441388671875,-0.0019097528420388699,0.006356698926538229,0.0022391858510673046
1782970048358314500,5.451314453125,0.00014993596414569765,0.00458782771602273,-0.0015507587231695652
1782970048368241700,5.46124169921875,0.00016351809608750045,0.007877896539866924,0.0013630058383569121
1782970048378167600,5.47116748046875,-0.001472461735829711,0.0037563887890428305,0.001752093667164445
1782970048388093700,5.48109375,-0.0019145464757457376,0.005849899724125862,0.0008823052630759776
1782970048398019600,5.49101953125,-0.0031649006996303797,0.004957740660756826,-0.0008663262706249952
1782970048407946500,5.500946533203125,0.0002716424351092428,0.004965463653206825,0.001359277404844761
1782970048417872600,5.51087255859375,-0.001178448786959052,0.006536728702485561,0.003236273303627968
1782970048427798800,5.520798828125,-0.000036485307646216825,0.00472524669021368,-0.00015712650201749057
1782970048437724700,5.530724609375,-0.0003656520275399089,0.003907123580574989,0.0018716695485636592
1782970048447650300,5.540650390625,0.0006221143994480371,0.0037177728954702616,0.00019520970818120986
1782970048457577200,5.5505771484375,-0.00037497308221645653,0.006888266187161207,0.0028338697738945484
1782970048467503000,5.560503173828125,-0.000600809114985168,0.0027510453946888447,0.0007595335482619703
1782970048477429200,5.57042919921875,0.0008338357438333333,0.007231813855469227,0.00224957219325006
1782970048487355100,5.580355224609375,-0.0004884237423539162,0.005063201766461134,0.0003062635369133204
1782970048497281000,5.590281005859375,-0.00012543488992378116,0.005595301277935505,0.0038189729675650597
1782970048507208200,5.600208251953125,-0.0014868428697809577,0.006827545817941427,-0.0015363775892183185
1782970048517134000,5.610134033203125,0.0007648598402738571,0.005539641249924898,0.0034613104071468115
1782970048527060200,5.620060302734375,0.00001757686368364375,0.005511145573109388,0.002560629276558757
1782970048536986000,5.629986083984375,-0.0007241134881041944,0.004042944870889187,0.0026791400741785765
1782970048546912300,5.639912353515625,0.0015592807903885841,0.006167881190776825,0.0012370382901281118
1782970048556839200,5.649839111328125,0.00017337177996523678,0.005007009021937847,0.0007672567153349519
1782970048566765000,5.65976513671875,-0.0008378304773941636,0.004136155359447002,0.0012215919559821486
1782970048576691200,5.669691162109375,0.0003073287953156978,0.005751895252615213,0.0012538161827251315
1782970048586617300,5.679617431640625,0.00048363005043938756,0.0067697553895413876,0.0029947245493531227
1782970048596543000,5.68954296875,-0.001415736391209066,0.0035326832439750433,0.001716673607006669
1782970048606470100,5.69947021484375,0.00000958738019107841,0.007230748422443867,0.002439455594867468
1782970048616396300,5.709396240234375,-0.0004338289436418563,0.0037729002069681883,0.0007137271459214389
1782970048626322200,5.719322265625,0.0008591357618570328,0.004051999654620886,0.0031135017052292824
1782970048636248000,5.729248046875,0.0008420915110036731,0.005853894166648388,0.004253600724041462
1782970048646174200,5.73917431640625,-0.0024085629265755415,0.005607818253338337,0.0011116034584119916
1782970048656101000,5.74910107421875,-0.0016082830261439085,0.002694586291909218,0.001933987601660192
1782970048666027000,5.759027099609375,-0.0026253440883010626,0.004520449787378311,0.003935352899134159
1782970048675953200,5.768953125,-0.0018378474051132798,0.004764395300298929,0.0021728731226176023
1782970048685879300,5.77887939453125,0.0025009745731949806,0.005604622419923544,-0.0004748416249640286
1782970048695805200,5.78880517578125,-0.001475391210988164,0.005590241402387619,0.0019568908028304577
1782970048705732000,5.798732177734375,0.0005659217131324112,0.004341751337051392,0.001133441342972219
1782970048715658200,5.808658203125,-0.004118045791983604,0.004716990981251001,0.00013928332191426307
1782970048725584400,5.81858447265625,0.0009246495319530368,0.00421365350484848,0.00253426400013268
1782970048735510000,5.828510009765625,0.0006103964988142252,0.004430434666574001,0.0018953717080876231
1782970048745437200,5.838437255859375,0.0024607607629150152,0.00765871861949563,0.0021427792962640524
1782970048755363300,5.84836328125,-0.0029148298781365156,0.0051745218224823475,0.002941993996500969
1782970048765289000,5.8582890625,-0.002144377212971449,0.0067788101732730865,0.004511927254498005
1782970048775215000,5.868215087890625,0.0011909656459465623,0.006854443810880184,0.0005677859298884869
1782970048785141200,5.878141357421875,0.00027270769351162016,0.004241084214299917,0.0018756643403321505
1782970048795068200,5.888068115234375,-0.0018546254141256213,0.004550010897219181,0.0025537051260471344
1782970048804994000,5.897994140625,-0.002484462922438979,0.004328968469053507,0.002540389308705926
1782970048814920200,5.907920166015625,-0.0018524948973208666,0.005078914575278759,0.0010247844038531184
1782970048824846300,5.917846435546875,-0.0010985539993271232,0.004893824923783541,0.0012064119800925255
1782970048834772200,5.927772216796875,-0.0004005394293926656,0.006452572997659445,0.000770452490542084
1782970048844699100,5.93769921875,-0.00011238539445912465,0.007102117873728275,0.000978978001512587
1782970048854625300,5.947625244140625,-0.00021971078240312636,0.00666269613429904,0.0018165421206504107
1782970048864551200,5.95755126953125,-0.0012996225850656629,0.006755108013749123,0.0020988371688872576
1782970048874477000,5.96747705078125,0.0007305050967261195,0.0076033249497413635,0.0012239888310432434
1782970048884403200,5.9774033203125,0.0002436792419757694,0.006638728082180023,0.004599545616656542
1782970048894330400,5.987330322265625,0.001987250754609704,0.0062855929136276245,0.0022887205705046654
1782970048904256000,5.997256103515625,-0.0007238471880555153,0.004069043789058924,0.0037294907961040735
1782970048914182100,6.00718212890625,-0.001683384063653648,0.004052532371133566,0.004667456261813641
1782970048924108300,6.0171083984375,-0.005819006823003292,0.006313023157417774,0.0011259844759479165
1782970048934034200,6.0270341796875,0.0015366439474746585,0.0030210898257791996,0.003585680155083537
1782970048943961000,6.036961181640625,-0.0013142699608579278,0.006713562645018101,0.0020506340079009533
1782970048953887200,6.04688720703125,-0.0005819007055833936,0.005089034326374531,-0.00039175100391730666
1782970048963813000,6.056813232421875,0.000592020689509809,0.004024302586913109,0.0019017633749172091
1782970048973739300,6.0667392578125,0.0004822984628845006,0.0019686087034642696,0.0034503915812820196
1782970048983665200,6.0766650390625,0.00177899154368788,0.004037085920572281,0.001794171635992825
1782970048993592300,6.08659228515625,-0.0026756778825074434,0.006302903406322002,0.0025680861435830593
1782970049003518200,6.096518310546875,-0.0036762275267392397,0.0032730249222368,0.0035060516092926264
1782970049013444000,6.106444091796875,0.0028791434597223997,0.005697567015886307,0.0012658004416152835
1782970049023370200,6.116370361328125,-0.00015419702685903758,0.00541260838508606,0.0005579322460107505
1782970049033296100,6.126296142578125,-0.0026045716367661953,0.004976116586476564,0.0032671659719198942
1782970049043223000,6.13622314453125,-0.00042637207661755383,0.005080778617411852,0.0024311996530741453
1782970049053149200,6.146149169921875,0.0010689928894862533,0.004050401505082846,0.002295911079272628
1782970049063075000,6.156074951171875,0.0007637945818714797,0.005940447095781565,0.003968109842389822
1782970049073001200,6.166001220703125,-0.00007297061529243365,0.0021907163318246603,-0.0007211840129457414
1782970049082927000,6.175927001953125,-0.0010258496040478349,0.003772101365029812,0.0031403994653373957
1782970049092854300,6.185854248046875,-0.0002687129599507898,0.007933823391795158,0.00012090751260984689
1782970049102780200,6.1957802734375,0.0008354336023330688,0.005693572107702494,0.0037465349305421114
1782970049112706300,6.205706298828125,-0.000702009245287627,0.006115949247032404,-0.0004340952436905354
1782970049122632200,6.215632080078125,0.0004886900424025953,0.006887200754135847,0.0005467469454742968
1782970049132559000,6.22555908203125,-0.0036613137926906347,0.005428853910416365,0.0016058861510828137
1782970049142485200,6.2354853515625,-0.000018109494703821838,0.004739361349493265,-0.0004996090428903699
1782970049152411100,6.2454111328125,-0.00177899154368788,0.0052016861736774445,0.0021638183388859034
1782970049162337000,6.2553369140625,-0.00046152580762282014,0.004938832018524408,0.0017619474092498422
1782970049172263200,6.26526318359375,0.00029081720276735723,0.0037444045301526785,0.00047936898772604764
1782970049182190000,6.275190185546875,0.0005139900604262948,0.004995557479560375,0.0005664543714374304
1782970049192116200,6.2851162109375,0.000693220819812268,0.005850432440638542,-0.0002492718631401658
1782970049202042000,6.2950419921875,-0.000015180017726379447,0.005873069167137146,0.000895621080417186
1782970049211968300,6.30496826171875,-0.0013235911028459668,0.005591040477156639,-0.0001699096756055951
1782970049221894100,6.31489404296875,-0.0005938849062658846,0.0037529265973716974,0.004286890383809805
1782970049231821000,6.324821044921875,-0.00037976677413098514,0.004854676313698292,0.002095375210046768
1782970049241747200,6.334747314453125,0.0017512947088107467,0.005033107940107584,0.0006202502408996224
1782970049251673300,6.34467333984375,-0.0012650014832615852,0.006536728702485561,0.001719603082165122
1782970049261599000,6.354598876953125,-0.0005350290448404849,0.005203284323215485,0.0005909554311074317
1782970049271525000,6.364525146484375,0.0015550197567790747,0.004809668753296137,0.001972337020561099
1782970049281452300,6.374452392578125,-0.00014088122406974435,0.0049103363417088985,0.0057593523524701595
1782970049291378200,6.384378173828125,0.001564873498864472,0.005176652688533068,0.0022303974255919456
1782970049301304000,6.394303955078125,0.0007163903210312128,0.006702910177409649,-0.00043329631444066763
1782970049311230200,6.404230224609375,-0.0006210491410456598,0.004063184838742018,0.0035779569298028946
1782970049321156400,6.41415625,-0.0024594292044639587,0.006029130425304174,0.003693005535751581
1782970049331083000,6.4240830078125,0.001189900329336524,0.006852846127003431,0.0019467707024887204
1782970049341009200,6.434009033203125,-0.001320927869528532,0.005175587255507708,0.0018572885310277343
1782970049350935300,6.443935302734375,-0.00027324032271280885,0.004687163513153791,0.001844505313783884
1782970049360861200,6.453861083984375,-0.0012679309584200382,0.008021174930036068,0.0018722022650763392
1782970049370787000,6.463787109375,0.0003789678157772869,0.004816859494894743,0.0005331648280844092
1782970049380714200,6.47371435546875,-0.00009507485083304346,0.006334594916552305,0.0020820593927055597
1782970049390640400,6.483640380859375,0.0016522251535207033,0.0031230889726430178,0.0034621094819158316
1782970049400566000,6.49356591796875,0.0008013451588340104,0.0052019525319337845,0.0006250438746064901
1782970049410492200,6.5034921875,-0.002573146251961589,0.00567013630643487,0.003322559641674161
1782970049420418300,6.513418212890625,-0.002016279147937894,0.005031776614487171,0.0019912454299628735
1782970049430345000,6.523344970703125,-0.0005081311101093888,0.007864580489695072,-0.00001757686368364375
1782970049440271000,6.53327099609375,0.0014346449170261621,0.0040796962566673756,0.0008114652009680867
1782970049450197000,6.543197021484375,0.0005451490869745612,0.0036274916492402554,0.004490089602768421
1782970049460123000,6.553122802734375,0.00042024682625196874,0.003984621725976467,0.002025333931669593
1782970049470049000,6.563049072265625,-0.0008285093936137855,0.005240834783762693,0.0010580739472061396
1782970049479976000,6.572975830078125,-0.0019973707385361195,0.00691969133913517,0.0031071100383996964
1782970049489901800,6.58290185546875,-0.002983805723488331,0.004299940075725317,0.003381948219612241
1782970049499828000,6.592827880859375,0.0002889529860112816,0.0038570561446249485,-0.0003813646617345512
1782970049509753900,6.60275390625,0.001415736391209066,0.004375307355076075,-0.0019835224375128746
1782970049519679700,6.6126796875,-0.00043755737715400755,0.007364972028881311,0.002385659608989954
1782970049529607000,6.62260693359375,-0.000316916179144755,0.004378236830234528,0.0013435647124424577
1782970049539532800,6.63253271484375,-0.002124137245118618,0.004923119675368071,-0.0002836266648955643
1782970049549459000,6.642458984375,-0.00023276027059182525,0.004246410448104143,-0.0005099953268654644
1782970049559384800,6.652384765625,0.001115864492021501,0.004314853344112635,0.00370099488645792
1782970049569311700,6.662311767578125,0.0002735066518653184,0.007283479440957308,0.002192314248532057
1782970049579238000,6.67223779296875,0.0007739146240055561,0.003614175831899047,0.005741775035858154
1782970049589163800,6.682163818359375,0.0011089402250945568,0.0029204224701970816,0.0010980212828144431
1782970049599090000,6.69208984375,-0.00007430219557136297,0.0065138256177306175,0.0018615495646372437
1782970049609016000,6.70201611328125,-0.001130778226070106,0.003665574826300144,-0.0000655137628200464
1782970049618943000,6.71194287109375,-0.0007363640470430255,0.0041582598350942135,0.0016405072528868914
1782970049628868900,6.721868896484375,-0.000303334032651037,0.005592904519289732,0.0030573089607059956
1782970049638795000,6.731794921875,-0.0013214604696258903,0.006539125461131334,0.0043910201638937
1782970049648721000,6.741720947265625,0.00018109494703821838,0.005036836490035057,-0.0014953649369999766
1782970049658646800,6.751646728515625,-0.0006471481174230576,0.0054759918712079525,0.00070493872044608
1782970049668574000,6.761573974609375,-0.0019358517602086067,0.005477323196828365,0.001130245509557426
1782970049678499800,6.771499755859375,-0.002540922025218606,0.0059835901483893394,0.0009928264189511538
1782970049688425700,6.78142578125,-0.0020671456586569548,0.004478904418647289,0.001734250457957387
1782970049698351900,6.791351806640625,-0.00036911413189955056,0.004347610287368298,0.0013132047606632113
1782970049708278000,6.801278076171875,0.002529470482841134,0.0037550569977611303,0.004554271697998047
1782970049718205000,6.811204833984375,0.0035952674224972725,0.004976915195584297,0.0006095975404605269
1782970049728130800,6.821130859375,-0.0005781722720712423,0.007956992834806442,0.0025893915444612503
1782970049738057000,6.831056884765625,-0.0007677893154323101,0.003906857222318649,0.002639725338667631
1782970049747983000,6.840983154296875,-0.0020303940400481224,0.00503896689042449,0.0020807278342545033
1782970049757908700,6.85090869140625,0.0006404902087524533,0.006178000941872597,0.0004194478678982705
1782970049767836000,6.8608359375,0.0013243899447843432,0.006278668530285358,0.0024732777383178473
1782970049777762000,6.870761962890625,-0.0037318875547498465,0.005067196674644947,0.002035187790170312
1782970049787687700,6.880687744140625,-0.00180881901178509,0.0070312777534127235,0.0016458334866911173
1782970049797613800,6.89061376953125,-0.0012189288390800357,0.005152684170752764,-0.0001400822657160461
1782970049807540000,6.9005400390625,-0.0035260252188891172,0.006046973634511232,0.0001691107318038121
1782970049817467000,6.910466796875,0.0015275891637429595,0.004274107050150633,0.0011757856700569391
1782970049827392800,6.920392822265625,0.001213868847116828,0.00373055599629879,0.0004713795206043869
1782970049837319000,6.93031884765625,-0.0007848335662856698,0.006783337332308292,0.0013321131700649858
1782970049847245000,6.9402451171875,-0.0005203816690482199,0.005915413144975901,0.0001739044237183407
1782970049857171000,6.9501708984375,-0.0007158577209338546,0.006293848622590303,0.0011731224367395043
1782970049867097900,6.960097900390625,-0.0006149238906800747,0.0049127331003546715,0.0021528995130211115
1782970049877024000,6.97002392578125,0.000014647385796706658,0.003379285102710128,0.0008729841792955995
1782970049886950000,6.979949951171875,-0.0009922938188537955,0.004194478504359722,0.0009302421822212636
1782970049896875800,6.989875732421875,0.0015305186389014125,0.00526533555239439,0.0021824603900313377
1782970049906802000,6.999802001953125,0.000014647385796706658,0.003989148885011673,0.0029995182994753122
1782970049916729000,7.00972900390625,-0.0018279937794432044,0.006918093655258417,0.0031212246976792812
1782970049926654700,7.01965478515625,-0.0017425062833353877,0.0007656587986275554,0.0014737932942807674
1782970049936580900,7.029580810546875,-0.002272475278005004,0.006425941362977028,0.0026399914640933275
1782970049946507000,7.039507080078125,0.0016306535108014941,0.006707703694701195,0.0005318332696333528
1782970049956433000,7.049432861328125,-0.002347310073673725,0.005230980925261974,0.0009166600648313761
1782970049966359800,7.05935986328125,0.00028096348978579044,0.007405984681099653,0.002167813014239073
1782970049976286000,7.069285888671875,0.0015337144723162055,0.006877879612147808,0.00035606464371085167
1782970049986211800,7.0792119140625,-0.002665025182068348,0.004245078656822443,0.0025784724857658148
1782970049996138000,7.089137939453125,-0.0021584921050816774,0.007693605963140726,0.0010135991033166647
1782970050006065000,7.09906494140625,-0.0002849582233466208,0.006535663735121489,-0.002305232221260667
1782970050015991000,7.108990966796875,0.0024053670931607485,0.004699147772043943,0.0029553098138421774
1782970050025917000,7.1189169921875,-0.00025513084256090224,0.0049707903526723385,-0.0002985403698403388
1782970050035842800,7.1288427734375,-0.0009246495319530368,0.005028048064559698,0.0003856257244478911
1782970050045769000,7.13876904296875,0.0001978728687390685,0.0041220407001674175,0.0021283982787281275
1782970050055696000,7.14869580078125,0.0009914948605000973,0.006471215281635523,0.0009701895760372281
1782970050065621800,7.158621826171875,0.0010290454374626279,0.0038541266694664955,0.0006095975404605269
1782970050075548000,7.1685478515625,-0.0005872269975952804,0.005723665934056044,0.001582982949912548
1782970050085473800,7.178473876953125,0.0012626046082004905,0.002921221312135458,0.003154514357447624
1782970050095400000,7.18839990234375,0.0008607336785644293,0.0035843485966324806,0.004061320796608925
1782970050105326800,7.198326904296875,-0.0000021305288555595325,0.002668487373739481,-0.000290018244413659
1782970050115253000,7.2082529296875,-0.001430916483514011,0.006768424063920975,0.0023670175578445196
1782970050125179000,7.218178955078125,0.0007126618875190616,0.006464024540036917,0.0015044197207316756
1782970050135104800,7.228104736328125,-0.0027230822015553713,0.006137254647910595,0.0006245112745091319
1782970050145031000,7.238031005859375,-0.0008660599705763161,0.005510080140084028,0.004749747924506664
1782970050154957800,7.247957763671875,0.0006151901907287538,0.004804608877748251,0.0022687469609081745
1782970050164884000,7.257884033203125,0.0007776430575177073,0.003555586328729987,0.0019499665359035134
1782970050174809900,7.267809814453125,-0.0007755124825052917,0.003929493948817253,0.0015962987672537565
1782970050184735700,7.27773583984375,-0.001288171042688191,0.00586747657507658,-0.00045673211570829153
1782970050194662000,7.287661865234375,0.000011451592399680521,0.005810484755784273,0.0036847495939582586
1782970050204588800,7.2975888671875,-0.00046365635353140533,0.004501274786889553,0.0011022823164239526
1782970050214515000,7.307514892578125,0.0005512743373401463,0.003200853243470192,0.001701759872958064
1782970050224440800,7.31744091796875,0.0016378440195694566,0.004279433749616146,0.0010775149567052722
1782970050234367000,7.327366943359375,0.0000399474156438373,0.0031316110398620367,0.00001704423084447626
1782970050244292900,7.33729296875,-0.002683134749531746,0.0049153962172567844,0.001199221471324563
1782970050254219800,7.3472197265625,0.00047084689140319824,0.005047755315899849,0.0034024545457214117
1782970050264146000,7.35714599609375,-0.0006474144756793976,0.006166815757751465,0.0027289411518722773
1782970050274071800,7.36707177734375,-0.003349723992869258,0.005741775035858154,0.003450924064964056
1782970050283997700,7.376997802734375,-0.0006767092272639275,0.00666296249255538,0.002403236459940672
1782970050293923800,7.386923828125,-0.0004948153509758413,0.003739877138286829,0.0019864519126713276
1782970050303851000,7.39685107421875,0.002305232221260667,0.006155364215373993,0.0035859462805092335
1782970050313777000,7.40677685546875,-0.0023161512799561024,0.00692155584692955,0.0011646003695204854
1782970050323702800,7.416702880859375,-0.000892691605258733,0.006611031014472246,0.0023451796732842922
1782970050333629000,7.42662890625,-0.0007025419035926461,0.005634183529764414,0.0010580739472061396
1782970050343555000,7.43655517578125,-0.00040666470886208117,0.004610730800777674,0.0020940436515957117
1782970050353481700,7.446481689453125,0.0008524778531864285,0.003911118488758802,0.002620816696435213
1782970050363408000,7.456407958984375,0.0013347762869670987,0.005387308541685343,0.0009925601771101356
1782970050373334000,7.466333984375,0.0002008023438975215,0.004887699615210295,0.0032650355715304613
1782970050383259600,7.476259765625,0.00013635384675581008,0.004591289907693863,0.0012101404136046767
1782970050393185800,7.486185791015625,0.0009683253592811525,0.006325540132820606,-0.0008024104172363877
1782970050403113000,7.496113037109375,0.0011488876771181822,0.00538464542478323,0.0006154565489850938
1782970050413038800,7.506038818359375,0.0002359560749027878,0.005089833401143551,0.0005499427788890898
1782970050422964700,7.51596484375,0.00023089606838766485,0.0043958136811852455,0.0019507654942572117
1782970050432891000,7.525890869140625,-0.0002724413643591106,0.006077067460864782,0.0016793893883004785
1782970050442817000,7.535817138671875,-0.0012484899489209056,0.0034293525386601686,0.0028298748657107353
1782970050452743700,7.54574365234375,0.0008958873804658651,0.004281564150005579,0.0007374293054454029
1782970050462669800,7.555669921875,-0.00021198761533014476,0.004319380968809128,0.000957939017098397
1782970050472596000,7.565595947265625,0.0017592841759324074,0.0055122110061347485,0.000755805114749819
1782970050482521900,7.57552197265625,-0.0021614215802401304,0.005346562247723341,0.0015736619243398309
1782970050492447700,7.58544775390625,0.00036964676110073924,0.004629106726497412,0.003367300843819976
1782970050502375000,7.595375,-0.0002996056282427162,0.005340170580893755,0.0015185344964265823
1782970050512301000,7.605301025390625,-0.000964064325671643,0.0018373148050159216,0.0009028115891851485
1782970050522226700,7.615226806640625,-0.0013819142477586865,0.005385976750403643,0.0005637911963276565
1782970050532152800,7.62515283203125,0.0012418320402503014,0.0017174725653603673,-0.00015180018090177327
1782970050542080000,7.635080078125,-0.0020682108588516712,0.005297559779137373,-0.0015190670965239406
1782970050552006000,7.645005859375,-0.0005968143814243376,0.006150570698082447,0.002406698651611805
1782970050561931800,7.654931884765625,-0.0022362563759088516,0.004286624025553465,0.0026325348298996687
1782970050571858000,7.66485791015625,-0.0005619269795715809,0.004228567238897085,0.0023491743486374617
1782970050581783800,7.67478369140625,-0.0013318468118086457,0.0027355989441275597,0.0005749764968641102
1782970050591710700,7.684710693359375,-0.0007384945638477802,0.005932990461587906,0.002016545506194234
1782970050601636900,7.694636962890625,-0.00035127095179632306,0.004107659682631493,0.0029798108153045177
1782970050611563000,7.70456298828125,0.0004487426485866308,0.0065444521605968475,0.0007331682136282325
1782970050621489000,7.714489013671875,0.002291117561981082,0.006946056615561247,0.003328684950247407
1782970050631414800,7.724414794921875,-0.003611246356740594,0.004605937283486128,0.0015278555219992995
1782970050641342000,7.734342041015625,-0.0006072007236070931,0.004452805500477552,-0.00042530681821517646
1782970050651267800,7.744267822265625,0.000010386328540334944,0.003969441633671522,0.0024104269687086344
1782970050661193700,7.75419384765625,-0.000290018244413659,0.007758853491395712,0.0035483958199620247
1782970050671120000,7.764119873046875,0.0002593918761704117,0.005879993550479412,0.00239258399233222
1782970050681045800,7.774045654296875,-0.002660231664776802,0.005849367007613182,0.0011976235546171665
1782970050690973000,7.783972900390625,-0.000322775129461661,0.005313006229698658,0.0009675264009274542
1782970050700898800,7.79389892578125,0.000520647969096899,0.0044983453117311,0.0028628981672227383
1782970050710825000,7.803824951171875,-0.0007440872141160071,0.00549250328913331,0.003154514357447624
1782970050720750800,7.813750732421875,-0.00033875409280881286,0.006524212192744017,0.001353418454527855
1782970050730677000,7.823677001953125,-0.0025180187076330185,0.005815544631332159,0.00016538229829166085
1782970050740604000,7.83360400390625,-0.0012511530658230186,0.005913282744586468,0.0033188313245773315
1782970050750529800,7.84352978515625,-0.002004827605560422,0.0060357884503901005,-0.0005049353349022567
1782970050760456000,7.8534560546875,0.0014207963831722736,0.00418302696198225,0.001287904684431851
1782970050770381800,7.8633818359375,0.0006463492172770202,0.004325772635638714,0.000886566296685487
1782970050780307700,7.8733076171875,0.0002537992550060153,0.004013117402791977,0.0011867046123370528
1782970050790235000,7.88323486328125,-0.0020873856265097857,0.005683451890945435,0.004259193316102028
1782970050800160800,7.893160888671875,-0.002210689941421151,0.0075910743325948715,-0.00048123320448212326
1782970050810087000,7.9030869140625,-0.0004948153509758413,0.00640889722853899,0.004584898240864277
1782970050820012800,7.9130126953125,0.0007257114048115909,0.004505536053329706,0.0019739349372684956
1782970050829939000,7.92293896484375,-0.0021944446489214897,0.004102599807083607,0.0026290726382285357
1782970050839865900,7.932865966796875,-0.0024607607629150152,0.006901848129928112,0.0007803061744198203
1782970050849791700,7.942791748046875,-0.0008556736283935606,0.006637662649154663,0.0016785904299467802
1782970050859718000,7.9527177734375,0.00040559942135587335,0.00589490681886673,-0.000711064029019326
1782970050869644000,7.96264404296875,0.00024501082953065634,0.0043896883726119995,0.0030306773260235786
1782970050879569700,7.972569580078125,-0.0011209244839847088,0.00509862182661891,0.0007555388147011399
1782970050889496800,7.982496826171875,0.002514024032279849,0.0036485306918621063,0.0015691345324739814
1782970050899423000,7.992423095703125,-0.000952080066781491,0.0057433731853961945,0.002511360915377736
1782970050909347800,8.002347900390625,-0.0002519350382499397,0.005920207127928734,0.0008173241512849927
1782970050919273700,8.012273681640625,-0.00033955302205868065,0.0043444144539535046,0.0010910971323028207
1782970050929201000,8.022200927734374,-0.0006538060260936618,0.003817907767370343,0.000737695605494082
1782970050939127000,8.032126953125,0.00016165387933142483,0.004254666157066822,0.0033968619536608458
1782970050949053000,8.042052978515626,-0.0003507383225951344,0.0041587925516068935,0.001517202821560204
1782970050958978800,8.051978759765625,0.0020961740519851446,0.006929278839379549,0.0007843009079806507
1782970050968905000,8.061905029296875,-0.003087136195972562,0.005574528593569994,0.0007238471880555153
1782970050978832000,8.071831787109375,0.0005765743553638458,0.0030687605030834675,0.002968359272927046
1782970050988757800,8.0817578125,0.0011608719360083342,0.0046357642859220505,0.0022916500456631184
1782970050998684000,8.091683837890624,0.0007499461644329131,0.005558816250413656,0.0017012272728607059
1782970051008609800,8.10160986328125,0.0019659455865621567,0.004976915195584297,0.0012476909905672073
1782970051018536000,8.111535888671876,-0.0036946034524589777,0.004333761986345053,0.0023225427139550447
1782970051028462800,8.121462890625,0.0008096009842120111,0.0044165863655507565,0.004261324182152748
1782970051038389000,8.131388916015625,-0.0005603290628641844,0.004364654887467623,0.0014210627414286137
1782970051048315000,8.14131494140625,-0.0004673847579397261,0.00640836451202631,0.00004314320904086344
1782970051058240800,8.15124072265625,-0.00017550231132190675,0.005472263321280479,0.0032690302468836308
1782970051068167000,8.1611669921875,-0.00037497308221645653,0.006572947837412357,0.0004247741890139878
1782970051078093800,8.17109375,-0.001205080421641469,0.006049903109669685,0.004264520015567541
1782970051088020000,8.18102001953125,-0.00012889699428342283,0.0054669370874762535,0.0018093516118824482
1782970051097945900,8.19094580078125,-0.002915362361818552,0.005394232925027609,0.0011680624447762966
1782970051107871700,8.200871826171875,-0.0022530341520905495,0.004327370319515467,0.0017060210229828954
1782970051117798000,8.2107978515625,-0.0037015276029706,0.008915730752050877,-0.0013851100811734796
1782970051127724800,8.220724853515625,-0.0009739180095493793,0.004780374001711607,0.0017989652696996927
1782970051137651000,8.23065087890625,0.0026461167726665735,0.004670652095228434,0.0002663161139935255
1782970051147576800,8.240576904296875,-0.001585912425071001,0.0037617150228470564,0.00185036426410079
1782970051157503000,8.2505029296875,0.000975782226305455,0.0057260626927018166,0.002138784620910883
1782970051167428900,8.260428955078124,0.0006554039428010583,0.004142014309763908,0.0004218447138555348
1782970051177355800,8.270355712890625,0.002189384773373604,0.006325540132820606,0.0010641991393640637
1782970051187282000,8.280281982421876,0.0009084042394533753,0.004948419518768787,0.00250576832331717
1782970051197207800,8.290207763671875,-0.0006578007596544921,0.006446980405598879,0.004005394410341978
1782970051207133700,8.3001337890625,-0.0015736619243398309,0.004265318624675274,-0.0016146745765581727
1782970051217059800,8.310059814453124,0.000472977408207953,0.003753991797566414,0.0031252196058630943
1782970051226987000,8.319987060546875,0.001508414396084845,0.005570001434534788,0.0034679684322327375
1782970051236913000,8.329912841796874,0.000035420041967881843,0.0049247173592448235,-0.00038482676609419286
1782970051246838800,8.3398388671875,0.0003685815026983619,0.007257380057126284,0.0007360977469943464
1782970051256765000,8.349764892578126,-0.0010418286547064781,0.005673332139849663,-0.000254331884207204
1782970051266691000,8.359691162109375,-0.0009864348685368896,0.0068152956664562225,0.0030418625101447105
1782970051276617700,8.36961767578125,-0.0003201119543518871,0.006712763570249081,0.0013401026371866465
1782970051286544000,8.3795439453125,-0.0005986785981804132,0.005544967483729124,0.003623763332143426
1782970051296470000,8.389469970703125,-0.003707386553287506,0.005313272587954998,-0.00026844663079828024
1782970051306399000,8.39939892578125,0.0002969424531329423,0.005313272587954998,0.0005715143634006381
1782970051316324900,8.409324951171875,0.0018040252616629004,0.006523945834487677,-0.0005613943794742227
1782970051326250800,8.419250732421874,0.001294029993005097,0.0018498316640034318,0.0018045579781755805
1782970051336177000,8.429177001953125,-0.0000977380113909021,0.0060206083580851555,0.0007789746159687638
1782970051346103000,8.43910302734375,-0.0006072007236070931,0.005093029234558344,0.00013022858183830976
1782970051356030000,8.449030029296875,-0.000107858024421148,0.005228051450103521,0.003323625074699521
1782970051365955800,8.458955810546875,0.0021758025977760553,0.004764395300298929,-0.0014495585346594453
1782970051375882000,8.468882080078124,-0.0008703210623934865,0.005886384751647711,0.0010974886827170849
1782970051385808000,8.478807861328125,-0.0005313006113283336,0.005116465035825968,0.00028762139845639467
1782970051395733800,8.488733642578126,-0.0006474144756793976,0.005887982901185751,0.0038637141697108746
1782970051405661000,8.498660888671875,-0.0008633967954665422,0.005239769350737333,-0.002493517706170678
1782970051415587000,8.508587158203126,-0.00040000680019147694,0.003816842334344983,-0.0005179848521947861
1782970051425512700,8.5185126953125,0.0005765743553638458,0.003906058380380273,0.0002388855500612408
1782970051435438800,8.52843896484375,0.002293247962370515,0.0030660973861813545,0.000592020689509809
1782970051445365200,8.538365234375,0.0008474178612232208,0.0060264673084020615,0.0022485069930553436
1782970051455292200,8.548292236328125,0.00021971078240312636,0.006873352453112602,0.0010183927370235324
1782970051465218000,8.558218017578126,0.002171008847653866,0.005124720744788647,-0.00006817692337790504
1782970051475144200,8.568144287109375,0.0004396878939587623,0.005648830905556679,0.0013888385146856308
1782970051485070300,8.5780703125,-0.00003355582884978503,0.006414756178855896,0.002229332225397229
1782970051494996000,8.587995849609374,-0.0009009473724290729,0.005945773329585791,0.001264735241420567
1782970051504923100,8.597923095703125,-0.0013198626693338156,0.005575327668339014,0.0017587515758350492
1782970051514849300,8.607849365234374,-0.001062334980815649,0.005120459944009781,0.001412806916050613
1782970051524775200,8.617775146484375,-0.00119602563790977,0.007859786972403526,-0.0006447513005696237
1782970051534701000,8.627701171875,0.002404035534709692,0.004541222471743822,0.0031459920573979616
1782970051544627200,8.637627197265624,-0.002635996788740158,0.003964381758123636,0.003742540255188942
1782970051554554000,8.64755419921875,-0.0029827402904629707,0.00577799417078495,0.0037228327710181475
1782970051564480000,8.65747998046875,-0.00001997370782191865,0.00166580721270293,0.0035979305393993855
1782970051574406100,8.66740625,-0.001449025934562087,0.005091963801532984,0.0019196064677089453
1782970051584332300,8.677332275390626,0.0023523701820522547,0.005294098053127527,0.0007819040911272168
1782970051594258200,8.687258056640625,0.00035686357296071947,0.005057342816144228,0.0006468818173743784
1782970051604185000,8.69718505859375,-0.0004165183927398175,0.004352670628577471,0.003287405939772725
1782970051614111200,8.707111328125,-0.001535046030767262,0.00595482811331749,0.0010729875648394227
1782970051624037400,8.717037353515625,-0.0012492889072746038,0.005847768858075142,0.001169127761386335
1782970051633963000,8.726962890625,0.0006466155173256993,0.004911668132990599,0.000815193576272577
1782970051643889200,8.73688916015625,-0.0011342403013259172,0.0048887645825743675,0.0016855146968737245
1782970051653816300,8.74681640625,-0.0009523464250378311,0.005874933209270239,0.002160090021789074
1782970051663742000,8.756741943359375,-0.0013369068037718534,0.006697850301861763,0.00017843178648035973
1782970051673668000,8.766668212890625,-0.002573412610217929,0.005431517027318478,0.0028016455471515656
1782970051683594200,8.77659423828125,-0.001234641415067017,0.0040794298984110355,0.004838431254029274
1782970051693520100,8.78652001953125,0.0022213426418602467,0.005089567042887211,0.0043779704719781876
1782970051703447000,8.796447021484376,0.0009691243176348507,0.004071440547704697,0.0011286477092653513
1782970051713373200,8.806373291015625,0.00008788431296125054,0.005732720717787743,0.00041252365917898715
1782970051723299300,8.81629931640625,-0.0009302421822212636,0.00583818182349205,0.0006332996999844909
1782970051733225200,8.82622509765625,-0.0014804512029513717,0.007249923422932625,0.0027055053506046534
1782970051743152000,8.836152099609375,-0.001478587044402957,0.005933256354182959,0.00355931487865746
1782970051753078300,8.846078369140624,0.0020562265999615192,0.0051841093227267265,0.0016761935548856854
1782970051763004200,8.856004150390625,-0.0029049760196357965,0.007756989449262619,0.0036282907240092754
1782970051772930000,8.865929931640625,0.0013134710025042295,0.004151069093495607,0.001389104756526649
1782970051782856200,8.875856201171874,-0.002210689941421151,0.00881106872111559,-0.00152332813013345
1782970051792783400,8.885783447265625,-0.0018732674652710557,0.005533782299607992,0.0007102650706656277
1782970051802709000,8.895708984375,0.0019979034550487995,0.002561428351327777,0.0016682040877640247
1782970051812635100,8.90563525390625,-0.00024394555657636374,0.006487193983048201,0.0032112395856529474
1782970051822561300,8.915561279296876,0.0011486213188618422,0.004061853047460318,0.0028900622855871916
1782970051832487200,8.925487060546875,0.0013435647124424577,0.003876763628795743,-0.001615473534911871
1782970051842414000,8.9354140625,-0.0007835020078346133,0.00726350536569953,0.0017696705181151628
1782970051852340200,8.94534033203125,0.0003328951424919069,0.0038626487366855145,0.001979261403903365
1782970051862266000,8.95526611328125,-0.0009291769238188863,0.003941211849451065,0.003192863892763853
1782970051872192300,8.965192138671876,0.0012452941155061126,0.0031614385079592466,0.00013795174891129136
1782970051882118100,8.9751181640625,-0.00038269624928943813,0.006698648910969496,0.002429868094623089
1782970051892045300,8.98504541015625,-0.0007861651247367263,0.004205397795885801,0.0028104339726269245
1782970051901971200,8.99497119140625,-0.0011566109023988247,0.006066148169338703,0.00017070861940737814
1782970051911897000,9.00489697265625,-0.0008998821140266955,0.005066397599875927,0.001967277145013213
1782970051921823200,9.0148232421875,-0.002823217073455453,0.006417952012270689,0.0011946940794587135
1782970051931749000,9.0247490234375,0.0019923108629882336,0.0024256070610135794,0.00008388957212446257
1782970051941676000,9.034676025390626,0.000075101139373146,0.004339887294918299,0.00230816169641912
1782970051951602200,9.044602294921875,-0.00024394555657636374,0.00660650385543704,-0.00017124126316048205
1782970051961528000,9.054528076171875,0.0014021543320268393,0.005833121482282877,0.003424825146794319
1782970051971454200,9.0644541015625,0.0007187871960923076,0.005997705273330212,0.002186721656471491
1782970051981380400,9.07438037109375,-0.0006631271098740399,0.004092745948582888,0.0017294568242505193
1782970051991307300,9.084307373046874,0.0014447649009525776,0.003763579297810793,0.001657551503740251
1782970052001233200,9.094233154296875,-0.0009374326909892261,0.007180148735642433,-0.00015952334797475487
1782970052011159300,9.1041591796875,0.001019990653730929,0.00407543545588851,0.001651692553423345
1782970052021085200,9.114085205078124,0.0006087986403144896,0.00768774701282382,-0.0015313175972551107
1782970052031011000,9.124010986328125,0.00021278657368384302,0.002746784361079335,0.003578489413484931
1782970052040938200,9.133938232421874,-0.0022719427943229675,0.00517691858112812,0.0006237123161554337
1782970052050864000,9.143864013671875,0.0013164004776626825,0.00213558878749609,0.0030221552588045597
1782970052060790000,9.1537900390625,-0.0011648666113615036,0.0013100089272484183,0.0006953513366170228
1782970052070716200,9.163716064453125,-0.003628556849434972,0.004827245604246855,0.00036938043194822967
1782970052080642300,9.173642333984375,-0.00242214510217309,0.006332464516162872,0.0008165251929312944
1782970052090569200,9.1835693359375,-0.000368847802747041,0.00538544449955225,-0.0016373114194720984
1782970052100495000,9.1934951171875,-0.001745968358591199,0.0062096924521028996,0.0008559399866499007
1782970052110421200,9.203421142578126,-0.0019917781464755535,0.0037356161046773195,0.0022543659433722496
1782970052120347100,9.21334716796875,-0.0026498453225940466,0.004857872147113085,0.0005685848882421851
1782970052130273000,9.22327294921875,-0.001885784324258566,0.005309544038027525,0.0025308020412921906
1782970052140200200,9.2332001953125,0.00045353634050115943,0.005597964394837618,0.0010881676571443677
1782970052150126300,9.243126220703125,-0.0009651295840740204,0.005302620120346546,0.0019065570086240768
1782970052160052000,9.253052001953124,-0.0011430287268012762,0.006706372369080782,0.0028032432310283184
1782970052169978000,9.26297802734375,-0.0010524812387302518,0.005648564547300339,0.002906307578086853
1782970052179904300,9.272904296875,-0.0016144082183018327,0.00401657959446311,0.0026024410035461187
1782970052189831200,9.2828310546875,-0.0028599686920642853,0.00501073757186532,-0.00037470675306394696
1782970052199757000,9.292757080078125,-0.0002564624010119587,0.006116481963545084,0.0019915117882192135
1782970052209683200,9.30268310546875,-0.0005352954030968249,0.005257346201688051,-0.00032863407977856696
1782970052219609300,9.312609375,0.0012812467757612467,0.004550543148070574,0.002716158051043749
1782970052229535000,9.322534912109376,-0.002359560690820217,0.00418489146977663,0.002359560690820217
1782970052239462100,9.332462158203125,0.001327053178101778,0.005076784174889326,0.0029859361238777637
1782970052249388300,9.34238818359375,-0.001764077926054597,0.003944141324609518,0.0010956244077533484
1782970052259314200,9.352314208984374,0.00029401297797448933,0.0038690404035151005,0.002317216480150819
1782970052269240000,9.362239990234375,-0.00044288369826972485,0.007650196552276611,-0.0004010720585938543
1782970052279166200,9.372166259765624,-0.000547279603779316,0.003934287931770086,0.0014168017078191042
1782970052289093400,9.38209326171875,-0.0007060039788484573,0.0044043357484042645,0.001499625970609486
1782970052299019000,9.39201904296875,0.002030926523730159,0.005103149451315403,0.0027142937760800123
1782970052308945200,9.401945068359375,-0.003171558491885662,0.004936435259878635,-0.0006591323763132095
1782970052318871300,9.411871337890625,0.00012144014181103557,0.003281546989455819,0.0034053840208798647
1782970052328797200,9.421797119140624,-0.0017696705181151628,0.004343349486589432,0.0017568873008713126
1782970052338724000,9.43172412109375,-0.0011406318517401814,0.0054786549881100655,0.0005816344055347145
1782970052348650200,9.441650146484376,-0.00024980452144518495,0.0035385421942919493,0.0007526093395426869
1782970052358576000,9.451576171875,0.0005829659639857709,0.006632070057094097,-0.0013811152894049883
1782970052368502000,9.461501953125,-0.0012210593558847904,0.002864762442186475,-0.0009824400767683983
1782970052378428200,9.47142822265625,-0.00040666470886208117,0.004523645620793104,0.002673813607543707
1782970052388355300,9.481355224609375,0.0007755124825052917,0.005356415640562773,0.0035534559283405542
1782970052398281200,9.49128125,-0.0000798948312876746,0.005093029234558344,0.0009984191274270415
1782970052408207000,9.50120703125,0.000009853695701167453,0.004491155035793781,0.002525209216400981
1782970052418133200,9.51113330078125,-0.0019805929623544216,0.004863731097429991,-0.0013725932221859694
1782970052428059100,9.52105908203125,-0.0023702133912593126,0.0062855929136276245,0.002141714096069336
1782970052437986000,9.530986083984375,0.0005123922019265592,0.004806739278137684,0.001336107961833477
1782970052447912000,9.540911865234374,0.0007699198904447258,0.004923652391880751,-0.00038402783684432507
1782970052457838000,9.550838134765625,0.0030213561840355396,0.005209409166127443,0.0025185514241456985
1782970052467764000,9.560763916015626,-0.0001174454009742476,0.004972654394805431,0.0025395904667675495
1782970052477689900,9.57068994140625,-0.0005707154050469398,0.005083708092570305,0.0006498112925328314
1782970052487617000,9.580616943359376,-0.002222407842054963,0.004196343012154102,0.0023438481148332357
1782970052497543200,9.590543212890625,0.001790975802578032,0.003960386849939823,0.0024706146214157343
1782970052507469000,9.600468994140625,0.00032437301706522703,0.0029952572658658028,0.0010096043115481734
1782970052517395000,9.61039501953125,-0.0019688750617206097,0.005527923349291086,0.0005792375304736197
1782970052527321000,9.620321044921875,0.00041864890954457223,0.00481419637799263,0.0021315941121429205
1782970052537248000,9.630248046875,0.00126713200006634,0.0062975771725177765,0.0009970874525606632
1782970052547174000,9.640173828125,-0.0021518340799957514,0.006148706190288067,0.001127848750911653
1782970052557100000,9.65010009765625,-0.0007017429452389479,0.005949768237769604,0.0018903117161244154
1782970052567026000,9.66002587890625,-0.0034461303148418665,0.004435494542121887,-0.0007741809240542352
1782970052576952000,9.6699521484375,-0.0010093380697071552,0.005340703297406435,0.0035542547702789307
1782970052586879000,9.67987890625,0.0036695697344839573,0.0038932752795517445,0.002638659905642271
1782970052596805000,9.68980517578125,0.0005898901727050543,0.005277319811284542,0.004001133143901825
1782970052606731000,9.69973095703125,-0.0009723200928419828,0.004671184346079826,0.0026080335956066847
1782970052616657000,9.709656982421874,-0.0015544871566817164,0.004349474795162678,0.0015251922886818647
1782970052626583000,9.7195830078125,0.000010652644050423987,0.0031878037843853235,0.0017635452095419168
1782970052636510000,9.729510009765624,0.0005627259379252791,0.006686931010335684,0.0010274475207552314
1782970052646436000,9.73943603515625,0.002020007697865367,0.00449994346126914,0.003887682454660535
1782970052656362000,9.749362060546876,0.0015020228456705809,0.004467186518013477,0.0035292210523039103
1782970052666287900,9.759287841796874,0.0008551410282962024,0.003305781865492463,0.00293293921276927
1782970052676214000,9.769214111328125,-0.001401355373673141,0.004138552118092775,0.003156911116093397
1782970052686141000,9.779140869140624,-0.0003981425834354013,0.007679757662117481,0.0021281319204717875
1782970052696067000,9.789067138671875,-0.00025060345069505274,0.003966245800256729,0.002638926263898611
1782970052705993000,9.798992919921876,-0.001237571006640792,0.005800630897283554,0.0027832696214318275
1782970052715919000,9.808919189453125,-0.0012056130217388272,0.006029130425304174,0.00233825552277267
1782970052725845000,9.818844970703125,0.00042450788896530867,0.006372411735355854,0.0011036139912903309
1782970052735772000,9.82877197265625,-0.0006295712664723396,0.0054640076123178005,-0.0005075985100120306
1782970052745698000,9.838697998046875,0.0014450311427935958,0.006404635962098837,0.0001739044237183407
1782970052755624000,9.8486240234375,-0.001573928166180849,0.00395665830001235,0.0014482269762083888
1782970052765549800,9.8585498046875,0.0033188313245773315,0.004193946253508329,-0.00004367584188003093
1782970052775476000,9.86847607421875,-0.000743820914067328,0.006137254647910595,0.000663393409922719
1782970052785403100,9.878403076171875,-0.000008788431841821875,0.008096808567643166,-0.0006865629111416638
1782970052795329000,9.8883291015625,-0.0014327806420624256,0.005379052832722664,0.0000031957933970261365
1782970052805255000,9.8982548828125,0.0008764463127590716,0.006028064992278814,0.00017843178648035973
1782970052815181000,9.90818115234375,-0.00034115093876607716,0.006739129312336445,0.003057841444388032
1782970052825107200,9.918107177734376,0.00008681904728291556,0.004192614462226629,0.003571032779291272
1782970052835033900,9.928033935546875,-0.0007219829712994397,0.0043801008723676205,-0.0004516721237450838
1782970052844960000,9.9379599609375,0.0015227955300360918,0.003923634998500347,0.0014788532862439752
1782970052854886100,9.94788623046875,-0.00024234765442088246,0.0017635452095419168,0.0027233485598117113
1782970052864811800,9.957811767578125,0.00016351809608750045,0.0019286612514406443,0.0016586167039349675
1782970052874738000,9.967738037109376,-0.0034051176626235247,0.005930060520768166,0.0009707222343422472
1782970052884665000,9.9776650390625,0.0002479403046891093,0.005245095584541559,0.0036245621740818024
1782970052894591000,9.987591064453126,-0.0010940266074612737,0.003953462466597557,0.0007419566973112524
1782970052904516900,9.997516845703124,-0.0003158508916385472,0.005420598201453686,0.003436010330915451
1782970052914443000,10.007443115234375,-0.0007403587806038558,0.002987001556903124,0.0038546593859791756
1782970052924369200,10.017369140625,0.0005219795857556164,0.005981992464512587,0.000690291344653815
1782970052934295800,10.0272958984375,-0.0014863101532682776,0.0029814087320119143,0.003841077210381627
1782970052944222000,10.037221923828126,0.001612277701497078,0.0032807481475174427,-0.00037736992817372084
1782970052954148000,10.047148193359375,-0.0020698087755590677,0.003768372815102339,0.000004793690095539205
1782970052964074000,10.057073974609375,-0.0002918824611697346,0.004860268905758858,0.002341983839869499
1782970052973999900,10.066999755859374,0.00003914846820407547,0.006147374864667654,0.0022540995851159096
1782970052983927000,10.076927001953125,0.000008255799002654385,0.006593720521777868,0.0016791230300441384
1782970052993853200,10.086853271484374,0.0007233145297504961,0.004068777430802584,0.004203799646347761
1782970053003778800,10.09677880859375,0.00013688647595699877,0.006109823938459158,0.0041039311327040195
1782970053013705000,10.106705078125,0.0007773766992613673,0.00586747657507658,0.0028429245576262474
1782970053023631000,10.116631103515624,0.0013494236627593637,0.004763329867273569,0.004043211229145527
1782970053033557000,10.126556884765625,-0.000672448193654418,0.0073114424012601376,0.00048709215479902923
1782970053043484000,10.13648388671875,-0.001258876291103661,0.006638461723923683,0.0006463492172770202
1782970053053410000,10.14641015625,-0.00016298545233439654,0.002844256116077304,0.004686897154897451
1782970053063336000,10.1563359375,-0.001199221471324563,0.006144445389509201,0.000251402409048751
1782970053073262000,10.166261962890625,0.0011491540353745222,0.0038599856197834015,0.0022943131625652313
1782970053083189000,10.17618896484375,-0.00008468852320220321,0.003576891729608178,0.0009707222343422472
1782970053093115100,10.186115234375,0.0002854908525478095,0.0058669438585639,0.0005755090969614685
1782970053103041000,10.196041015625,-0.001335575245320797,0.005606486462056637,0.001258876291103661
1782970053112967000,10.205966796875,0.00014993596414569765,0.006482134107500315,0.0007105313707143068
1782970053122893000,10.21589306640625,0.0005382248782552779,0.0028043086640536785,0.0027334685437381268
1782970053132819000,10.22581884765625,0.0009504822082817554,0.008172974921762943,0.0012175972806289792
1782970053142745900,10.235745849609375,0.0004266384057700634,0.0062885223887860775,0.0008223841432482004
1782970053152672000,10.245672119140625,-0.002228799508884549,0.004637895151972771,0.002418949268758297
1782970053162598000,10.255597900390624,-0.00008388957212446257,0.004328968469053507,0.0027776770293712616
1782970053172524000,10.26552392578125,-0.00010253170330543071,0.004990497604012489,0.0028543761000037193
1782970053182451000,10.275450927734376,-0.00011265171633567661,0.006374542135745287,-0.00018375810759607702
1782970053192377000,10.285377197265625,0.0008572715451009572,0.0039049931801855564,0.0008109325426630676
1782970053202303000,10.295302978515625,0.0014961638953536749,0.003299390198662877,-0.00009800432599149644
1782970053212229000,10.30522900390625,-0.0028631645254790783,0.10155778378248215,0.047628238797187805
1782970053222155000,10.315155029296875,-0.0037201696541160345,0.05732986703515053,0.027874242514371872
1782970053232082000,10.32508203125,0.0000327568814100232,0.040832918137311935,0.021219268441200256
1782970053242008000,10.335008056640625,-0.00011132013605674729,0.035287950187921524,0.0165555402636528
1782970053251934000,10.344933837890625,-0.0016679377295076847,-0.025890985503792763,-0.0148074422031641
1782970053261859800,10.35485986328125,0.0016016251174733043,-0.03544081375002861,-0.01787487044930458
1782970053271786000,10.364785888671875,-0.0003129214164800942,-0.020712735131382942,-0.011720038950443268
1782970053281712000,10.374712158203126,0.0010554107138887048,-0.03496916964650154,-0.016288692131638527
1782970053291639000,10.38463916015625,0.0012562130577862263,-0.037458427250385284,-0.018727349117398262
1782970053301565000,10.39456494140625,-0.0012924320762977004,-0.013717676512897015,-0.007845406420528889
1782970053311491000,10.404490966796875,0.00009241169027518481,0.010106430388987064,0.0057098171673715115
