time,seconds_elapsed,z,y,x
1782970042979549000,0.072548828125,0.0005455429200083017,-0.0009282631799578667,-0.0005491334013640881
1782970042989474800,0.082474853515625,-0.001034857239574194,0.00011797621846199036,0.0012195328017696738
1782970042999401000,0.09240087890625,0.0007105785771273077,0.00039893947541713715,0.002183064352720976
1782970043009327900,0.102327880859375,0.0011829575523734093,-0.0012723002582788467,-0.0023452609311789274
1782970043019254000,0.11225390625,0.0005746915121562779,0.0013125636614859104,0.00023827154655009508
1782970043029180000,0.122179931640625,0.0000014991965144872665,-0.0024103866890072823,-0.0028365531470626593
1782970043039105800,0.132105712890625,-0.0018464683089405298,0.00009112060070037842,-0.0002868426963686943
1782970043049033000,0.142032958984375,-0.00042904005385935307,0.00022733677178621292,0.00047241582069545984
1782970043058958800,0.151958740234375,-0.00033103569876402617,-0.003437172621488571,0.0006750824395567179
1782970043068884700,0.161884765625,0.0008760265191085637,-0.001265430822968483,-0.00038353720447048545
1782970043078811000,0.171810791015625,0.0014206429477781057,0.0006291419267654419,0.0005653471453115344
1782970043088736800,0.18173681640625,0.003911153879016638,-0.001087007112801075,-0.00032203528098762035
1782970043098663700,0.19166357421875,-0.0008345992537215352,-0.0009703608229756355,-0.0013667934108525515
1782970043108589800,0.20158984375,0.002436080714687705,-0.0007034172303974628,-0.0009855951648205519
1782970043118516000,0.211515869140625,-0.0010926076211035252,0.0005879495292901993,-0.0013291429495438933
1782970043128441900,0.22144189453125,-0.0006198054179549217,-0.0012693193275481462,0.0008224952034652233
1782970043138368800,0.23136865234375,0.001834031194448471,0.00019941385835409164,-0.0008140172576531768
1782970043148295000,0.241294921875,0.001398885389789939,-0.0011619823053479195,-0.0010131695307791233
1782970043158220800,0.251220703125,-0.0021215472370386124,0.0011693486012518406,0.0006505072815343738
1782970043168147000,0.26114697265625,-0.0010131241288036108,-0.00027890969067811966,0.0011968652252107859
1782970043178072800,0.27107275390625,0.0013285933528095484,0.000420969445258379,-0.0005032967310398817
1782970043188000000,0.281,0.0014338156906887889,0.0010484098456799984,-0.001467893598601222
1782970043197926000,0.29092578125,0.000737931695766747,-0.0012837201356887817,-0.0003549586399458349
1782970043207851800,0.300851806640625,-0.0014156621182337403,0.0021516080014407635,-0.0008152138325385749
1782970043217778000,0.31077783203125,-0.0007677150424569845,0.0026749195531010628,-0.0013316008262336254
1782970043227704800,0.320704833984375,0.0008166952757164836,-0.0013340855948626995,-0.0005982273141853511
1782970043237630700,0.330630615234375,-0.0002179428411182016,0.001951189711689949,-0.000773196981754154
1782970043247556900,0.340556884765625,0.001554523827508092,-0.0014056817162781954,-0.0005927262827754021
1782970043257482800,0.350482666015625,-0.0011123656295239925,0.00033655809238553047,0.002295738086104393
1782970043267409000,0.360408935546875,-0.0012822543503716588,0.0004959837533533573,0.0004268627380952239
1782970043277335800,0.370335693359375,-0.000013524375390261412,-0.0016747587360441685,-0.0011649086372926831
1782970043287262000,0.380261962890625,-0.0014244458870962262,0.0015330305323004723,0.0026210935320705175
1782970043297187800,0.390187744140625,-0.0031184826511889696,-0.0010635517537593842,-0.00021863507572561502
1782970043307114000,0.400114013671875,-0.00008281506597995758,-0.0010868380777537823,0.00009248312562704086
1782970043317041000,0.410041015625,-0.003014156362041831,-0.0008570072241127491,-0.0006279019871726632
1782970043326966800,0.419966796875,0.00022161747619975358,0.0012152097187936306,-0.002263829577714205
1782970043336893000,0.429892822265625,0.001586221158504486,-0.0008740401826798916,0.0008893529884517193
1782970043346818800,0.43981884765625,0.00021273297898005694,-0.0005630259402096272,-0.000187004916369915
1782970043356744700,0.44974462890625,0.002839675173163414,0.002584297675639391,-0.0027289921417832375
1782970043366672000,0.459671875,-0.0013675454538315535,0.0012066555209457874,-0.0006945505738258362
1782970043376597800,0.46959765625,-0.0012975042918697,-0.0009249383583664894,-0.0032027156557887793
1782970043386524000,0.47952392578125,-0.00092295091599226,0.00018002791330218315,0.0012166033266112208
1782970043396449800,0.48944970703125,-0.0004656861419789493,0.00046392064541578293,0.0007444248767569661
1782970043406377000,0.499376953125,-0.00021423277212306857,0.0008524986915290356,0.0000664892140775919
1782970043416302800,0.509302734375,0.0005213323165662587,0.00029456615447998047,-0.0023817545734345913
1782970043426229000,0.51922900390625,0.0017850978765636683,-0.00014548515900969505,0.0025058090686798096
1782970043436154600,0.529154541015625,0.0012287634890526533,-0.0017329955007880926,-0.0015198253095149994
1782970043446080800,0.539080810546875,-0.0035800377372652292,-0.0018617636524140835,-0.0003022362943738699
1782970043456007700,0.549007568359375,0.0003249551518820226,-0.0012779985554516315,0.0011843402171507478
1782970043465933600,0.55893359375,0.0009563036146573722,0.001507527194917202,-0.0008727381937205791
1782970043475859700,0.568859619140625,-0.0001795345451682806,-0.00026560574769973755,0.00027828000020235777
1782970043485785600,0.57878564453125,0.00007468124385923147,0.0003590383566915989,0.000617711921222508
1782970043495712800,0.588712646484375,0.002529849298298359,0.00020111259073019028,-0.000129038468003273
1782970043505638700,0.598638671875,-0.00011330260895192623,0.001534207258373499,-0.0006237859488464892
1782970043515564800,0.608564697265625,0.00015967138460837305,-0.00089592719450593,0.0015482882736250758
1782970043525490700,0.61849072265625,0.00019639369565993547,-0.00018852157518267632,-0.0006018927088007331
1782970043535416600,0.62841650390625,0.00048348246491514146,0.0011776802130043507,0.0004969275323674083
1782970043545343700,0.63834375,-0.00007762288441881537,-0.0006273174658417702,0.00018524785991758108
1782970043555269600,0.64826953125,-0.00012848922051489353,0.0007492704316973686,-0.00020357361063361168
1782970043565195500,0.658195556640625,-0.0011021080426871777,0.0022059250622987747,-0.0006424470338970423
1782970043575121700,0.66812158203125,0.002505942713469267,-0.0017070577014237642,0.0028992909938097
1782970043585048600,0.678048583984375,0.0007191612385213375,0.00016534561291337013,0.002452204469591379
1782970043594974700,0.687974609375,0.0021082661114633083,-0.0007885987870395184,0.0006356622325256467
1782970043604900600,0.697900634765625,-0.001323544536717236,0.0004712953232228756,0.002074143383651972
1782970043614826800,0.70782666015625,-0.002284413203597069,-0.0016326017212122679,-0.0003354845102876425
1782970043624752600,0.717752685546875,-0.0008797234040684998,0.001785113476216793,-0.0005008127191103995
1782970043634679600,0.727679443359375,-0.0008690708200447261,0.0002316916361451149,-0.0010062806541100144
1782970043644605700,0.737605712890625,-0.0016606826102361083,-0.0001241518184542656,-0.0006444433238357306
1782970043654531800,0.74753173828125,0.0018874468514695764,0.0017712200060486794,0.0004964548861607909
1782970043664457500,0.75745751953125,0.0006964674103073776,0.0011208648793399334,0.0025374488905072212
1782970043674384600,0.767384521484375,0.002297559753060341,0.002013822551816702,0.0009374219225719571
1782970043684310800,0.777310791015625,-0.0022178441286087036,0.001591433770954609,0.003930496051907539
1782970043694236700,0.787236572265625,0.0002807336568366736,-0.0026006479747593403,0.0012721288949251175
1782970043704162600,0.79716259765625,0.001867619575932622,0.00021775579079985619,-0.0017892445903271437
1782970043714088700,0.807088623046875,0.0005597411654889584,-0.0010123583488166332,-0.0004890894051641226
1782970043724015600,0.817015625,0.00025359756546095014,0.0016777426935732365,0.0022128622513264418
1782970043733941500,0.82694140625,-0.001855892245657742,0.0008481680415570736,0.000687403604388237
1782970043743867600,0.83686767578125,-0.0022440478205680847,0.002425613347440958,-0.0009707187418825924
1782970043753793800,0.846793701171875,-0.0008797104237601161,-0.0011153258383274078,-0.00025432847905904055
1782970043763720700,0.856720703125,-0.00009840616257861257,-0.001309684943407774,0.0019837163854390383
1782970043773646600,0.866646484375,0.00003714874037541449,0.0025103529915213585,0.0004175114445388317
1782970043783572700,0.87657275390625,-0.001175388228148222,0.0008367747068405151,-0.0023681800812482834
1782970043793499000,0.886498779296875,0.0014297160087153316,0.0006330427713692188,-0.0011393976164981723
1782970043803424500,0.896424560546875,0.0006525230128318071,-0.000107539352029562,0.0015411200001835823
1782970043813351700,0.9063515625,0.0002402656537014991,0.0007161763496696949,0.002569632837548852
1782970043823277800,0.91627783203125,-0.0021462899167090654,0.001795080490410328,0.0012912298552691936
1782970043833203500,0.926203369140625,0.0005245942156761885,0.0027567478828132153,0.0006962798070162535
1782970043843129600,0.936129638671875,0.00019918188627343625,-0.0007079946808516979,0.001251159468665719
1782970043853055700,0.9460556640625,0.0006814803928136826,-0.0020425047259777784,0.002360898768529296
1782970043862982700,0.955982666015625,-0.001762713654898107,-0.000883675180375576,0.00237078033387661
1782970043872908500,0.965908447265625,-0.00011288546374998987,-0.0015734340995550156,-0.0002106217434629798
1782970043882834700,0.975834716796875,0.0005064246943220496,0.0001794770359992981,0.00067425228189677
1782970043892760800,0.9857607421875,-0.0008179653668776155,-0.003488494548946619,-0.001179840532131493
1782970043902687700,0.995687744140625,0.0003206078545190394,0.00019497796893119812,0.0018057709094136953
1782970043912613600,1.005613525390625,0.00034777208929881454,0.0004615606740117073,-0.0006861489964649081
1782970043922539800,1.015539794921875,-0.00015391339547932148,0.0009322185069322586,0.00014801241923123598
1782970043932465700,1.025465576171875,-0.0010303596500307322,0.0013050609268248081,-0.00011244462803006172
1782970043942391600,1.0353916015625,-0.0012784088030457497,-0.0011236886493861675,0.002701341640204191
1782970043952318700,1.045318603515625,0.0011341487988829613,0.00045849522575736046,0.0010744162136688828
1782970043962244900,1.055244873046875,-0.002186246681958437,0.0008913022466003895,-0.0006035021506249905
1782970043972170500,1.06517041015625,0.0010036877356469631,0.0003019445575773716,0.0021547339856624603
1782970043982096600,1.0750966796875,-0.0020603432785719633,0.0009210137650370598,-0.0029115467332303524
1782970043992023800,1.08502392578125,0.00021745849517174065,-0.0003943215124309063,0.001233397051692009
1782970044001949700,1.09494970703125,0.0013864173088222742,0.002871651668101549,0.000048206537030637264
1782970044011875600,1.10487548828125,-0.0007909830310381949,-0.0022187146823853254,0.001001884462311864
1782970044021801700,1.1148017578125,0.0019387241918593645,0.000037371646612882614,-0.00016471126582473516
1782970044031727900,1.124727783203125,-0.0009643876110203564,-0.0010854173451662064,0.0003807041794061661
1782970044041654500,1.134654541015625,0.0009527383372187614,0.0018016458489000797,0.0011146211763843894
1782970044051580700,1.14458056640625,0.0035357384476810694,0.0002303807996213436,0.00023844116367399693
1782970044061506800,1.1545068359375,0.0020154535304754972,0.000031467992812395096,0.001694418489933014
1782970044071432700,1.1644326171875,0.0018170480616390705,0.00043946411460638046,-0.00188726675696671
1782970044081358600,1.174358642578125,0.004057103767991066,0.001490478403866291,-0.0002588215284049511
1782970044091285800,1.18428564453125,-0.0003552214475348592,-0.0019071826245635748,-0.0005554977105930448
1782970044101212000,1.1942119140625,-1.8032733350992203e-7,0.00011029839515686035,0.0007613523630425334
1782970044111137500,1.204137451171875,0.0008315248414874077,-0.00013950606808066368,-0.0013324249302968383
1782970044121063700,1.214063720703125,-0.003298613941296935,-0.00011971127241849899,0.0003915569977834821
1782970044130990800,1.223990966796875,0.0004191588086541742,-0.0016425068024545908,-0.00019247422460466623
1782970044140916500,1.23391650390625,-0.0008879925007931888,-0.0023970911279320717,-0.0025814699474722147
1782970044150842600,1.243842529296875,-0.0008448493317700922,0.0012833974324166775,-0.001945507014170289
1782970044160768800,1.253768798828125,0.002240309026092291,0.0007531349547207355,0.0017307178350165486
1782970044170694700,1.263694580078125,0.0013308394700288773,0.0007986747659742832,0.0003975393483415246
1782970044180621600,1.27362158203125,0.0001419280597474426,0.000011208932846784592,0.0009410671191290021
1782970044190547700,1.283547607421875,-0.0013297348050400615,0.0018623722717165947,-0.0022677758242934942
1782970044200473900,1.293473876953125,-0.00036375681520439684,0.0018203114159405231,0.0012760298559442163
1782970044210399700,1.303399658203125,0.0008471824694424868,-0.000262280460447073,-0.0009128222009167075
1782970044220326700,1.31332666015625,-0.0011987227480858564,-0.0011391201987862587,0.0013115995097905397
1782970044230252800,1.323252685546875,-0.0018674425082281232,-0.00012525497004389763,0.0019960319623351097
1782970044240178700,1.3331787109375,-0.00110315578058362,-0.0023110080510377884,-0.00025289261247962713
1782970044250104600,1.3431044921875,0.0007163159316405654,0.0002618716098368168,0.0009332792833447456
1782970044260030700,1.35303076171875,0.0016473800642415881,0.00017011212185025215,0.0019731936044991016
1782970044269958000,1.3629580078125,-0.0015731805469840765,-0.000826708972454071,-0.00010353943798691034
1782970044279883500,1.372883544921875,0.00028715067310258746,-0.00027339765802025795,-0.0009744056733325124
1782970044289809700,1.3828095703125,0.0027441829442977905,0.00017694290727376938,0.0017020712839439511
1782970044299735800,1.39273583984375,-0.001006955630145967,-0.000139639712870121,-0.001851168111898005
1782970044309661700,1.40266162109375,-0.0017739459872245789,-0.0010581640526652336,0.001715869759209454
1782970044319588600,1.412588623046875,0.0005675594438798726,0.0009507662616670132,0.0007073546294122934
1782970044329514800,1.4225146484375,-0.0003600195632316172,-0.0005384734831750393,0.00033184897620230913
1782970044339440600,1.432440673828125,0.0008925814181566238,0.0015254546888172626,-0.0004254584782756865
1782970044349366800,1.44236669921875,0.0006470379885286093,0.0006966786459088326,0.0008983989246189594
1782970044359293700,1.452293701171875,0.0008639340521767735,0.0000638454221189022,-0.0011045030551031232
1782970044369219800,1.4622197265625,-0.0003517989534884691,-0.00006238836795091629,0.002043353393673897
1782970044379145700,1.472145751953125,0.0004510896105784923,0.001202452927827835,-0.00038722046883776784
1782970044389071600,1.482071533203125,-0.0011971407802775502,0.000690327025949955,-0.0008468820597045124
1782970044398997800,1.491997802734375,0.0005996195250190794,-0.0033480224665254354,0.0018747994909062982
1782970044408924700,1.501924560546875,0.0006366374436765909,0.0018467395566403866,0.0006071348907426
1782970044418850600,1.5118505859375,-0.0008043657289817929,0.0008969982154667377,-0.001679806737229228
1782970044428776700,1.521776611328125,0.0024662623181939125,0.001069837249815464,0.001360990572720766
1782970044438703000,1.531703125,-0.0004919441998936236,-0.002459245966747403,-0.0025034556165337563
1782970044448629200,1.541629150390625,0.0015078233554959297,0.0017791748978197575,-0.000012601260095834732
1782970044458556200,1.55155615234375,0.0006371191702783108,0.001572886947542429,-0.0007287977496162057
1782970044468482300,1.561482421875,0.0011092976201325655,0.0019662356935441494,-0.0007050956482999027
1782970044478408200,1.571408203125,0.0013728193007409573,-0.00008924305438995361,-0.0018472009105607867
1782970044488334000,1.581333984375,0.0015027814079076052,0.0009499224834144115,-0.0007742132875137031
1782970044498261200,1.59126123046875,0.00008612326928414404,-0.002404632978141308,-0.0002457057125866413
1782970044508187100,1.601187255859375,-0.0020441391970962286,-0.0003342917189002037,-0.0018081823363900185
1782970044518113000,1.611113037109375,0.0007194479694589972,-0.0012199326884001493,-0.00006007077172398567
1782970044528039200,1.6210390625,0.0003804275766015053,0.0012189904227852821,-0.00020867516286671162
1782970044537965000,1.630965087890625,-0.0007411565748043358,-0.0021447946783155203,-0.0006579264882020652
1782970044547892000,1.64089208984375,-0.0015281205996870995,0.0026177363470196724,-0.0010336984414607286
1782970044557818000,1.650818115234375,-0.0020945249125361443,-0.00014470750465989113,0.0004337503341957927
1782970044567744300,1.660744140625,0.000817907857708633,0.0015626447275280952,-0.0004299128195270896
1782970044577670100,1.670670166015625,-0.001023832825012505,-0.0019552065059542656,0.0014150976203382015
1782970044587596300,1.68059619140625,-0.0008952021598815918,-0.0018063357565551996,0.0013027121312916279
1782970044597523200,1.690523193359375,0.0002760006464086473,-0.00014548422768712044,-0.0014286739751696587
1782970044607449000,1.700448974609375,0.00041528395377099514,-0.0013846529182046652,0.0006962623447179794
1782970044617375200,1.710375244140625,-0.0017351239221170545,0.00038755685091018677,-0.0008009538287296891
1782970044627301000,1.720301025390625,0.0014031451428309083,-0.0033312812447547913,0.0005063919816166162
1782970044637228300,1.730228271484375,-0.0010743900202214718,0.0006616581231355667,-0.0024655296001583338
1782970044647154200,1.740154296875,0.0004457422182895243,0.00044594239443540573,0.002050659153610468
1782970044657080000,1.750080078125,0.0006903751636855304,0.002675500698387623,0.00047326867934316397
1782970044667006200,1.760006103515625,-0.001223372295498848,-0.00039965100586414337,-0.0023978850804269314
1782970044676932000,1.76993212890625,-0.0005833743489347398,0.0008533843792974949,0.0014354592422023416
1782970044686859000,1.77985888671875,0.0017503537237644196,-0.0007996396161615849,0.00028763676527887583
1782970044696785200,1.78978515625,-0.0033083113376051188,-0.0006083953194320202,0.002879435196518898
1782970044706711300,1.799711181640625,0.0006970828399062157,-0.001219058409333229,0.0011435868218541145
1782970044716637200,1.80963720703125,0.0003556887386366725,0.0015571797266602516,-0.0026400084607303143
1782970044726563300,1.819563232421875,0.001993266399949789,-0.0005456521175801754,0.0003991908160969615
1782970044736490200,1.829490234375,-0.0025698691606521606,0.001566596794873476,0.0010634798090904951
1782970044746416000,1.839416015625,0.0006922368193045259,-0.001431856071576476,0.000051212264224886894
1782970044756342300,1.84934228515625,-0.000401686062105,-0.0010045263916254044,-0.0009414255619049072
1782970044766268200,1.85926806640625,0.0005024571437388659,0.0005070837214589119,-0.0012522164033725858
1782970044776195300,1.8691953125,0.0034584656823426485,-0.0017874166369438171,0.004327448084950447
1782970044786121200,1.879121337890625,-0.0012473399983718991,0.0010190224274992943,-0.0004225660813972354
1782970044796047000,1.889047119140625,0.00050805025966838,0.0005921907722949982,-0.0014028068399056792
1782970044805973200,1.89897314453125,-0.0013742719311267138,0.0013924706727266312,0.002230543876066804
1782970044815899100,1.908899169921875,-0.0012035011313855648,0.0005812374874949455,-0.0002670076210051775
1782970044825826000,1.918825927734375,0.0015304998960345984,-0.0004403511993587017,0.0008696294389665127
1782970044835752200,1.928752197265625,-0.0007667335448786616,-0.0006645894609391689,0.0015218715416267514
1782970044845678000,1.938677978515625,0.0014700554311275482,-0.0016526221297681332,0.002787139266729355
1782970044855604200,1.948604248046875,-0.000054181087762117386,-0.0013388043735176325,0.0005272564012557268
1782970044865530400,1.9585302734375,0.0005940322880633175,-0.0005172193050384521,0.0005269901594147086
1782970044875457300,1.968457275390625,-0.0012086897622793913,0.00015274621546268463,0.00223596696741879
1782970044885383200,1.978383056640625,0.0016078694025054574,-0.0000776173546910286,-0.0010610264725983143
1782970044895309300,1.988309326171875,-0.0007155738421715796,0.00012269895523786545,-0.0010181248653680086
1782970044905235200,1.998235107421875,0.00022292416542768478,-0.00013562757521867752,0.001208544010296464
1782970044915162000,2.008162109375,0.0015924032777547836,-0.0009831623174250126,0.0011516907252371311
1782970044925088300,2.018088134765625,0.0027825699653476477,0.0000533396378159523,-0.0007620568503625691
1782970044935014100,2.02801416015625,0.0008970351191237569,-0.0014277142472565174,-0.002642290201038122
1782970044944940000,2.03793994140625,0.0015495095867663622,-0.00040079932659864426,0.0006038367282599211
1782970044954866200,2.0478662109375,-0.002061910927295685,-0.0008941716514527798,0.0010423805797472596
1782970044964793000,2.05779296875,-0.0022307552862912416,0.0011841594241559505,-0.0017305026995018125
1782970044974719200,2.06771923828125,-0.0015668044798076153,0.0015394226647913456,0.000027761911042034626
1782970044984645000,2.07764501953125,0.0018702710513025522,0.0016997447237372398,0.002138317096978426
1782970044994571300,2.0875712890625,0.0001840526529122144,0.0015595192089676857,0.0003378521651029587
1782970045004497400,2.097497314453125,-0.001758989761583507,0.00035949843004345894,0.0005434481427073479
1782970045014424000,2.107424072265625,-0.0012682488886639476,-0.0012538216542452574,-0.0003178336191922426
1782970045024350200,2.11735009765625,0.0013847921509295702,-0.0013193355407565832,-0.00011490075848996639
1782970045034276400,2.1272763671875,-0.00010812754044309258,-0.0007751481607556343,-0.0013810207601636648
1782970045044202000,2.137201904296875,-0.0005488807219080627,-0.001115766353905201,0.000002225162461400032
1782970045054129200,2.147129150390625,0.00014493022172246128,0.0016334452666342258,0.0008656242862343788
1782970045064055300,2.15705517578125,-0.0011629482032731175,0.00048189423978328705,-0.0008260155445896089
1782970045073981200,2.166981201171875,0.001537758158519864,-0.00023054704070091248,0.0007811652030795813
1782970045083907000,2.176906982421875,0.0004184315912425518,-0.000706986989825964,-0.000008728355169296265
1782970045093833200,2.186833251953125,0.00009075491107068956,-0.0003089788369834423,0.0019014938734471798
1782970045103760100,2.196760009765625,-0.0015359038952738047,-0.0021260534413158894,0.0013371699023991823
1782970045113686000,2.20668603515625,0.0023114574141800404,-0.0033224611543118954,0.0012871192302554846
1782970045123612200,2.216612060546875,-0.002267848001793027,0.001668036449700594,-0.0012620585039258003
1782970045133538300,2.226538330078125,-0.0014234473928809166,-0.000596397090703249,-0.000300414627417922
1782970045143464200,2.236464111328125,-0.0006402117433026433,0.000998836476355791,0.0010466121602803469
1782970045153391000,2.24639111328125,-0.002378410892561078,-0.000022388994693756104,-0.0006447058985941112
1782970045163317200,2.256317138671875,-0.0011126104509457946,0.0008713682182133198,0.0022251165937632322
1782970045173243400,2.266243408203125,-0.0002954524243250489,-0.0004615779034793377,0.0029488233849406242
1782970045183169000,2.2761689453125,-0.000046713161282241344,0.0007357792928814888,0.001022825250402093
1782970045193096200,2.28609619140625,-0.0014691236428916454,0.0004516257904469967,-0.0020976855885237455
1782970045203022300,2.296022216796875,0.00017990557535085827,0.0007642810232937336,-0.0028183371759951115
1782970045212948000,2.305947998046875,0.00003742147237062454,-0.001141432672739029,0.00020417035557329655
1782970045222874000,2.3158740234375,0.00017990058404393494,-0.000089217908680439,0.00010829651728272438
1782970045232800300,2.32580029296875,-0.0012290228623896837,0.00027026282623410225,-0.0008168711210601032
1782970045242727200,2.33572705078125,0.001200578990392387,0.0018322067335247993,-0.00006426183972507715
1782970045252653000,2.345653076171875,0.0018193874275311828,0.001701317261904478,-0.001528083230368793
1782970045262579200,2.3555791015625,0.0012020667782053351,-0.0008414690382778645,0.0017545290756970644
1782970045272505300,2.36550537109375,-0.0010833919513970613,0.002710950095206499,0.0009447078919038177
1782970045282431200,2.37543115234375,0.00042475617374293506,0.000045392196625471115,-0.0007898088078945875
1782970045292358100,2.385358154296875,0.0021695969626307487,-0.0026523168198764324,0.001086331089027226
1782970045302284300,2.3952841796875,-0.00256976461969316,0.00005984632298350334,-0.0006865352625027299
1782970045312210200,2.405210205078125,0.000042344952817074955,-0.0010525844991207123,0.0009070697706192732
1782970045322136000,2.415135986328125,-0.0024216114543378353,-0.0011860090307891369,-0.001312674954533577
1782970045332062200,2.425062255859375,0.002867496805265546,-0.0011673178523778915,0.001173556549474597
1782970045341989400,2.4349892578125,0.0006347025628201663,-0.0014056707732379436,0.00047048204578459263
1782970045351915000,2.4449150390625,0.0005241618491709232,0.002200883813202381,0.002891506999731064
1782970045361841200,2.454841064453125,0.001118313055485487,-0.0037347697652876377,-0.0026417425833642483
1782970045371767300,2.464767333984375,-0.001440232153981924,0.00038918014615774155,-0.000016330042853951454
1782970045381694000,2.47469384765625,0.0007190587930381298,0.0002754633314907551,-0.0010150154121220112
1782970045391620000,2.4846201171875,0.000667411892209202,-0.0002749180421233177,-0.000523280119523406
1782970045401546200,2.494546142578125,0.002326294779777527,-0.000706882681697607,0.0030048757325857878
1782970045411472100,2.50447216796875,-0.0009885752806439996,0.0016995882615447044,-0.0019732145592570305
1782970045421398300,2.514398193359375,-0.0031875474378466606,0.00019996240735054016,-0.0014448434812948108
1782970045431325200,2.5243251953125,0.002639975631609559,-0.0009486922062933445,0.000786303891800344
1782970045441251600,2.53425146484375,-0.004154547117650509,0.00138024240732193,-0.0031929914839565754
1782970045451177500,2.544177490234375,0.0026460974477231503,-0.000853423960506916,-0.00003859715070575476
1782970045461103600,2.554103515625,-0.0000021499290596693754,-0.00024222861975431442,-0.002776326611638069
1782970045471029500,2.564029541015625,-0.0024021270219236612,0.00005182577297091484,0.000023325439542531967
1782970045480956700,2.573956787109375,-0.0010793348774313927,0.001589801162481308,-0.0019290379714220762
1782970045490882600,2.583882568359375,-0.002434288850054145,-0.0004611946642398834,0.0027616098523139954
1782970045500808700,2.59380859375,0.0015868180198594928,-0.0002207113429903984,0.0016108580166473985
1782970045510734600,2.603734619140625,-0.0013610089663416147,0.0004890980198979378,-0.0006169320549815893
1782970045520660700,2.61366064453125,-0.004705939441919327,-0.000655794981867075,-0.0012880486901849508
1782970045530587600,2.623587646484375,-0.00016548560233786702,0.0014300509355962276,-0.0000029766233637928963
1782970045540513500,2.633513427734375,-0.0003686847921926528,-0.00012683309614658356,0.00020448362920433283
1782970045550439700,2.643439697265625,-0.0013046024832874537,-0.0012643726076930761,-0.0013121598167344928
1782970045560365600,2.653365478515625,0.00045841006794944406,0.0010509798303246498,-0.0023942021653056145
1782970045570292700,2.663292724609375,-0.0016126774717122316,0.0015007401816546917,-0.00025476422160863876
1782970045580218600,2.673218505859375,0.0005942840944044292,-0.00017279013991355896,-0.0006640920764766634
1782970045590144500,2.68314453125,-0.0010817956645041704,0.0015653232112526894,0.0009678190108388662
1782970045600070700,2.693070556640625,0.000544330570846796,0.00045718206092715263,-0.0017134514637291431
1782970045609996500,2.70299658203125,0.0023556926753371954,-0.00052676722407341,0.0005159176653251052
1782970045619923700,2.712923828125,-0.0017530320910736918,0.0025864681228995323,-0.00018768943846225739
1782970045629849600,2.722849609375,-0.0017356156604364514,0.0007765074260532856,-0.00014864152763038874
1782970045639775500,2.732775390625,-0.001380349975079298,0.0026263389736413956,-0.00004371290560811758
1782970045649701600,2.74270166015625,-0.0024172558914870024,0.0012644059024751186,0.000611383467912674
1782970045659627800,2.752627685546875,-0.001449729548767209,0.0014513595961034298,-0.0013793294783681631
1782970045669554700,2.7625546875,-0.0037248320877552032,0.0013194684870541096,-0.0006355831865221262
1782970045679480600,2.77248046875,-0.001047023688443005,0.0016995011828839779,0.00021982414182275534
1782970045689406700,2.78240673828125,0.0007045351667329669,0.002787322271615267,0.000970902037806809
1782970045699332600,2.79233251953125,0.0015130707761272788,-0.0003357669338583946,-0.00044030696153640747
1782970045709258500,2.802258544921875,0.001290727755986154,-0.005512517876923084,0.0029299347661435604
1782970045719185700,2.812185546875,0.001365296309813857,-0.0019105926621705294,-0.001956966007128358
1782970045729111600,2.822111572265625,0.0008569881319999695,-0.00029645301401615143,-0.001505766878835857
1782970045739037400,2.832037353515625,0.00040691386675462127,0.0011198162101209164,-0.0019515800522640347
1782970045748963600,2.841963623046875,-0.0005326902028173208,-0.00034092552959918976,0.00015144236385822296
1782970045758890800,2.851890869140625,0.0017256704159080982,0.0005248682573437691,-0.0014022458344697952
1782970045768816600,2.861816650390625,0.0007374176057055593,0.0014912332408130169,-0.0013349123764783144
1782970045778742500,2.871742431640625,0.0006671102019026875,0.0008427537977695465,-0.0008890992030501366
1782970045788668700,2.881668701171875,0.0007676240638829768,-0.00002397783100605011,-0.0004435158334672451
1782970045798594800,2.8915947265625,-0.0016462651547044516,0.0003235642798244953,0.00014184694737195969
1782970045808521700,2.901521728515625,-0.0009434865787625313,0.00026597362011671066,-0.0013922342332080007
1782970045818447600,2.911447509765625,-0.0009578675962984562,-0.00086613604798913,-0.00037384149618446827
1782970045828373800,2.921373779296875,0.0005264854989945889,-0.0002973973751068115,-0.0018836153903976083
1782970045838299400,2.93129931640625,0.00027375147328712046,-0.00007262639701366425,-0.001096917549148202
1782970045848225500,2.9412255859375,-0.0002329958078917116,-0.0010949554853141308,-0.0003330771578475833
1782970045858152700,2.951152587890625,0.0015803505666553974,-0.001234238501638174,-0.00020258233416825533
1782970045868078600,2.96107861328125,-0.0014197046402841806,-0.0006320788525044918,0.0008753353031352162
1782970045878004500,2.97100439453125,-0.0023600668646395206,-0.00009465264156460762,-0.0001907279947772622
1782970045887930600,2.9809306640625,-0.0017953994683921337,0.0014123357832431793,-0.002012150827795267
1782970045897856800,2.990856689453125,0.0008640331216156483,0.0007992764003574848,0.0004856279119849205
1782970045907783700,3.00078369140625,-0.00036507140612229705,0.0012311292812228203,0.0005341884680092335
1782970045917709600,3.01070947265625,-0.0022111746948212385,0.000279049389064312,-0.0007555803749710321
1782970045927635700,3.0206357421875,0.0010118520585820079,-0.0019299392588436604,-0.000542556750588119
1782970045937561900,3.030561767578125,0.0010440762853249907,0.0005225660279393196,-0.0004429544787853956
1782970045947488500,3.040488525390625,-0.0010978595819324255,0.000631414819508791,-0.002653306582942605
1782970045957414700,3.05041455078125,-0.0009250204311683774,0.0005307472310960293,0.0021172137930989265
1782970045967340800,3.0603408203125,0.0007266216562129557,0.0006853798404335976,-0.0008624125621281564
1782970045977266400,3.070266357421875,-0.0011732775019481778,0.001677940133959055,-0.0020981193520128727
1782970045987192600,3.080192626953125,-0.002381879137828946,0.00036337319761514664,-0.00003425555769354105
1782970045997119700,3.09011962890625,-0.002696664771065116,0.002143696416169405,-0.001971438992768526
1782970046007045600,3.100045654296875,0.0005995786632411182,-0.00016520218923687935,0.0005021210527047515
1782970046016971500,3.109971435546875,-0.0004334615368861705,0.0014731748960912228,0.0009375478839501739
1782970046026897700,3.119897705078125,-0.0007773299003019929,0.00003806315362453461,-0.0002855801722034812
1782970046036823800,3.12982373046875,-0.0016013119602575898,-0.0010429136455059052,-0.00369682302698493
1782970046046750500,3.13975048828125,-0.0007701752474531531,0.00009018881246447563,-0.0008322905632667243
1782970046056676600,3.149676513671875,0.00027804492856375873,-0.004227860830724239,0.0008473651250824332
1782970046066602800,3.159602783203125,0.00015647229156456888,0.0006477958522737026,0.0017543468857184052
1782970046076528600,3.169528564453125,-0.002015868201851845,0.000760180875658989,0.0028955116868019104
1782970046086454500,3.17945458984375,0.003639312693849206,0.0010130750015377998,0.00010286842007189989
1782970046096381700,3.189381591796875,-0.0017932695336639881,-0.0003712358884513378,0.000001135747879743576
1782970046106307800,3.199307861328125,0.0006966618821024895,-0.000678506214171648,0.0017145995516330004
1782970046116233500,3.2092333984375,-0.0010639538522809744,0.003803061321377754,-0.0020369954872876406
1782970046126159600,3.21915966796875,-0.0004409445682540536,0.00006075436249375343,-0.0008610403747297823
1782970046136085800,3.229085693359375,-0.000016436702935607173,0.002010188065469265,0.0009922533063217998
1782970046146012700,3.2390126953125,0.0007378420559689403,-0.0002071009948849678,-0.000058251433074474335
1782970046155938600,3.2489384765625,-0.003644655691459775,0.0001889113336801529,-0.0006372226634994149
1782970046165864700,3.25886474609375,-0.002298091072589159,0.0015872507356107235,0.003928974270820618
1782970046175790600,3.26879052734375,-0.0016735796816647053,-0.00025539053604006767,0.0007393063278868794
1782970046185717500,3.278717529296875,-0.0006946992943994701,0.0011340687051415443,-0.001316926907747984
1782970046195643600,3.2886435546875,-0.0010403776541352272,0.0004176786169409752,-0.0016327777411788702
1782970046205569800,3.29856982421875,-0.0008395612239837646,0.0026701479218900204,-0.0018363415729254484
1782970046215495700,3.30849560546875,-0.0011777826584875584,0.00031165266409516335,-0.00020861753728240728
1782970046225421600,3.318421630859375,-0.00027599133318290114,0.001348644495010376,0.0014011129969730973
1782970046235348700,3.3283486328125,0.002104874700307846,-0.00017601530998945236,0.001394188846461475
1782970046245274600,3.338274658203125,0.0017692649271339178,-0.0006410032510757446,-0.002104350598528981
1782970046255200500,3.348200439453125,0.001326647587120533,0.00027805380523204803,0.000036032055504620075
1782970046265126700,3.358126708984375,0.00035783567000180483,0.000016736332327127457,-0.0010695778764784336
1782970046275052500,3.368052490234375,-0.00220865267328918,0.0005717389285564423,-0.0007151111494749784
1782970046284979500,3.3779794921875,0.0011483870912343264,0.00037079351022839546,-0.0019119040807709098
1782970046294905600,3.387905517578125,-0.001384279108606279,-0.0021395019721239805,0.0020953542552888393
1782970046304831700,3.397831787109375,-0.0005359204951673746,-0.000680604949593544,-0.0011398395290598273
1782970046314757600,3.407757568359375,0.0007245535962283611,-0.00024357996881008148,0.0002167747588828206
1782970046324683800,3.417683837890625,0.0012591900303959846,-0.0003608493134379387,0.0015872945077717304
1782970046334610700,3.427610595703125,0.0003824774466920644,0.0018439819104969501,-0.0021216897293925285
1782970046344536600,3.43753662109375,-0.0011292557464912534,0.0015344582498073578,-0.00008471740875393152
1782970046354462700,3.447462646484375,0.00030911757494322956,-0.001455472782254219,0.0010979925282299519
1782970046364388600,3.457388671875,-0.0012534013949334621,0.0010155108757317066,0.000513282953761518
1782970046374315800,3.467315673828125,0.0003349078760948032,0.0026632086373865604,-0.0020119263790547848
1782970046384241700,3.47724169921875,-0.000017113456124207005,0.0005798656493425369,-0.0009361045667901635
1782970046394167600,3.48716748046875,-0.00036971597000956535,0.0003258003853261471,-0.0013249260373413563
1782970046404093700,3.49709375,-0.002318350598216057,-0.0004794779233634472,-0.0009909137152135372
1782970046414019600,3.50701953125,-0.0039652492851018906,0.0016870037652552128,0.0012181784259155393
1782970046423946500,3.516946533203125,0.0005684967618435621,0.0013669696636497974,-0.001858872128650546
1782970046433872600,3.52687255859375,-0.00214526429772377,0.00021275551989674568,0.0017337321769446135
1782970046443798300,3.53679833984375,-0.0014465893618762493,0.0005107480101287365,-0.0014781468780711293
1782970046453724200,3.54672412109375,0.000675950082950294,-0.0011183079332113266,-0.0013995836488902569
1782970046463650300,3.556650390625,-0.0020905504934489727,0.0015239031054079533,-0.0008470321190543473
1782970046473577200,3.5665771484375,0.0013848745729774237,0.0032597510144114494,-0.002177813556045294
1782970046483503400,3.57650341796875,0.0003151958517264575,-0.0016173790208995342,0.0008455796632915735
1782970046493429200,3.58642919921875,-0.001279504969716072,0.002059647347778082,0.0010586325079202652
1782970046503355400,3.59635546875,-0.0011373743182048202,-0.0009282925166189671,-0.0008229882805608213
1782970046513281300,3.60628125,-0.0008478887612000108,0.0014802701771259308,-0.0010309811914339662
1782970046523208200,3.616208251953125,0.00008424742554780096,-0.0009264349937438965,0.000430618179962039
1782970046533134300,3.62613427734375,-0.000645192398224026,-0.0021613426506519318,-0.00008390459697693586
1782970046543060200,3.636060302734375,0.0022623278200626373,-0.0028135483153164387,0.0032345736399292946
1782970046552986000,3.645986083984375,0.000978950411081314,0.0009745322167873383,-0.001009173458442092
1782970046562913300,3.655913330078125,0.0000798888795543462,-0.0005382243543863297,-0.0005400481168180704
1782970046572839200,3.665839111328125,0.00022396589338313788,-0.000040479470044374466,-0.0006295303464867175
1782970046582765300,3.675765380859375,0.00027517019771039486,-0.00076262466609478,0.0012748873559758067
1782970046592691200,3.685691162109375,-0.001417002291418612,0.00044405320659279823,0.0000791279599070549
1782970046602617300,3.695617431640625,-0.0004321941814851016,0.00029573356732726097,-0.0006811948260292411
1782970046612544300,3.705544189453125,0.00020510026661213487,-0.000057933852076530457,-0.00009263621177524328
1782970046622470100,3.71547021484375,0.000117472794954665,0.0004074922762811184,0.002227240242063999
1782970046632396300,3.725396240234375,-0.0021320993546396494,0.0025939475744962692,0.0001518388744443655
1782970046642322200,3.735322265625,-0.00006811947969254106,-0.0016225881408900023,0.00045019411481916904
1782970046652248000,3.745248046875,0.0005787623231299222,0.001109282486140728,0.001285627717152238
1782970046662175200,3.75517529296875,0.0015741148963570595,-0.0009074774570763111,-0.0001244349405169487
1782970046672101400,3.765101318359375,-0.0022397979628294706,-0.0002861618995666504,-0.0028941226191818714
1782970046682027300,3.77502734375,-0.00044443842489272356,0.0008039125241339207,0.0005190515657886863
1782970046691953200,3.784953125,-0.0012055698316544294,-0.0003359206020832062,-0.0009065385675057769
1782970046701879300,3.79487939453125,-0.0014087064191699028,-0.0004964363761246204,0.0005470947362482548
1782970046711806200,3.80480615234375,0.000007828967682144139,0.0005946606397628784,0.0008363141678273678
1782970046721732000,3.814732177734375,-0.00006121429760241881,0.0006217099726200104,-0.00037677749060094357
1782970046731658200,3.824658203125,0.00006741637480445206,-0.0014012272004038095,0.0007390871178358793
1782970046741584400,3.83458447265625,-0.0005343868397176266,-0.002357191639021039,0.0030908137559890747
1782970046751510000,3.844510009765625,-0.0011807359987869859,-0.0011073700152337551,0.001052163657732308
1782970046761437200,3.854437255859375,0.001896658563055098,-0.001381254754960537,0.0006023532478138804
1782970046771363300,3.86436328125,-0.0015713097527623177,0.00009866384789347649,0.0005578784039244056
1782970046781289200,3.874289306640625,0.001473951037041843,0.0013183476403355598,-0.00011092470958828926
1782970046791215000,3.884215087890625,0.0003780603292398155,-0.0007538581266999245,-0.0019972417503595352
1782970046801142300,3.894142333984375,-0.0012291530147194862,0.0001592477783560753,0.0020450404845178127
1782970046811068400,3.904068359375,-0.0009655001340433955,0.0013651270419359207,0.00020319817122071981
1782970046820994000,3.913994140625,-0.0002901220868807286,0.0004765978083014488,0.0002717972965911031
1782970046830920200,3.923920166015625,0.0012643650406971574,-0.0001620282419025898,-0.00009598524775356054
1782970046840846300,3.933846435546875,-0.0000730165556888096,-0.0012679267674684525,-0.003559455741196871
1782970046850773200,3.943773193359375,-0.0005577119300141931,0.0004809712991118431,0.003153841011226177
1782970046860699100,3.95369921875,-0.0007237797835841775,0.0021341913379728794,-0.0002782049123197794
1782970046870625300,3.963625244140625,-0.0004587952571455389,0.001178116537630558,0.001885879784822464
1782970046880551400,3.973551513671875,0.0009527599904686213,0.0006068116053938866,-0.001437059254385531
1782970046890477000,3.98347705078125,-0.002069395035505295,0.00009761517867445946,-0.001308961189351976
1782970046900402400,3.99340234375,-0.0026407907716929913,-0.0009382585994899273,0.0025670351460576057
1782970046910328000,4.003328125,-0.0007816380239091814,-0.0004069581627845764,-0.00005324895028024912
1782970046920254200,4.013254150390625,-0.001718071405775845,-0.0027393028140068054,-0.0011291331611573696
1782970046930181400,4.023181396484375,-0.00029993808129802346,-0.0018221100326627493,-0.0031075954902917147
1782970046940107300,4.033107177734375,0.00019181692914571613,-0.001659993315115571,0.0005922478158026934
1782970046950033200,4.043033203125,-0.00030512892408296466,0.0007469714619219303,-0.00033692922443151474
1782970046959959300,4.052959228515625,-0.00026629833155311644,0.0006385315209627151,0.0005785145331174135
1782970046969885400,4.062885498046875,-0.0011219719890505075,-0.0023138485848903656,-0.0014952890342101455
1782970046979812000,4.07281201171875,-0.001241645310074091,-0.00017504533752799034,-0.0006925579509697855
1782970046989738200,4.08273828125,-0.00003150500560877845,0.00032056868076324463,0.0001601862022653222
1782970046999664400,4.092664306640625,-0.0004304488538764417,0.0014874539338052273,0.0014162565348669887
1782970047009590300,4.10259033203125,-0.0008741314522922039,0.00009541958570480347,-0.0019776758272200823
1782970047019517200,4.11251708984375,-0.0006727330619469285,0.0023184926249086857,0.0005393170285969973
1782970047029443300,4.122443359375,0.0002697596501093358,0.0028175688348710537,-0.00004977406933903694
1782970047039369500,4.132369384765625,-0.0011168522760272026,0.002365307416766882,0.00009037309791892767
1782970047049295000,4.142295166015625,-0.0013520093634724617,0.0007431763224303722,0.0008728097891435027
1782970047059221200,4.15222119140625,-0.0012565174838528037,0.001053782645612955,-0.00045528856571763754
1782970047069148400,4.1621484375,-0.001641077920794487,0.00011874688789248466,-0.00026567140594124794
1782970047079074000,4.172073974609375,0.0004025764355901629,-0.00008778320625424385,-0.0004392102127894759
1782970047089000200,4.182000244140625,-0.0017868082504719496,0.0006118291057646275,0.002015425357967615
1782970047098926300,4.19192626953125,-0.0011874011252075434,-0.0003780401311814785,0.0010169567540287971
1782970047108852200,4.201852294921875,0.00048666191287338734,0.0010185213759541512,-0.0003929208032786846
1782970047118779100,4.211779052734375,0.00004611175609170459,0.0011172425001859665,0.002231566933915019
1782970047128705300,4.221705322265625,-0.0007411186816170812,-0.0009954432025551796,0.0018608549144119024
1782970047138631400,4.23163134765625,-0.003617961425334215,-0.001278573414310813,-0.0012189953122287989
1782970047148557300,4.241557373046875,-0.00025838377769105136,0.0019222800619900227,0.00006118614692240953
1782970047158483200,4.251483154296875,0.0013296717079356313,-0.002454783534631133,0.00037676398642361164
1782970047168410400,4.261410400390625,-0.0012402787106111646,-0.0003141346387565136,-0.0019521703943610191
1782970047178336300,4.271336181640625,-0.0017573407385498285,0.0003085639327764511,0.00147527817171067
1782970047188262100,4.28126220703125,0.00019901743507944047,0.00011069094762206078,-0.003192710690200329
1782970047198188300,4.291188232421875,0.0005527177127078176,-0.0002402709797024727,-0.00021398335229605436
1782970047208114200,4.3011142578125,-0.0012664876412600279,-0.0001345435157418251,-0.00041744892951101065
1782970047218041000,4.311041015625,-0.0010056784376502037,0.0005113817751407623,0.00040131877176463604
1782970047227967200,4.32096728515625,0.00005452601908473298,0.00138516491279006,0.0001642974093556404
1782970047237893400,4.330893310546875,0.0005642191972583532,0.0010609929449856281,0.0010363083565607667
1782970047247819300,4.3408193359375,-0.0002333975280635059,0.0012556700967252254,0.0032853479497134686
1782970047257746200,4.35074609375,0.00007200930849649012,-0.0006506904028356075,-0.001478264108300209
1782970047267672300,4.36067236328125,-0.0013418629532679915,0.00003960123285651207,-0.0009094129200093448
1782970047277598200,4.37059814453125,0.00043764509609900415,-0.000020897481590509415,0.000922429608181119
1782970047287524000,4.380524169921875,0.0016240832628682256,-0.00026857154443860054,0.0011352163273841143
1782970047297450200,4.3904501953125,-0.0013633851194754243,0.00012693926692008972,-0.001391759724356234
1782970047307377400,4.40037744140625,-0.0009942710166797042,0.0016614529304206371,-0.000031683361157774925
1782970047317303300,4.41030322265625,-0.0017194380052387714,-0.0034842605236917734,-0.002507125725969672
1782970047327229200,4.420229248046875,0.0015724953263998032,0.004716411232948303,0.0035590222105383873
1782970047337155300,4.4301552734375,0.0004443713405635208,0.0011167367920279503,0.0015475996769964695
1782970047347081200,4.440081298828125,0.0003610143903642893,-0.0009629256092011929,0.0010482571087777615
1782970047357008100,4.450008056640625,-0.000025694338546600193,-0.0009098541922867298,-0.0011388520943000913
1782970047366934300,4.459934326171875,-0.0008949501207098365,-0.0008086538873612881,-0.00018570676911622286
1782970047376860200,4.469860107421875,-0.0015585706569254398,-0.0010717157274484634,-0.0027618003077805042
1782970047386786300,4.479786376953125,0.0005447939038276672,0.0018282001838088036,0.0015858099795877934
1782970047396712200,4.489712158203125,-0.0005822703242301941,-0.002256290754303336,-0.0005817546043545008
1782970047406639400,4.499639404296875,0.0011189570650458336,-0.004220904782414436,-0.0010723088635131717
1782970047416565200,4.509565185546875,0.0005424295086413622,0.0017999154515564442,0.0021352525800466537
1782970047426491100,4.5194912109375,-0.003013689536601305,0.0009248005226254463,-0.001823536353185773
1782970047436417300,4.529417236328125,-0.0013505266979336739,0.0007782205939292908,0.0008553516818210483
1782970047446343700,4.53934375,0.0003317921073175967,0.0010767611674964428,-0.0021894401870667934
1782970047456270600,4.5492705078125,-0.004577984102070332,0.004702300298959017,0.001869630767032504
1782970047466196500,4.559196533203125,0.0002905404253397137,-0.0023398969788104296,-0.0018436146201565862
1782970047476122600,4.56912255859375,-0.00006000617577228695,0.0014046374708414078,0.002323528751730919
1782970047486048800,4.579048828125,-0.0005345814861357212,-0.0019469510298222303,-0.0009079509763978422
1782970047495974700,4.588974609375,-0.0013578356010839343,-0.02045736461877823,-0.010112673044204712
1782970047505901600,4.598901611328125,-0.0020894058980047703,0.0034000324085354805,0.00028670451138168573
1782970047515827700,4.60882763671875,-0.0012223285157233477,-0.004627148620784283,-0.0037879403680562973
1782970047525753900,4.61875390625,0.0018341813702136278,-0.010074644349515438,-0.005556012503802776
1782970047535679500,4.628679443359375,-0.00024257227778434753,-0.004033156670629978,-0.0020783571526408195
1782970047545606700,4.638606689453125,-0.0012170228874310851,0.01729024201631546,0.008740734308958054
1782970047555532800,4.64853271484375,0.0018474231474101543,-0.013505680486559868,-0.005468197166919708
1782970047565458400,4.65845849609375,-0.0017907212022691965,0.004735108930617571,0.0030672340653836727
1782970047575384600,4.668384521484375,-0.00026276306016370654,-0.002303625922650099,0.0006022637244313955
1782970047585310700,4.678310791015625,-0.0034721384290605783,0.00322509603574872,0.0018073441460728645
1782970047595237600,4.688237548828125,0.002244518604129553,0.007885053753852844,0.002455852460116148
1782970047605163500,4.69816357421875,0.00249698618426919,0.0031677954830229282,0.0011373216984793544
1782970047615089700,4.708089599609375,-0.00016501564823556691,0.0033781537786126137,0.003115554340183735
1782970047625015800,4.718015869140625,0.001199854421429336,-0.004711730405688286,-0.00276470510289073
1782970047634941700,4.727941650390625,-0.0010409248061478138,0.0017786482349038124,0.0007371284300461411
1782970047644868600,4.73786865234375,0.0014656423591077328,-0.00013110460713505745,-0.0021862233988940716
1782970047654794800,4.747794677734375,-0.0002861834946088493,0.009155189618468285,0.004782286938279867
1782970047664720600,4.757720703125,-0.00046141952043399215,0.004703182261437178,0.0019726520404219627
1782970047674646500,4.767646484375,-0.0009055681293830276,0.0052088419906795025,0.0035821329802274704
1782970047684572700,4.77757275390625,0.0022089986596256495,0.00042580487206578255,-0.002706655766814947
1782970047694499800,4.787499755859375,0.0034143796656280756,0.0007719732820987701,0.0008313719881698489
1782970047704425500,4.797425537109375,-0.00025039631873369217,-0.0009937025606632233,-0.0000719722593203187
1782970047714351600,4.8073515625,0.0009709780570119619,-0.0012597634922713041,0.001464229542762041
1782970047724277800,4.81727783203125,-0.000046882109018042684,-0.0008887853473424911,0.00047513144090771675
1782970047734204400,4.827204345703125,0.0036660609766840935,-0.0000984538346529007,-0.0010959056671708822
1782970047744130600,4.837130615234375,-0.0024203273933380842,0.0023449966683983803,-0.0007227967726066709
1782970047754056700,4.847056640625,-0.0001576406939420849,-0.001174445729702711,0.0021145595237612724
1782970047763982600,4.856982666015625,0.0009315921925008297,-0.0011137258261442184,-0.0003121127374470234
1782970047773908700,4.86690869140625,-0.0012817978858947754,-0.003032682230696082,0.0013648213353008032
1782970047783835600,4.876835693359375,-0.0019510501297190785,0.0002161078155040741,-0.002515404485166073
1782970047793761800,4.88676171875,-0.0006802518619224429,0.002551752608269453,0.0004051614087074995
1782970047803687700,4.896687744140625,0.0011032670736312866,-0.0013255435042083263,0.0015716259367763996
1782970047813613600,4.906613525390625,-0.0013312967494130135,-0.0003347191959619522,0.0010803776094689965
1782970047823539700,4.916539794921875,-0.0035212142392992973,0.0009851432405412197,0.0024686837568879128
1782970047833466600,4.926466552734375,-0.0004874461446888745,0.0016545653343200684,0.0006341410335153341
1782970047843392500,4.936392578125,-0.002014769008383155,0.0001562708057463169,0.0005638336297124624
1782970047853318700,4.946318603515625,0.003569273743778467,0.0019517219625413418,-0.0007643165881745517
1782970047863244500,4.95624462890625,0.00012554008571896702,0.00011973315849900246,0.0003353026695549488
1782970047873170700,4.966170654296875,0.0015925475163385272,0.0005835159681737423,-0.0013179214438423514
1782970047883097600,4.97609765625,0.00016589215374551713,-0.0020628671627491713,-0.0009381546406075358
1782970047893023700,4.986023681640625,-0.0008031821344047785,0.00010409532114863396,0.0008844421245157719
1782970047902949600,4.99594970703125,-0.000980282318778336,0.0010593710467219353,0.0028509204275906086
1782970047912875800,5.005875732421875,-0.0005815140902996063,-0.0006208601407706738,0.002841775305569172
1782970047922801700,5.0158017578125,0.0010134531185030937,0.0004060547798871994,0.0013133871834725142
1782970047932728600,5.025728515625,0.0013107439735904336,0.0002384246326982975,-0.0020896911155432463
1782970047942654700,5.03565478515625,-0.00039847276639193296,-0.0016172658652067184,-0.0028313815128058195
1782970047952580600,5.04558056640625,0.002710993168875575,-0.0010634022764861584,0.00066385418176651
1782970047962506500,5.055506591796875,0.001474221353419125,0.00015233037993311882,-0.0005348346312530339
1782970047972432600,5.0654326171875,0.0009117050794884562,-0.00025985296815633774,-0.0005282561178319156
1782970047982359600,5.075359619140625,0.0003628275590017438,-0.0018092799000442028,-0.0009471713565289974
1782970047992285700,5.08528564453125,-0.0003663533425424248,0.000606101006269455,-0.0004930490395054221
1782970048002211600,5.095211669921875,-0.0012036511907353997,0.0004649534821510315,0.0009213557932525873
1782970048012137700,5.1051376953125,-0.0006385580636560917,0.00042451638728380203,-0.002792036160826683
1782970048022063600,5.115063720703125,-0.00018422279390506446,0.0005832407623529434,-0.00016083312220871449
1782970048031990500,5.124990478515625,-0.0006894784746691585,-0.0020662955939769745,0.0007487459806725383
1782970048041916700,5.134916748046875,0.00014595517131965607,0.0010432112030684948,0.00018548732623457909
1782970048051842800,5.1448427734375,-0.000647633452899754,-0.0004928051494061947,0.0008447384461760521
1782970048061768400,5.1547685546875,0.00037422141758725047,-0.0001303493045270443,0.0017427562270313501
1782970048071695600,5.164695556640625,0.0017080139368772507,0.000034798868000507355,-0.0025161392986774445
1782970048081621800,5.174621826171875,0.0009354309877380729,-0.0013878615573048592,0.000017059501260519028
1782970048091547600,5.184547607421875,0.00041480231448076665,-0.0003176005557179451,0.0015626410022377968
1782970048101473500,5.1944736328125,-0.0012587280943989754,0.0037849987857043743,0.0018095162231475115
1782970048111399700,5.204399658203125,-0.002491560997441411,-0.0007757502608001232,-0.0015936808194965124
1782970048121326600,5.21432666015625,-0.00009045496699400246,0.0008197496645152569,0.0010886548552662134
1782970048131252500,5.22425244140625,0.0009441121364943683,-0.0001637008972465992,-0.00037774897646158934
1782970048141178600,5.2341787109375,0.0014394600875675678,-0.0017703862395137548,0.0002888402668759227
1782970048151104800,5.244104736328125,0.0004131099267397076,0.0024176575243473053,0.001394397928379476
1782970048161030700,5.25403076171875,0.0004613131459336728,0.0015246998518705368,0.0009049089858308434
1782970048170957600,5.26395751953125,0.00009372266504215077,0.0008111214265227318,0.0006799112306907773
1782970048180883700,5.2738837890625,-0.0010208102175965905,0.0008239047601819038,0.0022762101143598557
1782970048190809600,5.2838095703125,0.0014907290460541844,0.00017046183347702026,0.001672733691520989
1782970048200735500,5.293735595703125,-0.0013306238688528538,0.0018096375279128551,0.002008824609220028
1782970048210661600,5.30366162109375,-0.0007862291531637311,0.0005091307684779167,0.00388436671346426
1782970048220588800,5.3135888671875,-0.00022882959456183016,0.0009634657762944698,0.00040920788887888193
1782970048230514400,5.323514404296875,-0.001374056446366012,0.00030366238206624985,-0.0007445754017680883
1782970048240440600,5.333440673828125,0.0008621998713351786,-0.0013706670142710209,0.003326599020510912
1782970048250366700,5.34336669921875,0.0007705244934186339,0.0014458824880421162,0.00035320757888257504
1782970048260292600,5.353292724609375,-0.0023283297196030617,-0.0007632095366716385,0.0010312484810128808
1782970048270219500,5.363219482421875,-0.0002091243222821504,-0.0008549881167709827,-0.0007588793523609638
1782970048280145700,5.373145751953125,-0.00048236464499495924,0.000018262304365634918,0.0034113647416234016
1782970048290071800,5.38307177734375,-0.0004300696309655905,0.00034580426290631294,-0.0030047884210944176
1782970048299997700,5.392997802734375,0.00019763746240641922,-0.0005993517115712166,0.002899439539760351
1782970048309923600,5.402923583984375,0.0012886205222457647,-0.0013394653797149658,-0.0012495487462729216
1782970048319850800,5.412850830078125,-0.0006280565867200494,0.0004365965723991394,0.0010088118724524975
1782970048329776600,5.422776611328125,0.0001813589478842914,-0.00002982746809720993,0.003224755171686411
1782970048339702500,5.43270263671875,0.0016370427329093218,0.00236115837469697,-0.0009108674712479115
1782970048349628700,5.442628662109375,-0.0010955799371004105,-0.0033164233900606632,0.0000339938560500741
1782970048359554600,5.452554443359375,0.0008892740588635206,0.0003970884718000889,-0.0010669570183381438
1782970048369481500,5.4624814453125,0.0018223095685243607,-0.0024896233808249235,-0.0005325768725015223
1782970048379407600,5.47240771484375,0.001418574247509241,-0.0016110464930534363,-0.0019019743194803596
1782970048389333800,5.482333740234375,-0.000608267611823976,0.0005511296913027763,-0.0009441834990866482
1782970048399259600,5.492259765625,-0.001406150753609836,0.0002659051679074764,-0.000791850674431771
1782970048409186600,5.5021865234375,0.000503254821524024,-0.001270281383767724,0.0009618211770430207
1782970048419112700,5.51211279296875,-0.0017271426040679216,-0.00008863676339387894,0.0005975005915388465
1782970048429038600,5.52203857421875,0.0002581360749900341,-0.0023131463676691055,0.0017977983225136995
1782970048438964500,5.531964599609375,0.00035986880538985133,0.0013545588590204716,0.0015690326690673828
1782970048448890000,5.54189013671875,0.0008845848497003317,0.0013371198438107967,-0.0018045005854219198
1782970048458817300,5.5518173828125,0.0012033652747049928,0.0005421661771833897,0.0007846244843676686
1782970048468743200,5.5617431640625,0.00033138837898150086,0.00024697184562683105,0.0015433774096891284
1782970048478669000,5.5716689453125,0.003071514656767249,0.0007654894143342972,-0.0008790339343249798
1782970048488595200,5.58159521484375,0.00022574642207473516,-0.00023473333567380905,0.0014054338680580258
1782970048498521000,5.59152099609375,-0.002488014753907919,0.0026563946157693863,0.0013572307070717216
1782970048508448000,5.601447998046875,0.000359868339728564,0.0016478034667670727,-0.0028609554283320904
1782970048518374100,5.6113740234375,0.00005893115303479135,-0.00016261357814073563,-0.00039779767394065857
1782970048528300300,5.62130029296875,-0.0032824594527482986,0.0003206939436495304,-0.0003696300555020571
1782970048538226200,5.63122607421875,-0.000059235579101368785,-0.00003244122490286827,-0.0003323458367958665
1782970048548152300,5.64115234375,-0.001159499865025282,0.00017907749861478806,-0.0012250905856490135
1782970048558079200,5.651079345703125,0.0004487831611186266,-0.0012377239763736725,-0.001301257056184113
1782970048568005000,5.661005126953125,0.002087666653096676,-0.0014090330805629492,0.0025432673282921314
1782970048577931300,5.67093115234375,0.0004021520435344428,-0.0006582881323993206,0.0004433649592101574
1782970048587857200,5.680857177734375,0.00011255742720095441,-0.0013122507371008396,0.0016061333008110523
1782970048597783000,5.690782958984375,-0.002214512787759304,-0.0005774847231805325,0.0004878720501437783
1782970048607710200,5.700710205078125,-0.0020427023991942406,0.0013744523748755455,-0.0006459134165197611
1782970048617636000,5.710635986328125,-0.0026427125558257103,-0.0008982894942164421,-0.00029517512302845716
1782970048627562200,5.720562255859375,0.0019064374500885606,-0.0008709770627319813,0.0007992320461198688
1782970048637488000,5.730488037109375,0.0005207947688177228,0.0019466476514935493,0.0004692664369940758
1782970048647414300,5.740414306640625,-0.000016467529349029064,0.0006268061697483063,-0.0019782064482569695
1782970048657341200,5.750341064453125,0.00018460112914908677,-0.0010187611915171146,0.0004774944391101599
1782970048667267000,5.76026708984375,-0.001081385649740696,-0.00025852397084236145,0.0003178956685587764
1782970048677193200,5.770193115234375,0.0007386186625808477,-0.0012878358829766512,0.0003024493344128132
1782970048687119400,5.780119384765625,0.0026933515910059214,0.0012724543921649456,-0.0007042278302833438
1782970048697045000,5.790044921875,-0.00004810630343854427,-0.0000918833538889885,-0.00005548179615288973
1782970048706972200,5.79997216796875,-0.003008670639246702,-0.001506272703409195,0.0021833661012351513
1782970048716898300,5.809898193359375,0.0005567692569456995,0.000945966225117445,-0.0019650401081889868
1782970048726824200,5.81982421875,0.0004161387332715094,-0.001978036016225815,0.0017738731112331152
1782970048736750000,5.82975,0.0014353303704410791,0.001827088650316,0.0004934251774102449
1782970048746677200,5.83967724609375,-0.0016498261829838157,-0.0010421769693493843,0.0007599206874147058
1782970048756603100,5.84960302734375,0.000717457733117044,-0.0007377774454653263,0.0006850858917459846
1782970048766529000,5.859529052734375,0.00030448357574641705,0.00027146562933921814,0.002948126755654812
1782970048776455200,5.869455078125,-0.0010750339133664966,0.0008946452289819717,-0.004009381402283907
1782970048786381300,5.87938134765625,-0.0002599423751235008,-0.0021525940392166376,-0.0011820985237136483
1782970048796308200,5.88930810546875,-0.0001108053547795862,0.0005616997368633747,0.0015385868027806282
1782970048806234000,5.899234130859375,0.0008947419701144099,-0.0013506386894732714,-0.00009458477143198252
1782970048816160300,5.90916015625,0.0036444556899368763,0.0023178658448159695,0.0005810590228065848
1782970048826086400,5.91908642578125,-0.000759251182898879,0.00019427016377449036,-0.00034788332413882017
1782970048836012000,5.929011962890625,-0.0008657776052132249,-0.002088857814669609,0.00019566784612834454
1782970048845939200,5.938939208984375,-0.0000855064281495288,0.0019481335766613483,0.00034117919858545065
1782970048855865300,5.948865234375,0.002444496611133218,-0.0024277064949274063,0.0017148377373814583
1782970048865791000,5.958791015625,-0.0005605384358204901,0.0013507213443517685,0.003310978878289461
1782970048875717000,5.968717041015625,0.0011643909383565187,-0.0006383936852216721,-0.0002968056360259652
1782970048885643300,5.978643310546875,-0.001403681468218565,0.0005783927626907825,0.0016139437211677432
1782970048895570200,5.988570068359375,0.002023007720708847,0.0016585709527134895,-0.000519780907779932
1782970048905496000,5.99849609375,-0.0011243491899222136,0.0003607608377933502,0.0021126572974026203
1782970048915422200,6.008422119140625,-0.00005216052522882819,-0.0010203542187809944,-0.0020546570885926485
1782970048925348400,6.018348388671875,-0.0002837843494489789,-0.0007234690710902214,0.001620556809939444
1782970048935274200,6.028274169921875,0.00038466911064460874,0.0004467237740755081,0.001665298012085259
1782970048945201200,6.038201171875,0.001621077535673976,-0.001064323354512453,-0.0005913256900385022
1782970048955127300,6.048127197265625,-0.0010452793212607503,-0.0013178563676774502,-0.0019966757390648127
1782970048965053200,6.05805322265625,0.0001302206510445103,0.0008376860059797764,0.0013202389236539602
1782970048974979000,6.06797900390625,0.00012063326721545309,-0.0006584776565432549,0.0016033328138291836
1782970048984905200,6.0779052734375,-0.000027564936317503452,0.0002916725352406502,-0.0006227089907042682
1782970048994832400,6.087832275390625,-0.0019703409634530544,0.0017478889785706997,0.0013198006199672818
1782970049004758000,6.097758056640625,0.00019560466171242297,-0.0008090217597782612,0.00022479891777038574
1782970049014684200,6.10768408203125,0.0013178606750443578,-0.0009256680496037006,0.0016314806416630745
1782970049024610300,6.1176103515625,0.00014945780276320875,0.0008635125122964382,-0.0019613022450357676
1782970049034536200,6.1275361328125,-0.002226081909611821,0.0010821581818163395,0.001307195401750505
1782970049044463000,6.137463134765625,-0.0012640060158446431,-0.00020465394482016563,-0.0013515063328668475
1782970049054389200,6.14738916015625,-0.0005422894610092044,0.0002640625461935997,-0.000016730045899748802
1782970049064315100,6.157315185546875,0.001675153849646449,0.002058600541204214,0.0007822469342499971
1782970049074241300,6.1672412109375,-0.001314510707743466,0.0017416845075786114,0.0015891848597675562
1782970049084167200,6.177167236328125,-0.0036316090263426304,0.0004565054550766945,0.001739206607453525
1782970049094094300,6.18709423828125,0.0006925655761733651,-0.00028092367574572563,-0.0011162346927449107
1782970049104020200,6.197020263671875,-0.00033908753539435565,0.0007388903759419918,-0.0027998797595500946
1782970049113946000,6.206946044921875,-0.0006434868555516005,0.0010795090347528458,-0.00007093860767781734
1782970049123872300,6.216872314453125,0.0037726976443082094,0.00017836876213550568,0.0009454676182940602
1782970049133799200,6.226799072265625,-0.0014439021470025182,0.0000401507131755352,0.0016149863367900252
1782970049143725000,6.23672509765625,-0.0015819855034351349,0.00026254262775182724,-0.0007663060096092522
1782970049153651200,6.246651123046875,-0.0008874331833794713,0.0017533800564706326,0.0015594325959682465
1782970049163577000,6.2565771484375,0.0014895923668518662,-0.00028525618836283684,-0.00020038580987602472
1782970049173503200,6.266503173828125,0.0009588244138285518,-0.0033143358305096626,0.002441470045596361
1782970049183430100,6.27643017578125,-0.0006155986920930445,0.0003383345901966095,-0.0019503814401105046
1782970049193356300,6.286356201171875,-0.0008161347359418869,0.001276299823075533,-0.00248967157676816
1782970049203282200,6.2962822265625,-0.001628559548407793,0.0003136834129691124,-0.0009830639464780688
1782970049213208300,6.306208251953125,0.001042857300490141,-0.001977700274437666,-0.00016680511180311441
1782970049223134200,6.31613427734375,-0.00027275827596895397,-0.0013042076025158167,0.0009733441984280944
1782970049233061000,6.32606103515625,0.0004319141444284469,-0.0003294907510280609,0.00006813567597419024
1782970049242987300,6.3359873046875,0.0008457109215669334,0.0004189549945294857,0.00005335209425538778
1782970049252913200,6.3459130859375,-0.001178291393443942,0.0001369263045489788,0.00023125135339796543
1782970049262839000,6.355839111328125,-0.00036269790143705904,-0.0011435183696448803,-0.0005938094109296799
1782970049272765200,6.36576513671875,0.0001853806315921247,-0.0005024955607950687,-0.002177325077354908
1782970049282692000,6.375692138671875,-0.0015772177139297128,0.0014671776443719864,0.001086116535589099
1782970049292618200,6.3856181640625,-0.00019397190771996975,0.0014160452410578728,-0.0008015321218408644
1782970049302544100,6.395544189453125,-0.0024522882886230946,0.0014332416467368603,-0.0014778717886656523
1782970049312470300,6.40547021484375,0.0017051724717020988,-0.001384915318340063,0.0014462789986282587
1782970049322396200,6.415396240234375,-0.001810006215237081,-0.0012180618941783905,0.0007454039296135306
1782970049332323000,6.425322998046875,0.002384206047281623,0.0016107475385069847,0.0010641844710335135
1782970049342249200,6.435249267578125,-0.0009197265608236194,-0.0009774090722203255,-0.0014756872551515698
1782970049352175400,6.44517529296875,-0.002307499758899212,0.00037201493978500366,0.0015874806558713317
1782970049362101000,6.45510107421875,0.001348896068520844,0.0010269265621900558,-0.00316750374622643
1782970049372027100,6.465027099609375,0.00024182000197470188,0.0015949788503348827,0.0008986105676740408
1782970049381954300,6.474954345703125,0.001190711511299014,-0.0011204313486814499,0.00026881403755396605
1782970049391880200,6.484880126953125,0.00038643693551421165,-0.0011936682276427746,-0.0005687500815838575
1782970049401806000,6.49480615234375,-0.0007444854127243161,0.00016673095524311066,-0.0031401091255247593
1782970049411732200,6.504732177734375,-0.0010606026044115424,-0.0010862862691283226,-0.0015225050738081336
1782970049421658400,6.514658447265625,-0.001341693103313446,-0.0005801026709377766,0.002865076996386051
1782970049431585000,6.5245849609375,0.00020373934239614755,0.0014415029436349869,0.0006184339290484786
1782970049441511200,6.53451123046875,-0.0018971164245158434,-0.00004355236887931824,-0.0009547513327561319
1782970049451437000,6.54443701171875,0.00040518632158637047,0.00018627848476171494,0.004103390499949455
1782970049461363000,6.554363037109375,-0.0010853277053683996,0.0011958018876612186,-0.000820929475594312
1782970049471288800,6.564288818359375,0.0006995229050517082,0.0023119328543543816,0.003109630197286606
1782970049481216000,6.574216064453125,-0.0004476524773053825,0.000021174084395170212,0.0001429663971066475
1782970049491142000,6.584141845703125,0.000171798761584796,-0.00177060067653656,0.0031086625531315804
1782970049501067800,6.59406787109375,-0.000949138484429568,0.000027399975806474686,-0.0013855751603841782
1782970049510994000,6.603993896484375,-0.0013824347406625748,0.0025741811841726303,-0.0015490931691601872
1782970049520919800,6.613919921875,0.0037349839694797993,0.0013258028775453568,0.0014001928502693772
1782970049530846700,6.6238466796875,-0.00010476155148353428,0.0013846587389707565,0.00046622229274362326
1782970049540772900,6.63377294921875,-0.0010584716219455004,0.0008730730041861534,-0.00040410691872239113
1782970049550699000,6.643698974609375,-0.00003794820804614574,0.0024821548722684383,0.0012510477099567652
1782970049560625000,6.653625,0.0013780100271105766,0.0005944361910223961,0.0010529204737395048
1782970049570551800,6.6635517578125,0.0006941102328710258,0.00036806752905249596,-0.0014073076890781522
1782970049580478000,6.67347802734375,-0.0012211754219606519,0.0007117730565369129,0.0019902908243238926
1782970049590403800,6.68340380859375,-0.0005729619297198951,0.00024412153288722038,-0.00018231605645269156
1782970049600330000,6.693330078125,-0.001176457037217915,0.0016393433324992657,0.001048716134391725
1782970049610256000,6.703255859375,-0.0005673920968547463,0.00002786470577120781,-0.000980878947302699
1782970049620183000,6.71318310546875,0.0024273996241390705,0.00030662911012768745,0.0013750898651778698
1782970049630109000,6.72310888671875,0.00041937618516385555,0.0005846633575856686,-0.0002494383370503783
1782970049640034800,6.733034912109375,-0.0002890145406126976,0.0008970890194177628,-0.0020938790403306484
1782970049649961000,6.7429609375,-0.00041604734724387527,0.0008374340832233429,0.00006887421477586031
1782970049659886800,6.752886962890625,0.0007900253403931856,-0.0024427338503301144,-0.0019426029175519943
1782970049669813800,6.762813720703125,-0.0005585994804278016,-0.0013966441620141268,-0.0009242100641131401
1782970049679740000,6.772739990234375,-0.0015043877065181732,-0.001095786690711975,-0.0011514582438394427
1782970049689665800,6.782665771484375,-0.001426623435690999,-0.0009943204931914806,-0.001030018087476492
1782970049699592000,6.792592041015625,0.001408787677064538,0.0021026385948061943,-0.0008849792066030204
1782970049709518000,6.80251806640625,0.0020945516880601645,-0.0013799769803881645,0.0013203845592215657
1782970049719445000,6.812445068359375,0.0003024110628757626,0.00011945795267820358,-0.0018342025578022003
1782970049729371000,6.822370849609375,-0.00014420103980228305,-0.000044593121856451035,0.002845770213752985
1782970049739297000,6.832297119140625,-0.0003755215439014137,-0.000672229565680027,0.0010146385757252574
1782970049749223000,6.842222900390625,-0.000852227327413857,0.0016231490299105644,0.0027595418505370617
1782970049759148800,6.852148681640625,0.00046001822920516133,0.0014370083808898926,-0.0005427298601716757
1782970049769076000,6.862075927734375,0.0005915783694945276,-0.001976631348952651,-0.0021105329506099224
1782970049779001900,6.872001953125,-0.0005762862856499851,-0.0009911577217280865,0.0019399682059884071
1782970049788927700,6.881927734375,-0.002531046513468027,0.0002927519381046295,-0.0012976366560906172
1782970049798854000,6.89185400390625,-0.00013696473615709692,-0.0021275377366691828,-0.0006102621555328369
1782970049808780000,6.901780029296875,-0.0029639103449881077,0.0007209791801869869,-0.000530101009644568
1782970049818707000,6.91170703125,-0.0012463245075196028,-0.0011810683645308018,0.0004639740800485015
1782970049828632800,6.9216328125,-0.0007363291224464774,-0.0013797401916235685,0.0016091332072392106
1782970049838559000,6.93155908203125,-0.001263745129108429,0.00356708699837327,0.0009594551520422101
1782970049848485000,6.941485107421875,0.00012136496661696583,0.0005614436231553555,-0.0014941151021048427
1782970049858410800,6.95141064453125,0.00033266140962950885,-0.0005833115428686142,-0.001411549048498273
1782970049868338000,6.961337890625,-0.0010207570157945156,0.0024217995814979076,-0.0009606759413145483
1782970049878264000,6.97126416015625,-0.0015292669413611293,-0.0006302325055003166,0.00034624524414539337
1782970049888189700,6.981189697265625,-0.000032570387702435255,-0.0017037526704370975,0.00032707047648727894
1782970049898115800,6.99111572265625,0.0005903474520891905,0.000334838405251503,0.000006378511898219585
1782970049908042000,7.0010419921875,0.0014944906579330564,-0.0002976623363792896,0.0028578252531588078
1782970049917969000,7.010968994140625,-0.00016631290782243013,0.001471925526857376,-0.0011052286718040705
1782970049927894800,7.020894775390625,0.00132772047072649,-0.0010000206530094147,0.0014796355972066522
1782970049937821000,7.030821044921875,0.00002944927109638229,0.0002495073713362217,0.0010866058291867375
1782970049947747000,7.0407470703125,0.001170880044810474,-0.0006650225259363651,-0.001991475932300091
1782970049957673000,7.0506728515625,-0.0019278653198853135,0.0014968696050345898,0.00009757489897310734
1782970049967599900,7.060599853515625,0.0009350327891297638,-0.0001676059328019619,0.0016033261781558394
1782970049977526000,7.070526123046875,0.000656944583170116,0.00018231337890028954,-0.0014330073026940227
1782970049987452000,7.080451904296875,-0.00046903989277780056,0.0010542324744164944,-0.0014497851952910423
1782970049997377800,7.090377685546875,-0.0030434418004006147,0.004274375736713409,0.0003772254567593336
1782970050007305000,7.100304931640625,-0.00020105006115045398,0.0014354465529322624,-0.0035908843856304884
1782970050017231000,7.110231201171875,-0.0004486565012484789,-0.0007757339626550674,-0.0001307253260165453
1782970050027156700,7.12015673828125,0.0011311306152492762,-0.0004801233299076557,-0.0025821649469435215
1782970050037083000,7.130082763671875,-0.0001545609993627295,-0.00022398633882403374,-0.0008170574437826872
1782970050047009000,7.140009033203125,-0.0010262136347591877,-0.0008375784382224083,0.0006149242399260402
1782970050056935700,7.149935791015625,0.0005350409774109721,-0.0011057625524699688,-0.0012761628022417426
1782970050066861800,7.15986181640625,-0.001506272004917264,0.00161012914031744,0.0015028456691652536
1782970050076788000,7.1697880859375,0.0013395199785009027,-0.0011085132136940956,0.0010108781279996037
1782970050086713900,7.1797138671875,-0.0012256368063390255,-0.0018278327770531178,0.0011480307439342141
1782970050096639700,7.1896396484375,-0.0005229760427027941,0.00243787607178092,0.0005047417944297194
1782970050106567000,7.19956689453125,-0.0004721097357105464,0.00004449347034096718,-0.0027975779958069324
1782970050116493000,7.2094931640625,-0.00034564576344564557,0.000346318818628788,0.0000055407872423529625
1782970050126419000,7.2194189453125,0.0003499719314277172,-0.0013477178290486336,0.0026284882333129644
1782970050136344800,7.2293447265625,-0.0008021662943065166,-0.0023700562305748463,0.0005539397243410349
1782970050146271000,7.23927099609375,-0.0006375829107128084,-0.0004581729881465435,0.0019441097974777222
1782970050156198000,7.249197998046875,0.00015504725161008537,-0.0007916297763586044,0.0010555509943515062
1782970050166123800,7.259123779296875,0.0009324239799752831,-0.0009871060028672218,-0.0010560692753642797
1782970050176050000,7.2690498046875,-0.0013040623161941767,0.0015214895829558372,0.00037443742621690035
1782970050185975800,7.278975830078125,0.00003737190127139911,0.0003512967377901077,0.0008253104751929641
1782970050195902000,7.28890185546875,-0.0022672268096357584,-0.0003789970651268959,0.0021598353050649166
1782970050205828900,7.298828857421875,0.0007346882484853268,0.0006311396136879921,-0.00032542645931243896
1782970050215755000,7.308755126953125,0.000054624208132736385,0.00012139789760112762,-0.000044094049371778965
1782970050225681000,7.318680908203125,-0.0010846760123968124,-0.00003226660192012787,-0.00011227105278521776
1782970050235606800,7.328606689453125,-0.0002593703393358737,0.00039822282269597054,-0.0015864340821281075
1782970050245533000,7.338532958984375,-0.0005885370774194598,0.0016626915894448757,0.0008650057716295123
1782970050255459800,7.3484599609375,0.0010263121221214533,-0.000653482973575592,0.0005846671992912889
1782970050265386000,7.358385986328125,-0.001047757687047124,0.0017031487077474594,0.001332482905127108
1782970050275311900,7.368311767578125,-0.0034179070498794317,0.0016261087730526924,0.0007659351686015725
1782970050285237800,7.37823779296875,0.0010021415073424578,-0.0005004252307116985,0.00046819366980344057
1782970050295164000,7.388163818359375,0.0004409303655847907,-0.003324903082102537,0.0006586801027879119
1782970050305090800,7.3980908203125,0.0015874211676418781,-0.0005418998189270496,0.0010831878753378987
1782970050315017000,7.408016845703125,0.0014272095868363976,-0.00024537788704037666,-0.0003451141528785229
1782970050324942800,7.41794287109375,0.0019425313221290708,0.002507265657186508,-0.0003203467931598425
1782970050334869000,7.427868896484375,0.00005088664329377934,0.0005476637743413448,-0.0012241564691066742
1782970050344795000,7.437794921875,0.0011502394918352365,0.0016243797726929188,0.0008552396902814507
1782970050354721800,7.4477216796875,0.0003641696530394256,-0.0007703094743192196,0.0007484953384846449
1782970050364648000,7.45764794921875,0.0022976244799792767,0.00004408508539199829,-0.0013476787135004997
1782970050374573800,7.46757373046875,-0.0003246148116886616,0.0015479731373488903,0.0042764595709741116
1782970050384499700,7.477499755859375,0.002303126035258174,0.000015057623386383057,0.00013790733646601439
1782970050394425900,7.48742578125,0.001565170707181096,0.0025494303554296494,-0.0032568490132689476
1782970050404353000,7.49735302734375,-0.001082277623936534,0.0009933453984558582,-0.0005132604273967445
1782970050414279000,7.50727880859375,-0.002526757540181279,0.0013914909213781357,-0.000933549425099045
1782970050424204800,7.517204833984375,0.0002264182548969984,0.00043807923793792725,-0.0016715113306418061
1782970050434131000,7.527130859375,-0.00025406008353456855,0.0009656674228608608,0.0005508725298568606
1782970050444057000,7.53705712890625,0.0011768563417717814,-0.0003797616809606552,-0.002018012572079897
1782970050453983700,7.546983642578125,-0.000323275598930195,0.00000911019742488861,-0.0015399792464450002
1782970050463910000,7.556909912109375,0.002319379011169076,0.00011403905227780342,-0.0027748870197683573
1782970050473836000,7.5668359375,-0.00034282333217561245,0.000018757767975330353,-0.00031028559897094965
1782970050483761700,7.57676171875,-0.0024733522441238165,-0.0003045499324798584,-0.0002927087480202317
1782970050493687800,7.586687744140625,0.0018952165264636278,-0.0019513689912855625,0.0029223503079265356
1782970050503615000,7.596614990234375,0.001101594534702599,0.0012084715999662876,0.002358292695134878
1782970050513540900,7.606540771484375,-0.0012624133378267288,-0.0006819632835686207,0.00013622059486806393
1782970050523466800,7.616466796875,-0.0032874809112399817,0.0005854349583387375,-0.0015245266258716583
1782970050533393000,7.626392822265625,-0.0013532189186662436,0.0006675650365650654,0.002106361323967576
1782970050543320000,7.636320068359375,-0.00008688586240168661,0.001554930116981268,-0.000145607627928257
1782970050553245700,7.64624560546875,-0.0011981582501903176,-0.0009115748107433319,0.0004956318298354745
1782970050563171800,7.656171875,-0.0009701917297206819,-0.002960610669106245,0.0009212049189954996
1782970050573098000,7.666097900390625,-0.0010296390391886234,-0.0011363429948687553,-0.0018537818687036633
1782970050583023900,7.67602392578125,0.001560018747113645,0.0012586377561092377,-0.000011407071724534035
1782970050592950800,7.68595068359375,0.000003130131517536938,-0.0006754342466592789,0.00022207095753401518
1782970050602877000,7.695876953125,-0.0022640188690274954,0.0003315070644021034,-0.00028286443557590246
1782970050612803000,7.705802978515625,-0.001595175126567483,0.0008692266419529915,-0.001444630092009902
1782970050622728700,7.715728759765625,0.0008722436032257974,0.00011821510270237923,-0.00018681911751627922
1782970050632654800,7.72565478515625,-0.0014653699472546577,-0.0012018941342830658,-0.0026166343595832586
1782970050642582000,7.73558203125,-0.0021332907490432262,0.0027457098476588726,-0.00003469979856163263
1782970050652508000,7.7455078125,-0.0004896452301181853,-0.0014486901927739382,0.0011483472771942616
1782970050662433800,7.755433837890625,-0.0003373124054633081,0.00006718095391988754,0.0027329279109835625
1782970050672360000,7.76535986328125,0.00009596934251021594,-0.00042020343244075775,0.0005404743133112788
1782970050682285800,7.775285888671875,-0.00006888032658025622,0.0015713083557784557,0.0009047947824001312
1782970050692212700,7.785212646484375,-0.00031763873994350433,0.0012413072399795055,-0.000546833558473736
1782970050702139000,7.795138916015625,-0.0005682421615347266,0.00027830805629491806,0.0022359034046530724
1782970050712065000,7.80506494140625,-0.00008692825213074684,-0.0004875948652625084,0.0018249116837978363
1782970050721991000,7.814990966796875,-0.0007497890619561076,-0.0006409930065274239,-0.00047259731218218803
1782970050731916800,7.824916748046875,0.000153011831571348,-0.0016377416905015707,-0.001097898231819272
1782970050741844000,7.834843994140625,-0.0008997357217594981,0.001012636348605156,0.0008041315013542771
1782970050751769900,7.844769775390625,-0.0002955941890832037,-0.000023296568542718887,-0.0011228311341255903
1782970050761695700,7.85469580078125,0.001129729556851089,0.000517058651894331,0.001856447197496891
1782970050771622000,7.864621826171875,-0.0026425509713590145,-0.001046920195221901,0.0010320665314793587
1782970050781547800,7.8745478515625,-0.0004949778085574508,-0.001531082671135664,-0.0031421720050275326
1782970050791475000,7.884474853515625,-0.0004688843619078398,-0.001204946544021368,0.0010330257937312126
1782970050801400800,7.89440087890625,-0.0014313507126644254,0.0020568929612636566,-0.0009603501530364156
1782970050811327000,7.904326904296875,-0.0011965581215918064,-0.0013510514982044697,0.0030271902214735746
1782970050821252900,7.9142529296875,-0.0011129349004477262,-0.0016061821952462196,0.001588284270837903
1782970050831179000,7.924178955078125,-0.0023590875789523125,0.0026946915313601494,-0.0016377943102270365
1782970050841106000,7.93410595703125,-0.0016517520416527987,0.0011082463897764683,0.00019765621982514858
1782970050851031800,7.94403173828125,-0.000711867876816541,-0.00008997693657875061,-0.0014792014844715595
1782970050860958000,7.9539580078125,-0.0006005477043800056,-0.00032273726537823677,-0.0003657337510958314
1782970050870883800,7.9638837890625,-0.002785129239782691,0.0010063559748232365,0.002210256177932024
1782970050880809700,7.973809814453125,-0.0005131865036673844,-0.00014466186985373497,0.0010728200431913137
1782970050890737000,7.98373681640625,0.00008548802725272253,0.0025267088785767555,0.0011485941940918565
1782970050900662800,7.993662841796875,-0.002148105064406991,0.0023597287945449352,-0.0003238675417378545
1782970050910589000,8.0035888671875,0.0013372383546084166,-0.0013238417450338602,-0.0013020769692957401
1782970050920514800,8.013514892578126,-0.001291834283620119,-0.001418650383129716,-0.0007686457829549909
1782970050930441000,8.02344091796875,0.00013077510811854154,0.000011212658137083054,-0.0018898280104622245
1782970050940368000,8.033367919921876,0.0002855047641787678,0.000027457717806100845,-0.000082340557128191
1782970050950293800,8.043293701171875,-0.001345077995210886,0.000014928635209798813,0.0009199599735438824
1782970050960220000,8.053219970703125,0.0013646883890032768,0.0014330619014799595,0.00015536649152636528
1782970050970146000,8.06314599609375,0.0027664457447826862,-0.0013149785809218884,0.002138915006071329
1782970050980071700,8.07307177734375,0.0009432458318769932,-0.00021296227350831032,0.003445195499807596
1782970050989998800,8.082998779296876,-0.0007287560729309916,-0.0003913729451596737,-0.001085741096176207
1782970050999925000,8.092925048828125,-0.0002858724328689277,-0.0013394581619650126,0.0007278715493157506
1782970051009851000,8.102850830078125,0.0003660558722913265,-0.0004682978615164757,0.0003847104962915182
1782970051019776800,8.11277685546875,-0.0013748524943366647,-0.0015767053700983524,0.0022779516875743866
1782970051029703000,8.122702880859375,-0.00004142348188906908,-0.0004936540499329567,0.0012612626887857914
1782970051039629800,8.1326298828125,0.0005226340144872665,-0.0010073776356875896,-0.0018240093486383557
1782970051049555700,8.1425556640625,0.0025484729558229446,-0.0006495602428913116,-0.0019021634943783283
1782970051059481900,8.15248193359375,0.00009676683839643374,0.0003366083838045597,0.0010925611713901162
1782970051069408000,8.162407958984375,-0.00003410255885683,-0.00012430548667907715,-0.002583840861916542
1782970051079334000,8.172333984375,-0.002462372649461031,0.0013753208331763744,-0.0013305573957040906
1782970051089260800,8.1822607421875,0.002459472743794322,0.00029581738635897636,0.00010849558748304844
1782970051099187000,8.19218701171875,-0.0003805222804658115,-0.002420606790110469,0.0012411379721015692
1782970051109113000,8.202113037109376,-0.0009714259649626911,-0.00042702723294496536,0.0021564902272075415
1782970051119038700,8.212038818359375,0.0031127978581935167,0.0006542159244418144,-0.001623067888431251
1782970051128964900,8.22196484375,-0.00026114549837075174,-0.0025089175906032324,-0.00016379391308873892
1782970051138892000,8.23189208984375,0.0010645760921761394,0.0019777100533246994,-0.0009864444145932794
1782970051148817700,8.241817626953125,-0.0013663573190569878,0.00002481415867805481,-0.0004298437270335853
1782970051158743800,8.251743896484374,0.0023135985247790813,-0.0008044946007430553,0.0011161211878061295
1782970051168670000,8.261669921875,-0.001148079289123416,0.0011759530752897263,0.003448527306318283
1782970051178595800,8.271595947265626,0.0001289063657168299,-0.001547661842778325,-0.000687095511239022
1782970051188522800,8.281522705078125,-0.001876343972980976,-0.0002087019383907318,0.0005100249545648694
1782970051198449000,8.291448974609375,-0.0009698040084913373,0.002687485422939062,0.0007382577750831842
1782970051208375000,8.301375,-0.002286171307787299,0.0003449604846537113,-0.0006593074649572372
1782970051218301000,8.311301025390625,-0.0010403445921838284,-0.0000635683536529541,-0.0027126045897603035
1782970051228226800,8.321226806640626,-0.0007344770128838718,-0.00037718284875154495,-0.0004867771058343351
1782970051238154000,8.331154052734375,0.0013483812799677253,-0.0002014143392443657,-0.0012769369641318917
1782970051248080000,8.341079833984375,0.0022152781020849943,0.0007604295387864113,0.0005499696126207709
1782970051258005800,8.351005859375,0.0030895937234163284,0.000020603183656930923,0.00199233740568161
1782970051267932000,8.360931884765625,0.00013983940880279988,-0.0009304434061050415,0.002961955964565277
1782970051277857800,8.37085791015625,-0.001104123191908002,0.0014482918195426464,-0.0017574317753314972
1782970051287784700,8.38078466796875,-0.0019442937336862087,0.0005992106162011623,-0.0008333734585903585
1782970051297710800,8.3907109375,-0.00013174641935620457,-0.0014085466973483562,0.0020803911611437798
1782970051307638800,8.400638671875,-0.0013268990442156792,0.0004112464375793934,0.0008170302025973797
1782970051317565000,8.41056494140625,0.00009176677122013643,-0.0003371019847691059,-0.0012884648749604821
1782970051327490800,8.42049072265625,0.0020270762033760548,-0.0013209199532866478,0.0006224014796316624
1782970051337417000,8.4304169921875,-0.0010339610744267702,0.0004942906089127064,0.0018586406949907541
1782970051347342800,8.4403427734375,-0.0018778338562697172,-0.00176915992051363,0.0003091576509177685
1782970051357269800,8.450269775390625,-0.00033053732477128506,0.0001645614393055439,0.00030995660927146673
1782970051367196000,8.46019580078125,-0.0013824771158397198,-0.00021934043616056442,-0.0004407253582030535
1782970051377122000,8.4701220703125,-0.000844784895889461,0.00018652528524398804,-0.0012649737764149904
1782970051387047700,8.480047607421875,0.0014433751348406076,-0.002173259388655424,0.002245573792606592
1782970051396973800,8.489973876953124,-0.0013494818704202771,0.0005205282941460609,0.001784580759704113
1782970051406901000,8.49990087890625,0.0017454548506066203,-0.00010253116488456726,-0.003987876698374748
1782970051416827000,8.509826904296874,0.0002562151348683983,-0.0005795033648610115,0.0002979483688250184
1782970051426752800,8.519752685546875,0.002704015700146556,-0.0004955073818564415,0.0019434633431956172
1782970051436679000,8.529678955078126,0.0011258265003561974,-0.0022955380845814943,0.0007578240474686027
1782970051446605300,8.539605224609375,0.0021554832346737385,0.001148473471403122,0.0007286421023309231
1782970051456532200,8.5495322265625,0.0008950092014856637,0.00048268307000398636,-0.0020232023671269417
1782970051466458000,8.5594580078125,0.00027851155027747154,-0.0006545265205204487,0.0006493513938039541
1782970051476384300,8.56938427734375,-0.0006229684804566205,0.000164128839969635,0.0012096804566681385
1782970051486310100,8.57931005859375,-0.0026725917123258114,0.0024277144111692905,0.0002738392213359475
1782970051496236000,8.589236083984375,0.000009477982530370355,-0.000589646864682436,-0.00018315925262868404
1782970051506163200,8.5991630859375,-0.0010468148393556476,0.00020971661433577538,0.0009743622504174709
1782970051516089000,8.609089111328124,-0.0029176855459809303,0.0014483528211712837,0.000998597126454115
1782970051526015200,8.61901513671875,-0.002518023829907179,0.0009164270013570786,-0.000001228880137205124
1782970051535941000,8.628941162109374,0.0019243952119722962,0.0015398729592561722,0.00048160215374082327
1782970051545867300,8.6388671875,-0.000714947294909507,0.0014224275946617126,-0.0008558809058740735
1782970051555794200,8.648794189453126,-0.0013881943887099624,-0.00046229176223278046,0.002385718747973442
1782970051565720000,8.658719970703125,0.0005216865101829171,0.001323495525866747,-0.0007585999555885792
1782970051575646200,8.668646240234375,0.0005752160213887691,0.0005679568275809288,-0.00048376177437603474
1782970051585572400,8.678572265625,0.0005354438326321542,0.0012317853979766369,-0.0014534847578033805
1782970051595498000,8.688498046875,-0.0009458063286729157,0.00009301770478487015,0.0002469435567036271
1782970051605425200,8.698425048828126,-0.0006858903216198087,0.0020911702886223793,-0.00004951131995767355
1782970051615351300,8.708351318359375,0.00004834319406654686,-0.0018934512045234442,-0.0007877395837567747
1782970051625277200,8.718277099609375,-0.0020469711162149906,-0.0012328661978244781,-0.00004208728205412626
1782970051635203000,8.728203125,-0.0008831697050482035,-0.00035801809281110764,-0.0005989542696624994
1782970051645129200,8.738129150390625,-0.0007550370646640658,0.0014842711389064789,0.0003823168808594346
1782970051655056100,8.74805615234375,-0.0007497108308598399,-0.0008992580696940422,0.0027788954321295023
1782970051664982000,8.75798193359375,-0.0018062243470922112,-0.000010529998689889908,-0.0006204023957252502
1782970051674908200,8.767908203125,0.00032217398984357715,-0.000010796356946229935,0.002444363199174404
1782970051684834300,8.777834228515625,-0.0022927862592041492,-0.0026711602695286274,0.0009818937396630645
1782970051694760200,8.78776025390625,0.0005852919421158731,0.0005579227581620216,-0.000944636994972825
1782970051704687000,8.79768701171875,-0.00003683003887999803,-0.0003104102797806263,0.0005632636602967978
1782970051714613200,8.80761328125,-0.0004107378772459924,0.0026784553192555904,-0.00016377924475818872
1782970051724539400,8.817539306640626,-0.0007824533386155963,0.0002544666640460491,-0.0017601768486201763
1782970051734465000,8.827465087890625,0.00054513243958354,-0.0013370385859161615,0.0005288100801408291
1782970051744392200,8.83739208984375,-0.0012366237351670861,0.0004970477893948555,-0.0019647080916911364
1782970051754318300,8.847318359375,0.0013509035343304276,0.0008262144401669502,-0.0019274238729849458
1782970051764244000,8.857243896484375,0.00006979871250223368,0.0011550826020538807,0.00023167417384684086
1782970051774170000,8.867170166015624,-0.0006545811193063855,-0.0011315075680613518,-0.001172078074887395
1782970051784096300,8.87709619140625,0.00018759581143967807,-0.0007497905753552914,-0.0011221717577427626
1782970051794023200,8.887023193359376,0.0012773614143952727,0.0005144122987985611,0.0008626821218058467
1782970051803949000,8.896948974609375,-0.001300471369177103,0.0014240383170545101,0.0021683506201952696
1782970051813875200,8.906875244140625,-0.0022331103682518005,0.00020644068717956543,0.0019782008603215218
1782970051823801300,8.91680126953125,-0.001118590123951435,0.0014762249775230885,0.0004938715137541294
1782970051833727200,8.926727294921875,-0.0012898313580080867,-0.00009211059659719467,0.0005074535729363561
1782970051843654100,8.936654052734376,0.0016593113541603088,-0.0009449832141399384,0.001226015854626894
1782970051853580300,8.946580322265625,-0.002564728492870927,0.00010563340038061142,-0.000018479302525520325
1782970051863506200,8.956506103515625,0.0013705745805054903,0.0016057556495070457,0.0019936072640120983
1782970051873432000,8.96643212890625,0.0014635189436376095,-0.000577237457036972,0.0008481815457344055
1782970051883358200,8.976358154296875,0.002583441324532032,-0.0003403127193450928,-0.00013891106937080622
1782970051893285400,8.986285400390624,-0.0005577569827437401,0.0005427910946309566,0.0012006588513031602
1782970051903211000,8.9962109375,-0.0013710897183045745,0.0004144837148487568,-0.0007803553016856313
1782970051913137200,9.00613720703125,0.001936023705638945,0.001228878740221262,-0.0008951375493779778
1782970051923063300,9.016063232421875,-0.0008456447394564748,0.0013846410438418388,-0.0024036916438490152
1782970051932989200,9.0259892578125,0.0002044396533165127,-0.0009938282892107964,-0.00043881149031221867
1782970051942916000,9.035916015625,-0.000454483728390187,0.00006651552394032478,0.0006752044428139925
1782970051952842200,9.04584228515625,0.0004153046174906194,-0.0008490793406963348,-0.0005096360109746456
1782970051962768100,9.05576806640625,-7.303824531845748e-7,0.0013543413951992989,0.0032999401446431875
1782970051972694300,9.0656943359375,-0.0014990248018875718,0.000001987908035516739,0.0006125443615019321
1782970051982620200,9.0756201171875,-0.0008586794720031321,0.001515737734735012,-0.0011332703288644552
1782970051992547300,9.08554736328125,-0.002060297643765807,0.0002017337828874588,0.0013432030100375414
1782970052002473200,9.09547314453125,-0.0002109047054545954,0.0018857563845813274,0.0005387379787862301
1782970052012399000,9.105399169921874,0.0003044169279746711,-0.0015798152890056372,0.0020596692338585854
1782970052022325200,9.1153251953125,0.0012519711162894964,0.0005659274756908417,-0.0018856363603845239
1782970052032251100,9.125251220703126,-0.0010865506483241916,-0.00175341940484941,-0.0021053471136838198
1782970052042178000,9.135177978515625,-0.0010711654322221875,-0.0016455298755317926,0.0011706764344125986
1782970052052104200,9.145104248046875,-0.0005076404777355492,0.0005712853744626045,-0.0010876841843128204
1782970052062030000,9.155030029296874,-0.003608879866078496,-0.001992445206269622,-0.0005087887984700501
1782970052071956200,9.164956298828125,-0.0007640913827344775,0.0006635254248976707,-0.003058232832700014
1782970052081882000,9.174882080078126,-0.0014990281779319048,-0.0016408474184572697,0.0018398375250399113
1782970052091809300,9.184809326171875,-0.0004047353286296129,-0.0010738605633378029,-0.001432921038940549
1782970052101735200,9.194735107421875,-0.0015138853341341019,0.0003712838515639305,-0.000399842974729836
1782970052111661300,9.204661376953124,-0.0006776528316549957,-0.00003724498674273491,-0.00006508361548185349
1782970052121587200,9.214587158203125,-0.00043507589725777507,0.00021761516109108925,-0.0007078121998347342
1782970052131513000,9.22451318359375,0.0006195358582772315,-0.0011126338504254818,-0.0004023476503789425
1782970052141440300,9.234440185546875,-0.0005209225346334279,-0.0010840464383363724,0.0004937057383358479
1782970052151366100,9.2443662109375,0.0012607323005795479,-0.0001628589816391468,0.0014351331628859043
1782970052161292000,9.2542919921875,0.000335291086230427,0.0004667905159294605,0.001388962846249342
1782970052171218200,9.26421826171875,0.0027044392190873623,0.00011392170563340187,0.0007061283104121685
1782970052181144300,9.274144287109374,-0.0010412284173071384,-0.0007052058354020119,0.0022384552285075188
1782970052191071200,9.2840712890625,-0.002373075345531106,-0.0005358285270631313,-0.0011096708476543427
1782970052200997000,9.2939970703125,0.000029250921215862036,0.0002695010043680668,-0.00001179880928248167
1782970052210923300,9.30392333984375,-0.00006901971937622875,0.001035958994179964,-0.0022600393276661634
1782970052220849200,9.31384912109375,-0.00013657286763191223,0.00057930126786232,0.0001115861814469099
1782970052230775000,9.323775146484374,-0.000005811656592413783,-0.0006588022224605083,0.0009195891907438636
1782970052240702200,9.3337021484375,0.00011998474656138569,0.0005325018428266048,0.0021912388037890196
1782970052250628400,9.34362841796875,-0.00023075356148183346,0.0004829671233892441,-0.00008975877426564693
1782970052260554000,9.353553955078125,0.0011723145144060254,0.00021327240392565727,0.0018215365707874298
1782970052270480100,9.363480224609376,0.0001294206449529156,0.0017251488752663136,-0.0017497623339295387
1782970052280406300,9.37340625,0.000007517584890592843,-0.0009918003343045712,-0.0009823404252529144
1782970052290333200,9.383333251953125,0.0012698558857664466,-0.0005947230383753777,0.0018206366803497076
1782970052300259000,9.393259033203124,0.0007895876187831163,0.0015355716459453106,-0.0010691442294046283
1782970052310185200,9.403185302734375,-0.0005097687244415283,0.0006226403638720512,0.0004235575906932354
1782970052320111400,9.413111328125,0.0020853523164987564,-0.0012570065446197987,-0.0013483731308951974
1782970052330037000,9.423037109375,-0.0010047134710475802,0.001478059682995081,-0.00028763606678694487
1782970052339964200,9.432964111328126,-0.0005325626116245985,0.0009661354124546051,-0.000594175246078521
1782970052349890300,9.442890380859374,-0.0006944828201085329,-0.0017271195538342,0.00027081952430307865
1782970052359816200,9.452816162109375,-0.00020512683840934187,-0.00019385665655136108,-0.0037618286442011595
1782970052369742000,9.4627421875,-0.0002743690274655819,-0.0012242335360497236,-0.0019721845164895058
1782970052379668200,9.472668212890625,-0.00046543614007532597,-0.002196952933445573,0.0009325462160632014
1782970052389595400,9.482595458984376,-0.0010316241532564163,0.0003293217159807682,0.0003980497131124139
1782970052399521000,9.49252099609375,0.0006976396543905139,0.002907592337578535,0.0010372987017035484
1782970052409447200,9.502447265625,-0.000944199156947434,0.000810086727142334,0.0008157235570251942
1782970052419373300,9.512373291015624,0.0006881339941173792,0.0004707290790975094,-0.0007737823179922998
1782970052429299200,9.52229931640625,0.00247458228841424,-0.0010009333491325378,0.00209710537455976
1782970052439226000,9.53222607421875,0.001315653556957841,0.0011058254167437553,-0.001007308717817068
1782970052449152000,9.542152099609375,0.002595568774268031,-0.0005226978100836277,0.0005037689115852118
1782970052459078100,9.552078125,-0.00017464259872213006,0.0005099503323435783,-0.0019196964567527175
1782970052469004000,9.562004150390624,0.0029537726659327745,0.00043591437861323357,0.002065457869321108
1782970052478930000,9.571929931640625,-0.003597829956561327,0.0008075363002717495,-0.000837288040202111
1782970052488857000,9.581857177734374,0.0015197002794593573,0.00010126596316695213,0.0012642123037949204
1782970052498783200,9.591783203125,-0.0003444270696491003,0.0037571494467556477,-0.00048755930038169026
1782970052508708900,9.601708984375,-0.001352699939161539,-0.0009385361336171627,0.0011185931507498026
1782970052518635000,9.611635009765624,-0.001669418066740036,-0.0007618810050189495,0.0006018358981236815
1782970052528561200,9.62156103515625,-0.0010014972649514675,-0.0012497722636908293,-0.0017835574690252542
1782970052538487800,9.63148779296875,-0.0007630778709426522,0.0010718116536736488,-0.002877000253647566
1782970052548414000,9.6414140625,-0.0005140723078511655,0.000802566297352314,-0.0017558095278218389
1782970052558340000,9.651340087890626,-0.0014691022224724293,0.0025565302930772305,-0.00048436265205964446
1782970052568266000,9.661265869140625,-0.0013825494097545743,0.0012425268068909645,-0.0007410913240164518
1782970052578192000,9.67119189453125,-0.0010963550303131342,0.00036011263728141785,-0.0012190076522529125
1782970052588119000,9.681119140625,0.00173005776014179,-0.00010594073683023453,-0.0005361731746234
1782970052598045200,9.691045166015625,-0.0001766945788403973,0.0005585351027548313,0.0019347637426108122
1782970052607971000,9.70097119140625,-0.000656862510368228,0.0026408610865473747,-0.0020786200184375048
1782970052617897000,9.71089697265625,0.0014371079159900546,-0.002084980485960841,-0.0011209514923393726
1782970052627823000,9.720822998046875,0.0015231280121952295,-0.000981100369244814,0.0013310209615156054
1782970052637750000,9.73075,0.0009866595501080155,0.0010463818907737732,-0.0003821492427960038
1782970052647676000,9.740676025390625,-0.0005563759477809072,0.0009683510288596153,0.0006777888629585505
1782970052657602000,9.75060205078125,-0.0021213507279753685,0.001525925938040018,-0.0002461210824549198
1782970052667528000,9.76052783203125,-0.0004984203260391951,0.00046758539974689484,-0.0017827650299295783
1782970052677454000,9.7704541015625,-0.0013330874498933554,-0.0009300699457526207,0.0001788221998140216
1782970052687381000,9.780381103515625,0.000369737739674747,0.00030164187774062157,0.00009599793702363968
1782970052697307100,9.79030712890625,-0.001277367235161364,-0.0010127648711204529,-0.0011294458527117968
1782970052707233000,9.80023291015625,0.0003282525867689401,-0.0006218128837645054,-0.000023168744519352913
1782970052717159000,9.810158935546875,-0.0007613403722643852,0.000993234571069479,0.0006491076201200485
1782970052727085000,9.8200849609375,-0.0011957020033150911,0.0015732711181044579,0.00042380427476018667
1782970052737012000,9.830011962890625,-0.0014932481572031975,-0.0004229014739394188,0.00005126744508743286
1782970052746938000,9.839938232421876,0.0009241031366400421,-0.00040905270725488663,-0.0005410196026787162
1782970052756864000,9.849864013671874,-0.0014269044622778893,-0.00022733723744750023,0.00038417300675064325
1782970052766790000,9.859789794921875,-0.0002788156853057444,-0.0009754188358783722,-0.0005050564650446177
1782970052776716000,9.869716064453126,-0.000814509519841522,-0.0008583222515881062,0.0020804177038371563
1782970052786643000,9.879642822265625,0.001601510215550661,0.0009949714876711369,0.0020500575192272663
1782970052796569000,9.889569091796876,0.0018574276473373175,0.0007644700817763805,0.0017913916381075978
1782970052806495000,9.899494873046875,0.0010776540730148554,0.002224415075033903,0.00013943284284323454
1782970052816421000,9.909421142578125,-0.0010829021921381354,0.0012487242929637432,-0.0010612792102620006
1782970052826347000,9.919346923828124,0.0008143337327055633,0.0007243477739393711,0.00273505668155849
1782970052836274000,9.92927392578125,0.0010582504328340292,-0.000798352062702179,-0.000916321121621877
1782970052846200000,9.939199951171876,0.0029368442483246326,-0.0018327238503843546,0.0001761075109243393
1782970052856126000,9.9491259765625,0.0012383071007207036,-0.0001588868908584118,0.0012542328331619501
1782970052866051800,9.9590517578125,0.001343501964583993,-0.0012909967917948961,-0.0007825527573004365
1782970052875978000,9.96897802734375,-0.0021659191697835922,0.0013784137554466724,0.0006078678416088223
1782970052885905200,9.9789052734375,-0.00031662010587751865,-0.00012653879821300507,-0.0014829798601567745
1782970052895831000,9.9888310546875,-0.0019296900136396289,-0.0013017416931688786,-0.001981982495635748
1782970052905757000,9.9987568359375,-0.0020418090280145407,-0.0012250426225364208,0.000059596728533506393
1782970052915683000,10.00868310546875,0.0007624558638781309,-0.0015338014345616102,0.0009428599150851369
1782970052925609200,10.018609130859375,0.0007856253650970757,0.0013008671812713146,0.00031009293161332607
1782970052935535900,10.028535888671875,-0.0008179252035915852,-0.0007210448384284973,0.002253585960716009
1782970052945462000,10.0384619140625,0.00017516757361590862,-0.00005898298695683479,-0.0007275563548319042
1782970052955388200,10.04838818359375,-0.0015303866239264607,0.0012745661661028862,-0.0009666814585216343
1782970052965313800,10.058313720703126,0.0003852251102216542,0.0007925340905785561,0.00207784422673285
1782970052975240000,10.068239990234375,0.0013730479404330254,0.0013960967771708965,0.0007505510002374649
1782970052985167000,10.0781669921875,0.00060765550006181,0.0001697111874818802,0.0027140998281538486
1782970052995093000,10.088093017578124,-0.00009072924149222672,-0.0031705033034086227,0.0019659274257719517
1782970053005019000,10.098018798828125,-0.0011003336403518915,-0.0005110707134008408,0.0016452828422188759
1782970053014945000,10.107945068359374,-0.0002204910124419257,-0.000548116397112608,-0.0008078482351265848
1782970053024871200,10.11787109375,0.0011108232429251075,0.00013844622299075127,0.0010241401614621282
1782970053034797000,10.127797119140626,-0.00010659039253368974,0.0014306660741567612,0.0001368856756016612
1782970053044724000,10.137723876953125,-0.00034014962147921324,0.002576624508947134,0.0007334338733926415
1782970053054650000,10.147650146484375,0.00016520053031854331,-0.0004667756147682667,0.0029020006768405437
1782970053064576000,10.157575927734374,-0.00023400731151923537,-0.0016699915286153555,-0.0024059454444795847
1782970053074502000,10.167501953125,-0.0000907363137230277,0.0015978123992681503,-0.0018408183241263032
1782970053084429000,10.177428955078126,0.0009428365156054497,-0.002191865583881736,0.000590647803619504
1782970053094355200,10.187355224609375,0.0005118962726555765,-0.0004513370804488659,0.002790838712826371
1782970053104280800,10.19728076171875,0.00027966866036877036,0.0011140690185129642,0.0011210369411855936
1782970053114207000,10.20720703125,-0.002288069576025009,0.0003497735597193241,-0.0027572312392294407
1782970053124133000,10.217133056640625,0.0006302223191596568,0.0005899905227124691,0.0001637238310649991
1782970053134059000,10.22705908203125,-0.0018711760640144348,0.0006833267398178577,0.0013850074028596282
1782970053143986000,10.23698583984375,0.0029099970124661922,0.00030489126220345497,-0.003129050601273775
1782970053153912000,10.246912109375,0.0014910317258909345,0.0006257337518036366,0.0018092482350766659
1782970053163838000,10.256837890625,-0.001414210652001202,0.00021454179659485817,-0.0007047757389955223
1782970053173764000,10.26676416015625,-0.0007200250402092934,0.002080904319882393,0.0008416641503572464
1782970053183691000,10.27669091796875,0.0003460383741185069,-0.0009718774817883968,0.0009338094387203455
1782970053193617200,10.2866171875,0.0005884039564989507,-0.0002673645503818989,-0.0030477859545499086
1782970053203543000,10.29654296875,0.0014472733018919826,-0.0009954730048775673,0.0020620212890207767
1782970053213469000,10.306468994140625,0.00033742692903615534,0.1094343513250351,0.053630657494068146
1782970053223395000,10.31639501953125,-0.00008441778481937945,0.03605414181947708,0.019199181348085403
1782970053233322000,10.326322021484375,-0.0009179250337183475,0.046239688992500305,0.021604349836707115
1782970053243247900,10.336247802734375,-0.0006180531345307827,0.01468575932085514,0.007926354184746742
1782970053253174000,10.346174072265624,0.000474863569252193,-0.0330115407705307,-0.01703869365155697
1782970053263100000,10.356099853515625,0.002307384740561247,-0.035923704504966736,-0.01751726306974888
1782970053273026000,10.366026123046876,0.0007415302679874003,-0.02341695874929428,-0.014729454182088375
1782970053282952200,10.3759521484375,0.001079485402442515,-0.040231622755527496,-0.021082157269120216
1782970053292879000,10.385879150390625,-0.001387468189932406,-0.0401422455906868,-0.019244728609919548
1782970053302805000,10.395804931640624,0.000058628291299100965,-0.01621774211525917,-0.007375818677246571
1782970053312731100,10.405731201171875,0.0006214614259079099,0.005552566610276699,0.002763489494100213
