time,seconds_elapsed,z,y,x
1782969315572517600,0.078517578125,-6.110919751563668,-1.7535925570666788,1.1012317144501953
1782969315582443800,0.08844384765625,-7.794993951246142,-2.1867275151081382,1.1416500148825346
1782969315592370700,0.09837060546875,-10.596173068749904,-2.14236011172384,1.134975870880857
1782969315602296800,0.108296875,-14.396601124501228,-1.5958064259037374,1.0324459091242402
1782969315612222700,0.11822265625,-18.106921623826025,-0.7951246150840073,0.9777772572822868
1782969315622148900,0.12814892578125,-20.543173788726328,-0.008455401395261287,0.9608559330977499
1782969315632074800,0.13807470703125,-20.83717193262577,0.3249514275025576,0.428496338455379
1782969315642002000,0.148001953125,-18.758743025803565,-0.004436813403666019,-0.6066659900207072
1782969315651927800,0.157927734375,-15.525864682149885,-0.5456676967658102,-1.733362546725571
1782969315661853700,0.167853759765625,-12.328653864204883,-0.7283047760687767,-2.48443021261394
1782969315671779600,0.177779541015625,-9.988812739789486,-0.5352661297388375,-2.631463479094207
1782969315681706800,0.187706787109375,-8.586589734616876,-0.48332609914317726,-2.7984061456590887
1782969315691632600,0.197632568359375,-7.340316585090756,-0.3084932638503611,-3.199751150077581
1782969315701558800,0.207558837890625,-6.4258718361645935,-0.027561960664391517,-3.294671075221896
1782969315711484700,0.217484619140625,-5.150971727091074,0.4788869476519525,-2.541473119306564
1782969315721411600,0.22741162109375,-2.7010651308476925,1.5008498220108448,-1.7234321043416856
1782969315731338000,0.237337890625,-0.5184855291992425,2.0410934479013085,-1.3669661060914395
1782969315741264100,0.24726416015625,1.7129022347599268,2.211941889733076,-1.2363581969723105
1782969315751190300,0.257190185546875,4.545957084473967,2.910123476347327,-0.910340090086311
1782969315761116000,0.267115966796875,7.234130585044622,3.367234499390423,-0.9515268906731158
1782969315771043000,0.27704296875,9.34968423064649,3.3902857046321033,-1.0072824609689415
1782969315780969200,0.28696923828125,11.108249315428733,3.484693004079163,-0.7930614720091224
1782969315790895000,0.29689501953125,12.36543665767908,3.861244635763764,-0.566797724686563
1782969315800821000,0.306821044921875,13.110648291015623,4.193601151891053,-0.43340756443776185
1782969315810748200,0.316748046875,13.785057956898212,4.3466926954969765,-0.4047163074824959
1782969315820674300,0.32667431640625,14.680755919778345,4.581118706487119,-0.394106066140905
1782969315830600000,0.336599853515625,15.412481464076041,4.754855855497717,-0.31993053060062226
1782969315840526000,0.346526123046875,16.022621779143808,4.94664859341979,-0.3664921560935676
1782969315850452200,0.3564521484375,16.680358542644978,5.232528897315263,-0.2861993797820061
1782969315860379100,0.366379150390625,17.263007624197005,5.471247637063264,-0.18435513526722788
1782969315870305000,0.376304931640625,17.792575103902816,5.612027396106719,-0.341817806629464
1782969315880231200,0.386231201171875,18.0362482511878,5.577441820415854,-0.6622641777977347
1782969315890157300,0.3961572265625,17.694605728060004,5.679967544388771,-0.9181037828903644
1782969315900084000,0.406083984375,16.54711327075958,5.965478430449962,-0.8903674155071377
1782969315910010000,0.416010009765625,14.737496628654002,6.284720905721187,-0.6457062800981104
1782969315919936300,0.425936279296875,12.727384302210806,6.38434447851181,-0.531992953287065
1782969315929862100,0.435862060546875,10.855069504129887,6.2335758248955,-0.75841393699795
1782969315939789000,0.4457890625,9.427420381277798,5.853906645712256,-0.9483750025134533
1782969315949715200,0.455715087890625,8.920579112643003,5.221200863093137,-1.1831330950021743
1782969315959641300,0.465641357421875,8.979549188005924,4.442546394360066,-1.6576088020831345
1782969315969567000,0.47556689453125,9.156267690914868,3.5528146464079615,-2.2276979695305226
1782969315979493000,0.4854931640625,9.170889505985379,2.508058340960741,-3.342668797932565
1782969315989420300,0.495420166015625,8.137122212064266,1.0434139509275555,-4.738412377957999
1782969315999346000,0.505345947265625,5.024115279459953,-0.37425942909419535,-5.129222836619615
1782969316009272000,0.51527197265625,-0.18190847276747227,-0.653413201213628,-4.234386459004878
1782969316019198200,0.5251982421875,-7.233868134716153,0.33390316104739903,-3.136891958321631
1782969316029125000,0.535125,-14.89056303781867,1.036131319638714,-2.2972575357079505
1782969316039051000,0.545051025390625,-22.006905447828768,0.9720591718964278,-1.6940318223342299
1782969316048977200,0.55497705078125,-27.637127841317653,0.6310902371812611,-1.5039793522082268
1782969316058903300,0.5649033203125,-30.789272021567818,0.07269859485551715,-2.1863928763262925
1782969316068830000,0.574829833984375,-33.40346667821407,-0.8022907803863286,-3.9913232603117823
1782969316078756000,0.584756103515625,-35.57047169411182,-1.7545945737160742,-5.381924509012699
1782969316088682200,0.59468212890625,-37.2181710965991,-1.9288113229371606,-5.717285759913921
1782969316098608000,0.604608154296875,-37.113111470234394,-1.4163050142779945,-5.4505123075485225
1782969316108534000,0.614533935546875,-34.239089819359776,-0.6518981204755604,-5.0652527610123155
1782969316118461200,0.624461181640625,-28.178631258010864,-0.46511499087642877,-4.846101183782517
1782969316128387300,0.63438720703125,-20.46081699255705,-0.6753278036408126,-4.246840866908431
1782969316138313000,0.64431298828125,-14.262415941417217,-0.9067391429848969,-3.761871822863817
1782969316148239000,0.654239013671875,-10.471885010302065,-0.8504963006287812,-3.678961484465003
1782969316158166300,0.664166259765625,-7.846554042613506,-0.49903892432078717,-3.4096713731035586
1782969316168092000,0.674091796875,-5.505020142805576,0.02538373984247446,-2.843548186677694
1782969316178018000,0.68401806640625,-3.3521196401059625,1.013092316291481,-1.9391291572034357
1782969316187944200,0.693944091796875,-1.4645301160037516,2.111183467693627,-1.2670526104435325
1782969316197871000,0.70387109375,0.2540589322209358,3.103726770822704,-1.0348254246719182
1782969316207797000,0.713796875,2.5072832649350163,3.9930832557216283,-0.8394295476913451
1782969316217723100,0.72372314453125,4.8672605839282275,4.511867767867446,-0.6206375244889408
1782969316227649300,0.733649169921875,7.010943176427483,4.763830020070076,-0.4008159390430897
1782969316237575200,0.7435751953125,8.774252825388311,5.002485046932101,-0.42531175360251217
1782969316247502000,0.753502197265625,10.168526332861184,5.172437708967924,-0.5675676496131346
1782969316257428200,0.76342822265625,11.343964781707525,5.2629608604580165,-0.6990050318263471
1782969316267354000,0.77335400390625,12.45700785691738,5.407364070695638,-0.5658059371702373
1782969316277280000,0.783280029296875,13.484826471567153,5.530350398895144,-0.3236472495688125
1782969316287207200,0.793207275390625,14.329690903788805,5.480727413070202,-0.18773431111043318
1782969316297133300,0.80313330078125,15.249173062360287,5.391151771563291,-0.14289585614828393
1782969316307059000,0.813058837890625,16.090028843462466,5.500305973765253,-0.3119644470922649
1782969316316985000,0.822985107421875,16.57844715117812,5.582089938482642,-0.31532413278371096
1782969316326911200,0.8329111328125,16.949456054043768,5.8205900670439,-0.21666410779561845
1782969316336838000,0.842837890625,17.17485470896959,5.9735664598375555,-0.01908577220942825
1782969316346764000,0.852763916015625,17.248421464961766,5.975397182396054,0.07470288388263434
1782969316356690200,0.862690185546875,17.27275160409808,6.030089726570249,0.31364659149292856
1782969316366616000,0.872615966796875,16.989881587934494,5.916475622349977,0.5331992603369057
1782969316376543000,0.88254296875,16.309991444814205,5.758452467560768,0.6044031961878761
1782969316386469000,0.89246923828125,15.006832624983787,5.694395882713795,0.4178995411172509
1782969316396395300,0.902395263671875,13.447691795915365,5.647238994741439,0.23166845591031013
1782969316406321200,0.912321044921875,12.143346396648884,5.520598820209503,0.20236018130155278
1782969316416247000,0.9222470703125,11.198623413836955,5.302480969941616,0.014777434890484437
1782969316426174200,0.93217431640625,10.733493627250194,4.905154553514719,-0.26983747957851734
1782969316436100000,0.94210009765625,10.635964980912208,4.272183982479572,-0.7001132853291928
1782969316446026000,0.95202587890625,10.515198082327842,3.6090474057614803,-0.9447647761270404
1782969316455952100,0.9619521484375,10.443573108053206,3.030955256861448,-1.3699594426885247
1782969316465879300,0.97187939453125,9.862747734797,2.402918635097146,-2.0446318511605264
1782969316475805000,0.981804931640625,8.558222887310386,1.3550789766818285,-2.894045032727718
1782969316485731000,0.99173095703125,6.433747684106231,0.47804742808789014,-3.802611245009303
1782969316495657200,1.0016572265625,2.6985487641125916,0.2515253220900893,-4.233743484926223
1782969316505584000,1.011584228515625,-2.0458920803546903,0.19635186253115533,-4.003042631939054
1782969316515510000,1.021510009765625,-6.280298997625708,0.12074600192680954,-4.16237745384872
1782969316525436200,1.031436279296875,-9.945062445390224,0.1624155445292592,-4.78873825135529
1782969316535362300,1.0413623046875,-14.84766731442213,-0.13863660953491924,-6.073499244707823
1782969316545288200,1.0512880859375,-22.269484371113776,-0.5020087339118122,-7.729977581456303
1782969316555215000,1.061215087890625,-32.407305769109726,0.1295537786900066,-8.714232948711514
1782969316565141200,1.071141357421875,-42.83223496696949,1.828866116976738,-9.174028973054885
1782969316575067100,1.081067138671875,-49.5704349689722,3.6412504702299833,-10.378829125463962
1782969316584993000,1.090992919921875,-51.39654214262962,4.504385010896623,-12.016297056794166
1782969316594920200,1.100920166015625,-46.794933313560485,2.7138775584086776,-11.812442709678411
1782969316604846300,1.110846435546875,-38.266050502502914,1.3752993424117563,-11.71673075737357
1782969316614772000,1.12077197265625,-29.199508090698718,0.6888806012403219,-10.842954703444242
1782969316624698000,1.130697998046875,-22.86741753103733,0.5677403392989188,-8.839850794458389
1782969316634624300,1.140624267578125,-19.074277294206617,1.2843990281723439,-6.746745127508044
1782969316644551000,1.150551025390625,-14.784097051787375,2.2545845151513815,-4.839917526711523
1782969316654477000,1.16047705078125,-10.010722958302498,3.2212425586566327,-2.8831735101014373
1782969316664403200,1.1704033203125,-5.476162881633639,4.265689359763265,-1.0486315394453705
1782969316674329000,1.1803291015625,-1.8624375471889971,5.348085952296853,-0.1303023503012955
1782969316684256000,1.190256103515625,1.279694357612729,5.713164880591631,0.7115230064854026
1782969316694182100,1.20018212890625,4.187475070226192,6.501614182630181,0.8107100875549018
1782969316704108300,1.2101083984375,7.267385204392671,6.452018084812164,0.6581596650883555
1782969316714034200,1.2200341796875,9.439042430010437,6.536742194634676,0.679380732293427
1782969316723961000,1.229961181640625,10.522109469151497,7.3614406216621395,1.1101337636344135
1782969316733887200,1.23988720703125,11.371999620580672,7.225289106941223,0.6776448484115302
1782969316743813400,1.2498134765625,12.007540918886662,6.853709126189351,-0.21057956371754408
1782969316753739000,1.259739013671875,13.002079195225239,6.897889628699422,-1.1435935501657426
1782969316763665200,1.2696650390625,14.53210498896837,7.209990415522456,-1.7696461585059762
1782969316773592300,1.27959228515625,16.578965037572384,8.285558038818836,-1.340958535262197
1782969316783518000,1.28951806640625,19.179428105986116,9.428997421336174,-0.0036398178070783612
1782969316793444000,1.299444091796875,21.743702255165577,9.935069459164142,1.4922218405276535
1782969316803370200,1.309370361328125,24.17976737306118,10.329981800186633,2.967795328593254
1782969316813297200,1.319297119140625,25.584146679484842,10.487402897429465,3.3842592839494348
1782969316823223000,1.32922314453125,25.426777020168302,9.91282372508645,3.2674785323917863
1782969316833149200,1.339149169921875,24.398369207453726,9.605167642712592,3.2438542034372686
1782969316843075300,1.349075439453125,23.834964924597738,9.08164528838992,3.261668384808302
1782969316853001200,1.359001220703125,22.34290499663353,8.583320503687858,2.549443952055275
1782969316862928100,1.36892822265625,20.89347308104038,7.490099150279164,2.7731045311421156
1782969316872854300,1.378854248046875,18.90901425129175,7.087936399737,3.522285360370576
1782969316882780200,1.3887802734375,16.054274808514116,7.314038234496116,3.59419265871793
1782969316892706000,1.3987060546875,12.54899055956602,6.97482381529808,3.493334867957234
1782969316902633200,1.40863330078125,10.23711296235323,6.315518195044994,3.0187334886699912
1782969316912559400,1.418559326171875,9.30928733832836,5.905153433346748,2.1933108390212057
1782969316922485000,1.428485107421875,7.990985309901833,5.286467408251762,1.8894154243551193
1782969316932411100,1.4384111328125,7.177907762563228,4.347511318403482,1.020199371817708
1782969316942337300,1.448337158203125,5.827226144057512,2.9780092640936373,-0.4016473483659327
1782969316952264200,1.45826416015625,4.175857697668671,1.321936877797544,-1.7606050661772488
1782969316962190000,1.468190185546875,2.622043616580963,0.2130196503460407,-2.814114586922526
1782969316972116200,1.4781162109375,1.7913427342683075,-1.203745382659137,-1.319417003931105
1782969316982042000,1.4880419921875,-0.47091187711954113,-0.7961797501601279,-1.5808865046694873
1782969316991969000,1.497968994140625,-6.380623996683955,0.2879360673815012,-2.910408430768549
1782969317001895200,1.507895263671875,-13.245273034560679,0.15491495964080093,-2.781973774035275
1782969317011821300,1.5178212890625,-18.61477060819864,0.18031236268244683,-2.958315260325372
1782969317021747200,1.527747314453125,-22.812818510365485,-0.4887225513592362,-3.9475788111314176
1782969317031673000,1.537673095703125,-26.560506325054167,-1.6996923323139548,-6.239505214944481
1782969317041600300,1.547600341796875,-30.06839052736759,-3.199308082485199,-9.576344868332146
1782969317051526100,1.557526123046875,-34.026896682965756,-3.876737972971797,-11.876093636333941
1782969317061452000,1.5674521484375,-37.47372172868251,-3.4166564096853134,-14.160828375077246
1782969317071378200,1.577378173828125,-39.4316362503767,-2.8781960139498115,-15.950584132415056
1782969317081305300,1.587305419921875,-38.36687585229873,-2.3655092341572046,-16.677525949567556
1782969317091231200,1.597231201171875,-33.9490383672595,-1.770299069456756,-16.131156972664595
1782969317101157000,1.6071572265625,-26.73812382262945,-1.191032396884635,-13.702961857491731
1782969317111083300,1.617083251953125,-19.448698635864258,-0.7200547610525041,-10.395198076462744
1782969317121009200,1.627009033203125,-14.569481656682491,-0.020379794075340033,-7.583941801580786
1782969317130936000,1.63693603515625,-11.35626429131031,0.9360022084787487,-5.1220004841506475
1782969317140862200,1.6468623046875,-8.763983360308409,2.229494351428002,-2.961972906050086
1782969317150788000,1.6567880859375,-6.163699155592918,3.682784257623553,-1.3013209368787706
1782969317160714200,1.66671435546875,-3.233023305082321,4.689294711306691,-0.36259105700179933
1782969317170641200,1.67664111328125,0.01724339574575424,5.087086991679668,0.2122223624885082
1782969317180567300,1.6865673828125,3.3351924707025287,5.111539295890927,0.5065596752144396
1782969317190493200,1.6964931640625,5.744300608089566,5.3128994881033895,0.5631400789618491
1782969317200419000,1.706419189453125,7.576957349520922,5.4066147136330605,0.7171990062952042
1782969317210346200,1.71634619140625,9.183524531152845,5.242406148207188,0.7440718887168913
1782969317220272000,1.726272216796875,10.636551840889453,5.149787485742569,0.7291059363838285
1782969317230198300,1.7361982421875,11.784141328823566,5.1723821793884035,0.5760165847349912
1782969317240124200,1.746124267578125,12.908217839223145,4.923928812089562,0.46169889882262793
1782969317250050000,1.756050048828125,14.527491942214965,4.826454526287317,0.3475304486552253
1782969317259977200,1.765977294921875,16.42557714136839,5.0200984450340265,0.4188504851665348
1782969317269903000,1.775903076171875,18.148637782049178,5.071855520278215,0.5033877671800554
1782969317279829200,1.785829345703125,19.781228462731836,4.976141229885816,0.5674648102931678
1782969317289755100,1.795755126953125,21.052977414298056,4.86582938208133,0.6598333704542368
1782969317299682000,1.80568212890625,21.51741512696743,4.7085275273039935,0.6841276345595717
1782969317309608200,1.815608154296875,21.04582754254341,4.651982633261382,0.6801024706967175
1782969317319534000,1.8255341796875,19.87361097835302,4.672319026586413,0.6341141150470823
1782969317329460200,1.835460205078125,18.60759267939329,4.747780802544951,0.6303147227641195
1782969317339386000,1.84538623046875,17.336825724601745,4.733341942825914,0.7203557167604565
1782969317349313300,1.855313232421875,15.930936013615131,4.543712520417571,0.7488743936277925
1782969317359239200,1.8652392578125,14.686166254389285,4.388190242533385,0.9313144159886986
1782969317369165000,1.8751650390625,13.52606799801588,4.384302295184135,1.0393448017925024
1782969317379091200,1.88509130859375,12.129114457678794,4.264137161885202,0.9912927916113287
1782969317389018000,1.89501806640625,10.670431898659468,3.865369606739282,0.6405840417135507
1782969317398944300,1.9049443359375,9.271472863718866,3.2486195181429385,-0.21120818047728387
1782969317408870100,1.9148701171875,7.936632957467436,2.3652979294940826,-0.9945688176073133
1782969317418796000,1.924796142578125,7.008925406864285,1.5239140328645706,-1.7760602633319793
1782969317428722200,1.93472216796875,6.190840260496735,0.6514926084145903,-2.2772367842033505
1782969317438649000,1.944649169921875,5.593911893701553,-0.0702484252244234,-1.8460808711498975
1782969317448575200,1.9545751953125,4.583329660534859,-0.3395661552451551,-0.9821871826790273
1782969317458501000,1.964501220703125,2.2193787617355585,0.08421776773557066,0.20802871019095182
1782969317468427300,1.97442724609375,-1.0783663141041993,0.781924284183979,1.0764134264707566
1782969317478354200,1.984354248046875,-4.329534347686171,1.6726337911270557,1.8349883992493152
1782969317488280000,1.994280029296875,-6.924918505400419,0.8747807009272277,1.69243695435822
1782969317498206200,2.004206298828125,-6.818460702675581,0.42685573164150115,1.9724905979268252
1782969317508132000,2.014132080078125,-7.67339878514409,0.21246230872422456,0.09436565226241946
1782969317518058000,2.02405810546875,-9.0978160864681,-1.3519411170475184,-2.2028385458230972
1782969317527985200,2.033985107421875,-11.386291180783509,-2.9024717925503847,-4.532540845800936
1782969317537911300,2.043911376953125,-13.388312555229662,-4.235912937919795,-6.274061564540863
1782969317547837200,2.053837158203125,-15.584319209206104,-4.265261197479069,-8.317364797446132
1782969317557763000,2.06376318359375,-17.224322796493766,-3.757132519382238,-11.023387258440255
1782969317567690200,2.073690185546875,-19.40177321856022,-4.344858173546195,-12.828337077778578
1782969317577616100,2.0836162109375,-24.3840203641057,-4.248456485411524,-14.656687646448612
1782969317587542000,2.0935419921875,-29.056461555767058,-2.425717473012954,-15.23890768893361
1782969317597468200,2.10346826171875,-30.04951982268095,-0.7818315643992274,-14.076518106752633
1782969317607394300,2.113394287109375,-26.398177582025525,0.8914270806279033,-11.878608249503374
1782969317617321200,2.1233212890625,-21.39217780497074,1.679508499202132,-9.829448691785334
1782969317627247000,2.1332470703125,-17.31729334113598,1.6573147875726222,-7.954379626560211
1782969317637173200,2.14317333984375,-13.983484433746337,1.0460342894937842,-5.928717848807573
1782969317647099100,2.15309912109375,-10.742821427565813,0.7829659021914005,-4.723136190631985
1782969317657026000,2.163026123046875,-8.111891324695945,1.1003130652353166,-3.9281788218736646
1782969317666952200,2.1729521484375,-6.436733421918749,1.864850307419151,-3.0557904229104516
1782969317676878300,2.18287841796875,-4.8692713392287486,2.493086397278309,-1.805780717204511
1782969317686804000,2.192803955078125,-3.3007933574944732,2.6941625118523835,0.19478490547537802
1782969317696730000,2.202730224609375,-2.1387802074104547,3.224039203637838,0.859662334511429
1782969317706657300,2.2126572265625,-0.957369113895297,4.136420005771518,0.29561814631670713
1782969317716583200,2.222583251953125,1.3366793966382742,5.017593768736719,0.510036265283823
1782969317726509000,2.232509033203125,3.75188877350986,5.4608600985616444,0.636472441676259
1782969317736435500,2.242435546875,5.8399242975890635,5.484874595877528,0.5993284136742353
1782969317746362400,2.2523623046875,7.4266387777596705,5.399474194228649,0.7383749191842973
1782969317756288300,2.262288330078125,8.940881895959377,5.500762485361099,1.3375574946470559
1782969317766214400,2.27221435546875,11.465675098621844,5.514028794169426,2.37051566414237
1782969317776140500,2.282140625,14.459713121974467,5.498828886950015,3.022620266975462
1782969317786066200,2.292066162109375,16.692633502328395,5.620728588956594,3.269424990284443
1782969317795993300,2.301993408203125,18.13104718030095,5.421654461854696,2.660835996311903
1782969317805919500,2.31191943359375,19.09309188479185,5.347464605528116,1.7874239533893763
1782969317815845400,2.321845458984375,19.576624758553503,5.370970568799972,1.1514454327099024
1782969317825771300,2.331771240234375,19.789147565293312,5.057484465098381,0.8026209621887653
1782969317835697400,2.341697509765625,20.129037691795826,4.703481349830329,0.4033452383249998
1782969317845624300,2.351624267578125,20.68826381218433,4.336977941690385,0.24116072607263922
1782969317855550200,2.36155029296875,20.73178497400284,4.073800467990338,0.1804390578020364
1782969317865476400,2.371476318359375,19.906206257009504,4.043085011731088,0.12198219265826046
1782969317875402500,2.381402587890625,18.360021940147874,3.9296991633087393,0.18125797296948729
1782969317885329400,2.391329345703125,16.501532253801823,3.7290395205810665,0.23863456859588622
1782969317895255300,2.40125537109375,14.942666150021552,3.5238165154606103,0.2583766492895782
1782969317905181400,2.411181396484375,13.843475074553488,3.25513430686444,0.23562705734297631
1782969317915107600,2.421107666015625,12.958645711690187,3.1914848415136334,0.3265323400184512
1782969317925034200,2.4310341796875,11.65067393862009,3.1564249263092874,0.549532920826599
1782969317934960400,2.44096044921875,9.640845105293392,3.085268154068291,0.6909567499272525
1782969317944886500,2.450886474609375,6.863349645715951,3.027199703720212,0.6279213248215615
1782969317954812400,2.4608125,3.4888726278513666,2.672803205220401,0.4751125436797738
1782969317964738300,2.47073828125,0.4594868122637272,2.2596549502834677,0.852720844810456
1782969317974665500,2.48066552734375,-1.4872352842867373,1.898084760762006,0.8435363984882831
1782969317984591400,2.49059130859375,-3.4950521932691334,1.1995156361348926,-0.24130948689356446
1782969317994517200,2.500517333984375,-6.481966648352146,-0.047943946696817875,-2.4797461464509367
1782969318004443400,2.510443359375,-11.687641441011428,-1.3066814409986138,-4.990242235952615
1782969318014370600,2.52037060546875,-18.964850120282172,-1.9432111658200621,-7.215042438215017
1782969318024296200,2.530296142578125,-26.576117735683916,-2.1761142050266264,-9.47790495236814
1782969318034222300,2.540222412109375,-32.6972099216938,-2.3880304241754113,-12.037176178693771
1782969318044148500,2.5501484375,-35.41492340500355,-3.0983880401432513,-13.615184205317496
1782969318054074400,2.560074462890625,-35.005589739918705,-2.9415280839145184,-14.63375100749731
1782969318064001300,2.570001220703125,-32.16862911493778,-3.1279139943569896,-13.892273299992084
1782969318073927400,2.579927490234375,-27.36180166466236,-2.641489783068001,-11.859767939954995
1782969318083853600,2.589853515625,-21.705640527796746,-1.530114056548476,-9.184238232380151
1782969318093779200,2.599779296875,-16.582210303103924,-0.6360522435028105,-6.448410415709018
1782969318103706400,2.609706298828125,-12.785619049036502,-0.16304156747311352,-4.406818370635807
1782969318113632500,2.619632568359375,-9.963762469685078,0.16425846898220478,-2.7398981348499656
1782969318123558400,2.629558349609375,-7.755688945817947,0.5550736768841743,-1.3230207275114954
1782969318133484300,2.639484375,-6.071891224989295,1.1333373829588294,-0.4853570204488933
1782969318143410400,2.649410400390625,-4.411700005197525,1.6235140786491333,0.039287615901976825
1782969318153337600,2.659337646484375,-2.7643121528774497,2.03401342651248,0.13600655329227446
1782969318163263200,2.66926318359375,-1.1315262418836354,2.4124700150355696,0.04837503159046173
1782969318173189400,2.679189453125,1.009908279427886,2.7056623955100774,-0.13562778310775755
1782969318183115500,2.689115478515625,3.4847143391281366,2.764009955060482,-0.45438627425432204
1782969318193042200,2.699042236328125,5.636634598618746,2.7639719611376523,-0.6976099972713738
1782969318202968300,2.70896826171875,7.560484353625774,2.824739441311359,-0.7846052668962628
1782969318212894500,2.71889453125,9.396900155329703,3.050843906418979,-0.6708828799959272
1782969318222820400,2.7288203125,10.92911907520294,3.3058339820101854,-0.5596997292496264
1782969318232746200,2.738746337890625,12.393548653441666,3.519527586095035,-0.34933249310851094
1782969318242673400,2.74867333984375,13.745277735173701,3.760486213724315,-0.18947415878139434
1782969318252599600,2.758599609375,15.19856866428256,4.024796198585629,0.009673682010686024
1782969318262525400,2.768525390625,16.539065573382377,4.187001899756491,0.3867818972652778
1782969318272451300,2.778451416015625,17.46432163918018,4.204922756372392,0.6045970747921615
1782969318282378500,2.78837841796875,18.187320271664856,4.1850466740354895,0.6309655878882855
1782969318292304400,2.798304443359375,18.56814680418968,3.9700902104079723,0.6259053818892687
1782969318302230300,2.808230224609375,18.65201751205325,3.7118829263359308,0.7168710895150899
1782969318312156400,2.818156494140625,18.310473188602923,3.554097087433934,0.7497633783567696
1782969318322082300,2.828082275390625,17.401384998273848,3.408842228803038,0.7162528845515101
1782969318332009200,2.83800927734375,16.343781486213206,3.353797217929363,0.7934977445345371
1782969318341935400,2.847935302734375,15.185014770704507,3.411810430958867,1.0553828403364867
1782969318351861500,2.857861572265625,13.821609279704093,3.45489524718672,1.3245274788126349
1782969318361787400,2.867787353515625,12.579881372392176,3.5012238676413894,1.4803032930664717
1782969318371713300,2.87771337890625,11.768339364057779,3.4945386907890437,1.6960533912897109
1782969318381640400,2.887640380859375,11.214739851379393,3.3091526050388813,1.4294818912371992
1782969318391566300,2.89756640625,10.530834042876958,2.9353324441447852,0.8603749397601932
1782969318401492500,2.907492431640625,9.509874208080769,2.4212723301723598,0.11536270145326852
1782969318411418400,2.91741845703125,8.295724628046154,1.6948187349282204,-0.3214809749130159
1782969318421345500,2.927345458984375,6.361653338754177,1.3713393527396023,-0.23007468391284344
1782969318431271400,2.937271484375,3.21909297940731,1.551904009682685,-0.12789105137586593
1782969318441197300,2.947197265625,-0.32503917885124683,1.5481449494101107,-0.42084377787560223
1782969318451123500,2.95712353515625,-3.8334658174782987,0.9528055323068052,-1.1264802105404437
1782969318461049300,2.96704931640625,-7.902232675215601,0.5633908388525247,-1.783602203144133
1782969318470976300,2.976976318359375,-12.549542348229885,0.8021941150788218,-2.19385298307389
1782969318480902400,2.98690234375,-16.61153459726572,1.1460611093230544,-2.9673914239674803
1782969318490828300,2.996828369140625,-20.479991648626328,0.9383601697817444,-4.253399202510714
1782969318500754400,3.00675439453125,-24.178221897184848,0.4192377674510702,-6.161618842187523
1782969318510681300,3.016681396484375,-27.086669549274443,-0.4468715147100389,-8.44206202121675
1782969318520607500,3.026607421875,-29.264822566652295,-1.4296948033355175,-10.253971742695569
1782969318530533400,3.036533447265625,-30.699903300809858,-1.582428619544953,-11.68627599787712
1782969318540459500,3.04645947265625,-30.887452994334694,-1.2186190535988657,-12.674383364385365
1782969318550385400,3.056385498046875,-29.08649896663427,-0.7957118403874337,-12.747917387151718
1782969318560312300,3.066312255859375,-24.802203690600393,-0.1838279695879668,-11.603913356488942
1782969318570238500,3.076238525390625,-18.981508994138238,0.3036236485200003,-9.451285240989924
1782969318580164400,3.086164306640625,-13.579510834389923,0.483850378745608,-7.230159343326092
1782969318590090200,3.09609033203125,-10.22890510597825,0.5199932303484529,-5.474943568971753
1782969318600017400,3.106017333984375,-8.58266700821519,0.9436061806764453,-3.9877024394661187
1782969318609943300,3.115943359375,-7.51437083722651,1.8350537195704877,-2.6049580417454243
1782969318619869400,3.125869384765625,-6.1692486064136025,2.792441684296727,-1.3258638419829307
1782969318629795300,3.13579541015625,-4.168511426559091,3.4384354030340907,-0.5943738600067794
1782969318639722200,3.14572216796875,-1.8000737377345561,3.7763098058000204,-0.45871904276162384
1782969318649648400,3.1556484375,0.6646487348467112,3.7636727348059416,-0.4050048421002924
1782969318659574300,3.16557421875,3.438524834883213,3.705244803495705,-0.5090553644876927
1782969318669500400,3.17550048828125,5.984941255810856,3.761506204421818,-0.5132557387869805
1782969318679426300,3.18542626953125,8.008957019922137,3.7924499164789913,-0.5103592136278748
1782969318689353500,3.195353515625,9.60023018631041,3.7644375816985964,-0.6565574175234884
1782969318699279400,3.205279296875,10.961229200690983,3.625297114294767,-0.7838605129435658
1782969318709205500,3.21520556640625,11.915239067286253,3.538695520162582,-0.47270325404834
1782969318719131400,3.22513134765625,12.746096016943454,3.7177933194234964,0.022406194469565523
1782969318729057300,3.235057373046875,13.475324483728407,4.038494469070434,0.34370343771297485
1782969318738984400,3.244984375,14.172705859875679,4.114274517197907,0.20427874654028563
1782969318748910300,3.254910400390625,15.144076026594638,4.0184725485220545,0.0025732845541089774
1782969318758836200,3.264836181640625,16.558315048253537,3.827682265640795,-0.134535202098079
1782969318768762400,3.274762451171875,18.068026368242503,3.4790915308102965,-0.1005321390029043
1782969318778689300,3.284689208984375,19.380924491798876,2.9405992786318063,0.12596271366178988
1782969318788615400,3.294615478515625,20.3574711843729,2.5572949578166004,0.12322561684809624
1782969318798541300,3.304541259765625,20.792434965276716,2.238087261597812,-0.17648206380456685
1782969318808467500,3.314467529296875,20.143529158484935,1.9976208013996481,-0.01987016405276954
1782969318818393300,3.324393310546875,18.13865648626089,2.261491810321808,0.1713638440079987
1782969318828320300,3.3343203125,15.598856268602608,2.6694869202792644,0.3998800464324653
1782969318838246400,3.344246337890625,13.710596882414817,3.0898142730653286,0.8482463297449052
1782969318848172500,3.354172607421875,12.172684719336033,3.411795817911625,1.08567576033473
1782969318858098200,3.36409814453125,10.892359662604331,3.6342683562576767,1.1123087695859373
1782969318868025300,3.374025390625,9.832711492973566,3.6752339883744716,0.8449808982081711
1782969318877951500,3.383951416015625,9.265943286642432,3.341105786399543,0.20204368096459654
1782969318887877400,3.39387744140625,8.697258433035016,2.780026147098839,-0.8505773299757391
1782969318897803300,3.40380322265625,7.268576460003852,2.1013968176946043,-1.7260267970100045
1782969318907729400,3.4137294921875,5.563541889879107,1.6713086800031363,-2.1856685075744986
1782969318917656300,3.42365625,3.934672275546193,1.2895311303637922,-2.1081119512937962
1782969318927582200,3.433582275390625,2.057535756397247,1.2089451432593166,-1.335462860455364
1782969318937508400,3.44350830078125,-1.4152730408817529,1.5282565921135245,-0.6188758485786616
1782969318947434500,3.4534345703125,-6.93177845429778,1.5815876386761665,-0.7006831941716373
1782969318957361400,3.463361328125,-13.844707246696949,1.0511383346345275,-1.3922547149963675
1782969318967287300,3.473287353515625,-19.988920780575274,0.11737535644993186,-2.608886613366008
1782969318977213400,3.48321337890625,-24.3825637355566,-0.30989538573324676,-3.5553427035808562
1782969318987139600,3.4931396484375,-28.210031773924825,-0.5823188266843558,-4.803077157831192
1782969318997065200,3.503065185546875,-31.243356682527065,-1.3548062972202897,-7.236163552176952
1782969319006992400,3.512992431640625,-32.81553585686684,-2.439910395146906,-9.855766205346583
1782969319016918500,3.52291845703125,-31.741483898830413,-3.3108775291353463,-11.28893672196865
1782969319026844200,3.53284423828125,-27.776814544427392,-3.3657682262301445,-11.014439397352934
1782969319036770300,3.542770263671875,-22.79848837171793,-2.8138272944137452,-9.331411491852998
1782969319046697500,3.552697509765625,-18.09809183616042,-1.8933993794247508,-7.063928332161903
1782969319056623400,3.562623291015625,-14.513423669373989,-1.1222036291997879,-5.054794495362043
1782969319066549200,3.57254931640625,-12.099631173563003,-0.30345205481275916,-3.332519452100992
1782969319076475400,3.582475341796875,-9.758538003259897,0.4387624425344169,-1.9402265970513224
1782969319086401500,3.592401611328125,-7.679511130544543,1.0679404894188045,-0.8734741483733057
1782969319096328200,3.602328125,-5.858467670017481,1.7008144682116806,-0.36875147932767866
1782969319106254300,3.61225439453125,-4.205362024572492,2.1808862417340276,-0.49577130082696674
1782969319116180500,3.622180419921875,-2.620518014448881,2.508814712285995,-0.8918472057361155
1782969319126106400,3.6321064453125,-0.7102233220636844,2.6084619582131503,-1.2208053846620022
1782969319136033300,3.642033203125,1.492394274485111,2.7134236771613356,-1.5235472453787922
1782969319145959400,3.65195947265625,3.3307939434826372,2.8615985148921608,-1.7704074982672928
1782969319155885600,3.661885498046875,5.096026669460535,3.014634821179509,-1.794521656565368
1782969319165811200,3.671811279296875,6.862836435496806,3.1550878324866294,-1.6072922810360788
1782969319175737300,3.6817373046875,8.413062721225618,3.2913822628095746,-1.3889140262663364
1782969319185664500,3.69166455078125,9.607872225496171,3.431987542068958,-1.1540475780323147
1782969319195590100,3.701590087890625,10.641320370465516,3.665211191532016,-0.8379293722614646
1782969319205516300,3.711516357421875,11.685001740157604,3.932135742805898,-0.4036272701367736
1782969319215442400,3.7214423828125,12.84610537418127,4.118286675448715,-0.05779657460413873
1782969319225369300,3.731369384765625,14.037929140639305,4.191718406884372,-0.001726093140244484
1782969319235295200,3.741295166015625,15.213498522388933,4.031608508948982,-0.33444742399193345
1782969319245221400,3.751221435546875,16.39992598276138,3.775102183575928,-0.5293449960615486
1782969319255147500,3.7611474609375,17.56412407566905,3.531015779314935,-0.6005865970417856
1782969319265073400,3.771073486328125,18.43554918255806,3.194302237021923,-0.5901216093897819
1782969319275000300,3.781000244140625,18.95384941831827,2.7892259371206163,-0.7035413600817322
1782969319284926500,3.790926513671875,19.12757400010824,2.523135206322372,-0.8549292415749281
1782969319294852400,3.800852294921875,18.71587886658907,2.489118662691116,-0.606003945915401
1782969319304778200,3.8107783203125,17.69027208276987,2.5316674723461268,-0.4434208627995103
1782969319314705400,3.820705322265625,16.44470620473027,2.5080638939186928,-0.39900399425029753
1782969319324631600,3.830631591796875,15.042331808388232,2.562543672125041,-0.28319289144240317
1782969319334557200,3.84055712890625,13.839025693929194,2.7084274763092395,-0.14178981286883352
1782969319344483300,3.8504833984375,12.844288680148123,2.8738036242097613,-0.14812551869638263
1782969319354409500,3.860409423828125,11.689853271842003,2.896721558460593,-0.2865725239433348
1782969319364336400,3.87033642578125,10.236757573044299,2.9310777093097564,-0.3639282969549298
1782969319374262300,3.88026220703125,8.641926421913505,3.015985066744685,-0.5599363875497132
1782969319384188400,3.8901884765625,6.951137819284201,2.624718096487224,-1.1454526220358907
1782969319394114600,3.900114501953125,3.8646903923034666,2.069016496963054,-1.4522379129245877
1782969319404040400,3.91004052734375,-0.5965151098191738,1.8092836107589303,-1.1130005512423813
1782969319413967400,3.91996728515625,-5.053623113495111,1.8424311164706944,-1.33133452847898
1782969319423893500,3.9298935546875,-10.16165118639469,1.4111267348572611,-2.360335484781116
1782969319433819400,3.9398193359375,-16.377819364893437,0.3480507096696645,-3.4893548584103584
1782969319443745300,3.949745361328125,-24.455420881974696,-0.21772169055715201,-5.2314130450278515
1782969319453672400,3.95967236328125,-33.06799319911003,-0.3559580852607265,-7.243679919156432
1782969319463598600,3.9695986328125,-39.057023185539244,-0.008740593278501182,-8.93858121780157
1782969319473524200,3.979524169921875,-41.08364942440986,1.2766238641262053,-11.223147614240645
1782969319483450400,3.989450439453125,-36.53389002504348,-0.10348466866556555,-9.45976022386849
1782969319493375200,3.999375244140625,-30.071387955617904,-0.7065109504770487,-7.850583151999116
1782969319503301400,4.00930126953125,-22.116054389333723,-0.6122503294916823,-6.689800420492887
1782969319513227500,4.0192275390625,-15.77688760767579,-0.9045451400719583,-5.470775343376398
1782969319523154200,4.029154296875,-11.36987897516489,-0.9071743195317685,-4.356622553358972
1782969319533080300,4.039080322265625,-8.366861526542902,-0.4396468972187489,-3.2246488599687813
1782969319543006500,4.04900634765625,-6.214620949056744,0.2874735644362867,-2.0628882233411074
1782969319552932400,4.058932373046875,-4.475187265723943,1.156715628197789,-0.9167286220796406
1782969319562858200,4.068858154296875,-2.9352614247351885,2.077365223113447,-0.042546836893633005
1782969319572785400,4.078785400390625,-2.023567435821891,2.869263642692566,0.36782311243638394
1782969319582711600,4.088711669921875,-0.8326409104645252,3.3806188816204665,0.3604021686553955
1782969319592637200,4.09863720703125,1.009679146847129,3.434256656044721,0.1556342503586784
1782969319602563300,4.108563232421875,2.756208341398835,3.4012194788396357,-0.2460266881411895
1782969319612490500,4.118490478515625,4.345303579226136,3.201689132402837,-0.9905247298482804
1782969319622416400,4.12841650390625,6.085899876597523,2.7164135066270827,-1.7678462694771586
1782969319632342300,4.13834228515625,7.828727878543734,2.3420015173196793,-2.082607946072519
1782969319642268400,4.148268310546875,9.233605782139302,2.298327210766077,-2.0097315104320645
1782969319652194300,4.1581943359375,10.282995592606067,2.5193384443879125,-1.7578735953867435
1782969319662121200,4.168121337890625,11.268305437350273,2.881328174495697,-1.3720342031359671
1782969319672047400,4.17804736328125,12.236463071763515,3.1258196524262427,-0.9614882396519183
1782969319681973500,4.187973388671875,13.06675303518772,3.1948908505648372,-0.7003991895984858
1782969319691899400,4.1978994140625,13.806940118360519,3.187755299596488,-0.7719079901475459
1782969319701826300,4.207826416015625,14.491124159282444,3.2092277112141248,-0.8902248652312904
1782969319711752400,4.21775244140625,15.122826317816973,3.1186320790097115,-0.8851371867034584
1782969319721678300,4.22767822265625,15.692528239512443,2.9788629583135244,-0.7031810023367404
1782969319731604200,4.237604248046875,16.17430287142992,2.7621850777208805,-0.6887737067997455
1782969319741529900,4.24752978515625,16.483098771488667,2.4727377289935943,-0.7966193836864084
1782969319751457000,4.25745703125,16.475303587567804,2.3534750974923373,-0.4649856288757175
1782969319761383000,4.2673828125,15.901457405674456,2.434944881694019,0.04478679784014821
1782969319771308800,4.277308837890625,14.909748215281962,2.538842186281085,0.24657040309645234
1782969319781235000,4.28723486328125,13.816236354494094,2.7079630736678837,0.21078348879180847
1782969319791161900,4.297161865234375,12.711539082825183,2.7189187674462794,0.09205001399749889
1782969319801087700,4.307087646484375,11.573974145299196,2.5354823544591665,-0.09146629582541063
1782969319811014000,4.317013916015625,10.198138211792706,2.406048603685945,-0.5696691519370303
1782969319820939800,4.326939697265625,8.590586110776663,2.0523431561902163,-1.0349890908010304
1782969319830866000,4.336865966796875,7.086883091291785,1.6417625597842036,-1.3981034410245716
1782969319840792800,4.346792724609375,5.446140083813667,1.2834129397444427,-1.9850112029343843
1782969319850719000,4.356718994140625,3.033047845226526,1.0017543451972306,-2.2234297906920313
1782969319860644900,4.366644775390625,0.20346037936210631,1.3102248126938938,-1.7173093836776911
1782969319870571000,4.376571044921875,-2.680577054092288,2.114494053546339,-0.7695048014633357
1782969319880498000,4.386497802734375,-5.704167919665575,2.6798236053764817,0.012611498161405324
1782969319890423800,4.396423828125,-8.938774110025166,2.4151455178551373,-0.07739931989237665
1782969319900350000,4.406349853515625,-11.829684936380385,1.2773472099646925,-1.0810606677547097
1782969319910275800,4.41627587890625,-14.762832145440578,-0.085726163004525,-2.5804014003768563
1782969319920201700,4.42620166015625,-17.797106317591666,-1.2154671654392033,-3.742159991177916
1782969319930129000,4.43612890625,-20.880412523937224,-1.3886439771533012,-4.365346834823489
1782969319940054800,4.4460546875,-24.662547382628915,-0.8170771383687854,-4.89522148078233
1782969319949981000,4.45598095703125,-27.860022404468058,-0.3440669737957418,-5.712053704479336
1782969319959906800,4.46590673828125,-28.597618886625764,-0.2902700815533288,-6.5598284711897366
1782969319969833700,4.475833740234375,-26.828030303525924,-0.4704802807692438,-6.740619338104128
1782969319979759900,4.485759765625,-23.196912520253658,-0.8039804870389401,-6.6769479531824585
1782969319989685800,4.495685791015625,-19.39138041936159,-1.1599642547301947,-6.3993807196021075
1782969319999612000,4.50561181640625,-16.75808943257928,-1.1774971349418162,-6.002478081545234
1782969320009538000,4.5155380859375,-15.164869808298349,-0.7645172953743488,-5.383700871035456
1782969320019465000,4.52546484375,-13.41584587432146,-0.10197919600605965,-4.227545799329877
1782969320029390800,4.535390869140625,-11.113360374832153,0.7039475297298282,-2.8197183982789515
1782969320039317000,4.54531689453125,-8.599341079640388,1.4477999304771423,-1.8309328402481972
1782969320049243000,4.555242919921875,-6.170200792571902,1.8614945672504604,-1.1783666112527251
1782969320059169800,4.565169677734375,-3.737641636970639,2.09247175296098,-0.9729269677069038
1782969320069096000,4.575095947265625,-1.5264672244787216,2.354930995389074,-0.6991456093408167
1782969320079021800,4.585021728515625,0.3220505184292793,2.7014415629446504,-0.45952371020801364
1782969320088947700,4.59494775390625,1.9227122754096984,3.0278730729371306,-0.4313729898702353
1782969320098873900,4.604873779296875,3.6238118441730736,3.0914205392181873,-0.22042897675447165
1782969320108800800,4.61480078125,4.98210276863873,3.3639605922862885,-0.10559650972038506
1782969320118727000,4.624726806640625,5.993669921189547,3.723741414172947,0.16406992414016275
1782969320128652800,4.63465283203125,7.074643787443637,4.129186547386646,0.5714342253807931
1782969320138579000,4.644578857421875,8.52117705898583,4.5335970768555995,0.5755319430232048
1782969320148505900,4.654505859375,10.25382093604803,4.802552257174253,0.4229891924064606
1782969320158431700,4.664431640625,12.398731024515628,4.870902447561919,0.19371826262455433
1782969320168358000,4.67435791015625,14.712684843480586,4.735102230496704,-0.2127643969433382
1782969320178284000,4.684283935546875,16.998399240911006,4.411696790327132,-0.5619512345034628
1782969320188209700,4.694209716796875,19.032196394324302,4.172071457128227,-0.7798191285982727
1782969320198136800,4.70413671875,20.398752458310128,4.021611723330617,-0.659793915226683
1782969320208063000,4.71406298828125,21.271186449980735,3.8713594948038454,-1.1111701209448277
1782969320217988900,4.72398876953125,21.611756959962843,3.483639111112058,-1.7009091607578097
1782969320227914800,4.733914794921875,21.223849529266356,3.2630148309811946,-1.723883501370996
1782969320237841000,4.7438408203125,20.091310310947893,3.2829090334966775,-1.8906762380711732
1782969320247767800,4.753767822265625,18.48046150647402,3.1641490908205507,-2.0340392916060983
1782969320257693700,4.763693603515625,16.725716272240877,3.083320527131855,-2.064824159839749
1782969320267619800,4.773619873046875,15.231532191729544,3.065350278416276,-2.1059806383535267
1782969320277546000,4.7835458984375,13.926823219847678,3.003651362611353,-2.1081902772270142
1782969320287473000,4.793472900390625,13.005612045526505,3.010163228723407,-1.8174121182873844
1782969320297398800,4.803398681640625,12.428694785624742,3.1810426502153275,-1.344098732984066
1782969320307325000,4.813324951171875,11.994943303120136,3.2137095328032967,-1.030074942209199
1782969320317251000,4.8232509765625,11.01399632976055,3.307877178275585,-0.7080330454777926
1782969320327176700,4.8331767578125,8.88936505921185,3.7372692965269088,-0.26978753948956724
1782969320337104000,4.843103759765625,6.523226879501342,4.174025221544504,-0.21630831662788985
1782969320347030000,4.853030029296875,3.8457390235960482,3.9838638842165466,-0.7297608200959861
1782969320356955600,4.86295556640625,0.7973381264150142,3.2118150973588224,-1.5115709763810037
1782969320366881800,4.8728818359375,-2.79264100626111,2.3166877739734946,-1.599281700798869
1782969320376809000,4.88280908203125,-6.961046049836278,1.0215108928076921,-2.2147800357684493
1782969320386734800,4.89273486328125,-12.324868500447273,-0.9816635241311042,-4.322508979094028
1782969320396660700,4.90266064453125,-19.267241998517513,-3.105161772061884,-6.877406228119135
1782969320406587000,4.9125869140625,-27.51299643473625,-4.083658137398958,-9.23465382988751
1782969320416513000,4.922512939453125,-35.25578381340503,-3.5678581940218805,-10.717551377230881
1782969320426439700,4.932439697265625,-38.72155204452276,-2.6006302416741844,-10.623445691078901
1782969320436365800,4.94236572265625,-37.50322605558634,-2.413026333744079,-9.018560763445496
1782969320446292000,4.9522919921875,-33.781159004366394,-2.810997916206717,-7.0023232321202755
1782969320456217900,4.9622177734375,-29.63119621093273,-2.633560451373458,-6.523128679823875
1782969320466144800,4.972144775390625,-25.251310563147065,-1.9038319261118768,-5.444947074636817
1782969320476071000,4.98207080078125,-20.326393324542046,-1.0681691836081444,-3.781780053904652
1782969320485997000,4.9919970703125,-16.70325660315156,-0.628498174861446,-2.746133814369142
1782969320495922700,5.001922607421875,-15.97301223732233,-0.4668786030154675,-2.332641276039183
1782969320505848800,5.011848876953125,-16.485445042353867,0.33395145716853436,-2.6101047569841147
1782969320515776000,5.02177587890625,-16.45477751688957,1.5629560034424066,-3.064770140440762
1782969320525702000,5.031701904296875,-15.047216073298454,2.5978070009469985,-3.1044892796277996
1782969320535627800,5.041627685546875,-12.749792533373832,3.4989193900912996,-3.239016992539167
1782969320545554000,5.051553955078125,-9.751843474057317,4.144501020896435,-3.59079834010452
1782969320555480800,5.061480712890625,-6.2762137741386885,4.423451525528729,-4.106045910295844
1782969320565406700,5.07140673828125,-2.92190451503396,4.880120942284167,-4.343818309104442
1782969320575332900,5.081332763671875,0.4119271887093782,5.2619765255957835,-4.5869510659024115
1782969320585259000,5.091259033203125,3.7578047195553776,5.271633411735296,-5.127040231883526
1782969320595185000,5.101184814453125,6.754186675685644,5.468243779072165,-5.105092603969574
1782969320605111800,5.11111181640625,9.458699316638707,5.880256892499327,-4.794675240188837
1782969320615038000,5.121037841796875,11.651901434588432,6.181818749651312,-4.322022072359919
1782969320624963800,5.1309638671875,13.340377084100245,6.368914269667863,-3.9020357880964873
1782969320634889700,5.1408896484375,14.47421744814515,6.613357232281565,-3.859471196350455
1782969320644817000,5.15081689453125,15.071508803033828,6.885525821688771,-4.258979632991552
1782969320654743000,5.160742919921875,15.825268484485148,6.98957714779377,-4.826220133009553
1782969320664668700,5.170668701171875,17.239413982641697,6.961182243436575,-5.1996588933706285
1782969320674594800,5.1805947265625,19.00724432389736,6.776154177343845,-5.360128856790065
1782969320684521000,5.19052099609375,20.689002647852895,6.449926080968976,-5.30706011442542
1782969320694447900,5.20044775390625,22.026440169382095,6.2131906239926815,-5.050613994807005
1782969320704373800,5.210373779296875,22.961015852189064,5.918889113232493,-4.795652560788393
1782969320714300000,5.2202998046875,23.252544975626467,5.589152131953835,-4.616401324531435
1782969320724225800,5.230225830078125,22.33708315861225,5.308150247749686,-4.406273303973674
1782969320734152700,5.240152587890625,20.301941604852676,5.220054615667462,-4.396939950700104
1782969320744078600,5.25007861328125,17.986337096071242,5.28001896276474,-4.269015581576526
1782969320754004700,5.260004638671875,15.91955771051049,5.372678541761636,-3.9889579924851652
1782969320763930600,5.2699306640625,14.132617010593414,5.548684512487053,-3.7377073956832287
1782969320773856500,5.2798564453125,12.269619491434096,5.870766010576486,-3.454725735838711
1782969320783783700,5.28978369140625,10.642241576963663,6.107189917385578,-3.25375483520478
1782969320793709600,5.29970947265625,9.626309799462556,6.218650642964244,-3.13740604532361
1782969320803635700,5.3096357421875,9.031673342996836,6.194470725953579,-3.0350784742712973
1782969320813561600,5.3195615234375,8.663405847793817,5.980083294385671,-2.897254642423987
1782969320823488800,5.32948876953125,8.83572523896098,5.533409786465763,-2.987394932076335
1782969320833414700,5.33941455078125,8.966979629290103,5.147841027849912,-3.2559494226396084
1782969320843340500,5.349340576171875,8.139516998246311,4.399886525546014,-3.741580145463347
1782969320853266700,5.3592666015625,5.577680889868736,3.5870293429598212,-4.171002366591989
1782969320863192600,5.369192626953125,0.8668845408499241,2.937726353543997,-3.3816803733721374
1782969320873119500,5.379119384765625,-5.071643338832259,2.9753628412380815,-1.8449996517844498
1782969320883045600,5.389045654296875,-9.539175705888868,3.956735638794303,-1.41765642888695
1782969320892971500,5.398971435546875,-12.495191164839268,3.171847244107723,-1.1449395579472184
1782969320902897700,5.408897705078125,-15.166332282066344,1.2452879378810524,-1.7619056273818015
1782969320912824600,5.418824462890625,-19.051725270658732,-0.7461701761703938,-3.1805081049472093
1782969320922750700,5.428750732421875,-23.393543345856664,-2.2857173200398684,-4.545222340458631
1782969320932676600,5.438676513671875,-26.499175950300693,-3.205900320357084,-5.497858580613136
1782969320942602800,5.448602783203125,-28.963536603832242,-3.922703897593915,-6.908658275473117
1782969320952528600,5.458528564453125,-30.43946840381622,-5.125804552608728,-7.927360686731338
1782969320962455600,5.46845556640625,-30.37717941316366,-5.810214803501963,-8.456150752323865
1782969320972381700,5.478381591796875,-29.437261200284958,-5.497243663585186,-8.228511040472984
1782969320982307600,5.4883076171875,-27.610681732940673,-4.221365064868331,-7.098667637109756
1782969320992233500,5.4982333984375,-24.413103835248947,-2.9409383013278245,-5.381917494750023
1782969321002159600,5.50815966796875,-20.60296102569103,-2.1523162730708716,-3.9586628074645995
1782969321012086500,5.51808642578125,-17.58015868014693,-1.4980930706486104,-3.194937612316012
1782969321022012700,5.5280126953125,-15.623578037405013,-0.8907759963080286,-2.653292156803608
1782969321031938600,5.5379384765625,-14.032655584150552,-0.03397606549039483,-2.285991314675659
1782969321041864700,5.54786474609375,-11.989364626204967,1.0341865422464906,-2.019376852264255
1782969321051791600,5.55779150390625,-9.317220469415187,1.9362465875044463,-1.763781796517223
1782969321061717500,5.567717529296875,-6.410441042798757,2.7705066236034033,-1.6934823717579244
1782969321071643600,5.5776435546875,-3.1608412814468143,3.4236835318431256,-1.6509046282693742
1782969321081569800,5.58756982421875,0.31724691753983497,3.7930925982967016,-1.6801299921013413
1782969321091495400,5.597495361328125,3.3783003755450247,4.012274570664763,-1.9740306669756769
1782969321101422600,5.607422607421875,6.090630996772647,4.446764304316043,-2.5052099657922984
1782969321111348700,5.6173486328125,8.743779945713282,4.380388336610793,-1.4170279217250645
1782969321121274600,5.627274658203125,11.2683662276268,4.6067032295987005,-0.6979474855974316
1782969321131200500,5.637200439453125,13.377269767689704,5.348561168593168,-0.809311765064299
1782969321141127700,5.647127685546875,14.90827755820751,5.697016878867149,-0.9284722513653337
1782969321151053600,5.657053466796875,16.31721613537073,5.906565638232231,-1.2258246010635048
1782969321160979500,5.6669794921875,18.014850073850155,5.957922900503873,-1.629303767966479
1782969321170905600,5.676905517578125,19.717270077562333,5.919688154655694,-1.7250616052396595
1782969321180831700,5.686831787109375,21.16526640739441,5.835372041112184,-2.0064679785914716
1782969321190758700,5.696758544921875,22.17590709275007,5.439911418557167,-2.101611921750009
1782969321200684500,5.7066845703125,22.61041962275505,5.1464475276648995,-2.329520075278729
1782969321210610700,5.716610595703125,22.00682595285177,4.90323995206505,-2.3928914543405173
1782969321220536800,5.726536865234375,20.337709668326376,4.780713934853673,-2.4341100383050738
1782969321230463700,5.736463623046875,18.260097923105953,4.7290889615565534,-2.422157880835235
1782969321240389600,5.7463896484375,16.279259621942042,4.57360058594197,-2.112280030758679
1782969321250315800,5.756315673828125,14.471281979215144,4.548881447488069,-1.6792454643517731
1782969321260241400,5.766241455078125,12.772708129537104,4.586212230233848,-1.2433521475128828
1782969321270167600,5.77616748046875,11.1178237839818,4.6128500617906445,-0.6247255975201725
1782969321280094700,5.7860947265625,9.832862299621105,4.580493852587044,0.0718359592773486
1782969321290020600,5.7960205078125,9.158542065587639,4.310248047935962,0.5988906067788601
1782969321299946500,5.805946533203125,8.522907828301191,3.8551261528834697,0.3927530806293711
1782969321309872600,5.81587255859375,7.115008531057835,3.1439015448227523,-0.7647660825036465
1782969321319799600,5.825799560546875,4.727464575225115,1.9943721748672425,-1.9184481882244346
1782969321329725700,5.8357255859375,2.1597095981925727,1.249241790073365,-1.4491754566140471
1782969321339651600,5.845651611328125,-0.48970191778540606,1.5202797680154443,-0.26470599844157694
1782969321349577700,5.85557763671875,-4.30719333654046,1.4496633862614632,-0.6832033593215048
1782969321359503600,5.865503662109375,-10.185120909309386,0.4211578122608363,-2.666232886919379
1782969321369430500,5.875430419921875,-18.69564505685568,-0.31195677524246274,-5.378895516580343
1782969321379356700,5.885356689453125,-29.59438068423271,-0.28654972758963704,-8.67874837835431
1782969321389282800,5.89528271484375,-39.62849387047291,-0.33850181394927203,-12.119562200957535
1782969321399208400,5.90520849609375,-44.52276579544544,-0.7919513918753713,-15.496266831743716
1782969321409135600,5.915135498046875,-43.76068486037254,-1.9151792495563624,-18.720982911729813
1782969321419061800,5.925061767578125,-37.270228616094585,-4.376593620502948,-18.946410792750118
1782969321428987600,5.934987548828125,-28.504256712317463,-4.896025198380649,-17.594797446352242
1782969321438913500,5.94491357421875,-20.20153711081743,-4.055267616955936,-14.306149869203567
1782969321448839700,5.954839599609375,-14.097758463180064,-2.6533634684741494,-10.048423451143503
1782969321458766600,5.9647666015625,-10.595913541030884,-1.1295828527309,-6.299558409368991
1782969321468692500,5.9746923828125,-8.234632738223672,0.37671675911843777,-3.3146316209718583
1782969321478618600,5.98461865234375,-5.8610886661708355,1.984822548494488,-0.7455719910815358
1782969321488544800,5.994544677734375,-3.323559900575876,3.142345255291462,1.1175091147080063
1782969321498471700,6.0044716796875,-0.8654927942305802,3.8243627658292647,2.175915759845078
1782969321508397600,6.0143974609375,1.55123750859797,4.179168721912801,2.760515098682046
1782969321518323700,6.02432373046875,3.9620612177312373,4.393781778930127,2.92894537345618
1782969321528249900,6.034249755859375,6.217657540273666,4.52092376550436,2.752963660389185
1782969321538175500,6.044175537109375,8.03183579120636,4.507368995143473,2.05116665975675
1782969321548102700,6.0541025390625,9.646424366730452,3.7711025925457475,2.314114562484622
1782969321558028800,6.06402880859375,11.076533157694339,3.5483465610831972,1.7950424655690789
1782969321567954400,6.073954345703125,12.587183219838142,3.5376091862305996,1.4556506439775228
1782969321577880600,6.083880615234375,13.782764293003082,3.345576209811866,1.5204884423300622
1782969321587807700,6.093807861328125,14.789357748794554,3.149278853946924,1.3761770020291209
1782969321597733600,6.103733642578125,15.626684186726807,3.015569179420173,1.13456933590658
1782969321607659500,6.113659423828125,16.714359011924266,3.127788906672597,1.0519503816697746
1782969321617585700,6.123585693359375,18.24328356642723,3.5044328928157684,1.2701312872365116
1782969321627511800,6.13351171875,19.44441993563175,3.5964445292979477,1.462963012817502
1782969321637438500,6.1434384765625,20.27898859928846,3.7927743261277675,1.6682073529869317
1782969321647364600,6.153364501953125,19.613639022696017,4.098653461956977,0.6977383728913963
1782969321657290800,6.163290771484375,17.495053462052343,2.67355080871731,1.2600526685535907
1782969321667216600,6.173216552734375,14.825869324111938,1.937745301629603,1.1243310696825384
1782969321677142500,6.183142578125,13.14219376835823,2.1334464451670647,0.5067577550698071
1782969321687069700,6.193069580078125,12.63319795203805,2.4473197946205736,0.3343402738230303
1782969321696995800,6.202995849609375,12.27134733814001,2.6569521406158803,0.4778999093759805
1782969321706921500,6.21292138671875,11.823547456538677,2.75145296356529,0.5102615984722971
1782969321716847600,6.22284765625,11.75821193779707,2.6021052826628086,0.6935548766616731
1782969321726774800,6.23277490234375,11.866446687066555,2.4665178315654397,0.6697738958407193
1782969321736701400,6.242701416015625,11.746710885095595,2.350215803435445,0.08396735490476712
1782969321746627300,6.25262744140625,11.475965021967887,1.9309931970208882,0.06497585511635988
1782969321756553500,6.262553466796875,10.366797326886653,1.9293664726018904,-0.23909159164838492
1782969321766479600,6.272479736328125,8.020100345227123,2.284933037794381,-0.865667712406069
1782969321776406300,6.28240625,4.334335610488057,2.383857230143994,-0.6845146611157804
1782969321786332400,6.29233251953125,0.11098141762912273,2.773984236586094,-0.12209464005678891
1782969321796258600,6.302258544921875,-4.16562213485837,3.0623017045006153,-0.009960399130731821
1782969321806184200,6.31218408203125,-8.988007219749688,2.261878325421363,-0.5229695427455008
1782969321816111400,6.322111328125,-15.411612864547967,0.9769638950727879,-1.1764062709651886
1782969321826037500,6.33203759765625,-22.591109357607362,0.5166437737900763,-2.3106948171690105
1782969321835963400,6.34196337890625,-29.078701444625853,0.25668869620263574,-3.861914497849345
1782969321845889300,6.35188916015625,-33.522349078226085,-0.13440697260852902,-6.0197957115709775
1782969321855815400,6.3618154296875,-35.71827389913797,-0.3553197508245706,-9.175968416684865
1782969321865742300,6.371742431640625,-35.21044595755338,-0.4862584262680262,-11.99019698537588
1782969321875668200,6.381668212890625,-31.50052527120113,-0.7763400543108582,-13.664587995433807
1782969321885594400,6.391594482421875,-26.06313664911985,-1.0868560561604796,-13.564610202378034
1782969321895520500,6.4015205078125,-20.872715539693832,-1.1621684137109667,-11.960005260729789
1782969321905447400,6.411447509765625,-17.302951512050626,-1.0371144123919307,-10.277903237903118
1782969321915373300,6.421373291015625,-16.049647733235357,-0.5459900605879724,-8.812788600009679
1782969321925299500,6.431299560546875,-15.1453760032773,0.48699733500182624,-7.1795777416020625
1782969321935225600,6.4412255859375,-13.460711436486243,1.809678309164941,-5.203392819201946
1782969321945151200,6.451151123046875,-11.173638610184192,3.0726582633420825,-3.328043767991662
1782969321955078400,6.461078369140625,-8.167886183640361,4.1878257833600046,-1.9764627164281903
1782969321965004500,6.471004638671875,-4.430633253726363,4.826111411938071,-1.1252494997017084
1782969321974930200,6.48093017578125,-0.4749222818046808,4.911034843724965,-0.6490722493998706
1782969321984856300,6.490856201171875,3.222871913424134,4.606936746093631,-0.6995940837606788
1782969321994783500,6.500783447265625,6.541381544873118,4.027921637129784,-0.8964910129539668
1782969322004709400,6.51070947265625,9.447357838413119,3.7176656013906,-0.6935075303886086
1782969322014635300,6.52063525390625,11.916486436998843,3.747132811154425,-0.2007301872132346
1782969322024561400,6.5305615234375,13.80098617839217,3.962048942771554,0.2565898754706606
1782969322034487600,6.540487548828125,15.038164167314767,4.293428138299286,0.375371810782887
1782969322044414200,6.550414306640625,16.039748270511627,4.824717034970224,0.9599242052055895
1782969322054340400,6.56034033203125,16.92024632617235,5.391361030399799,1.4535288295179605
1782969322064266500,6.5702666015625,17.430517569255827,5.833074285563826,1.4972551585197449
1782969322074192400,6.5801923828125,17.847101643860338,6.029924306875467,1.2275940218888222
1782969322084119300,6.590119384765625,18.563501024210453,6.058103522655368,0.9426144662253558
1782969322094045400,6.60004541015625,19.557747039604187,5.72306901949048,0.668068626292795
1782969322103971600,6.6099716796875,20.70367180919647,5.267483306318521,0.37499307713098823
1782969322113897200,6.619897216796875,21.472173132705688,4.62102752302736,0.0009960983652621508
1782969322123823400,6.6298232421875,21.152159088540078,3.8131329312846063,-0.41842849689479916
1782969322133750500,6.63975048828125,20.052556509661674,3.13412395491302,-0.4487199190557003
1782969322143676200,6.64967626953125,18.604359104299544,2.8322230750650164,-0.3970561115855351
1782969322153602300,6.659602294921875,17.27381426489353,2.646637667350471,-0.5263927951924503
1782969322163528400,6.669528564453125,16.08264983912706,2.5295102943122387,-0.6399957934968173
1782969322173455400,6.679455322265625,15.024212798851728,2.556146664564311,-0.7555757909625769
1782969322183381200,6.68938134765625,13.741022415816783,2.73282132833153,-0.6319966114364564
1782969322193307400,6.699307373046875,11.941871053624153,2.7475948268324135,-0.4216800095040351
1782969322203233500,6.709233642578125,9.692357850387692,2.602854347464442,-0.5437392129212617
1782969322213159400,6.719159423828125,7.207024551454186,2.0756893988557157,-0.7141140458919107
1782969322223086300,6.72908642578125,4.887813542613387,1.4464612292192875,-0.9494995495639741
1782969322233012500,6.739012451171875,3.0079139884918926,0.9798749602138995,-0.99164679268077
1782969322242938400,6.7489384765625,1.264447688642144,0.6009992694959044,-1.0369451933048666
1782969322252864300,6.7588642578125,-2.218888932392001,0.35152167371585963,-1.762587179905176
1782969322262791400,6.76879150390625,-9.295597251150012,0.6402990142270922,-3.2207150276511904
1782969322272717600,6.778717529296875,-18.040417061305046,1.0673062101032584,-5.488647100153565
1782969322282643200,6.788643310546875,-26.838175265443322,1.1923269667398184,-7.871103377458453
1782969322292569300,6.7985693359375,-36.381989152526856,1.7607577725209296,-10.342266112220287
1782969322302495500,6.80849560546875,-43.65679895396232,2.234572239214182,-13.802767801111935
1782969322312422400,6.81842236328125,-44.80303702728748,1.029169006345421,-18.06028963651061
1782969322322348300,6.828348388671875,-40.380885770702356,-1.7625114843204617,-22.23633964188099
1782969322332274400,6.8382744140625,-33.39653892477751,-3.966442501555383,-23.722872330856323
1782969322342200300,6.848200439453125,-25.484305664551258,-4.2935763145983215,-21.290817033123968
1782969322352126500,6.85812646484375,-18.375649717390537,-2.903514287340641,-16.294862849265336
1782969322362053400,6.868053466796875,-13.816068012189865,-0.5961908463008702,-11.268155799746513
1782969322371979500,6.8779794921875,-10.642701011168956,1.4113614203959703,-7.069422837924957
1782969322381905400,6.887905517578125,-7.122937570491433,2.6891046439409254,-3.585508124741912
1782969322391831300,6.897831298828125,-3.0967180611044167,3.4546856960892676,-0.8608554898187517
1782969322401758500,6.907758544921875,0.7435784791767597,3.486613450747728,1.0714154720529914
1782969322411684400,6.917684326171875,4.365062172663212,3.308563406974077,2.570882753664255
1782969322421610200,6.9276103515625,7.448447289463878,3.1432226226478814,3.468101642501354
1782969322431536400,6.937536376953125,9.682505149415135,2.917408372658491,4.058046726280451
1782969322441463600,6.947463623046875,11.374760901987552,2.8781606503754853,4.4522412744224065
1782969322451389400,6.957389404296875,12.768808199489117,2.890649252809584,4.544815805484355
1782969322461315300,6.9673154296875,13.992855488681792,2.8009643057093023,4.48631919285208
1782969322471241500,6.977241455078125,15.3109885902822,2.701491247305274,4.327440005755424
1782969322481167400,6.98716748046875,16.594613857603072,2.62198428760916,4.214590456166863
1782969322491094300,6.99709423828125,17.742624201297758,2.702958689509332,4.1205864768236875
1782969322501020400,7.0070205078125,18.42066257907152,2.7957436484515665,3.821884393016994
1782969322510946300,7.0169462890625,18.771999982261658,2.7756276198789473,3.5839234858989713
1782969322520872400,7.02687255859375,18.946832817554473,2.7877552800461647,3.4214605950966477
1782969322530798300,7.03679833984375,18.70994480036497,2.8385230519920586,3.274680426594615
1782969322540725500,7.0467255859375,18.37915217255354,2.6424682727113367,3.109555623106658
1782969322550651400,7.0566513671875,18.098773388683796,2.447992287054658,3.018570407062769
1782969322560577300,7.066577392578125,17.547999454820154,2.2283421126529572,2.954144988903403
1782969322570503400,7.07650341796875,16.65577355196476,2.039877934631705,2.867753822651505
1782969322580430300,7.086430419921875,15.587410160958767,1.7549214675828813,2.7779107623800634
1782969322590356200,7.096356201171875,14.368202713012694,1.4071866189293563,2.5551933093622323
1782969322600282400,7.106282470703125,13.378146550524233,1.2292097865223883,2.35096983667314
1782969322610208300,7.116208251953125,12.834756297171115,1.1667409092582761,2.095439955116808
1782969322620134400,7.126134521484375,11.936110005879401,0.9842843010887503,1.5741329387560485
1782969322630061300,7.136061279296875,10.287978057193756,0.6691182814761996,1.2523508620046078
1782969322639987500,7.145987548828125,8.194301896879077,0.5790593864969908,1.5480254146836696
1782969322649913300,7.155913330078125,5.818161378592253,0.7181231354027986,2.2194065265253187
1782969322659839500,7.165839599609375,3.462027291023731,0.8147289678074419,2.9013685074836015
1782969322669766400,7.175766357421875,1.1082049875289202,0.6279197173863649,2.870046902024746
1782969322679692300,7.1856923828125,-2.0986153702825305,-0.40926491069756443,1.4162564989611506
1782969322689618400,7.195618408203125,-7.7637576859831805,-2.032853588952869,-0.5211423273183405
1782969322699544300,7.20554443359375,-17.97229220410585,-1.8902569897457957,-2.160285790645331
1782969322709470200,7.21547021484375,-30.179931332445143,0.26827556402403857,-4.559444927078485
1782969322719397400,7.2253974609375,-39.774577581143376,1.9171020343124865,-8.591627728784085
1782969322729323300,7.2353232421875,-44.527605636692044,1.752875933229923,-13.103002744698523
1782969322739249700,7.245249755859375,-44.00670310947895,0.44773828760720785,-17.74870556703806
1782969322749175600,7.255175537109375,-38.79839329214096,-1.2662496234975755,-21.24295871888399
1782969322759102500,7.2651025390625,-30.64470105354786,-1.9384528653770685,-21.16280673928261
1782969322769028600,7.275028564453125,-21.722608029210566,-1.235466947221011,-17.254361376404763
1782969322778954800,7.284954833984375,-13.65492000337839,0.10539821066930889,-12.037716276919841
1782969322788880600,7.294880615234375,-8.010503080320358,1.3526415204018354,-7.236278118467331
1782969322798806800,7.304806884765625,-3.957919295620918,2.2495340998940168,-3.285346197515726
1782969322808733700,7.314733642578125,-0.8552285898476839,3.080776980128884,-0.1991127055466175
1782969322818659800,7.324659912109375,1.6643863333940505,3.5439620623886583,2.2654971004404127
1782969322828585700,7.334585693359375,3.6840491629928347,3.6292394221797584,3.821044727322459
1782969322838511600,7.34451171875,5.174128730794787,3.4956147955879566,4.371152306231856
1782969322848438800,7.354438720703125,5.906271623721718,3.3253383084252475,4.135620087565481
1782969322858364700,7.36436474609375,6.251666192859411,3.049502720943093,3.538367603382468
1782969322868290600,7.37429052734375,6.78658964664042,2.5745348464310167,2.934614359003305
1782969322878216700,7.384216796875,7.4472402517616745,2.0924774520494043,2.2802330434098836
1782969322888142600,7.394142578125,8.398712708833813,1.6062209985427558,1.7527321408450602
1782969322898069500,7.404069580078125,9.6874776771307,1.2577641192249953,1.385982941250503
1782969322907995600,7.41399560546875,11.033704069793224,1.102471266182512,1.332408879712224
1782969322917921800,7.423921875,12.179799519777298,1.0510440074145793,1.4830442623376845
1782969322927847700,7.43384765625,12.976792778277396,0.9965995927825569,1.775286502480507
1782969322937774600,7.443774658203125,13.840164342570304,1.0696931783050299,2.056178496569395
1782969322947700700,7.45370068359375,14.770388844430446,1.4134215677961706,2.2475667453438044
1782969322957626600,7.463626708984375,15.457702415549754,1.6928373518526554,2.454517889431119
1782969322967552800,7.473552734375,15.75139193189144,2.0003212925300002,2.455360185474157
1782969322977478700,7.483478759765625,15.583823534643649,2.253333930568397,2.26298906314224
1782969322987405800,7.49340576171875,14.953949760580063,2.4038854343026874,2.265504845355451
1782969322997331700,7.503331787109375,14.03081434019804,2.702228913930058,2.1744088624134656
1782969323007257600,7.513257568359375,13.109880229252576,2.9588652954235672,2.0156779977463186
1782969323017183700,7.523183837890625,12.299418417370319,2.931963259972632,1.759995848237723
1782969323027110700,7.533110595703125,11.559914055764674,2.5967551538065075,1.3205657355748117
1782969323037036500,7.54303662109375,11.289736347913742,2.324230298307538,0.9550728927168994
1782969323046962700,7.552962646484375,11.31460190910101,2.035453103926778,0.6958846347834915
1782969323056888600,7.562888671875,11.339513062995671,1.6576941422790288,0.516067289076373
1782969323066814700,7.572814697265625,11.149997037833929,1.4214426694273947,0.3037595133267343
1782969323076741600,7.58274169921875,10.611882679057121,1.1423314212754367,0.0718389092862606
1782969323086667800,7.592667724609375,9.354643314358592,1.0234032824255526,-0.3068278148561716
1782969323096593700,7.60259375,7.142398057764768,0.662848261296004,-0.6335170990020036
1782969323106519800,7.612519775390625,4.45027728087306,-0.0975510043002665,-1.0811369478613138
1782969323116445700,7.62244580078125,0.8442576985001563,-0.741932757796347,-1.6688820373781024
1782969323126372600,7.63237255859375,-5.134149187105894,-0.9825146610677241,-2.850051577222347
1782969323136298800,7.642298828125,-14.449476974642275,-0.7700651387598365,-4.606048272821307
1782969323146224600,7.652224609375,-26.385897946166992,0.41320495356023307,-6.909731457662582
1782969323156150500,7.662150634765625,-38.159059615814684,1.5317045406103134,-9.428117131370305
1782969323166077700,7.67207763671875,-45.42952291247845,1.9106814997456967,-11.323975302124023
1782969323176003600,7.682003662109375,-45.46300432631969,2.468803019893169,-13.515228624093531
1782969323185929700,7.6919296875,-38.30374982630014,0.5657371097177267,-14.000538444399833
1782969323195855600,7.701855712890625,-28.197847999656197,-1.9987289087720215,-12.93851711589694
1782969323205781800,7.71178173828125,-19.056725270903108,-2.5533713546320795,-11.353512362253666
1782969323215708700,7.721708740234375,-12.114587919676303,-2.4679198073178528,-8.497855220109225
1782969323225634600,7.731634521484375,-7.213346155691147,-1.7060840791776775,-5.607077080222964
1782969323235560700,7.741560791015625,-3.7869589178472753,-0.5052332489162683,-3.0886127883210777
1782969323245486800,7.75148681640625,-1.9323983876436948,0.5976581423744559,-0.7493614464923739
1782969323255413800,7.761413818359375,-1.0534364555090665,1.5221129747919737,0.8696531287804246
1782969323265339600,7.771339599609375,-0.4327145406723022,2.2001023988574744,1.4735299995392561
1782969323275265800,7.781265869140625,0.40372926920652386,2.434520518802106,1.562996773844212
1782969323285191700,7.791191650390625,1.3886656044632195,2.4500213086642324,1.3541777900584042
1782969323295117600,7.80111767578125,2.331159805309772,2.5084692598491904,1.1621218711555004
1782969323305044700,7.811044677734375,3.3138433932036158,2.574592129576206,0.8657965994827449
1782969323314970600,7.820970703125,4.412292125871777,2.657463597269356,0.6029530339121818
1782969323324896500,7.830896484375,5.665864784756303,2.7316327030688523,0.4017594304382801
1782969323334822700,7.84082275390625,7.232261284041404,2.768722370535135,0.5457376932621002
1782969323344749600,7.85074951171875,9.391878527775406,2.8721161095142365,1.0209086891308425
1782969323354675700,7.86067578125,12.046707392627,2.9120976990297436,1.5986054089725017
1782969323364601600,7.8706015625,14.064202230536937,2.9238118099600077,1.892634240271151
1782969323374527700,7.88052783203125,15.39275268125534,2.8319857591778037,2.065809517615288
1782969323384454000,7.890453857421875,16.450400616979596,2.7890219389811155,2.3475186733059585
1782969323394380500,7.900380615234375,16.986975345098973,2.601884625649452,2.410804858302325
1782969323404306700,7.910306640625,17.077363472032545,2.3638506532952186,2.0596420810267326
1782969323414232800,7.92023291015625,16.887914082366226,2.183748353166878,1.7639421016454695
1782969323424158500,7.930158447265625,16.60683504127264,2.0191867365196345,1.5343268519379198
1782969323434085600,7.940085693359375,16.021466763889787,1.808207359829545,1.331841601218283
1782969323444011800,7.95001171875,14.997863721108436,1.64566292822361,1.2300250484280288
1782969323453937700,7.959937744140625,13.960096543896197,1.6149664689257741,1.3001407871834934
1782969323463863600,7.969863525390625,13.221121759122608,1.5952812329858541,1.5834009717084467
1782969323473789700,7.979789794921875,12.71025781084299,1.5710142222136259,1.8408806721583009
1782969323483716600,7.989716552734375,12.12311726309061,1.5943946594096718,1.9621360849119722
1782969323493642500,7.999642578125,11.329306141757964,1.7110965005122125,2.0239729478828608
1782969323503568600,8.009568603515625,10.38075220248103,1.9409777076795696,2.2180977820143104
1782969323513494800,8.019494873046876,8.729311275377869,1.8866982743509113,1.9864516110010444
1782969323523421700,8.029421630859375,5.8687190149188035,1.206840864456445,1.185817219519615
1782969323533347600,8.03934765625,1.9861264706999062,0.009790303260833024,0.04466156402528286
1782969323543273700,8.049273681640624,-2.4768887111932036,-1.7427216189622878,-1.2868221636660395
1782969323553199900,8.059199951171875,-7.786970219266414,-3.1654590043753386,-2.7414512095108625
1782969323563125500,8.06912548828125,-14.55407833584547,-3.1441496743649244,-4.236735944740474
1782969323573052700,8.079052734375,-23.133564375936984,-1.2665570820115506,-5.621414817655086
1782969323582978800,8.088978759765626,-31.680787145805358,1.0701675178185104,-7.111839837893843
1782969323592904400,8.098904541015624,-35.7834153566122,2.0016842514462767,-8.620202081361413
1782969323602830600,8.10883056640625,-34.85038982585668,1.516218948317319,-10.403767167365551
1782969323612757800,8.1187578125,-31.43700644649267,-0.11433547729738056,-12.268096227389574
1782969323622683600,8.12868359375,-26.428684948492048,-2.325767444746941,-12.851145121914147
1782969323632609500,8.138609619140626,-20.543515149509904,-2.671183202803135,-12.216327461707591
1782969323642535700,8.14853564453125,-14.283348839330673,-2.1547942074917255,-9.628011927205323
1782969323652461800,8.1584619140625,-9.358726784279941,-1.239743309365958,-6.915645650142431
1782969323662388500,8.168388427734374,-6.222115104204416,-0.2363074408225715,-4.539517699076235
1782969323672314600,8.178314697265625,-3.9959529659390447,0.6157369660310447,-2.5692022532314063
1782969323682240800,8.18824072265625,-1.728866112089157,1.108061487405002,-1.0681608541712164
1782969323692166700,8.198166748046875,0.49705637220144266,1.277261723638326,-0.16986556827425955
1782969323702093600,8.208093505859376,2.36253343321681,1.3742108165226876,0.41442207426503297
1782969323712019700,8.218019775390625,3.8527036019116636,1.4350129296183585,0.7584906554959714
1782969323721945900,8.22794580078125,5.021858440443873,1.381556941501796,0.9222413941517472
1782969323731871500,8.23787158203125,6.007886078068614,1.3728377746038138,1.0412101572729646
1782969323741797400,8.24779736328125,6.862447143918275,1.3272300157696009,1.0412142489261924
1782969323751724500,8.257724609375,7.720041293853521,1.062841558844596,1.0122503125093876
1782969323761650700,8.267650634765625,8.601473415493965,0.7522462081484497,1.002515977219492
1782969323771576300,8.277576416015625,9.260634658840297,0.4749763500794768,0.8564680685147643
1782969323781502500,8.28750244140625,9.575597264835238,0.1708440579175949,0.6580652648031711
1782969323791428600,8.2974287109375,9.849126036679744,0.011627017168700694,0.7450891029354184
1782969323801355500,8.30735546875,10.149601852160691,-0.08419219490289688,0.9499795881658792
1782969323811281400,8.317281494140625,10.103085600179433,-0.06943754723295568,1.1914276798125356
1782969323821207600,8.32720751953125,9.881778598481416,-0.055820379160344595,1.549859205982089
1782969323831133700,8.3371337890625,9.699682494187355,0.18057240185812115,1.9110797052830457
1782969323841060400,8.347060302734375,9.572743628969787,0.513839895350486,2.2541071068979797
1782969323850986500,8.356986572265624,9.462458961433171,0.7048841529928147,2.5823291535690425
1782969323860914400,8.36691455078125,9.552851180019974,0.9028520724184811,2.761105758051574
1782969323870841600,8.376841552734374,9.740457572168111,1.0023748151831329,2.7354598601415754
1782969323880767500,8.386767578125,10.015108041518927,0.9635198916099965,2.4669433635011315
1782969323890693400,8.396693359375,10.700692596888542,0.8975674100138247,1.987679691491276
1782969323900619500,8.40661962890625,11.783322998178004,0.6756706257291137,1.4364564064249397
1782969323910545700,8.416545654296876,12.92456691647768,0.42708764070123434,1.180710105638951
1782969323920472300,8.426472412109375,14.061924933254717,0.3080322222098708,1.206440613092482
1782969323930398500,8.4363984375,14.75423265939951,0.3568668341360986,1.3408794786766172
1782969323940324600,8.44632470703125,14.681403570032119,0.46862727331370113,1.3790503655083477
1782969323950250500,8.45625048828125,13.724674507606029,0.6296404036991298,1.35576155211851
1782969323960177400,8.466177490234376,11.899411383557318,0.9824303437851368,1.1375507628701627
1782969323970103600,8.476103515625,9.461188210844993,1.0576612335972488,0.5189613300174475
1782969323980029700,8.48602978515625,5.947376956570148,0.6612815965011716,-0.05297171173095703
1782969323989955300,8.495955322265624,1.910942927160859,0.18732348355352876,-0.7900682815425097
1782969323999881500,8.505881591796875,-2.742632820510864,-0.7224275545984506,-1.994636086500436
1782969324009808600,8.51580859375,-8.573437407577037,-2.3109490841910243,-3.538889581429958
1782969324019734300,8.525734375,-15.335959365409611,-2.777794150263071,-4.719987371212244
1782969324029660400,8.535660400390626,-22.850300392019747,-1.2483546319752932,-5.816065283095837
1782969324039586600,8.545586669921875,-31.03897977284193,1.1750938001271336,-6.232157190269231
1782969324049513500,8.555513427734375,-38.00264857239723,2.7908500311911104,-6.697615478157997
1782969324059439400,8.565439453125,-40.322410200858116,2.7319787400275466,-7.524774742341041
1782969324069365500,8.575365478515625,-37.53981946396827,3.510853573513031,-9.611320320123433
1782969324079291600,8.585291748046876,-29.50673045783043,1.4680126974225043,-9.091461749005317
1782969324089217500,8.595217529296875,-20.029856017553804,0.1748669567581266,-7.791836948519944
1782969324099144400,8.60514453125,-11.722670668816566,0.014096183761209248,-6.361233652037382
1782969324109070600,8.615070556640624,-5.650062235468626,-0.34488355087563394,-4.576442823630571
1782969324118996500,8.62499658203125,-2.1335545817166564,0.00041822541207075115,-3.2598882233932613
1782969324128922400,8.63492236328125,0.3640221127182245,0.7913463386543095,-2.009415284089744
1782969324138849500,8.644849609375,2.4820810191392897,1.5899224824316798,-0.7990992908686398
1782969324148775700,8.654775634765626,3.940426309028268,2.283191747085005,-0.0797799314185977
1782969324158701300,8.664701416015625,4.909260235267877,2.7550363750100133,0.10366656457111238
1782969324168627500,8.67462744140625,5.277084662878513,2.8561849654108284,-0.5893341853391378
1782969324178553600,8.6845537109375,6.325550344237685,2.815220502337813,-0.5998107903636991
1782969324188480500,8.69448046875,6.982839363971352,2.9584388867050406,-0.588375277179107
1782969324198406400,8.704406494140626,7.37169605821669,3.0324183151513338,-1.1961375380039214
1782969324208332500,8.71433251953125,8.459898122158647,2.719026319473982,-1.1347472497567535
1782969324218258700,8.7242587890625,9.758930217447876,2.655803555102646,-0.8981674217335879
1782969324228185300,8.734185302734375,10.720215628004073,2.722757322695851,-1.3302347505435346
1782969324238111500,8.744111572265625,11.737309435021876,2.374371170526743,-1.2873548092380165
1782969324248037600,8.75403759765625,12.999881392920017,2.359771275027096,-0.4962078656133264
1782969324257963500,8.763963623046875,13.975796801853178,2.6918258855983614,0.49908422476723785
1782969324267889400,8.773889404296876,14.400146834284067,2.873899778060615,1.2865510916396974
1782969324277816600,8.783816650390625,14.541969380378722,2.839684204725921,1.5426234095096587
1782969324287742700,8.79374267578125,14.557274501538275,2.7450881047084925,1.6087044859215616
1782969324297668400,8.80366845703125,14.475032271659373,2.5006343284398316,1.4955200052902102
1782969324307594500,8.813594482421875,14.261360294884442,2.418160920153558,1.137618129017949
1782969324317521700,8.823521728515624,14.146512264955042,1.9462161928549409,1.0451602100729942
1782969324327447300,8.833447265625,14.337157586407661,1.7293045035064218,0.7342625884946435
1782969324337373400,8.84337353515625,14.44812906716466,1.5817258781030774,0.6349915554687381
1782969324347299600,8.853299560546875,14.063968421781063,1.4407441667467356,0.7720384115941822
1782969324357225500,8.8632255859375,13.40331372500658,1.5208169436320662,1.0037668540634215
1782969324367152400,8.87315234375,12.572460282480716,1.6703079785279928,1.0879805301457643
1782969324377078500,8.88307861328125,11.461080756568908,1.6281227414883672,1.0869006259545684
1782969324387004700,8.893004638671876,10.130630609709025,1.5659563543021677,0.8770164240900427
1782969324396930600,8.9029306640625,8.579669579964875,1.3146281622193754,0.3916292276985943
1782969324406857500,8.912857421875,5.987273498150706,0.8110320129856466,-0.0640977205749601
1782969324416783600,8.92278369140625,2.183897698509693,0.2726766850598156,0.26446722124963995
1782969324426709500,8.93270947265625,-3.676999244481325,-0.029548750567436218,0.5636338538281619
1782969324436635400,8.942635498046876,-13.41612644482851,0.24669826725982127,-0.47366629039421676
1782969324446561500,8.9525615234375,-25.414219151890276,0.6116977005776018,-2.5006863508880137
1782969324456488700,8.96248876953125,-34.29872975680828,0.5506347445886581,-4.9620951688766475
1782969324466414300,8.972414306640625,-38.38385972032547,-0.8260938269086182,-8.369114273905753
1782969324476340500,8.982340576171875,-34.74630284391642,-2.797796489328146,-10.515945101302862
1782969324486266600,8.9922666015625,-32.236265311837194,-3.930751887232065,-13.775778087377548
1782969324496193500,9.002193603515625,-29.856361057102678,-3.9745784617379307,-14.487184481745958
1782969324506119400,9.012119384765626,-25.647649137580395,-2.934554445509612,-12.752159847027063
1782969324516045600,9.022045654296875,-20.395944415152073,-1.6304294109955428,-9.837779297757148
1782969324525971500,9.031971435546875,-14.099174175196886,-1.1764752445481717,-7.094400042793154
1782969324535897600,9.041897705078124,-8.697066709855198,-0.8915692655775695,-5.249558942571282
1782969324545824500,9.051824462890625,-5.018009363800287,-0.5714319603584707,-3.689382925236225
1782969324555750700,9.061750732421874,-2.5550083081841466,0.26756438354738055,-1.6074430876836179
1782969324565676500,9.071676513671875,-0.638182752725482,0.7989039144270121,-0.18459464311152696
1782969324575602400,9.0816025390625,1.0458405935525894,0.8577494135621935,0.491933476229757
1782969324585529600,9.091529541015625,2.077583103647828,1.2728591047652065,1.308913437834382
1782969324595455500,9.10145556640625,2.906552047601342,1.7623248757071792,2.0805299707546827
1782969324605381400,9.11138134765625,3.656719257518649,2.2027283634468913,2.529819506391883
1782969324615307500,9.1213076171875,4.095283693262934,2.437428807464242,2.5138559213235974
1782969324625233400,9.1312333984375,4.7353655576080085,2.4637279085859656,2.3960979952968655
1782969324635160300,9.141160400390625,5.469685210052132,2.3513676038190723,2.1706563780121506
1782969324645086500,9.15108642578125,6.268766380742192,1.9981483324050902,1.5823746974006294
1782969324655012600,9.1610126953125,6.907789675945043,1.6866487263455987,1.06938272411637
1782969324664938500,9.1709384765625,7.5257304356306784,1.643960946611315,0.4150952608188614
1782969324674865400,9.180865478515624,8.38631499955356,1.4677667598374187,-0.09530870526619255
1782969324684791600,9.19079150390625,9.385036114534735,1.3570122828319668,-0.3579106075679883
1782969324694717400,9.200717529296876,10.452116479992865,1.2507377277195453,-0.21551154022701083
1782969324704643600,9.2106435546875,10.968686530959605,1.4170131625473499,0.18451229859031737
1782969324714569500,9.220569580078125,10.992651928436755,1.5675823480688034,0.46731304890997705
1782969324724496600,9.23049658203125,10.861482878303526,1.663852080386877,0.6488397558182477
1782969324734422500,9.240422607421875,10.843211893075704,1.7410700523629783,0.8205771093137562
1782969324744347600,9.25034765625,10.9355371255517,1.759021304117143,0.759697985459119
1782969324754273500,9.2602734375,11.120383989858627,1.8155489547640085,0.7001805053465068
1782969324764199700,9.27019970703125,11.459039606130123,1.7439567137151955,0.6561896801896393
1782969324774126600,9.280126708984374,11.974295651888847,1.6069444905117154,0.5170552041351795
1782969324784052700,9.290052734375,12.49440089124441,1.5419520861193536,0.4271561758928001
1782969324793978600,9.299978515625,13.121576512265205,1.6194450756445526,0.46283919143155217
1782969324803904500,9.309904541015625,13.590702090489863,1.5928171809598803,0.6349131564702838
1782969324813831700,9.319831787109376,14.051983384954928,1.4997005058452486,0.7434663971044123
1782969324823757600,9.329757568359375,14.398653965377807,1.4836211854428052,1.0101760635185986
1782969324833683700,9.33968359375,14.29515968863368,1.452962720067799,0.9911784445166587
1782969324843609600,9.349609619140624,13.424950387275219,1.2118646839678286,0.5917335015658289
1782969324853535700,9.35953564453125,11.695848128342627,0.9621484571263194,0.23341106179393828
1782969324863462700,9.369462646484376,8.950782527726888,1.0820371115714311,-0.16404402251392602
1782969324873388500,9.379388427734375,3.965142817133665,0.6651257047086954,-1.4136518694207072
1782969324883314700,9.389314697265625,-7.072404484084248,0.24120032743066547,-1.9003906996168196
1782969324893240600,9.399240478515624,-16.180356180119514,1.7040687938325105,-0.2891336066029966
1782969324903167700,9.409167724609375,-26.398020930159092,3.4478827380761503,-0.3791118375614285
1782969324913093600,9.41909375,-31.572655272388456,3.362460416856408,-1.5370667982958257
1782969324923019500,9.42901953125,-32.05652483075857,1.6745811258025467,-3.307296748039126
1782969324932945700,9.438945556640626,-31.633997337579725,0.884050560510531,-4.252255585433542
1782969324942871600,9.44887158203125,-29.429264940834045,1.3582605293273926,-6.063915423804521
1782969324952798700,9.458798828125,-26.723826417207718,0.6714958242624998,-6.979193700945377
1782969324962724600,9.468724609375,-22.5205061275959,0.08619659352786839,-7.213804420852661
1782969324972650500,9.478650390625,-17.18244998640418,-0.3933643809281289,-6.557776799356937
1782969324982576600,9.48857666015625,-11.594769096046685,-0.3272488907899707,-5.234819054079056
1782969324992503600,9.498503662109375,-7.044084983050823,0.3833746826376766,-3.486569027084112
1782969325002429700,9.5084296875,-3.6102865921676157,0.3974308266494423,-2.0999333210133013
1782969325012355600,9.51835546875,-1.4880109448343515,0.3091013858113438,-1.4432342299968004
1782969325022281700,9.52828173828125,0.0570294626891613,0.3362650678731501,-1.1212614529788494
1782969325032207600,9.53820751953125,1.5523089372217653,0.6318946123667061,-0.3903250132322311
1782969325042134500,9.548134521484375,3.1468554261922836,0.9289340236581861,0.2547908266920596
1782969325052060700,9.558060791015626,4.5506426119416945,1.1115785556152462,0.6766930275794119
1782969325061986600,9.567986572265625,5.706577903416752,1.2060710491277278,0.7036290383651852
1782969325071912400,9.577912353515625,6.643979749560356,1.2437027145162225,0.5859914507824927
1782969325081839600,9.587839599609374,7.449584769061207,1.1685340762853622,0.4089485382247716
1782969325091765800,9.597765869140625,8.03461227018237,1.276863956492394,0.38155309323370457
1782969325101691600,9.607691650390626,8.68395529934764,1.2789242500230669,0.13879939888119697
1782969325111617500,9.617617431640625,9.301303353837131,1.137009203339368,-0.14371179390735925
1782969325121543700,9.627543701171875,9.803026548805832,0.9741152276434004,-0.47504729642383753
1782969325131470600,9.637470703125,10.198277328002453,0.735427613686025,-0.5630482359599321
1782969325141396500,9.647396484375,10.636628997778892,0.7570733360439539,-0.10540259458348154
1782969325151322600,9.657322509765624,11.154472137421369,1.0637181955486534,0.5668042640252039
1782969325161248800,9.667248779296875,11.727688204717635,1.3263739834621548,1.0886477618828416
1782969325171175700,9.67717578125,12.052081486880779,1.1630226193875073,1.3413114403530955
1782969325181101600,9.6871015625,12.237884628999232,0.8056123260244726,1.4800120550349354
1782969325191027700,9.69702783203125,12.444562216842174,0.4827022681564092,1.5689664959035814
1782969325200953600,9.70695361328125,12.529327243196963,0.12353490199297666,1.5242042479828
1782969325210879500,9.71687939453125,12.66111588653326,-0.031005963638424873,1.5004633069112896
1782969325220806700,9.726806640625,12.861738996642828,-0.0753662066295743,1.5268828195422888
1782969325230732800,9.73673291015625,12.897086204355954,-0.007131897706538439,1.5620774670422077
1782969325240658400,9.746658447265625,12.502529252642393,0.19007336678355932,1.6891735686480998
1782969325250584600,9.75658447265625,11.64282147155404,0.6034817339614034,1.6376070475399493
1782969325260510700,9.7665107421875,10.689030216145515,1.0981848210349678,1.3239718907564877
1782969325270437600,9.776437744140624,9.90678093779087,1.3114274664819239,1.0277659346144645
1782969325280363500,9.786363525390625,9.113066847091913,1.504939429412037,0.7556865578606724
1782969325290289700,9.79628955078125,8.460332421922683,1.450881237618625,0.46925125043094157
1782969325300215800,9.8062158203125,7.108312248289585,1.586353830164671,0.4195205664478242
1782969325310142500,9.816142578125,3.5320056671351194,1.9842443102151155,0.23851269578188655
1782969325320068600,9.826068603515624,-2.4943027873307466,1.8199400293298065,-0.8044671015121042
1782969325329994800,9.835994873046875,-10.699573821991681,2.26863116068244,-1.0880911509133875
1782969325339920600,9.845920654296876,-17.231048305356502,2.7039269500195977,-1.0846991703875362
1782969325349846500,9.855846435546875,-19.495369201624392,2.573251236361265,-2.008779762665182
1782969325359773700,9.865773681640626,-19.361328979969024,1.7060545608222484,-2.948348869845271
1782969325369699800,9.875699951171875,-19.935432351493834,1.1836118184298277,-3.7838001615554093
1782969325379625500,9.88562548828125,-22.83255898362398,1.479928760665655,-4.137950284078717
1782969325389551600,9.895551513671874,-26.285278348076343,2.493173491039872,-5.216055901420116
1782969325399478800,9.905478759765625,-27.49805605523586,2.6007363323971626,-7.023685169100761
1782969325409404400,9.915404296875,-25.45160517195463,1.8951580596603452,-8.721035029941797
1782969325419330600,9.92533056640625,-21.42410205249786,1.1446008275121449,-8.390717618426681
1782969325429256700,9.935256591796875,-16.315734956902265,0.8996426819179206,-6.819577139484882
1782969325439182600,9.9451826171875,-11.001134510099888,0.8857852753486484,-5.228334952756763
1782969325449109500,9.955109619140625,-6.5920397189646955,0.8035290900096297,-3.7540678711146116
1782969325459035600,9.96503564453125,-3.7767946667075156,0.9028981035172938,-2.8472715911149975
1782969325468961800,9.9749619140625,-2.212190311536193,1.1533873605579137,-1.5375569199003278
1782969325478887700,9.9848876953125,-1.0211708471983671,1.2445435492545365,-0.20183482398688793
1782969325488814600,9.994814697265625,0.6127724171370268,1.2679890145108104,0.5423251083396375
1782969325498740700,10.00474072265625,2.5604946306407452,0.8802093018472195,0.7326188398756086
1782969325508666600,10.01466650390625,3.9856495985895393,1.1394211598519235,1.6062171991504728
1782969325518592500,10.024592529296875,5.312348283961415,1.5599214580520986,2.3784765600189566
1782969325528518700,10.0345185546875,6.207942786467075,1.689230121140927,2.84642871055007
1782969325538445800,10.04444580078125,6.9618895149230955,1.1539525201600045,2.5104972585454584
1782969325548371500,10.054371337890625,7.554348627349734,0.5101369491793215,1.6296990508943796
1782969325558297600,10.064297607421874,7.818406391015649,0.23320465250164268,0.9296018399171531
1782969325568223700,10.0742236328125,7.873908498007059,0.23140870899558066,0.6692180155236274
1782969325578150400,10.084150390625,7.64033296636641,0.4679002742134034,0.8586451933581382
1782969325588076500,10.09407666015625,7.391043732765317,0.7210223639756441,0.9532975536074488
1782969325598002700,10.104002685546876,7.5303884905695915,0.8350242984697223,0.6417739821504801
1782969325607928600,10.113928466796875,8.147441946026682,0.8175777813673019,0.4567265537701547
1782969325617854700,10.123854736328125,8.869883529150485,0.8676935191452503,0.65847523384355
1782969325627781600,10.13378173828125,9.607629064390062,1.0878897831223904,0.925481106725335
1782969325637707800,10.143707763671875,10.182907909435032,1.1211208754643798,0.969409680300951
1782969325647633700,10.153633544921876,10.260096363055705,1.1320737927637994,0.9290991510920226
1782969325657559600,10.1635595703125,9.795018014395236,1.2527705487214027,0.8695040756985545
1782969325667486700,10.17348681640625,8.253883382138609,1.3213314592503012,0.7287889793891459
1782969325677412600,10.18341259765625,6.139059804376959,1.468857916074991,0.6435916260316967
1782969325687338500,10.19333837890625,4.210146336239576,1.5112448131665586,0.46586423834115265
1782969325697264600,10.2032646484375,2.4916636709988116,1.4429200494810939,0.33923443907275797
1782969325707190500,10.2131904296875,0.9768494749128818,1.2244532396450638,0.2596921158023178
1782969325717117400,10.223117431640626,-0.16779986791610718,0.8786182332634925,0.22543708724007008
1782969325727043600,10.233043701171875,-0.7663052747696638,1.2509459636427462,0.3044805941428989
1782969325736969500,10.242969482421875,-1.8487386921823024,0.5803070484705269,0.2204577644575387
1782969325746895600,10.2528955078125,-2.2502724971711636,-0.019624591793864964,-0.07485204656235873
1782969325756822500,10.262822509765625,-2.6173709485948082,-0.3012698884680867,-0.2110403130970895
