time,seconds_elapsed,z,y,x
1782969350657193500,0.079193359375,0.3378577438920736,-0.13546572441384194,-3.485095739661157
1782969350667119600,0.08911962890625,2.7507600128650664,-0.16557473921254276,-2.923721501328051
1782969350677045500,0.09904541015625,4.745158052825928,0.11470058428272605,-2.3969496436901387
1782969350686971400,0.108971435546875,6.182829387998581,0.164016988376528,-1.9958760035589336
1782969350696897500,0.1188974609375,7.6174997877895825,0.4215279607474804,-1.2291856749944388
1782969350706824400,0.128824462890625,8.880603660607337,0.9338188730902969,-0.47985754624977706
1782969350716750300,0.138750244140625,10.222430941528081,1.533477103240788,0.36036278649307785
1782969350726676500,0.148676513671875,11.359462795090675,2.221041434250772,0.9247322611194103
1782969350736602600,0.1586025390625,12.108933254915476,2.706613997146487,0.855270602358505
1782969350746528500,0.168528564453125,12.68254445900917,2.822023752611875,0.64160410547629
1782969350756455400,0.178455322265625,13.218929802036284,2.8892770876735447,0.18249584420137105
1782969350766381800,0.1883818359375,13.858572105920315,3.0988667635709044,-0.14538279585950076
1782969350776307700,0.1983076171875,14.520709150207042,3.2959397799834607,-0.26551461141072213
1782969350786233600,0.208233642578125,14.83412744936943,3.0717107533589005,-0.9765716808848083
1782969350796159700,0.21815966796875,14.35840144996643,2.9236493128746748,-1.1040934605568646
1782969350806086700,0.228086669921875,14.039425516676902,3.2231974921166895,-0.7186175678562372
1782969350816012500,0.238012451171875,13.63549049576521,3.4700717735305426,-0.270945002429001
1782969350825938700,0.247938720703125,12.832206612688303,3.6899028574571013,-0.062368850955739616
1782969350835864800,0.25786474609375,12.706500504136084,3.769557116669416,0.19257870066799224
1782969350845790700,0.267790771484375,12.897386648607254,3.691460900554061,0.49179830554276704
1782969350855717600,0.277717529296875,12.854948021328449,3.6456022356987,0.9275996332492679
1782969350865643800,0.287643798828125,12.195806067204474,3.6523055327296254,1.5487763791814446
1782969350875570000,0.29756982421875,10.689219601237774,3.3140959066599605,1.7917689968563615
1782969350885495600,0.30749560546875,7.530068757095933,2.82018776935637,0.7705071103736758
1782969350895421700,0.317421630859375,1.3257464992135763,2.6442878893539308,-1.3545347868025301
1782969350905348900,0.327348876953125,-7.43219758093059,2.7752181622952223,-4.071315957698226
1782969350915274500,0.3372744140625,-18.437863889241218,3.479577560761571,-8.032315099155902
1782969350925200600,0.34720068359375,-30.146017372405527,3.6429096356138584,-13.439652281844616
1782969350935126800,0.357126708984375,-38.00348093156814,2.4931524482518435,-19.57152188245654
1782969350945052700,0.367052734375,-39.690986274743075,-0.4372432701431215,-24.48801148445606
1782969350954979600,0.3769794921875,-37.35150755389929,-3.5578088014334437,-26.667389659714697
1782969350964905700,0.38690576171875,-32.67212691836357,-4.900054015505313,-25.387744986462593
1782969350974831900,0.396831787109375,-25.56110015041828,-4.409516815939545,-20.701020417904854
1782969350984757800,0.4067578125,-17.44071864527464,-2.9363597413659095,-14.230434410744905
1782969350994683600,0.41668359375,-11.235482195156813,-1.5803624807953833,-7.954854258334636
1782969351004610800,0.42661083984375,-7.372087103360891,-0.653992316275835,-3.36392990488708
1782969351014536700,0.43653662109375,-4.403495655953884,0.07988646053299307,-0.08548544958382845
1782969351024462600,0.446462646484375,-1.5511293720483779,0.627817864447087,2.3869211477592587
1782969351034388700,0.456388671875,1.142400102597475,1.0416250216841698,4.209259324271977
1782969351044314600,0.466314697265625,3.406310079976916,1.3737640956684947,5.5935471520423885
1782969351054241500,0.476241455078125,5.54658374081552,1.5823650527894495,6.394311161252856
1782969351064167700,0.486167724609375,7.7926324828118085,1.5145419550158083,6.7861658682703965
1782969351074093800,0.49609375,9.848798704421519,1.5267448723763226,7.04086309839487
1782969351084019700,0.506019775390625,11.773388464140892,1.6892609546706079,7.328978029474616
1782969351093945900,0.51594580078125,14.445261402773856,1.9816691990301012,8.071482157418131
1782969351103872800,0.525872802734375,17.469128747200966,2.34842512062639,9.028924921071528
1782969351113798700,0.535798583984375,20.273250932419298,1.9532871541544794,10.402205324876308
1782969351123724800,0.545724853515625,21.988659012520312,1.692696189816296,11.136496920269726
1782969351133650700,0.555650634765625,22.46761391084194,2.0177210478812455,11.280941631561516
1782969351143576600,0.56557666015625,21.8855096036911,2.080078719855845,11.269908196371793
1782969351153503700,0.575503662109375,20.69764889564514,1.937642425777018,11.038307764196395
1782969351163429600,0.5854296875,19.44505589544773,1.7417970514632761,10.80882914648056
1782969351173355800,0.595355712890625,18.375906907022,1.4644645034216344,10.595028574889898
1782969351183281700,0.60528173828125,17.02517268154621,1.1924579727083444,10.172419248646497
1782969351193207800,0.615207763671875,15.430898579776287,0.9799158767461776,9.514071075248717
1782969351203134700,0.625134765625,13.834679189157486,0.8095536109961569,8.570295017898083
1782969351213060600,0.635060546875,12.128794139683245,0.6615120442561805,7.6362050727814434
1782969351222986800,0.64498681640625,9.823684136909247,0.6561882188849151,6.602592092639208
1782969351232913000,0.654912841796875,7.005060548129677,0.47297947717383504,5.26916439127326
1782969351242838500,0.664838623046875,4.117345887467265,-0.10958280287757516,3.922861133982241
1782969351252765700,0.674765625,1.0614069959968329,-0.8245644253842532,2.3505226774275303
1782969351262691800,0.68469189453125,-3.6540608519643545,-1.3737119270898401,0.22650398581922052
1782969351272617700,0.69461767578125,-10.70291494911313,-1.9905480865344405,-4.208136165460944
1782969351282543600,0.704543701171875,-18.14814678366184,-3.5611855843901634,-9.882520941281317
1782969351292469800,0.7144697265625,-24.54004562307596,-4.432107125671208,-14.396799861943721
1782969351302396700,0.724396728515625,-30.38025867447853,-3.9371342817455526,-18.668081342625616
1782969351312322600,0.734322509765625,-35.141715535676475,-3.5494542300641534,-23.438453331685064
1782969351322248700,0.744248779296875,-36.906518053543564,-4.044252009683847,-27.544448388576505
1782969351332174800,0.7541748046875,-35.724911729717256,-4.149836536705494,-28.768086512446402
1782969351342100700,0.764100830078125,-30.909891620635985,-3.0072295133590696,-26.38802326775789
1782969351352027600,0.774027587890625,-23.98891863799095,-1.9014624205015598,-20.74323458877802
1782969351361953800,0.783953857421875,-16.81772586289644,-0.10130319644063711,-14.949858107352256
1782969351371880000,0.7938798828125,-11.47743334095478,1.0580961178831756,-10.379986478805542
1782969351381805600,0.8038056640625,-8.808188997259736,1.4536054018855094,-7.491177593165635
1782969351391731700,0.813731689453125,-7.206648119357228,1.6789768765434623,-5.378325023216009
1782969351401659000,0.823658935546875,-5.797988943657279,2.065683845409006,-3.4740994216114283
1782969351411584500,0.83358447265625,-4.164018791314959,2.3436427086554468,-1.7597011030748486
1782969351421510700,0.8435107421875,-2.249171257930994,2.507131289243698,-0.4167220217704773
1782969351431436800,0.853436767578125,-0.4836135377824306,2.598655142208934,0.5548769852682948
1782969351441362700,0.86336279296875,1.0321756408154963,2.777110844174027,1.440956055931747
1782969351451289600,0.87328955078125,2.4184587340563533,2.9967738780573008,2.1838161577060817
1782969351461215700,0.8832158203125,3.725193074285984,3.139491619426012,2.5925766990780827
1782969351471142000,0.893141845703125,5.11073148663938,3.1989860109239814,2.8390093742042777
1782969351481067800,0.90306787109375,6.60048079957366,3.3200787804618477,3.238371972633898
1782969351490993700,0.91299365234375,8.158157985830307,3.557907877893746,3.6662858350262044
1782969351500920800,0.9229208984375,10.056094716423749,3.782720841886103,4.183466126845777
1782969351510846700,0.9328466796875,12.54227791018486,3.999954895056784,4.860854516278207
1782969351520772600,0.942772705078125,15.412642792117595,4.433512316294014,5.6828702800929545
1782969351530698800,0.95269873046875,17.98747808279991,4.995569568455219,6.791903535139561
1782969351540624600,0.962624755859375,20.15163530805111,5.440336950492859,7.713300587421656
1782969351550551600,0.972551513671875,21.608193714523313,5.63235589838624,8.249502975097299
1782969351560477700,0.982477783203125,21.805584418582914,5.665563755983114,8.336896596390009
1782969351570403800,0.99240380859375,21.10510040024519,5.556649792277812,8.075653890144824
1782969351580329700,1.002329833984375,20.010082811069488,5.387127338352799,7.543485872551798
1782969351590255600,1.012255615234375,18.58621905197501,5.188454777789116,6.693333270794152
1782969351600182800,1.022182861328125,17.02664450766444,4.791915127825737,5.93090571424067
1782969351610108700,1.032108642578125,15.709674604624508,4.349234196673334,5.20081040149331
1782969351620034800,1.042034912109375,14.71927825039625,3.779422092601657,4.359775756692886
1782969351629960700,1.051960693359375,13.792718700784445,3.249234142909944,3.564685116943717
1782969351639886600,1.061886474609375,13.007861285758018,2.867041874989867,3.2697008846163746
1782969351649813800,1.071813720703125,12.398401354169845,2.762731897948682,3.294562938672304
1782969351659739600,1.08173974609375,11.615215671747922,2.5534926429241893,3.0861832230865955
1782969351669665800,1.091665771484375,10.614099186062813,2.137638051638007,2.4355507386326787
1782969351679591700,1.101591796875,9.161251909068227,1.5877531755685805,1.7538824799239634
1782969351689517800,1.111517822265625,7.305260469278693,1.0045029132530092,1.100161674065888
1782969351699444700,1.12144482421875,4.862456398516893,0.6621712388172746,0.15687544605880974
1782969351709370600,1.13137060546875,1.6127023233860731,0.7092505315087735,-1.1390388094708324
1782969351719296800,1.141296875,-2.4061212305307387,1.0681269519016146,-3.1336750421017405
1782969351729222700,1.15122265625,-7.000450423985719,0.7227965340413153,-6.762407976064085
1782969351739148500,1.1611484375,-12.801927209758757,-1.056156528122723,-12.288399010705946
1782969351749075700,1.17107568359375,-22.060908256173132,-2.8444442587345837,-19.66113727145195
1782969351759001900,1.181001953125,-36.1726484829545,-2.3800305114626883,-28.461993441605568
1782969351768927200,1.19092724609375,-48.2719453099966,-2.1940996513113378,-36.17494214684963
1782969351778853400,1.200853271484375,-50.40315888154506,-3.1356694307893513,-39.4065625993967
1782969351788779300,1.210779296875,-43.03858054637909,-3.008623890326917,-38.24137666449547
1782969351798706200,1.2207060546875,-28.088956247782704,-3.7626965832501647,-29.805161615741252
1782969351808632300,1.23063232421875,-13.174281682014465,-2.331405742894858,-20.608520997905728
1782969351818558200,1.24055810546875,-3.853909470570087,-1.3915036043681204,-13.62192724983692
1782969351828484400,1.250484375,0.16894260821044443,-1.3282874158680438,-8.296265310794114
1782969351838410500,1.260410400390625,2.191710418087244,-1.0631015249550342,-3.842678466981649
1782969351848337400,1.27033740234375,4.079194728249311,-0.17514701580852268,0.05562368754446506
1782969351858263300,1.28026318359375,5.627237240198254,0.8409327918611467,3.1882492205932733
1782969351868189400,1.290189453125,6.517721852344274,1.4697330914743243,5.440642070919275
1782969351878115300,1.300115234375,7.084285476014018,1.9275746207490563,7.365227154463529
1782969351888041200,1.310041259765625,6.944048153284192,2.6330110007971523,8.264864794880152
1782969351897967400,1.31996728515625,6.618468876206874,2.7843367037743327,8.458522742152214
1782969351907894300,1.329894287109375,6.624490620714425,2.7745272574216124,8.120063525235652
1782969351917820200,1.339820068359375,6.869582987147569,2.8671941429421306,7.489020707392692
1782969351927746300,1.349746337890625,7.397139127030968,3.140313749463856,6.6240002068489785
1782969351937672400,1.35967236328125,8.362807282716036,3.579615851832926,5.900725095510483
1782969351947599400,1.369599365234375,10.002841265141964,4.002357864545285,5.631861392867565
1782969351957525200,1.379525146484375,12.6973691031754,4.168022766259313,6.458918950241804
1782969351967451400,1.389451416015625,16.022458113014697,4.488823284627497,7.8576663882583375
1782969351977377500,1.39937744140625,18.927971465218064,4.750428686705232,8.612161982768773
1782969351987303200,1.40930322265625,20.384087973141668,4.513080358527601,8.899331741952896
1782969351997229300,1.419229248046875,20.74613615543842,4.140308537642658,8.535608319920302
1782969352007156500,1.429156494140625,20.299028347754476,3.8548379835918545,8.03673759177327
1782969352017082400,1.439082275390625,19.190073418641088,3.632246202780306,7.4875377753585575
1782969352027008300,1.44900830078125,17.267253591203687,3.4874931561917064,6.735802877733111
1782969352036934400,1.458934326171875,15.158279908514022,3.3571088266953826,6.225354524517059
1782969352046860300,1.4688603515625,13.39943249965906,3.141290777802467,5.978184767287969
1782969352056787200,1.478787109375,11.98239946336746,2.9937139059647917,5.660196675992012
1782969352066713300,1.48871337890625,10.835593234765529,2.850444960454106,5.40706187287867
1782969352076639500,1.498639404296875,9.986606754177808,2.4541379502028224,5.312928714197874
1782969352086565400,1.5085654296875,9.366795524445175,1.8468661763086913,4.930971716338396
1782969352096491300,1.5184912109375,8.534596512529253,1.0531439023032785,4.5529862524583935
1782969352106418400,1.52841845703125,6.850723972898721,0.2421732641160488,4.029452207697927
1782969352116344600,1.538344482421875,3.59379196896255,-0.4730998886831104,3.0210028949066996
1782969352126270200,1.548270263671875,-1.6490508170962332,-0.9529878300711512,1.218050094604492
1782969352136196400,1.5581962890625,-9.145124365609883,-1.4907976529434321,-1.4176292486190796
1782969352146122200,1.568122314453125,-19.04960345619917,-2.2472389746941626,-5.781401965993642
1782969352156049200,1.578049072265625,-29.359063861882685,-3.1107895488157866,-12.695308078992365
1782969352165975300,1.587975341796875,-39.02617445828914,-4.20331269082725,-21.084389620649812
1782969352175901400,1.5979013671875,-45.65924001512527,-5.2450768287211655,-29.11537668607235
1782969352185827300,1.607827392578125,-43.72625885915756,-5.888441367998719,-33.61499813582897
1782969352195753200,1.617753173828125,-34.101399843025206,-6.726549311697482,-30.673363668930527
1782969352205680400,1.627680419921875,-22.892678229022025,-6.245460908478498,-25.017953058171273
1782969352215606500,1.6376064453125,-14.771436307656764,-4.5591298697799445,-19.546966117870806
1782969352225532400,1.647532470703125,-11.069992357748745,-3.396896062682569,-14.509051445639132
1782969352235458300,1.657458251953125,-10.122904399371146,-2.2143680939666925,-10.601199957001208
1782969352245384200,1.66738427734375,-9.08576792127788,-0.3094552407503128,-6.983543128326535
1782969352255311400,1.677311279296875,-7.309870593422651,1.658738098374009,-3.5453839118853208
1782969352265237200,1.6872373046875,-5.345210689121484,2.959214547252655,-0.8356053132280706
1782969352275163400,1.697163330078125,-3.487974802228808,3.834327402743697,0.9562745966568589
1782969352285089300,1.70708935546875,-1.7319307603567837,4.503883198854327,1.9478446708396076
1782969352295015400,1.717015380859375,-0.1351204181075096,5.033129776042699,2.3604405525907874
1782969352304942300,1.7269423828125,1.611982776939869,5.460390727484226,2.5854312112376094
1782969352314868500,1.736868408203125,3.677819913214445,5.869567740702629,2.690015913566947
1782969352324794400,1.74679443359375,5.975098491710424,6.447406791624426,2.737360433065891
1782969352334720300,1.75672021484375,8.098578838658332,6.977235552614927,2.6514409759789705
1782969352344646100,1.766646240234375,10.075851556295156,7.486583251112699,2.916026270650327
1782969352354572300,1.776572265625,12.551148614382743,8.240749759799241,3.5236259613245724
1782969352364499500,1.78649951171875,15.396084456026554,9.244792362064123,4.372608350259066
1782969352374425300,1.79642529296875,18.132212716948985,10.226969169479608,5.558583390688896
1782969352384351200,1.806351318359375,20.261113919901845,10.839232468050717,6.656175214266777
1782969352394277400,1.81627734375,21.306734733223912,11.028576643776892,7.136532965123653
1782969352404204300,1.826204345703125,21.40098304271698,10.864620591807364,7.127553539854287
1782969352414130400,1.83613037109375,21.110606596446036,10.488374372810124,6.844481279116868
1782969352424056300,1.846056396484375,20.80266877452135,9.820858558094502,6.508145045703649
1782969352433982500,1.855982421875,20.69222219442129,8.8897023283422,6.295903978514671
1782969352443908400,1.865908447265625,20.64928789258003,7.801782003951073,6.145208390134573
1782969352453834200,1.875834228515625,20.508955877304075,6.774565446847677,6.118670511820912
1782969352463761400,1.885761474609375,19.962586900401114,5.747810662037134,5.719294761648774
1782969352473687300,1.895687255859375,18.60095251072645,4.823602643987536,4.936902275431156
1782969352483613200,1.90561328125,16.36865289261937,4.250156859588623,3.9977386803120374
1782969352493539300,1.915539306640625,13.575662342268227,3.6564752196297046,3.0010470253318546
1782969352503465500,1.925465576171875,10.739958439350128,2.7009809596955776,2.2024702970325944
1782969352513392400,1.935392333984375,7.947097068336605,1.8385723952159285,1.6715961186423898
1782969352523318300,1.945318359375,5.472275811067223,0.8878644927754997,1.1837763613417744
1782969352533244400,1.955244384765625,2.689976750600338,-0.1455775147140026,-0.15511223577857017
1782969352543170600,1.965170654296875,-0.7605646852910518,-1.1747215327486396,-1.9610829225972293
1782969352553096200,1.97509619140625,-4.086411820021271,-2.408186930888891,-3.5569910553097723
1782969352563023400,1.9850234375,-7.628379493722319,-3.6214153044253585,-5.003809573534131
1782969352572949500,1.994949462890625,-14.011139333391188,-4.470880800701678,-7.179142272794246
1782969352582875100,2.004875244140625,-23.03616198632717,-4.825685587741434,-11.498235305964947
1782969352592801300,2.01480126953125,-31.57106303476095,-4.852946227371692,-17.5364235833168
1782969352602727400,2.0247275390625,-38.461930801999564,-5.154912573671341,-23.37386132478714
1782969352612654300,2.034654296875,-41.622003437161446,-5.7207291783660645,-27.147796510410306
1782969352622580200,2.044580322265625,-38.38947580664158,-6.058135671359301,-28.102124356913563
1782969352632506400,2.05450634765625,-30.072444771194455,-6.44892947114706,-26.43696645462513
1782969352642432500,2.0644326171875,-19.93199068660736,-6.020031858414411,-21.71819605798721
1782969352652358400,2.0743583984375,-10.78674824757576,-4.361959530472755,-15.716552089178562
1782969352662285300,2.084285400390625,-4.627110350072384,-2.896216531547904,-10.161796147823333
1782969352672211500,2.09421142578125,-1.2809031488806009,-1.79207484793514,-6.0623103266954415
1782969352682137300,2.104137451171875,0.3936795843571424,-0.9001226474545896,-3.099002372649312
1782969352692063200,2.114063232421875,1.3828455200076102,-0.12766703336164353,-0.8221829370751976
1782969352701989400,2.1239892578125,2.180922482091188,0.613915157431364,0.958083399644494
1782969352711915300,2.133915283203125,3.0020471422851083,1.2198264566272496,2.2430635887056587
1782969352721842200,2.14384228515625,3.829940565961599,1.6206383770823478,3.0595819241479036
1782969352731768300,2.153768310546875,4.609439668825268,1.7990993397444486,3.4193551472499966
1782969352741694500,2.163694580078125,5.376590746769309,1.9907307496249675,3.547702125699818
1782969352751620400,2.173620361328125,6.131071143710613,2.1338068029120563,3.5409143652558326
1782969352761546500,2.18354638671875,6.835037743467092,2.257192359562218,3.26801336992085
1782969352771473400,2.193473388671875,7.556959102109074,2.3857871752932667,2.919675733068585
1782969352781399600,2.203399658203125,8.446449442520738,2.617353120677173,2.919614066009223
1782969352791325700,2.21332568359375,9.763089090692997,2.9715628644332286,3.1448820802927013
1782969352801251300,2.223251220703125,11.47743450999856,3.3634605338096617,3.531342234790325
1782969352811177500,2.233177490234375,13.132535128653048,3.739624042959511,4.018758671987056
1782969352821104600,2.243104736328125,14.514939919155836,4.104856992772222,4.460269682577252
1782969352831030300,2.2530302734375,15.728753399103878,4.452266701124608,4.819741584645212
1782969352840956400,2.262956298828125,16.60122363113165,4.744946455901861,5.180174440699815
1782969352850882600,2.272882568359375,16.994964590287207,4.890681791526079,5.531266344696283
1782969352860808400,2.282808349609375,17.019514509654044,4.965141696965694,5.819028809076547
1782969352870735400,2.2927353515625,16.66235293035507,4.894504564684629,6.080741470921039
1782969352880661500,2.30266162109375,16.016575484716892,4.429334738348424,6.175964762926101
1782969352890587600,2.312587646484375,15.281663127076625,4.178656388476491,5.561439949163794
1782969352900513500,2.322513427734375,14.132331763911246,3.7444367039382453,4.988846397680044
1782969352910439400,2.332439453125,12.45950961060524,3.270813229772448,4.518989582571387
1782969352920366600,2.34236669921875,10.938034203064442,3.0033044488698244,4.2440374999254935
1782969352930292500,2.35229248046875,10.167103606581687,2.815978627228737,4.3841172940060495
1782969352940218400,2.36221826171875,9.831729496198893,2.5058564470022917,4.572512498444318
1782969352950144500,2.37214453125,9.567450783258677,2.0687828343376515,4.434815800108015
1782969352960070400,2.3820703125,8.839062858951092,1.40200877790004,4.107387972554564
1782969352969996500,2.39199658203125,7.034636186704039,0.7817784459725022,3.817973064792156
1782969352979923500,2.40192333984375,3.705222299402952,0.0678957246184349,2.9422008686095475
1782969352989849600,2.411849609375,-2.9784318734198805,-0.9165404060311615,0.7127291674047708
1782969352999775500,2.421775390625,-13.854757516068219,-1.952512808781117,-3.918950682540238
1782969353009701400,2.431701416015625,-27.43391763732433,-2.882830688013136,-10.805071839773655
1782969353019627500,2.44162744140625,-41.02813854959011,-3.6999718315288423,-19.596077647042275
1782969353029554400,2.451554443359375,-49.76397718091011,-4.04890831105709,-26.793225532126424
1782969353039480300,2.461480224609375,-47.386815502882,-3.7067584229290484,-30.917754609096047
1782969353049406500,2.471406494140625,-35.117167954397196,-5.762048446226119,-28.195633830738068
1782969353059332400,2.481332275390625,-21.248139920914173,-6.529345654642581,-22.676313944423196
1782969353069258500,2.491258544921875,-11.063471431547402,-5.371900543126464,-16.434719063723087
1782969353079185400,2.501185302734375,-6.060780632910132,-4.148916206990182,-10.290285749614238
1782969353089111600,2.511111572265625,-4.279568832033872,-2.4254386560715733,-5.474475366938114
1782969353099037400,2.521037353515625,-3.2609903394162654,-0.30807036226317286,-1.663682276777923
1782969353108963600,2.530963623046875,-1.879275284743309,1.3597332322284579,1.4293430672883987
1782969353118889500,2.540889404296875,-0.16679098313450813,2.1240932181492447,3.6269577409833667
1782969353128816400,2.55081640625,1.1962152794152499,2.679704070650041,4.320605483560263
1782969353138742500,2.560742431640625,2.187228304237127,2.981266220062971,4.3507606755882495
1782969353148668400,2.57066845703125,2.9166917488217354,3.1385595992729067,4.114341152693331
1782969353158594300,2.58059423828125,3.8945325728595255,3.363045815528929,3.9692257025331257
1782969353168520400,2.5905205078125,5.285335189351439,3.5892712766677137,3.732411919623613
1782969353178447400,2.600447265625,6.804711578786373,3.661203124934435,3.3031238462686536
1782969353188373500,2.61037353515625,8.415564474913477,3.6050235570728777,2.9035575419604776
1782969353198299400,2.62029931640625,10.062191279733181,3.6563135993272065,2.879679238244891
1782969353208225500,2.6302255859375,11.741384721636772,3.9820740781903265,3.1670962501883504
1782969353218151700,2.640151611328125,13.40208155286312,4.363380210925638,3.5542432179063557
1782969353228078300,2.650078369140625,14.998763884818553,4.800775602890551,4.011965650846064
1782969353238004500,2.66000439453125,16.241228289711476,5.132350613251329,4.074612368895113
1782969353247930600,2.6699306640625,17.298610852497816,4.611117831170558,4.845000236803293
1782969353257856300,2.679856201171875,17.901324232435226,4.670629466064274,5.001827459806203
1782969353267782400,2.689782470703125,18.26045681954622,4.787622691328823,5.148411521214246
1782969353277708500,2.69970849609375,18.23345424633026,4.653995434388518,5.416999329525232
1782969353287635500,2.709635498046875,17.784812653207776,4.342705379426479,5.563431999763846
1782969353297561300,2.719561279296875,16.73067184882164,4.03095735156387,5.0937353436529635
1782969353307487500,2.729487548828125,15.37842955687046,3.8452681912139055,4.620794298793375
1782969353317413600,2.73941357421875,13.926991562151908,3.719319213816523,4.116271536234021
1782969353327339500,2.749339599609375,12.548518265879153,3.5786677573278545,3.5471608584299683
1782969353337266400,2.759266357421875,11.48843638100624,3.2030820480659603,3.028756870034337
1782969353347192600,2.769192626953125,10.65701595224738,2.7297762615472076,2.789609091219306
1782969353357118500,2.779118408203125,9.608335751354694,2.139644423024356,2.3306150309085845
1782969353367044400,2.78904443359375,8.037552415287495,1.290510204529017,1.5233932238608598
1782969353376970500,2.798970458984375,5.6886248980969185,0.5408325316943228,0.3178352388218045
1782969353386897700,2.808897705078125,1.782768382668495,-0.26295608603432774,-1.2440437830388544
1782969353396823300,2.8188232421875,-3.5432425159424543,-1.203115268062055,-3.031443917161226
1782969353406749400,2.82874951171875,-9.063525694331526,-2.252954137470573,-5.158559405741095
1782969353416675600,2.838675537109375,-15.510816750621794,-3.286156929376721,-7.706405567210912
1782969353426601500,2.8486015625,-24.159711257982252,-3.740950615388155,-11.21733980474472
1782969353436528400,2.8585283203125,-33.89367946813106,-2.9502573338150975,-15.278393311625718
1782969353446454500,2.86845458984375,-41.75858515999317,-2.0593043735049665,-19.591464600288866
1782969353456380400,2.87838037109375,-44.15621445651054,-2.358835163220763,-23.20969952111244
1782969353466306600,2.888306640625,-39.5853468026638,-2.2521689784422514,-24.87513331773281
1782969353476232400,2.898232421875,-30.421757390558717,-2.796617508676648,-22.77765367348194
1782969353486159600,2.90815966796875,-19.866463444685934,-3.030312282782793,-18.418167839646337
1782969353496085500,2.91808544921875,-10.851494568252562,-2.284961971627921,-13.754098170489073
1782969353506011400,2.928011474609375,-4.721285594329237,-1.531628552764654,-9.193624484884738
1782969353515937500,2.9379375,-1.3269225572556256,-0.3279956905692816,-5.189140421965718
1782969353525863400,2.947863525390625,0.7061275771826505,0.9505220244795084,-1.977337307305634
1782969353535789600,2.95778955078125,2.4386732545673846,1.8333203199066221,0.5920341650128365
1782969353545716500,2.967716552734375,4.204564736714959,2.270555406743288,2.3752333403140304
1782969353555642400,2.977642333984375,5.663432004651427,2.379865091767907,3.268562820497155
1782969353565568500,2.987568603515625,6.858852334296703,2.3676548678837714,3.611792905077338
1782969353575494400,2.997494384765625,7.934701112622022,2.3861510401695964,3.8414398650974033
1782969353585420300,3.007420166015625,8.918640253534912,2.245230411350727,3.523940434101224
1782969353595347500,3.017347412109375,9.8058451133579,1.920272919433564,2.807350499615073
1782969353605273600,3.027273681640625,11.047372529661654,1.4476068921230734,2.1966357456602155
1782969353615199500,3.037199462890625,12.661782241487503,1.2614847471833228,2.0474141753554345
1782969353625125400,3.04712548828125,14.146837259125709,1.403932293308526,2.0201834924720226
1782969353635051500,3.057051513671875,15.438876134526728,1.4612521172463893,1.986783473303914
1782969353644978400,3.066978515625,16.442593742620943,1.5414467669457197,1.7277577124558388
1782969353654904300,3.076904296875,17.088069574964045,1.7306833906441925,1.465119460199028
1782969353664830500,3.08683056640625,17.067386852419375,1.8086244161978362,1.425851864171773
1782969353674756600,3.096756591796875,16.322860278737544,1.878771719135344,1.612314493112266
1782969353684682500,3.1066826171875,15.211944863206147,1.9570843544803558,1.630960741393268
1782969353694609400,3.116609375,14.268231934219598,2.0468784610435367,1.6472554581120609
1782969353704535600,3.12653564453125,13.41683137822747,2.0131801895812154,1.7128385218739508
1782969353714461400,3.13646142578125,12.769843972277641,1.9100686285443602,1.7110504694133997
1782969353724387300,3.14638720703125,12.328284446370601,1.7953375029928982,1.7187217346936463
1782969353734313500,3.1563134765625,12.06565642324686,1.5312158803105353,1.7321731908105313
1782969353744240600,3.16624072265625,11.85444528362751,1.2272184665746986,1.659896620759368
1782969353754166300,3.176166259765625,11.076533157694339,0.9743627726636827,1.5618465808957813
1782969353764092400,3.186092529296875,9.399489587301016,0.6486635224685072,1.619545321148634
1782969353774018800,3.196018798828125,7.360000359725952,0.432282286734879,1.9509867682576179
1782969353783944700,3.20594482421875,4.5658676536023615,0.27513167699649926,2.302288223351538
1782969353793870600,3.21587060546875,0.20589608207643031,0.14235972171127795,2.267298743034899
1782969353803797800,3.2257978515625,-4.610453814303875,-0.14250234505236148,1.8894966728977858
1782969353813724000,3.235723876953125,-8.983226415213942,-0.789584881939739,0.8864845827244222
1782969353823649500,3.2456494140625,-14.032567905867099,-1.3595003002554178,-1.4552625214427708
1782969353833575700,3.25557568359375,-20.496164200270176,-1.2867387231662868,-5.550964732378721
1782969353843501800,3.265501708984375,-27.77635394117832,-1.3664698470070957,-10.28673887078762
1782969353853428500,3.275428466796875,-34.25801663814783,-1.114875405203551,-14.063089300858973
1782969353863354600,3.285354736328125,-36.29524142792225,-0.5813669327870011,-15.77923621662855
1782969353873280800,3.29528076171875,-33.37653892379999,-0.3831771873041987,-15.239678088784217
1782969353883206700,3.30520654296875,-26.877228341937062,-0.9575422785051166,-13.95039581861496
1782969353893132800,3.3151328125,-18.495065201365946,-1.7373543928407131,-11.753210768508911
1782969353903059700,3.325059814453125,-11.382231091737747,-2.0764253119148313,-8.878778198745847
1782969353912985900,3.33498583984375,-6.685993429425358,-1.9700731615215539,-5.968507422882318
1782969353922911700,3.344911865234375,-3.9441707562536,-1.4589002934232354,-3.206631264980137
1782969353932837600,3.354837646484375,-2.2896645963609217,-0.39381899282783267,-0.9850912335574626
1782969353942763800,3.364763671875,-1.3539409125626087,0.7482450096830725,0.9042246759459376
1782969353952690700,3.374690673828125,-0.629419016033411,1.7456494891077279,2.4915631332337855
1782969353962616600,3.384616455078125,0.18329612773358822,2.4832602920517326,3.236967658793926
1782969353972542700,3.394542724609375,1.2825789731383324,2.777818115660548,3.345132557697594
1782969353982468600,3.404468505859375,2.947792989528179,2.7606664898514746,3.032147681516409
1782969353992394800,3.414394775390625,5.158572265222668,2.645690449628234,2.543260587245226
1782969354002321700,3.42432177734375,7.630612951862812,2.54233879622519,2.267000636871159
1782969354012247800,3.434247802734375,10.1723736559391,2.55057324834615,2.3046496917858716
1782969354022173700,3.444173583984375,12.913760275781154,2.6503867907509204,2.782040994052589
1782969354032099800,3.454099853515625,15.410819083821773,2.684073664036393,3.507337674346566
1782969354042025700,3.464025634765625,17.381325376063586,2.8204443744659424,4.6412727309376
1782969354051951600,3.47395166015625,18.968813178694248,3.3349504786401987,5.875145248574018
1782969354061878800,3.483878662109375,19.740449877619742,3.9030218765243885,6.760788265907764
1782969354071804700,3.4938046875,19.738004238033295,3.9256595325291155,7.874382545259595
1782969354081730600,3.50373046875,18.41898850837946,4.687902672426402,7.890278618049621
1782969354091656700,3.51365673828125,16.40142469688654,5.06447885403037,7.651229038912057
1782969354101582800,3.523582763671875,14.333563945829868,4.8663119049012655,7.192817746925353
1782969354111509800,3.533509765625,12.61991761470437,4.604845326772332,6.404622711908817
1782969354121435600,3.543435546875,11.323746169543266,4.147078177908063,5.509409902197122
1782969354131361800,3.55336181640625,10.271066669881343,3.613737609404325,4.691058798369765
1782969354141287700,3.56328759765625,9.579802899831533,3.0867905413299797,4.101771009455621
1782969354151213600,3.573213623046875,9.100088707575201,2.656735867516696,3.532164657089114
1782969354161140700,3.583140625,8.675013868001104,2.3084293564550578,2.8164322162151336
1782969354171067000,3.59306689453125,8.310207911428808,1.9464282281704246,2.135998467737436
1782969354180992500,3.602992431640625,7.859595895016193,1.6931620537623762,1.2912217137992381
1782969354190918700,3.612918701171875,7.244553779381513,1.4397960722416638,0.41831279809325933
1782969354200844800,3.6228447265625,5.735595323586463,1.1477743429817258,-0.7313835989922285
1782969354210771700,3.632771728515625,1.9123580546557901,1.1907407204616813,-2.58749018959403
1782969354220697600,3.642697509765625,-4.4191333700686695,1.955914726179093,-5.437915276303887
1782969354230623700,3.652623779296875,-12.228733354294299,2.0845012124732136,-9.136021021699905
1782969354240550000,3.6625498046875,-20.394338148999214,1.1829682598292828,-14.912579639315604
1782969354250475500,3.6724755859375,-28.283723617601392,-1.074392076710984,-22.067885109448433
1782969354260401700,3.682401611328125,-34.107022943603994,-3.620948855957389,-28.59171755362749
1782969354270328800,3.692328857421875,-36.00419862669706,-5.051876562088728,-32.77264597868919
1782969354280254700,3.702254638671875,-33.226223274648184,-5.052286896455287,-32.56681711663008
1782969354290180600,3.7121806640625,-26.370983285629748,-3.6673628166079517,-28.13279071333408
1782969354300106800,3.722106689453125,-18.32664807833433,-1.9673552808649837,-21.52960825358629
1782969354310032600,3.73203271484375,-11.660094093394278,-0.19340031924918294,-14.978818828898667
1782969354319959600,3.74195947265625,-7.88045280508399,0.9532975536074488,-9.845498493832348
1782969354329885700,3.7518857421875,-5.941162319839,1.614733244691789,-5.915243450206518
1782969354339811800,3.761811767578125,-4.483451820722222,2.135060894626379,-2.85748786470294
1782969354349737700,3.77173779296875,-2.916708699956536,2.668120308101177,-0.6650818655669689
1782969354359663600,3.78166357421875,-1.194148410013318,2.78473359413743,0.6283791515916586
1782969354369590800,3.7915908203125,0.6029214697301387,2.5283301446169615,1.6622411380589008
1782969354379516700,3.8015166015625,2.6024451821416617,2.3815083289302885,2.4504320814222096
1782969354389442600,3.811442626953125,4.264954615747929,2.2357623257815837,2.7074434337079523
1782969354399368700,3.82136865234375,5.207593193501234,2.0709613474205133,2.360187454612553
1782969354409294600,3.831294677734375,5.670488352903724,1.7907023905381558,1.888243896357715
1782969354419221800,3.8412216796875,6.512781473332643,1.9179735564500093,1.5877312559977173
1782969354429147600,3.851147705078125,7.596342433470487,2.281250696019828,1.4225404015362262
1782969354439073800,3.86107373046875,8.92384834357202,2.921020425675809,1.562975584925711
1782969354448999700,3.870999755859375,10.6905499730587,3.752073482427001,1.9628607459247112
1782969354458925800,3.88092578125,12.97840722773671,4.289695966033637,3.2346585050687193
1782969354468851700,3.890851806640625,15.413576858097313,5.106194427731633,3.780680568230152
1782969354478778600,3.900778564453125,18.21651947814226,5.175935487955808,4.734553364442289
1782969354488704800,3.910704833984375,21.017246760225294,4.610637938699126,5.695594737109541
1782969354498630700,3.920630615234375,24.519430705070494,4.015315253534913,6.4289750628769395
1782969354508556500,3.930556640625,28.52151647467613,3.7680513882815836,6.302501477083563
1782969354518482700,3.940482666015625,30.367642354011533,4.2077787303254,5.808586325517297
1782969354528409600,3.95040966796875,27.73997096067667,3.9992622366175055,5.868031617176532
1782969354538335700,3.960335693359375,22.853887018334863,3.284035407178104,6.145329970687627
1782969354548261600,3.97026171875,18.287826472508907,3.240767051076889,5.49128504744172
1782969354558187800,3.980187744140625,14.947123713952301,2.657606805132329,5.169001304778456
1782969354568114000,3.990114013671875,13.417028946626186,2.008337425725162,4.7767964691489935
1782969354578038800,4.000038818359375,13.422446295499801,1.596551399052143,4.57208959685713
1782969354587964700,4.009964599609375,13.186390637481212,1.1454757106505333,4.443986656296253
1782969354597890600,4.019890625,12.154250067979097,0.9807983586691319,4.3324411750435825
1782969354607817700,4.029817626953125,10.448589474910497,0.7679191397070885,4.371519970500469
1782969354617743600,4.03974365234375,8.300331829580664,0.3294656169913709,4.576486078250408
1782969354627669800,4.049669677734375,5.5297600317865605,-0.27671295483857394,4.081968869137763
1782969354637595600,4.059595703125,0.8441542381256818,-0.5436610331185162,2.515409872767329
1782969354647521800,4.069521728515625,-6.496645162045955,0.07216587621830403,0.520899896864593
1782969354657448700,4.07944873046875,-17.366186259120703,0.45768166253790254,-2.6304654079675673
1782969354667374600,4.08937451171875,-30.201857917571065,0.22330555510409175,-7.968464850535988
1782969354677300700,4.09930078125,-42.05376871428489,0.18098003281094133,-16.23049412972927
1782969354687227000,4.109226806640625,-50.33523276178837,-0.6882937412630766,-25.217092651724816
1782969354697152500,4.119152587890625,-51.62903689329624,-1.8432465245068073,-31.156167059373853
1782969354707078700,4.12907861328125,-44.19478822505474,-3.5777260925635694,-31.998612740015982
1782969354717005800,4.139005859375,-31.104579495477676,-4.903144967257976,-27.91002240691185
1782969354726931700,4.148931640625,-18.76486647711992,-4.012520069858431,-21.332285354065895
1782969354736857600,4.158857666015625,-10.932298874282836,-2.300333582152426,-14.630367794799804
1782969354746783700,4.16878369140625,-7.020145304536819,-0.5342435086928308,-8.779729210972786
1782969354756710000,4.1787099609375,-4.3466941568017,1.0597129054300487,-4.3423190104573965
1782969354766636500,4.188636474609375,-2.11325705909729,2.514011988668144,-0.609702215911448
1782969354776563200,4.198563232421875,-0.12641396456062792,3.472801783016324,2.343516305796802
1782969354786489300,4.2084892578125,1.3508838630795479,4.119765515829623,4.156191750951111
1782969354796415000,4.2184150390625,2.5024025071561335,4.526422362920641,5.010446235069632
1782969354806341000,4.228341064453125,3.6135529004871842,4.55583784249723,5.18479099458456
1782969354816268300,4.238268310546875,4.428754015851021,4.35029364259839,4.767694878804684
1782969354826194200,4.248194091796875,5.232682042050361,4.143807485674321,3.990269951866567
1782969354836120000,4.2581201171875,6.357547072479129,3.785127026244998,3.0466330107256767
1782969354846046200,4.268046142578125,8.06333450679779,3.439140044172108,2.4918892964482304
1782969354855972400,4.277972412109375,10.16312651964426,3.3975594950273633,2.348253271190822
1782969354865899300,4.287899169921875,12.395338459467887,3.628824411638081,2.4155790869668126
1782969354875825200,4.2978251953125,15.040869334620236,3.9199835327193138,2.9176132475808263
1782969354885751300,4.307751220703125,18.247081789666414,4.174493715839088,4.037407550616562
1782969354895677400,4.317677490234375,21.000382134664058,4.645821188022196,4.9837318311452865
1782969354905603000,4.32760302734375,22.53341237092018,4.867069737531245,6.1428060051679605
1782969354915529200,4.337529296875,22.519608301973342,5.14777088522315,6.778484666118025
1782969354925456400,4.347456298828125,21.255409035134313,5.658330882120132,6.610775983616709
1782969354935382000,4.357382080078125,19.56734255094528,5.8190732327401635,6.296836290928721
1782969354945310200,4.367310302734375,17.187344772708414,5.528577544003725,5.162595529389381
1782969354955237000,4.377237060546875,16.49778429944515,4.9776627403646705,4.343958594357967
1782969354965163300,4.387163330078125,15.554938800942898,3.975584716171026,3.0048183605641126
1782969354975089400,4.39708935546875,14.326160391575097,2.961454727394879,1.565039385587722
1782969354985015000,4.40701513671875,13.082144665586947,2.1623773560971022,0.6517853077508509
1782969354994941200,4.416941162109375,11.895415591919422,1.4468272860527038,0.09773410578221083
1782969355004867300,4.426867431640625,10.534555109226703,0.8523585873693227,-0.37192221831828354
1782969355014794000,4.4367939453125,9.112883307218551,0.5535610803641379,-0.8365425940781831
1782969355024720100,4.44672021484375,7.190030746555328,0.35370427845194935,-1.761977523574233
1782969355034646300,4.456646240234375,4.165999735999107,0.2487694475106895,-2.9009970438227057
1782969355044572200,4.466572265625,-0.8785667953372002,0.8524610248304904,-4.021687418915331
1782969355054498300,4.476498291015625,-9.264321822920442,1.5470640223056078,-6.1104597328364845
1782969355064425200,4.48642529296875,-20.48637930383682,0.8245900712821632,-9.44189197422266
1782969355074351400,4.496351318359375,-31.959342221379277,-0.8779990053866058,-13.793085780531166
1782969355084277200,4.50627734375,-41.02382711613178,-1.6112416031837462,-18.569317017012832
1782969355094203100,4.516203125,-44.86608589639663,-2.157183586846292,-23.096970967555045
1782969355104129300,4.52612939453125,-42.906955569171906,-2.58266028521955,-26.96184840686321
1782969355114056200,4.53605615234375,-36.009786655962465,-3.2181638818636533,-27.242951997876165
1782969355123982000,4.545982177734375,-26.171275536799428,-3.5734105674520134,-23.334508973085878
1782969355133908200,4.555908203125,-16.59383293635845,-2.8609759990796446,-18.24691695449352
1782969355143834000,4.565834228515625,-9.770361712044476,-1.941556238219887,-13.088234214633703
1782969355153760300,4.57576025390625,-6.139904438507557,-0.9338121510885655,-8.332430849152804
1782969355163687200,4.585687255859375,-4.098717174842953,0.25715938245430586,-4.585038802540302
1782969355173613300,4.59561328125,-2.3821967495858667,1.3795143297582864,-1.5809589853838084
1782969355183539200,4.605539306640625,-0.5114373642534017,2.139698491299152,0.8081243088454008
1782969355193465300,4.61546533203125,1.1583563811421393,2.522604752707481,2.317051492719352
1782969355203391200,4.62539111328125,2.553881349980831,2.5457263928368685,3.036859804730117
1782969355213317000,4.635317138671875,3.9185254428654908,2.360339576434344,3.119739455729723
1782969355223244300,4.645244384765625,5.2471577266484495,2.094649243130535,2.9098619028016923
1782969355233170200,4.655170166015625,6.413878616032004,1.746417843131721,2.53902894102484
1782969355243096000,4.665095947265625,7.577921810638904,1.4430616499088704,2.0738845413908362
1782969355253022200,4.675022216796875,8.833733772882818,1.4330322771951556,1.680829226411879
1782969355262948400,4.6849482421875,10.528435165041685,1.6296639795809984,1.4574115161702037
1782969355272875300,4.694875244140625,12.790678670513628,2.110799582942575,1.838397915431857
1782969355282801200,4.70480126953125,15.696884096634387,2.497479663801193,2.6640444369643923
1782969355292727300,4.714727294921875,18.422452385097742,2.5855273650884625,3.433425465917587
1782969355302653400,4.7246533203125,20.32362269078493,2.7226374957084656,3.656247548353672
1782969355312579000,4.7345791015625,21.470686109018324,2.8312252961993214,3.3343659567505117
1782969355322506200,4.74450634765625,21.84925521800518,2.7939050348475574,2.7075533238232135
1782969355332432400,4.754432373046875,20.939402473044396,2.5854215666264295,2.2060015398986637
1782969355342358000,4.76435791015625,19.248436760282516,2.1306516998820006,1.7152970209419727
1782969355352284200,4.7742841796875,17.66183158570528,1.5157655054613948,1.2831024124905466
1782969355362210300,4.784210205078125,16.81722200502753,0.9707178402900696,1.4872199405871331
1782969355372137200,4.79413720703125,16.799189504730702,0.7639459982924163,1.9144455284543334
1782969355382063000,4.80406298828125,16.73633469688892,0.6406074956543744,2.087474529195577
1782969355391989200,4.8139892578125,15.968724184739589,0.5414445261128247,2.2532228714093563
1782969355401915400,4.823915283203125,14.376743746864795,0.4083621166389435,2.3498469701230524
1782969355411841300,4.83384130859375,11.690948665863274,0.45490664486661553,2.606080908295512
1782969355421767200,4.84376708984375,8.356685584965348,0.7155302693653851,3.0458237401694057
1782969355431694300,4.8536943359375,5.262407902750373,0.9089351917244494,3.5771433242395516
1782969355441620200,4.8636201171875,2.947736875426769,0.6863336201712489,3.8310701545134185
1782969355451546000,4.873546142578125,1.1859832237362862,-0.21458258881382644,3.333039092060923
1782969355461472300,4.88347216796875,-1.062607603958249,-1.729299388939887,2.3045677125908433
1782969355471398100,4.893398193359375,-5.585395994290709,-2.735609497745335,1.2639838705226778
1782969355481325000,4.903324951171875,-13.38261229776144,-2.539242876036465,-0.7061744850642979
1782969355491251200,4.913251220703125,-23.73986555123329,-1.473879689759761,-3.916948402807116
1782969355501177300,4.92317724609375,-34.47902670272588,0.6164987441837787,-8.36111801445484
1782969355511103200,4.933103271484375,-41.09305321257114,1.5722145379140973,-12.806170838677883
1782969355521029000,4.943029052734375,-42.4681994102478,1.2932216554448008,-16.915263861584663
1782969355530956300,4.952956298828125,-39.68669822216034,-0.0030223434958606956,-18.619645520758628
1782969355540882200,4.962882080078125,-32.56214094151258,-1.3752061111703515,-16.98055963283777
1782969355550808000,4.97280810546875,-23.512229346513745,-1.2363690106272698,-13.7295786462605
1782969355560734200,4.982734130859375,-15.812636966449022,-0.4021525944743305,-9.73948960391879
1782969355570660000,4.99266015625,-11.254370435500144,0.6368816069990396,-6.034430386123061
1782969355580586200,5.002586181640625,-8.743574778530002,1.6829747140079736,-3.3407039276003836
1782969355590513200,5.01251318359375,-6.810336432930827,2.3668369756296275,-1.3570537838861345
1782969355600439300,5.022439208984375,-5.047264099857211,2.9488445444077254,0.06366758552938699
1782969355610365200,5.032365234375,-3.409956912046671,3.4077716769620774,0.6945208721496164
1782969355620291300,5.042291259765625,-1.9402450094908474,3.547218433836102,0.7247527826756238
1782969355630217200,5.05221728515625,-0.40244975078999995,3.5168037140890953,0.35806335044428705
1782969355640144100,5.06214404296875,1.2943173417270182,3.3739944950446485,-0.07754106645062565
1782969355650070300,5.0720703125,2.9159114120990037,2.942783636933565,-0.6339784329034388
1782969355659996200,5.08199609375,4.541237070214748,2.5166806233555077,-0.9797992646291851
1782969355669922000,5.091922119140625,6.1781193106114864,2.419578093475103,-1.2345781816877424
1782969355679848200,5.10184814453125,7.706685553196072,2.460761459995806,-1.3746759498164056
1782969355689775000,5.111775146484375,9.965318466955424,2.586752230708301,-0.8584036396872252
1782969355699701200,5.121701171875,13.061797458606957,2.9451532886743546,0.05146043038517236
1782969355709627100,5.131627197265625,16.13256333233118,3.7871608701601622,1.5449648580692708
1782969355719553300,5.14155322265625,18.428167840135096,4.511460648371279,2.4685510909587145
1782969355729479400,5.1514794921875,19.449149886763095,4.715594689211249,2.6171076214835045
1782969355739405000,5.161405029296875,19.812579878807068,4.7410056093215935,2.0902702973939475
1782969355749332200,5.171332275390625,20.435687227475643,4.704423306855559,1.3993700999595224
1782969355759258400,5.18125830078125,21.21307795988321,4.529541079463065,1.1441723729670048
1782969355769184000,5.19118408203125,21.70631389701366,4.469481747558713,0.9629336161546409
1782969355779110000,5.20110986328125,21.329811657428742,4.52433503525257,0.8171491806916892
1782969355789036000,5.2110361328125,19.98019971398115,4.362894180974364,0.6659731883835047
1782969355798963000,5.220962890625,17.933271860837934,4.204385873016715,0.34558311397973446
1782969355808888800,5.230888916015625,15.88574545727968,4.2243598627701395,0.3204702635005116
1782969355818815000,5.24081494140625,14.34696703276038,4.019854650530219,0.3793783795431256
1782969355828741000,5.2507412109375,13.134903611350058,3.6736560715332627,0.2128191593378782
1782969355838667000,5.2606669921875,12.041270170009135,3.124168378087878,-0.5428310120351613
1782969355848594000,5.270593994140625,10.670196920859812,2.135258170764148,-1.865529960246384
1782969355858520000,5.28052001953125,9.283378405568003,0.9681177407942712,-2.7334306924015284
1782969355868446000,5.290446044921875,8.225584923893212,0.18743980340957642,-2.89278334222883
1782969355878371800,5.300371826171875,6.418551284018158,-0.13049977256953715,-2.9990611122116446
1782969355888298000,5.310298095703125,2.5291969905793668,-0.38563086406663055,-3.3535803603082894
1782969355898223900,5.320223876953125,-4.225680005457997,-0.09023666269890963,-3.5439269910752773
1782969355908150800,5.33015087890625,-12.86979253923893,1.0930849406126886,-4.2631802995517845
1782969355918077000,5.340076904296875,-22.037286557567118,1.0182448767490684,-5.29907788349986
1782969355928003000,5.350003173828125,-31.30775930433273,0.5377149111304432,-8.322502160334587
1782969355937929000,5.359928955078125,-39.23757965917587,-0.5971335705110803,-12.87424542699456
1782969355947855000,5.369855224609375,-43.938393543362615,-2.389562163787335,-17.08664334155321
1782969355957782000,5.379781982421875,-43.73014008450508,-3.7386774097591635,-19.677349570584298
1782969355967708000,5.3897080078125,-38.904182401823995,-4.317767629785836,-20.89569426422119
1782969355977634000,5.399634033203125,-31.21260849304199,-4.387344147098064,-20.151289271092413
1782969355987560000,5.409559814453125,-22.14140861082077,-3.658570730604231,-17.63890780623555
1782969355997485800,5.41948583984375,-13.995665869927405,-2.548778766144812,-13.699087646406888
1782969356007413000,5.4294130859375,-8.546175306642056,-1.3822645052492617,-9.687612117165326
1782969356017339000,5.4393388671875,-4.9529748738318675,-0.23090039414726196,-5.94987286503911
1782969356027265000,5.44926513671875,-1.964766871806979,1.0077115000359713,-2.4657407097131014
1782969356037191000,5.45919091796875,0.5903939965903758,2.097146466773748,0.6119426883146166
1782969356047117000,5.469116943359375,2.6612837400794027,2.7746745569378137,2.863858276517689
1782969356057044000,5.4790439453125,4.4643870547682045,2.9804116490602492,4.093768028002978
1782969356066969900,5.488969970703125,6.30319705813229,2.916634465676546,4.751557982996106
1782969356076896000,5.49889599609375,7.942386990949511,2.7973867394834757,4.78792722723335
1782969356086822100,5.508822265625,9.515821133786439,2.5236238666221498,4.281385818327963
1782969356096747800,5.518747802734375,11.451038670504092,2.146140214784443,3.6171614463731645
1782969356106674000,5.528673828125,13.527206646656989,1.8681978642813861,3.0116914612039922
1782969356116601000,5.53860107421875,15.798198106729984,1.6214834496043622,2.7824603885084387
1782969356126527000,5.54852685546875,18.34069297029972,1.514788915514201,3.02584127484858
1782969356136452900,5.558452880859375,20.261534775662422,1.6336201698608694,3.6037238726511593
1782969356146379000,5.56837890625,21.56267582592964,1.8987468779325485,4.211083324828744
1782969356156305200,5.57830517578125,21.750040810537335,1.9316871706344185,4.1790597085803745
1782969356166231800,5.588231689453125,20.885303803110123,1.7895104042746126,3.9793104586958883
1782969356176158000,5.598157958984375,19.29617115588188,1.7908499823153017,3.7292274443686004
1782969356186084000,5.608083984375,17.761667924463747,1.7708339069858192,3.6864237831696864
1782969356196010000,5.618010009765625,16.595310607695577,1.7135113065689802,3.654728960484266
1782969356205935900,5.627935791015625,15.979722548615932,1.5799037772424518,3.9539556526869535
1782969356215862000,5.637862060546875,16.14337698729038,1.5112226013347505,4.415029441881179
1782969356225789200,5.6477890625,16.591574343776703,1.4717928004831076,4.598941655686497
1782969356235714800,5.65771484375,16.731840892601014,1.2886227833472192,4.523755189538002
1782969356245641000,5.667640869140625,16.056353368353843,0.9570392974190414,4.342598411920666
1782969356255567000,5.677567138671875,14.680177243107556,0.6765987003594637,4.1009418651551
1782969356265493000,5.687492919921875,12.787014887309073,0.44208091943264005,3.911288477349281
1782969356275420000,5.697419921875,10.44205568922758,0.11648673704713583,3.76145564327836
1782969356285346000,5.707345947265625,7.661771475714445,-0.2718241598837077,3.265129631178081
1782969356295272000,5.71727197265625,4.355250388222933,-0.9705278706759214,2.8571584866181015
1782969356305198000,5.727197998046875,0.5751999345898627,-1.379033122112602,2.4584110974773763
1782969356315124000,5.7371240234375,-4.873377020981907,-1.8237588569656014,1.6804565937072038
1782969356325051100,5.747051025390625,-11.565652891677617,-2.186981928260624,0.5533744717508554
1782969356334977000,5.75697705078125,-19.60231566464901,-1.8761701583348214,-1.6574053884655235
1782969356344903000,5.76690283203125,-29.759063881433008,-1.3145232405401766,-5.656652719774842
1782969356354829000,5.7768291015625,-39.122148276400566,-1.0085200399398804,-11.066681625765561
1782969356364755000,5.7867548828125,-43.928498756814,-1.7294196543186902,-16.8866971077919
1782969356374681900,5.796681884765625,-42.75951576771736,-3.541426406431198,-22.22039388473034
1782969356384608000,5.80660791015625,-37.099919980227945,-5.036548644575476,-24.915600937199592
1782969356394534000,5.816533935546875,-29.984869363594054,-5.097596110734343,-24.254670346093178
1782969356404460000,5.8264599609375,-23.519613027024267,-3.664369480010867,-20.263578264188766
1782969356414386000,5.836385986328125,-18.89864483296871,-1.0403113087370992,-15.005644876503943
1782969356424311800,5.846311767578125,-15.42930751119256,1.8948786581970751,-10.052425088000296
1782969356434239000,5.856239013671875,-12.275810747289658,4.327548434565961,-5.666834506571292
1782969356444164900,5.866164794921875,-8.70129689477086,5.870750813007354,-2.061001386681199
1782969356454091000,5.876091064453125,-5.02641478857398,6.397251890879869,0.540500961652398
1782969356464017000,5.886016845703125,-1.6370149268656968,6.318436128318309,2.1129335262313482
1782969356473943000,5.895943115234375,1.0772066226750612,6.04938888580203,2.818687886187434
1782969356483870000,5.905869873046875,3.0751556331157683,5.72066195834875,3.238790198045969
1782969356493795800,5.9157958984375,4.549491688340902,5.628585732197761,3.5911265491455793
1782969356503722000,5.925721923828125,5.60324203210473,5.5395589567452665,3.3325913482934233
1782969356513648000,5.935648193359375,6.5261845602631565,5.316317772114276,2.7471079200983044
1782969356523573800,5.94557373046875,7.828444969949126,5.117514863169193,2.247535473422706
1782969356533500000,5.9555,9.405538804337382,4.975447402402758,1.8500649723500013
1782969356543427000,5.965427001953125,11.155873820912838,4.963868608289957,1.7523551242262123
1782969356553353000,5.97535302734375,13.29674603216648,4.941296710997819,1.8783979173868894
1782969356563278800,5.98527880859375,15.151590640008449,4.923563485908508,2.1971742364510893
1782969356573205000,5.995205078125,16.83048948287964,4.84863274808675,2.7911469683110712
1782969356583131100,6.005131103515625,18.63805211506486,4.673320020322501,3.3647643098846074
1782969356593057800,6.015057861328125,20.140361049842834,4.432669435729086,3.6635090637892485
1782969356602984000,6.02498388671875,20.999996350216865,4.423240513126552,3.6778283887818453
1782969356612910000,6.03491015625,21.19752266335487,4.508608766071498,3.679798519811034
1782969356622836000,6.0448359375,20.742322734630108,4.502682883153856,3.630568332695961
1782969356632761900,6.054761962890625,19.82115364588499,4.406978529633581,3.4604560961842536
1782969356642689000,6.06468896484375,18.590732730007172,4.260054276485741,3.4815649351865052
1782969356652615200,6.074615234375,17.340828530502318,3.972779303361475,3.3664810506746172
1782969356662540800,6.084540771484375,16.39996806833744,3.544581071069836,3.0730475549206138
1782969356672467000,6.094467041015625,15.690641402852535,2.913172342523932,2.6833418426305053
1782969356682393000,6.10439306640625,15.095762954324483,2.225220765762031,2.2767595220804213
1782969356692319000,6.114319091796875,14.428837506717443,1.6746739186525343,1.7556861683450637
1782969356702246000,6.124245849609375,13.500566477012633,1.3459201031923294,1.046857661640644
1782969356712172000,6.134172119140625,12.164269942212105,1.167042084161937,0.36997678333893413
1782969356722098000,6.144097900390625,10.37344217172861,0.9187997292652725,-0.15327186860889194
1782969356732024000,6.154024169921875,7.851670362713932,0.7768871667996049,-0.7704477814018726
1782969356741950000,6.163949951171875,4.355093736356497,0.9201368230879307,-1.6011764285042882
1782969356751877000,6.173877197265625,0.47048166900873184,1.196189706582576,-2.370053015066683
1782969356761803000,6.183802978515625,-3.7777737408727403,1.7978890871718525,-3.496156647379696
1782969356771729200,6.193729248046875,-8.775659769576787,2.5501953549444676,-5.596759684348106
1782969356781655300,6.2036552734375,-13.673071746140717,2.1003050769351423,-9.012085429951549
1782969356791581200,6.213581298828125,-19.118111759757994,0.4601168537955731,-13.429355344235896
1782969356801508000,6.223508056640625,-28.57735935792923,-0.07839454147480428,-17.5481385710299
1782969356811434200,6.233434326171875,-40.326268045330046,1.1288624295018612,-21.57133376415968
1782969356821360400,6.2433603515625,-47.72742342226505,1.7597547329582273,-25.074099892807006
1782969356831286300,6.253286376953125,-47.0315711553812,1.664433679667115,-28.283342509329316
1782969356841212200,6.263212158203125,-37.91220900753736,-0.11041961902789771,-27.91583956875801
1782969356851139300,6.273139404296875,-24.945322706246376,-2.603378079077601,-24.43912674977779
1782969356861065200,6.283065185546875,-13.791467823940515,-3.147110277736187,-20.0848431607604
1782969356870991000,6.2929912109375,-6.883559490051865,-2.9167811806708572,-14.968062457084654
1782969356880917200,6.302917236328125,-3.4075498509049416,-2.246962934231758,-9.89208605748415
1782969356890843100,6.312843017578125,-0.8846393932491541,-1.5133423699676989,-5.546697138062119
1782969356900769300,6.322769287109375,1.3199269992798566,-0.8241845592211932,-1.835797962066531
1782969356910696200,6.3326962890625,3.269872149530053,-0.28966252584792673,1.0856728377252816
1782969356920622300,6.342622314453125,4.9319683261603116,0.2276196919761598,3.2309242869764563
1782969356930548200,6.35254833984375,6.432498560827971,0.5342353253863752,4.857661565455794
1782969356940474400,6.362474365234375,7.487616685813665,0.7674068062707782,6.02106120146215
1782969356950400300,6.372400146484375,8.168608068174123,1.0135165330529212,6.684025344222784
1782969356960327200,6.3823271484375,8.679963014841078,1.1437331047669053,6.757317959448695
1782969356970253300,6.39225341796875,9.246761031788587,0.936901641536504,6.870244665926695
1782969356980179200,6.40217919921875,9.76604969406426,1.0518747591502964,6.027693771344423
1782969356990105000,6.41210498046875,10.587250926625728,1.2249850084342062,5.213556485819816
1782969357000031200,6.42203125,11.687145766448975,1.2796110632434488,4.921176298511028
1782969357009958100,6.431958251953125,13.515101198321581,1.3848542294815183,4.9365807883918285
1782969357019884300,6.44188427734375,16.594685169273614,1.8064815589502452,5.292138439625501
1782969357029810200,6.45181005859375,19.87115364832878,2.069286838337034,5.842344218212366
1782969357039736300,6.461736328125,22.06553766953945,1.9907276808850467,5.782949195435643
1782969357049662500,6.471662353515625,22.199065850019455,1.8648713502071796,5.183209278351068
1782969357059588000,6.481588134765625,20.57634891309738,1.7165014282956719,4.574370985792577
1782969357069515300,6.491515380859375,17.83821924922466,1.7127691098995506,4.109810815787315
1782969357079441400,6.50144140625,15.444387006902694,1.9111974864438175,4.055114179959893
1782969357089367000,6.511366943359375,14.09650057207346,2.109776815766096,4.339129274505376
1782969357099293200,6.521293212890625,13.355008836042881,2.335016334607452,4.650509930360317
1782969357109219300,6.53121923828125,12.951714451122283,2.397598462987691,4.920377841609716
1782969357119146200,6.541146240234375,12.732799312996864,2.1366545935586094,4.916866618618369
1782969357129072000,6.551072021484375,12.532842557841539,1.5075648094795644,4.664890045629441
1782969357138998300,6.560998291015625,12.10797230092883,0.7825691579587757,3.9880595823407172
1782969357148924400,6.57092431640625,11.068875920939444,0.1111480063676834,3.39214711458981
1782969357158850300,6.580850341796875,9.210359346586465,-0.45671763981133695,3.0410771301642057
1782969357168777200,6.590777099609375,6.501712966829538,-0.8523999422930181,3.3617189508393404
1782969357178703400,6.600703369140625,2.632034849241376,-0.36622444506809115,2.8380124721214175
1782969357188629200,6.610629150390625,-2.168632909360528,-0.05696304638944566,1.8865473215728996
1782969357198555100,6.62055517578125,-8.321659864291549,-0.10866641868501901,-0.01948299136608839
1782969357208481300,6.630481201171875,-15.436792898511886,-0.4607928533609956,-3.0953923654586073
1782969357218407200,6.6404072265625,-23.763323583710193,-0.6263163007777184,-7.195942600947618
1782969357228334000,6.650333984375,-33.74560838303566,-0.5680245630677789,-12.396103014099598
1782969357238260200,6.66026025390625,-41.40812453963756,-0.5042723679948597,-18.48286038430929
1782969357248186400,6.670186279296875,-42.761727598547935,-0.530448281128332,-24.06881108987331
1782969357258112300,6.6801123046875,-38.31656488420963,-1.1568388161860406,-26.262187395346164
1782969357268038400,6.690038330078125,-30.3461413008213,-2.042667857611179,-24.214663329875467
1782969357277965300,6.69996533203125,-22.098593551445006,-1.8784212982624768,-20.310468610179424
1782969357287891200,6.70989111328125,-15.859074892497063,-0.5049954946376383,-15.454180086642502
1782969357297817300,6.7198173828125,-11.554802996361255,1.2483451334945856,-10.453332285523414
1782969357307743200,6.7297431640625,-8.590155318143964,2.8803406247630714,-6.226270470318198
1782969357317669000,6.739669189453125,-5.894550790789723,4.019864002880454,-2.88603152988106
1782969357327596300,6.74959619140625,-3.3641169518917797,4.522190716700256,-0.37146570672243834
1782969357337522200,6.759522216796875,-1.3325731303632258,4.614467726120353,1.411010999523103
1782969357347448300,6.7694482421875,0.44082069023847575,4.4571597338631745,2.5528938002482056
1782969357357374200,6.779374267578125,2.1040900023013354,4.177140138694644,3.181871502254903
1782969357367300400,6.78930029296875,3.5526065566152334,4.05014165224433,3.751998079103231
1782969357377227300,6.799227294921875,4.695899808660149,4.041300758662819,4.138622191990912
1782969357387153200,6.809153076171875,5.625882902979851,3.923010187064111,4.20027259247899
1782969357397079300,6.819079345703125,6.802577489367127,3.765217626160383,4.189070522724092
1782969357407005200,6.829005126953125,8.591612531214952,3.6416836009502407,4.093289889097213
1782969357416931000,6.83893115234375,10.525285761100053,3.4976100610584018,4.097412814246118
1782969357426857200,6.848857177734375,12.380352487260103,3.33165640553087,4.373886991892755
1782969357436784400,6.858784423828125,14.532339966768026,3.2547438462421296,4.7432907976493235
1782969357446710300,6.868710205078125,17.112168243432045,3.226066910073161,5.4373781006872655
1782969357456636200,6.87863623046875,19.522865111315248,3.2938381315290925,6.341465121728182
1782969357466562300,6.888562255859375,21.202105314970016,3.361568436452746,6.836596078824996
1782969357476488400,6.898488525390625,21.856108152639866,3.6049922851517793,7.061447621262073
1782969357486415000,6.9084150390625,21.37037280039787,4.00752474578917,6.7898027634680265
1782969357496341200,6.91834130859375,20.09985602097511,3.9182872501954433,7.206603111171722
1782969357506267400,6.928267333984375,18.64321811952591,3.457549853348732,7.567603830242157
1782969357516193000,6.938193115234375,17.10868683105707,3.6026164959311484,6.777703160351514
1782969357526119200,6.948119140625,15.634217504841088,3.2220801785245534,5.903669916790723
1782969357536045300,6.95804541015625,14.358953238630294,2.598856217738986,4.959114691761136
1782969357545972200,6.96797216796875,13.529028016865253,2.121693463531136,4.215651071135699
1782969357555898000,6.977898193359375,12.895013489735126,1.6441535465739667,3.4458252210244535
1782969357565824300,6.98782421875,12.031129884266853,0.9550953237444162,2.4847391324326393
1782969357575750400,6.99775048828125,10.79519341983795,0.37823432407453655,1.6184119332045315
1782969357585676300,7.00767626953125,9.05299845509827,-0.006548252599686384,0.7416486801579594
1782969357595603200,7.017603271484375,6.51765463232696,-0.26280907877907156,-0.03586158697605133
1782969357605529300,7.027529296875,3.3426404486209154,-0.48917234095335005,-0.39627573833018537
1782969357615455200,7.037455322265625,-0.09702478846907615,-0.45270708899572487,-0.6982438381955027
1782969357625381000,7.047381103515625,-3.9722932734102008,-0.6153846454620361,-1.882749682855606
1782969357635307300,7.057307373046875,-8.46895411979556,-1.002593280239403,-3.858587106992304
1782969357645234400,7.067234375,-13.58123751205206,-1.4350745966777205,-6.256034909462929
1782969357655160000,7.07716015625,-19.978125830316543,-1.978275172677636,-9.457162024068833
1782969357665086200,7.087086181640625,-28.164775751137732,-2.3063345761328935,-14.14717043660283
1782969357675012400,7.097012451171875,-36.17950141758919,-2.4215394566759465,-19.920337658214567
1782969357684938200,7.106938232421875,-41.23401651148796,-2.9717949196234343,-24.964127944481373
1782969357694865200,7.116865234375,-41.324823156094546,-3.746418817666173,-27.738264156758785
1782969357704791300,7.126791259765625,-35.82278641301393,-3.701619598735869,-27.298668624401092
1782969357714717200,7.13671728515625,-26.256566632854938,-3.199736537030339,-23.566010036540032
1782969357724643300,7.146643310546875,-17.124961089509725,-2.2764799744866786,-18.547515519571302
1782969357734569200,7.1565693359375,-10.78008937420845,-0.9083531540527939,-13.969017516976594
1782969357744495000,7.1664951171875,-6.456433563166857,-0.05199643695801496,-9.877035787868499
1782969357754422300,7.17642236328125,-2.6535329798221587,0.641126551092416,-6.138410400557517
1782969357764348200,7.18634814453125,0.69644906373322,1.4052514130830764,-2.814034507423639
1782969357774273500,7.1962734375,2.87363820451498,1.606768695553392,-0.13392039466798306
1782969357784199700,7.20619970703125,4.23348863338232,1.6464178382441401,1.5705430975705383
1782969357794125800,7.216125732421875,5.263410942313075,1.8192790812030433,2.575776955446601
1782969357804052700,7.226052734375,5.784773488253355,1.9588285677991806,3.293399155589938
1782969357813978600,7.235978515625,5.921176347386837,2.159968687520176,3.841026608121395
1782969357823904800,7.24590478515625,6.0258724011361595,2.443251522268355,4.175724426677823
1782969357833831000,7.255830810546875,6.3718555838167665,2.781234938366711,4.319098001606762
1782969357843756800,7.2657568359375,7.136282789754867,3.168162710376084,4.550962637676299
1782969357853683700,7.27568359375,8.051457606521248,3.6472649082139132,5.100104294162988
1782969357863609900,7.28560986328125,9.238875831496715,4.009085711495578,5.695888167098164
1782969357873535700,7.29553564453125,10.511050314998625,4.17934787787199,6.113639531916379
1782969357883461600,7.305461669921875,11.521071407151222,4.187480623184144,6.438223368215561
1782969357893387800,7.3153876953125,12.342881126999854,4.088502070298791,6.698406920796632
1782969357903313700,7.325313720703125,13.101620934951304,3.973772113791108,6.801816441866755
1782969357913240600,7.335240478515625,13.77431912074089,3.8435824300840493,6.806095726621151
1782969357923166700,7.345166748046875,14.193998823273182,3.3933065137580036,6.543232725697756
1782969357933092900,7.3550927734375,14.674990195858477,2.9398469989597795,6.131446406763792
1782969357943018800,7.365018798828125,15.358450598680973,2.806843719136715,5.927188155022264
1782969357952944600,7.374944580078125,15.94363650523424,2.4851661256730555,5.647969647103547
1782969357962871800,7.384871826171875,16.116051757991315,1.987192054104805,5.005213010591269
1782969357972797700,7.394797607421875,15.833790813636778,1.389757491353154,4.385885764983296
1782969357982723800,7.404723876953125,15.355109471559524,0.8862091267839074,3.8240059152156114
1782969357992649700,7.414649658203125,14.730482365977764,0.8968287204757333,3.6049124979138374
1782969358002575600,7.42457568359375,13.91850430431366,1.230680151335895,4.012239207090437
1782969358012502800,7.434502685546875,12.891190716576576,1.5197377700932324,4.5362247950106855
1782969358022428700,7.4444287109375,11.987315292459726,1.572419997358322,4.820778526477516
1782969358032354800,7.454354736328125,11.231305201733111,1.4548361127242444,4.616712582437694
1782969358042280700,7.46428076171875,9.843160406273602,1.0609770801469682,3.9678085292115806
1782969358052206800,7.474206787109375,7.928078479611873,0.3306172712445259,3.2790783692926166
1782969358062132700,7.4841328125,5.954505201014876,-0.8066419613331556,2.930774634709954
1782969358072060000,7.494059814453125,3.9753520764589307,-2.236737016032636,2.257716675697267
1782969358081985800,7.50398583984375,0.5997948621422052,-3.7578017969459294,0.18403350209742783
1782969358091911700,7.51391162109375,-5.036368027311563,-4.375412009502947,-2.6337784780383107
1782969358101837600,7.523837646484375,-13.12135907012224,-3.7809383423835037,-3.777732239818573
1782969358111763700,7.533763671875,-24.633339992845055,-1.8654285456985233,-6.314041692751646
1782969358121690600,7.543690673828125,-36.66703242107629,0.12656031422875821,-10.536102923190594
1782969358131616800,7.55361669921875,-45.62433236787319,0.7847153762072324,-15.399153195947408
1782969358141542700,7.563542724609375,-47.277804508543014,-0.3194817639198154,-21.378927862775324
1782969358151468800,7.57346875,-40.95750024826526,-2.68449831918925,-25.577967114067075
1782969358161395000,7.58339501953125,-29.827920560038088,-5.657190479913353,-23.902743744838236
1782969358171321900,7.59332177734375,-18.968478832173346,-5.4808337960541245,-19.74552820379734
1782969358181247700,7.603247802734375,-11.557326961880921,-3.539599191004038,-14.286963522696494
1782969358191174000,7.613173828125,-7.9367919474214315,-1.4159176223956047,-8.945085777390002
1782969358201099500,7.623099609375,-6.302099910545349,0.5888679560668766,-4.841840311467648
1782969358211025700,7.633025634765625,-5.266487281018495,2.0436333416424692,-1.7070467867299914
1782969358220951800,7.642951904296875,-4.468917099413275,2.8941335877940055,0.46960722426176066
1782969358230878700,7.652878662109375,-3.841811621019244,3.3409202006995677,1.6694120526015757
1782969358240804600,7.6628046875,-3.291705795675516,3.5202632068932056,2.0366113340511918
1782969358250730800,7.672730712890625,-2.538718852162361,3.50600613348186,1.7037895384997128
1782969358260657000,7.682656982421875,-1.3951713330954312,3.2023908509314056,0.7903603963568806
1782969358270582800,7.692582763671875,0.24285540116131304,2.8399045694783327,-0.11454290950298308
1782969358280509700,7.702509765625,2.1692028182029723,2.6709076007321477,-0.619875819401443
1782969358290435800,7.712435791015625,4.189488163614273,2.72083833733201,-0.27818010478168725
1782969358300361700,7.72236181640625,6.216870189288258,3.1480168711870906,0.8222261916950344
1782969358310287600,7.73228759765625,8.28006704018712,3.983172979342937,2.203735786923766
1782969358320213800,7.7422138671875,10.145353547066449,4.997767370760441,3.6382729157239195
1782969358330141000,7.752140869140625,11.789651032155751,6.134482413458824,4.944769355544447
1782969358340066600,7.762066650390625,13.042343401074408,7.3054901863813395,5.962115091496706
1782969358349992700,7.77199267578125,14.080313991904259,8.232515599939227,6.970491923573613
1782969358359918800,7.7819189453125,15.295612157452105,8.708700449025631,7.569283746153116
1782969358369844700,7.7918447265625,16.560648459637164,8.992916034579277,7.793546090525388
1782969358379771000,7.80177099609375,17.523702048909662,9.1436215598315,7.99690359403491
1782969358389697800,7.81169775390625,17.630159851634502,9.053640260133147,7.874436905795335
1782969358399623700,7.821623779296875,17.09607986294031,8.946289307960868,7.319130589199066
1782969358409549800,7.8315498046875,16.390669494116306,8.716614875411986,6.59492199640274
1782969358419475700,7.841475830078125,15.80488153001666,8.511275842696428,6.016802374973893
1782969358429401600,7.851401611328125,15.65575246030092,8.332692714959382,5.530967069488764
1782969358439328800,7.861328857421875,15.594473523473738,7.935824563694,4.928853409010172
1782969358449254700,7.871254638671875,15.438988362729548,7.513908480411768,4.334419197118282
1782969358459180800,7.881180908203125,15.014765756070613,7.121219660657644,3.8677424733504653
1782969358469106700,7.891106689453125,14.364429039692878,6.654118866258859,3.497994384200871
1782969358479032800,7.90103271484375,13.444446530383825,6.072981358313561,2.9245825020715595
1782969358488959700,7.910959716796875,12.40365152978301,5.254475356185436,2.0772963956609365
1782969358498885600,7.9208857421875,11.155656378769875,4.056233831639588,0.915324454370141
1782969358508811800,7.930811767578125,9.649753803414105,2.4219427767798303,-0.04444412188231945
1782969358518738000,7.940738037109375,8.03951816240251,0.7103443180948495,-1.0333780023425816
1782969358528663600,7.95066357421875,5.847989530622959,-0.4974994397938251,-2.5609862135499712
1782969358538589700,7.960589599609375,2.290853513884544,-1.0653525187522173,-4.333315912051499
1782969358548516900,7.970516845703125,-3.2919360973000527,-1.6846031919926403,-6.4140697546899315
1782969358558442800,7.98044287109375,-11.65000056940317,-2.3090254226520655,-9.40714565501213
1782969358568368600,7.99036865234375,-22.90817974953651,-2.070312820383906,-13.328361652135849
1782969358578303000,8.000302978515625,-23.045678002691268,-2.4362330218084156,-12.911645475584267
1782969358588218600,8.010218505859376,-36.70525781457424,-0.9880804785013199,-17.814362572818993
1782969358598144800,8.020144775390625,-46.720049045228954,-0.4284039839968085,-23.16303830770254
1782969358608071700,8.03007177734375,-47.905833531522745,-2.4519886632144448,-26.741909186387062
1782969358617997600,8.03999755859375,-42.160918590927125,-5.4990474981367585,-28.09594011532068
1782969358627923700,8.049923828125,-32.229349248838425,-7.105942596548795,-26.31620423221588
1782969358637849900,8.059849853515624,-21.386578085267544,-6.8858508158594365,-21.96984442193508
1782969358647775700,8.069775634765625,-12.866406988453864,-5.429469519519806,-16.433824745231867
1782969358657701600,8.07970166015625,-7.381624162513017,-3.722958154840767,-10.777828443539143
1782969358667628800,8.08962890625,-4.103088814055919,-2.0914766044437885,-5.952815348231792
1782969358677555000,8.099554931640625,-1.96291861359179,-0.8096813290290534,-2.1330232513189316
1782969358687480600,8.10948046875,-0.3408867363244295,0.011369973667711019,0.6535621081650257
1782969358697406700,8.11940673828125,1.1524287446588277,0.6368291461594402,2.5482275620028374
1782969358707332900,8.129332763671876,2.574236740267277,1.0400884597666562,3.61292687754333
1782969358717259500,8.139259521484375,3.856722189903259,1.2586517157144843,4.217816432476043
1782969358727185700,8.149185546875,5.076568520274758,1.422051010584086,4.563004957647621
1782969358737111800,8.15911181640625,6.3572302616149186,1.56090272417441,4.954729024022817
1782969358747037700,8.16903759765625,7.652684498417377,1.7650864493750034,5.216885922503471
1782969358756963800,8.1789638671875,8.67188492232561,1.8381541698038577,5.212998267415165
1782969358766889700,8.1888896484375,9.87285411826968,2.002432293334603,5.463301646494865
1782969358776816400,8.19881640625,11.4877641808331,2.38708656745404,5.7890802455365655
1782969358786742500,8.208742431640625,13.219563423764704,2.9017972542896864,5.987504384297132
1782969358796668400,8.21866845703125,14.825737222164868,3.3288562534183264,6.25338351817131
1782969358806594300,8.22859423828125,16.471231808084248,3.520905596449971,6.660944912886619
1782969358816520400,8.2385205078125,18.28170068310499,3.584211362929642,7.021668568581342
1782969358826447400,8.248447265625,19.709531007742882,3.4302217014402148,7.15112380053401
1782969358836373200,8.258373291015625,20.712406904315948,2.9723484618529676,6.870804637897014
1782969358846299400,8.26829931640625,21.083339819335936,2.307811370687187,6.3669491070747375
1782969358856225300,8.278225341796874,20.787143873131274,1.671613946560025,6.008983225655555
1782969358866151400,8.2881513671875,20.0108473657012,1.1156032810866832,5.922220303481817
1782969358876078300,8.298078369140624,18.812821821993587,0.8472403675727546,5.998838263738155
1782969358886004500,8.30800439453125,17.333032177537678,0.8288131688699126,6.350954250085353
1782969358895930400,8.317930419921876,15.810726748913526,0.8211508175484835,6.5861985917210575
1782969358905856300,8.327856201171874,14.356504091912507,0.7046472754970192,6.574281943956017
1782969358915782400,8.337782470703125,12.814078250801563,0.47327626816332335,6.2411296012759205
1782969358925708300,8.347708251953126,10.854591365224122,0.23618878287896514,5.753221581169963
1782969358935635500,8.357635498046875,8.334678920340538,-0.007713350856304168,5.09137212165296
1782969358945561300,8.367561279296876,5.414018267887831,-0.6278988207288086,4.364593678368628
1782969358955487200,8.3774873046875,2.2470342459022996,-1.434013543317467,3.090834848284721
1782969358965413400,8.387413330078125,-1.5887953780978916,-2.135277898377925,1.2680787386208772
1782969358975339500,8.397339599609374,-6.842932880631089,-2.413708470789343,-1.1407564270436763
1782969358985268500,8.4072685546875,-25.108586684298515,-0.5148964551987126,-7.513164384046196
1782969358995194400,8.4171943359375,-36.137895149481295,1.0108158957920967,-12.835580473035574
1782969359005120300,8.427120361328125,-43.462531934881206,1.3870033703394233,-19.21432055566907
1782969359015047400,8.43704736328125,-45.27239875235557,-0.5019387374155223,-25.72715814310312
1782969359024973300,8.446973388671875,-41.60107755351066,-3.3801644158512354,-29.81243072996139
1782969359034899200,8.456899169921876,-34.613553246593476,-4.404473268814384,-28.40939114770889
1782969359044825300,8.466825439453125,-26.148306164622305,-2.9489596952199935,-22.351700882029533
1782969359054751500,8.47675146484375,-18.13630437017679,-0.06529957064539194,-15.253471636337041
1782969359064677000,8.486677001953124,-12.802604086107015,1.8838421542674302,-9.434936163735388
1782969359074604300,8.496604248046875,-9.844480256700516,2.9161572035536167,-5.59389903421998
1782969359084530400,8.506530517578126,-7.459182618489861,3.799116096369922,-3.058776160722971
1782969359094456300,8.516456298828125,-5.168083020889759,4.546872445753216,-1.2357944256097078
1782969359104382200,8.52638232421875,-2.8120675912648436,4.824012393832207,0.0061836570709943766
1782969359114308400,8.536308349609374,-0.36885260161459443,4.668803711941838,0.6286398483544587
1782969359124235300,8.5462353515625,1.7191466821074486,4.261075728487969,0.8389481939151883
1782969359134161200,8.5561611328125,3.340382440561056,3.839176304079592,0.8544429924279451
1782969359144087300,8.56608740234375,4.6537569494575255,3.6302202499106526,0.783375359775126
1782969359154013400,8.576013427734376,5.880283195984363,3.5509944452434774,0.6527367632567882
1782969359163939300,8.585939208984374,7.143731936717033,3.6083676068037747,0.6302414383322
1782969359173866200,8.5958662109375,8.34278799251616,3.8358749244466424,0.664936319616437
1782969359183792400,8.60579248046875,9.930269365406035,4.20143900590986,0.9006229981921613
1782969359193718500,8.615718505859375,12.00610767121315,4.66451039866209,1.3037015484049916
1782969359203644200,8.62564404296875,14.008520675325393,5.011744458186626,2.0287243801936508
1782969359213570300,8.6355703125,15.761412975168227,5.432989510339498,2.903150130203366
1782969359223497500,8.64549755859375,17.324976296854018,5.816669678729772,3.558399753063917
1782969359233423400,8.65542333984375,18.739105428397654,5.996579671156406,3.9635111242786047
1782969359243349200,8.665349365234375,19.683744240057468,5.940284367960691,4.097807074260712
1782969359253275400,8.675275390625,20.001473972678184,5.747856839266419,4.001894046425819
1782969359263201300,8.685201171875,20.009292537474632,5.650380215376615,3.8169445985272525
1782969359273127400,8.69512744140625,19.746989508521555,5.52739330265522,3.489167226883769
1782969359283054300,8.705054443359375,19.09958709203005,5.2459378294646735,3.169837365590036
1782969359292980500,8.71498046875,18.27629502466917,4.906057639834285,2.889680992299318
1782969359302906400,8.72490625,17.340706949949265,4.52904482037872,2.6956916211158037
1782969359312832300,8.734832275390625,16.169362492418287,4.125509320178628,2.56218214533627
1782969359322758400,8.74475830078125,14.793088167494535,3.703034433969855,2.298175819596648
1782969359332685300,8.754685302734375,13.426359085029363,3.447610935397446,2.1738274092637
1782969359342611200,8.764611083984375,12.135917123430966,3.018108927030861,1.9264077689267693
1782969359352537300,8.774537353515624,11.001976221621035,2.3222062451340255,1.2541671176463365
1782969359362463200,8.784463134765625,9.555755084767936,1.399998607121408,0.42726416631191966
1782969359372389400,8.794389404296876,7.857296970424056,0.4241144701093435,-0.10827376610562205
1782969359382316300,8.80431640625,5.7855286905348295,-0.1550941155999899,-0.9328368763156235
1782969359392242400,8.814242431640626,2.558046068444848,-0.5282369617544115,-1.9399165081888436
1782969359402168300,8.824168212890624,-1.7977397418290375,-1.0102088698096572,-3.102674339160323
1782969359412094500,8.834094482421875,-7.401136087712645,-1.84323220372051,-4.754223402813077
1782969359422020400,8.844020263671876,-15.05664324233532,-2.0194392499759792,-6.87763886783123
1782969359431946200,8.8539462890625,-23.799727606999873,-1.4306087033100425,-8.979237053316831
1782969359441873400,8.863873291015626,-32.10569247403145,0.06641564212851225,-11.697584158354998
1782969359451799300,8.87379931640625,-38.0243343345046,1.4013175807654856,-15.213907687711714
1782969359461725200,8.88372509765625,-39.067876587986945,0.6245644886743277,-18.550981734377146
1782969359471651300,8.8936513671875,-35.59776652827263,-1.4287470010913907,-20.1082731361866
1782969359481577500,8.903577392578125,-29.936288580298424,-2.5993662130877375,-19.998997937953472
1782969359491504400,8.91350439453125,-23.62341943845749,-2.3259816720195112,-18.391913454449174
1782969359501430300,8.92343017578125,-17.216973018252848,-1.383729901626706,-15.21264745851755
1782969359511356400,8.9333564453125,-11.078262173444031,-0.25109434679429976,-11.274024399518966
1782969359521282600,8.943282470703124,-6.569388911217451,0.3545303174799308,-7.782648264414072
1782969359531208200,8.953208251953125,-3.990824955400824,0.48734907104894515,-5.090640884768963
1782969359541135400,8.96313525390625,-2.7667612995952364,0.7177727875951677,-2.7115932468637824
1782969359551061500,8.9730615234375,-2.364596210965514,1.2039515727557242,-0.5004574128165841
1782969359560987100,8.982987060546876,-2.086833747074008,1.7617158038981258,1.3342057000011205
1782969359570913300,8.992913330078125,-1.9637977345138786,2.159951297993958,2.5806433924391863
1782969359580839400,9.00283935546875,-1.5567384441018104,2.225998179875314,2.9209447300910947
1782969359590766300,9.012766357421874,-0.6081342359423637,2.209322939406335,2.6150726085245606
1782969359600692200,9.022692138671875,0.9904641587674617,2.2081221853144464,2.1385031440347433
1782969359610618400,9.032618408203126,3.421033017334342,1.9754414105564355,1.9295561499550937
1782969359620544500,9.04254443359375,6.436954371193051,1.818466595776379,2.2459794761523604
1782969359630470400,9.052470458984375,9.48400385376513,1.9150778350085018,2.767381477320194
1782969359640396300,9.062396240234374,12.16720424209833,2.0776897788926956,3.4144892947793006
1782969359650323500,9.072323486328125,14.1652800937891,2.486504388539493,3.989882413853705
1782969359660249300,9.082249267578124,15.219254893958567,3.0359532112792134,4.446783301277458
1782969359670175200,9.09217529296875,16.060019489645956,3.674787413650751,4.796544541192055
1782969359680101400,9.102101318359376,16.786203766429423,4.209289719410241,4.924885674422979
1782969359690027300,9.11202734375,16.90842495547533,4.381204913690686,4.669939437973499
1782969359699954200,9.1219541015625,16.89509318021536,4.349223675279319,4.014616749876738
1782969359709880300,9.13188037109375,17.2608542455554,4.084502187007665,3.140552526655793
1782969359719806500,9.141806396484375,17.670229996216296,3.575464285111427,2.091234904642403
1782969359729732400,9.151732421875,17.856657407712934,2.9916780162230134,1.1018385212369262
1782969359739658200,9.161658203125,17.83495761708021,2.6312907528758047,0.4745091709591448
1782969359749585400,9.17158544921875,17.582462865436074,2.404528408381343,0.3297863733783364
1782969359759511300,9.18151123046875,17.103807242321967,2.1516772445149717,0.5350637390345334
1782969359769437400,9.1914375,16.515048737978933,1.9854510556563734,0.8690227219223976
1782969359779364000,9.201364013671874,16.0017485024631,1.9532881770677863,1.4173071770578622
1782969359789290000,9.2112900390625,15.115670600843428,1.901022275518626,2.1261764541640877
1782969359799216000,9.221216064453126,14.100923064690827,1.880918375775218,2.602957515577972
1782969359809143000,9.23114306640625,13.286053957760334,1.7022928702011704,2.886840508176386
1782969359819069000,9.24106884765625,12.408595415925978,1.2326837462432683,3.135871675363183
1782969359828995000,9.2509951171875,10.77687917999029,0.7375114342227578,3.1286002230554817
1782969359838921000,9.2609208984375,8.445260524997115,0.11848244090899825,2.901236697797477
1782969359848846800,9.270846923828126,5.267545265638828,-1.1281913983725012,1.5556643851295113
1782969359858774000,9.28077392578125,-0.6095277361273765,-2.9191818120718,-1.4273963171347974
1782969359868700000,9.290699951171876,-10.936668759930134,-3.8835511601179835,-5.22709050565362
1782969359878626000,9.3006259765625,-23.503005591094492,-3.9152737475931643,-9.713131758347153
1782969359888552000,9.310552001953125,-34.56535824774504,-3.875315831214189,-13.315678696173428
1782969359898478000,9.32047802734375,-42.38007689015865,-3.259689193689823,-15.548893675559759
1782969359908405000,9.330405029296875,-45.2041312718153,-3.0237147842139005,-17.067127324700355
1782969359918331000,9.340330810546876,-43.330977100300785,-3.488938971085846,-17.319036385411025
1782969359928257000,9.350257080078125,-38.14416365997791,-3.5286984422832726,-16.019626688981056
1782969359938183200,9.36018310546875,-30.248820744276046,-2.898435961163044,-12.83601652636528
1782969359948108800,9.37010888671875,-22.047085482525823,-1.6964561268717049,-8.678913213527203
1782969359958035000,9.380034912109375,-14.836220037734508,-0.42431328061707313,-4.669553361265361
1782969359967962000,9.389962158203126,-9.15656521255672,0.48560865712240336,-1.719580105088651
1782969359977888000,9.399887939453125,-5.416809944432973,0.9421868884630501,0.23531886817663908
1782969359987814000,9.40981396484375,-3.28545024241209,1.4430856153063476,1.421962893909216
1782969359997740000,9.419739990234374,-2.270063239312172,2.1288072410590946,1.7792708959415553
1782969360007666200,9.429666259765625,-1.3433277486115693,2.6185236257612705,1.5423228191278875
1782969360017592800,9.4395927734375,-0.19431728796362877,2.8395307677298782,1.0110016276225446
1782969360027519000,9.44951904296875,1.0854992347240446,2.814769835960865,0.48066769358888267
1782969360037445000,9.459445068359376,2.2880682670801877,2.748262350830436,-0.16613851057514548
1782969360047371000,9.46937109375,3.4483021325320005,2.78952667363286,-0.6788007404483855
1782969360057297000,9.479296875,4.723889054825902,3.0986838082194326,-0.8500149468526244
1782969360067224000,9.48922412109375,6.1758233086287975,3.412917807678878,-0.8785190106727182
1782969360077150200,9.499150146484375,7.703211155083775,3.6224949163556097,-0.8313679679192603
1782969360087075800,9.509075927734376,9.716180624523759,3.792892399549484,-0.5072836055748164
1782969360097002000,9.519001953125,12.014124973452091,3.829362473812699,-0.10988719265162944
1782969360106928000,9.52892822265625,13.91654498693943,3.817247088605165,0.3642293257281184
1782969360116854000,9.53885400390625,15.545985094636677,3.878435424539447,0.7632020480573177
1782969360126781000,9.548781005859375,16.851735684525966,3.8288749825567003,1.1173261593565345
1782969360136707000,9.55870703125,17.7300850377202,3.6443536969423294,1.2651187197715044
1782969360146633000,9.568633056640625,18.12811872563362,3.240673527574539,1.1808233567550779
1782969360156559000,9.57855908203125,18.167202197265624,2.9761686046630142,1.1111034854494035
1782969360166485000,9.588485107421874,17.8520233181715,2.820721437841654,1.0923743081253021
1782969360176412200,9.598412109375,16.83050584949255,2.4269983066037297,0.6252461873281747
1782969360186338000,9.608338134765624,15.216605840754507,2.153194224949181,-0.08863872598297894
1782969360196264000,9.618263916015625,13.492988735234736,2.2372965496115387,-0.4138425208114087
1782969360206190000,9.628190185546876,13.414562264251709,2.2422074102677403,-0.06916771731562912
1782969360216116000,9.638115966796875,13.505018195724487,2.2367763251297172,0.5558667269580065
1782969360226043000,9.64804296875,12.379720034575461,2.057254309107363,0.5240147409494966
1782969360235969000,9.657968994140624,11.12793250554204,1.7785000576995311,0.7901974608801304
1782969360245895000,9.66789501953125,9.626030982521176,1.433436912473291,1.0025791055835782
1782969360255821000,9.677821044921876,8.420391456678509,1.0568757823079824,1.1070957111127675
1782969360265747000,9.687746826171875,6.6956164132952685,0.6061870473973453,0.5900606729827821
1782969360275672800,9.6976728515625,3.3606852238774296,0.16202800651639698,-0.3997480906158685
1782969360285600000,9.70760009765625,-0.9971651177108287,0.06682539197318256,-1.6760795476667583
1782969360295526100,9.717526123046875,-6.3594245567888015,-0.09852277194187045,-3.588707213044166
1782969360305452000,9.7274521484375,-13.79542854426503,-0.0844806564554572,-5.707692586660385
1782969360315378000,9.7373779296875,-22.327992674183843,0.3342346945567056,-7.984722742375731
1782969360325304000,9.747303955078126,-30.3325336312294,0.305353979443945,-10.692345624303817
1782969360335231000,9.75723095703125,-34.443490109920496,0.2538793378703296,-12.104148358726501
1782969360345156900,9.767156982421875,-33.256962111783025,0.5508641694303602,-11.8096662307024
1782969360355083000,9.7770830078125,-28.030373125910756,0.43168395551554856,-11.329235999131201
1782969360365009200,9.787009033203125,-22.157821985483167,-0.3829283636422828,-11.707509340041875
1782969360374934800,9.796934814453126,-16.844461894130706,-0.6466781208049506,-10.56635894524455
1782969360384862000,9.806862060546875,-12.25747195752263,-0.6737787475679069,-8.485270463824271
1782969360394788000,9.8167880859375,-7.4055240935385225,-0.5665139393091202,-6.188991417759657
1782969360404714000,9.8267138671875,-2.885650713869929,-0.48616212628670036,-4.07609120927602
1782969360414639900,9.836639892578125,-0.11869535300731658,-0.3469700748261064,-2.2697619182780384
1782969360424566000,9.84656591796875,1.0727806229263543,-0.24092830555625258,-1.0430883722350002
1782969360434492200,9.8564921875,1.2265355988770723,-0.11083901348374783,-0.2840305843755603
1782969360444418800,9.866418701171876,0.999620694169402,0.09762414260171354,0.1638224887177348
1782969360454345000,9.876344970703125,0.7496493235230446,0.11654825797602533,0.5399374825507403
1782969360464271000,9.88627099609375,1.0694722290307284,0.2929766918972134,0.8437415656715631
1782969360474197000,9.896197021484374,1.6608090594291687,0.3384098978821188,1.0032552512794732
1782969360484123000,9.906122802734375,2.7602023794710635,0.0026073329541832207,0.8779026323400437
1782969360494050000,9.916050048828126,4.089882711002231,-0.2942673892948776,0.6951309668719768
1782969360503976200,9.92597607421875,5.430455023425817,-0.5367466506201773,0.4782084638684988
1782969360513901800,9.93590185546875,6.729578304129839,-0.6663084847524762,0.24349399132579563
1782969360523828000,9.945827880859374,8.165937387660145,-0.4706269226983189,0.5363786210253835
1782969360533754000,9.955754150390625,9.782127553161978,-0.15072496060505508,1.0817780222438276
1782969360543681000,9.965680908203124,11.031323896658419,0.20528028826564548,1.5127208770684897
1782969360553607000,9.97560693359375,11.750931133139133,0.6111360481068492,2.1072081343218683
1782969360563533000,9.985532958984376,12.332771236395836,1.2118430566579104,2.833440049639344
1782969360573459000,9.995458984375,12.679759796726703,1.7021265737235545,3.495914655317366
1782969360583385000,10.005385009765625,12.58392275673747,2.058801392418891,3.785098384672403
1782969360593312000,10.01531201171875,12.152691732621193,2.287832412497699,3.7959815977364775
1782969360603238100,10.025238037109375,11.856618536013364,2.1206936388388273,3.085909666842222
1782969360613164000,10.0351640625,11.58609011502862,1.5775623286828397,1.8167431329846382
1782969360623090000,10.04508984375,11.633584856653213,1.1574151547692715,1.2130495098382235
1782969360633016000,10.05501611328125,11.846982108139992,1.1965361819326876,1.2913812882751226
1782969360642942000,10.06494189453125,11.940724221676588,1.3982738291554153,1.642607632306218
1782969360652868900,10.074868896484375,11.40000055718422,1.2794525116808713,1.8825211347967385
1782969360662795000,10.084794921875,10.352824915635585,0.8598606335625052,2.0556882288344203
1782969360672721000,10.094720947265625,9.038730860292912,0.6502794332325458,2.6040502792507407
1782969360682647000,10.10464697265625,7.374258602181077,0.46678354514315723,3.138211516487598
1782969360692573200,10.1145732421875,4.7655572822540995,0.19242709030285476,3.029504473531246
1782969360702500000,10.1245,0.4861597151339054,-0.14400230128653346,2.113642843544483
1782969360712426000,10.134426025390624,-6.075914489156007,-0.2404039163559675,0.4365792532764375
1782969360722352000,10.14435205078125,-14.616291338652372,-0.043105347559228534,-1.8435652350671587
1782969360732278000,10.154278076171876,-22.30159098947048,0.39917416318543253,-3.585028524531424
1782969360742204000,10.164203857421874,-25.849419079637524,1.181908521643281,-3.809459503468871
1782969360752131000,10.174131103515625,-25.347319452571867,1.6019778080150484,-3.527728135946393
1782969360762057000,10.184056884765624,-22.456084801089762,1.1024706085953861,-3.994566480016708
1782969360771983000,10.193983154296875,-18.43616059245467,0.3089990214154124,-3.879821910461783
1782969360781909000,10.203908935546876,-15.098001673161983,-0.25009521622173486,-2.9688217490315436
1782969360791835100,10.213835205078125,-12.689299193966388,-0.38637181862704456,-1.7304618568480015
1782969360801761000,10.223760986328125,-10.747288343846797,-0.25591639665588733,-0.5635907453387975
1782969360811688200,10.233688232421875,-9.108388333886861,-0.10367672063894569,0.21980770305097103
1782969360821614000,10.243614013671875,-7.601367568156123,-0.13115107608512044,0.764076200543344
1782969360831540200,10.253540283203124,-6.50312750980258,0.05120104879662394,1.2715709646508098
1782969360841466000,10.263466064453125,-5.738742389440536,0.3833156459268182,1.4052934986591339
1782969360851392000,10.27339208984375,-5.014285959362984,0.44280740707628424,1.088279513092339
1782969360861319200,10.283319091796875,-4.160317014187574,0.3031656390868127,0.4043060461811721
1782969360871245000,10.2932451171875,-2.9626246479570866,0.31656580340787766,-0.0648395519182086
1782969360881171000,10.3031708984375,-1.5573650515675543,0.27672749482057984,-0.5017312321446836
1782969360891097000,10.31309716796875,-0.3688186993449926,0.08624956582412123,-1.009800142878294
1782969360901023200,10.323023193359376,0.7846767977625131,0.09914053851403296,-1.2298412162937222
1782969360910950100,10.3329501953125,2.4377386040657756,0.08025755886770784,-1.361221132698655
1782969360920876000,10.3428759765625,4.234863428866863,0.0512824434697628,-1.294498835773766
1782969360930802200,10.35280224609375,5.835891096550226,0.25338088682889937,-1.020332496678084
1782969360940728000,10.36272802734375,7.173945288673043,0.30989494734182954,-0.7638473602235317
1782969360950654000,10.372654052734376,8.04850577097833,0.4732100710593164,-0.3629709962300956
1782969360960580000,10.382580078125,8.803683502534032,0.6313952845424413,0.20578882230967283
1782969360970507300,10.39250732421875,9.613428690579534,0.7383101833850145,0.7199709552265703
1782969360980433000,10.402432861328125,10.375672707259655,0.7654723310768604,1.1337478634558618
1782969360990359000,10.412359130859375,10.7514594920516,0.8427300505414604,1.3967569948516785
1782969361000285200,10.42228515625,10.935728848731516,1.0954118491902947,1.3876761550344525
1782969361010211000,10.432211181640625,11.517310593312978,1.3073800907872617,1.1789387120522559
1782969361020138000,10.442137939453126,12.066313425850867,0.8033294757843017,1.3996421948991715
1782969361030064000,10.452064208984375,12.601038726711272,1.2428851145230233,1.3537288772471248
1782969361039990300,10.461990234375,12.473168718123436,1.5331507938958704,1.3540728683792054
1782969361049916000,10.471916015625,11.847846031492947,1.453079186054319,1.0628916815966367
1782969361059842000,10.481842041015625,11.164232483935356,1.4264754028975963,0.6507756192516535
1782969361069769200,10.491769287109374,10.376346076476572,1.4813585012078285,0.4294274087604135
1782969361079695000,10.501695068359375,9.445839250543713,1.519533187431842,0.5267341559760272
