time,seconds_elapsed,z,y,x
1782969350657193500,0.079193359375,0.05806717276573181,0.886594831943512,-0.1404627412557602
1782969350667119600,0.08911962890625,-0.040240488946437836,1.148803949356079,-0.24637772142887115
1782969350677045500,0.09904541015625,-0.1443958431482315,1.2456001043319702,-0.21966767311096191
1782969350686971400,0.108971435546875,-0.22536659240722656,1.1671007871627808,-0.10838669538497925
1782969350696897500,0.1188974609375,-0.2593964636325836,0.9908453822135925,0.060316648334264755
1782969350706824400,0.128824462890625,-0.22778606414794922,0.8024083971977234,0.20149028301239014
1782969350716750300,0.138750244140625,-0.1524088829755783,0.6502335667610168,0.28769442439079285
1782969350726676500,0.148676513671875,-0.07751759886741638,0.48716259002685547,0.38444438576698303
1782969350736602600,0.1586025390625,-0.03489433601498604,0.32569608092308044,0.4835882782936096
1782969350746528500,0.168528564453125,-0.05474633723497391,0.2602861821651459,0.5609352588653564
1782969350756455400,0.178455322265625,-0.09521757811307907,0.3308940529823303,0.5417131185531616
1782969350766381800,0.1883818359375,-0.15908285975456238,0.48215439915657043,0.4390365779399872
1782969350776307700,0.1983076171875,-0.28995075821876526,0.614054799079895,0.3226814270019531
1782969350786233600,0.208233642578125,-0.39607346057891846,0.7185316681861877,0.23668129742145538
1782969350796159700,0.21815966796875,-0.43825703859329224,0.7701234221458435,0.14499852061271667
1782969350806086700,0.228086669921875,-0.42443522810935974,0.6849334239959717,0.10822558403015137
1782969350816012500,0.238012451171875,-0.37771785259246826,0.43202099204063416,0.17191052436828613
1782969350825938700,0.247938720703125,-0.29701903462409973,0.03264988586306572,0.23775212466716766
1782969350835864800,0.25786474609375,-0.18564052879810333,-0.5241697430610657,0.22542299330234528
1782969350845790700,0.267790771484375,-0.015074913389980793,-1.2350656986236572,0.08926861733198166
1782969350855717600,0.277717529296875,0.25952279567718506,-2.06307053565979,-0.1750299632549286
1782969350865643800,0.287643798828125,0.5625157356262207,-3.0385067462921143,-0.5733166337013245
1782969350875570000,0.29756982421875,0.8175816535949707,-4.209871768951416,-0.9898555874824524
1782969350885495600,0.30749560546875,1.0492229461669922,-5.605399131774902,-1.214253544807434
1782969350895421700,0.317421630859375,1.3440935611724854,-7.0450615882873535,-1.158817172050476
1782969350905348900,0.327348876953125,1.6975860595703125,-8.030999183654785,-0.6639077663421631
1782969350915274500,0.3372744140625,2.008755922317505,-7.955053806304932,0.18859978020191193
1782969350925200600,0.34720068359375,2.1104228496551514,-6.632084369659424,0.8423948884010315
1782969350935126800,0.357126708984375,1.8785933256149292,-4.415004730224609,0.8817750811576843
1782969350945052700,0.367052734375,1.31095552444458,-1.7720423936843872,0.5003347992897034
1782969350954979600,0.3769794921875,0.5768905282020569,0.670661985874176,0.0960870236158371
1782969350964905700,0.38690576171875,-0.03542320802807808,2.324028253555298,-0.19544441998004913
1782969350974831900,0.396831787109375,-0.3696805536746979,2.787452459335327,-0.32879456877708435
1782969350984757800,0.4067578125,-0.4454687833786011,2.281111001968384,-0.1346871554851532
1782969350994683600,0.41668359375,-0.3986325263977051,1.315036654472351,0.38048145174980164
1782969351004610800,0.42661083984375,-0.28611770272254944,0.2705494165420532,1.0341311693191528
1782969351014536700,0.43653662109375,-0.11638108640909195,-0.6254063248634338,1.6395294666290283
1782969351024462600,0.446462646484375,0.07572044432163239,-1.2084989547729492,2.0752134323120117
1782969351034388700,0.456388671875,0.22483083605766296,-1.3465121984481812,2.326582193374634
1782969351044314600,0.466314697265625,0.30138567090034485,-1.0363483428955078,2.3485465049743652
1782969351054241500,0.476241455078125,0.30538830161094666,-0.4228458106517792,2.1357038021087646
1782969351064167700,0.486167724609375,0.24264878034591675,0.3960336148738861,1.791588306427002
1782969351074093800,0.49609375,0.15428495407104492,1.1792545318603516,1.4414829015731812
1782969351084019700,0.506019775390625,0.08373863250017166,1.7199167013168335,1.0619325637817383
1782969351093945900,0.51594580078125,0.024261459708213806,1.9505012035369873,0.6791922450065613
1782969351103872800,0.525872802734375,0.06272629648447037,1.8736381530761719,0.26591944694519043
1782969351113798700,0.535798583984375,0.0935361236333847,1.5616477727890015,-0.1004890650510788
1782969351123724800,0.545724853515625,0.13551978766918182,1.169390082359314,-0.36064767837524414
1782969351133650700,0.555650634765625,0.1989220827817917,0.7770171761512756,-0.4799495041370392
1782969351143576600,0.56557666015625,0.269863098859787,0.4103662371635437,-0.49001652002334595
1782969351153503700,0.575503662109375,0.3500758707523346,0.044545333832502365,-0.45209041237831116
1782969351163429600,0.5854296875,0.4392174780368805,-0.3616306781768799,-0.4003470540046692
1782969351173355800,0.595355712890625,0.5305550694465637,-0.772075891494751,-0.32491397857666016
1782969351183281700,0.60528173828125,0.5820789933204651,-1.1478569507598877,-0.2333499640226364
1782969351193207800,0.615207763671875,0.6068342924118042,-1.4011256694793701,-0.17082054913043976
1782969351203134700,0.625134765625,0.6354259848594666,-1.4997172355651855,-0.18128730356693268
1782969351213060600,0.635060546875,0.7108657360076904,-1.40321683883667,-0.2670474350452423
1782969351222986800,0.64498681640625,0.8388799428939819,-1.0922467708587646,-0.4661754369735718
1782969351232913000,0.654912841796875,1.0410771369934082,-0.6691932678222656,-0.8353804349899292
1782969351242838500,0.664838623046875,1.2948015928268433,-0.45835667848587036,-1.328809380531311
1782969351252765700,0.674765625,1.5398375988006592,-0.6780500411987305,-1.5675990581512451
1782969351262691800,0.68469189453125,1.5536844730377197,-1.4312199354171753,-1.2151437997817993
1782969351272617700,0.69461767578125,1.3650453090667725,-2.5464999675750732,-0.5110467076301575
1782969351282543600,0.704543701171875,1.28862726688385,-3.3849616050720215,0.0490776002407074
1782969351292469800,0.7144697265625,1.380090355873108,-3.3958327770233154,0.4060458242893219
1782969351302396700,0.724396728515625,1.3398244380950928,-2.5499205589294434,0.6826856136322021
1782969351312322600,0.734322509765625,0.9379388689994812,-1.2725167274475098,0.9537415504455566
1782969351322248700,0.744248779296875,0.28292718529701233,0.10466327518224716,1.2299747467041016
1782969351332174800,0.7541748046875,-0.37883540987968445,1.351746916770935,1.327042579650879
1782969351342100700,0.764100830078125,-0.8299863338470459,2.284954071044922,1.228640079498291
1782969351352027600,0.774027587890625,-0.9951481223106384,2.739213228225708,0.8942267894744873
1782969351361953800,0.783953857421875,-0.9757912158966064,2.7256245613098145,0.5178918242454529
1782969351371880000,0.7938798828125,-0.9793273210525513,2.3889830112457275,0.3512937128543854
1782969351381805600,0.8038056640625,-1.0085216760635376,1.8813499212265015,0.3791927099227905
1782969351391731700,0.813731689453125,-1.0286531448364258,1.3874956369400024,0.4990682601928711
1782969351401659000,0.823658935546875,-1.0342566967010498,1.0342285633087158,0.5999008417129517
1782969351411584500,0.83358447265625,-1.0314185619354248,0.843469500541687,0.6228212714195251
1782969351421510700,0.8435107421875,-1.0175464153289795,0.8095786571502686,0.5919467210769653
1782969351431436800,0.853436767578125,-1.0001901388168335,0.9332830309867859,0.5619372129440308
1782969351441362700,0.86336279296875,-0.973389744758606,1.1409409046173096,0.5622338652610779
1782969351451289600,0.87328955078125,-0.9721367359161377,1.3728166818618774,0.6246931552886963
1782969351461215700,0.8832158203125,-1.0176975727081299,1.5848498344421387,0.7567145824432373
1782969351471142000,0.893141845703125,-1.0751053094863892,1.7717499732971191,0.8968226313591003
1782969351481067800,0.90306787109375,-1.1300380229949951,1.917730450630188,1.0328662395477295
1782969351490993700,0.91299365234375,-1.1967637538909912,2.0183496475219727,1.1169819831848145
1782969351500920800,0.9229208984375,-1.2763142585754395,2.07871675491333,1.0994246006011963
1782969351510846700,0.9328466796875,-1.3530504703521729,2.0897789001464844,0.9470276236534119
1782969351520772600,0.942772705078125,-1.3308969736099243,1.9977754354476929,0.6843635439872742
1782969351530698800,0.95269873046875,-1.2241413593292236,1.7702080011367798,0.3363172113895416
1782969351540624600,0.962624755859375,-1.0647410154342651,1.40969979763031,-0.007058531511574984
1782969351550551600,0.972551513671875,-0.8675154447555542,0.9471843242645264,-0.2596639096736908
1782969351560477700,0.982477783203125,-0.6499761939048767,0.484574556350708,-0.4355768859386444
1782969351570403800,0.99240380859375,-0.43675634264945984,0.041292134672403336,-0.5182702541351318
1782969351580329700,1.002329833984375,-0.23419442772865295,-0.3942473530769348,-0.4967591464519501
1782969351590255600,1.012255615234375,-0.051762498915195465,-0.7835373878479004,-0.41473257541656494
1782969351600182800,1.022182861328125,0.10354799777269363,-1.0839406251907349,-0.3446567952632904
1782969351610108700,1.032108642578125,0.198633074760437,-1.2518638372421265,-0.3341297507286072
1782969351620034800,1.042034912109375,0.21963821351528168,-1.3266429901123047,-0.3589986264705658
1782969351629960700,1.051960693359375,0.23326927423477173,-1.3944495916366577,-0.42708274722099304
1782969351639886600,1.061886474609375,0.2736244201660156,-1.4685240983963013,-0.5307098031044006
1782969351649813800,1.071813720703125,0.33016330003738403,-1.5014680624008179,-0.6842119693756104
1782969351659739600,1.08173974609375,0.37647727131843567,-1.5691131353378296,-0.8861472010612488
1782969351669665800,1.091665771484375,0.4190948009490967,-1.7040833234786987,-1.1244412660598755
1782969351679591700,1.101591796875,0.4686200022697449,-1.8354853391647339,-1.436937928199768
1782969351689517800,1.111517822265625,0.5204199552536011,-1.9559282064437866,-1.7695939540863037
1782969351699444700,1.12144482421875,0.6830498576164246,-2.1095402240753174,-2.0997841358184814
1782969351709370600,1.13137060546875,1.0569589138031006,-2.360987424850464,-2.4891626834869385
1782969351719296800,1.141296875,1.5497081279754639,-3.0382161140441895,-2.987933397293091
1782969351729222700,1.15122265625,1.892293930053711,-4.353475093841553,-3.404634475708008
1782969351739148500,1.1611484375,2.0004477500915527,-5.902138710021973,-3.2725210189819336
1782969351749075700,1.17107568359375,1.9734638929367065,-6.5559916496276855,-2.0634875297546387
1782969351759001900,1.181001953125,1.7068783044815063,-5.600964546203613,-0.15286242961883545
1782969351768927200,1.19092724609375,0.8744537830352783,-3.338406562805176,1.6731446981430054
1782969351778853400,1.200853271484375,-0.26999521255493164,-0.2915804088115692,2.6553432941436768
1782969351788779300,1.210779296875,-1.03745698928833,2.3471741676330566,2.334791898727417
1782969351798706200,1.2207060546875,-1.439731478691101,4.145078659057617,1.2209904193878174
1782969351808632300,1.23063232421875,-1.6611905097961426,4.916038513183594,0.11873757839202881
1782969351818558200,1.24055810546875,-1.8926072120666504,4.836920261383057,-0.4447271227836609
1782969351828484400,1.250484375,-2.070939302444458,4.177485942840576,-0.5254809856414795
1782969351838410500,1.260410400390625,-2.0770673751831055,3.207753896713257,-0.39836376905441284
1782969351848337400,1.27033740234375,-1.9437843561172485,2.141761541366577,-0.1357390433549881
1782969351858263300,1.28026318359375,-1.6561968326568604,1.1393481492996216,0.1686384379863739
1782969351868189400,1.290189453125,-1.2485947608947754,0.36915674805641174,0.43866801261901855
1782969351878115300,1.300115234375,-0.8133395314216614,-0.09017887711524963,0.7104861736297607
1782969351888041200,1.310041259765625,-0.4406987726688385,-0.2858127951622009,1.000754475593567
1782969351897967400,1.31996728515625,-0.18264888226985931,-0.22005988657474518,1.2555583715438843
1782969351907894300,1.329894287109375,-0.06627490371465683,0.07449298352003098,1.4922242164611816
1782969351917820200,1.339820068359375,-0.1196822002530098,0.5321431159973145,1.7144359350204468
1782969351927746300,1.349746337890625,-0.2907486855983734,1.0953989028930664,1.9059922695159912
1782969351937672400,1.35967236328125,-0.4824363589286804,1.550031065940857,2.0628764629364014
1782969351947599400,1.369599365234375,-0.577940821647644,1.7279449701309204,2.0771946907043457
1782969351957525200,1.379525146484375,-0.5221755504608154,1.6645442247390747,1.8326244354248047
1782969351967451400,1.389451416015625,-0.3397925794124603,1.5263890027999878,1.3332545757293701
1782969351977377500,1.39937744140625,-0.1494239717721939,1.3549777269363403,0.7258445620536804
1782969351987303200,1.40930322265625,0.026807531714439392,1.1331125497817993,0.13250088691711426
1782969351997229300,1.419229248046875,0.1566653996706009,0.8868817090988159,-0.37268826365470886
1782969352007156500,1.429156494140625,0.23080073297023773,0.6040893793106079,-0.7274559736251831
1782969352017082400,1.439082275390625,0.26589030027389526,0.3400720953941345,-0.8883937001228333
1782969352027008300,1.44900830078125,0.29242151975631714,0.09352971613407135,-0.8745201230049133
1782969352036934400,1.458934326171875,0.310703307390213,-0.1746620535850525,-0.7407839298248291
1782969352046860300,1.4688603515625,0.33125123381614685,-0.41966548562049866,-0.564078152179718
1782969352056787200,1.478787109375,0.3695072829723358,-0.6244410276412964,-0.4007270336151123
1782969352066713300,1.48871337890625,0.42932870984077454,-0.7512379288673401,-0.33563050627708435
1782969352076639500,1.498639404296875,0.5040762424468994,-0.8114530444145203,-0.43527403473854065
1782969352086565400,1.5085654296875,0.6233790516853333,-0.8551681637763977,-0.7060388326644897
1782969352096491300,1.5184912109375,0.8036518692970276,-0.901991069316864,-1.12053644657135
1782969352106418400,1.52841845703125,1.0363116264343262,-1.0523076057434082,-1.5523415803909302
1782969352116344600,1.538344482421875,1.3649369478225708,-1.6005494594573975,-1.8036962747573853
1782969352126270200,1.548270263671875,1.8464213609695435,-2.818265676498413,-1.752227783203125
1782969352136196400,1.5581962890625,2.386284112930298,-4.491584777832031,-1.208420753479004
1782969352146122200,1.568122314453125,2.7771053314208984,-5.965252876281738,-0.20584289729595184
1782969352156049200,1.578049072265625,2.782118082046509,-6.30642557144165,1.1818804740905762
1782969352165975300,1.587975341796875,2.2250993251800537,-4.908647060394287,2.6264541149139404
1782969352175901400,1.5979013671875,1.1485083103179932,-2.2965471744537354,3.3131473064422607
1782969352185827300,1.607827392578125,0.21430781483650208,0.415980726480484,2.8280258178710938
1782969352195753200,1.617753173828125,-0.47569936513900757,2.644340753555298,1.6049363613128662
1782969352205680400,1.627680419921875,-0.9131381511688232,3.95955753326416,0.3589034974575043
1782969352215606500,1.6376064453125,-1.2224560976028442,4.09342622756958,-0.33090662956237793
1782969352225532400,1.647532470703125,-1.5171408653259277,3.4586946964263916,-0.31268805265426636
1782969352235458300,1.657458251953125,-1.6754485368728638,2.5467233657836914,0.08407875150442123
1782969352245384200,1.66738427734375,-1.6557154655456543,1.6308948993682861,0.5621567964553833
1782969352255311400,1.677311279296875,-1.5111072063446045,0.8896580934524536,1.0033528804779053
1782969352265237200,1.6872373046875,-1.3308342695236206,0.40130752325057983,1.3695526123046875
1782969352275163400,1.697163330078125,-1.168061375617981,0.1834111362695694,1.649260401725769
1782969352285089300,1.70708935546875,-1.056095838546753,0.23642313480377197,1.8343639373779297
1782969352295015400,1.717015380859375,-1.0203988552093506,0.4647876024246216,1.9196304082870483
1782969352304942300,1.7269423828125,-1.0573420524597168,0.7747023701667786,1.8797132968902588
1782969352314868500,1.736868408203125,-1.1638659238815308,1.15387761592865,1.6915202140808105
1782969352324794400,1.74679443359375,-1.3515739440917969,1.6192305088043213,1.424953818321228
1782969352334720300,1.75672021484375,-1.5495128631591797,2.1078295707702637,1.1339722871780396
1782969352344646100,1.766646240234375,-1.72821843624115,2.5002148151397705,0.8254786133766174
1782969352354572300,1.776572265625,-1.7996177673339844,2.7382662296295166,0.5065972805023193
1782969352364499500,1.78649951171875,-1.7427507638931274,2.805816411972046,0.17920486629009247
1782969352374425300,1.79642529296875,-1.5599268674850464,2.6666617393493652,-0.10341005772352219
1782969352384351200,1.806351318359375,-1.3233059644699097,2.3641653060913086,-0.27178075909614563
1782969352394277400,1.81627734375,-1.0788637399673462,1.925559401512146,-0.27562955021858215
1782969352404204300,1.826204345703125,-0.8284666538238525,1.3308725357055664,-0.12684093415737152
1782969352414130400,1.83613037109375,-0.57147616147995,0.6608355641365051,0.07320693135261536
1782969352424056300,1.846056396484375,-0.30022192001342773,-0.03492886573076248,0.21272802352905273
1782969352433982500,1.855982421875,-0.029184293001890182,-0.7021061182022095,0.21442872285842896
1782969352443908400,1.865908447265625,0.2559351921081543,-1.2365018129348755,0.019953323528170586
1782969352453834200,1.875834228515625,0.5064816474914551,-1.6519206762313843,-0.32290470600128174
1782969352463761400,1.885761474609375,0.6783658862113953,-1.9525244235992432,-0.7125842571258545
1782969352473687300,1.895687255859375,0.7961990833282471,-2.094270944595337,-1.0481833219528198
1782969352483613200,1.90561328125,0.8607677221298218,-2.105084180831909,-1.2765991687774658
1782969352493539300,1.915539306640625,0.889299750328064,-2.0558643341064453,-1.4154385328292847
1782969352503465500,1.925465576171875,0.9413383603096008,-1.9374970197677612,-1.5183645486831665
1782969352513392400,1.935392333984375,0.9924721121788025,-1.812056064605713,-1.665831208229065
1782969352523318300,1.945318359375,0.9404265284538269,-1.6772273778915405,-1.813708782196045
1782969352533244400,1.955244384765625,0.8367222547531128,-1.6147757768630981,-1.9055273532867432
1782969352543170600,1.965170654296875,0.8348777294158936,-1.7777189016342163,-2.1339187622070312
1782969352553096200,1.97509619140625,1.1005805730819702,-2.4445250034332275,-2.570695161819458
1782969352563023400,1.9850234375,1.5881006717681885,-3.5390093326568604,-2.8032500743865967
1782969352572949500,1.994949462890625,2.0367929935455322,-4.515227317810059,-2.477076768875122
1782969352582875100,2.004875244140625,2.262455701828003,-4.922544479370117,-1.6233471632003784
1782969352592801300,2.01480126953125,2.1600401401519775,-4.459908962249756,-0.3937806189060211
1782969352602727400,2.0247275390625,1.7789623737335205,-3.053112268447876,0.8377057909965515
1782969352612654300,2.034654296875,1.106403112411499,-0.9967193603515625,1.5684361457824707
1782969352622580200,2.044580322265625,0.25649893283843994,1.093088984489441,1.61660897731781
1782969352632506400,2.05450634765625,-0.510405421257019,2.8133997917175293,1.1431663036346436
1782969352642432500,2.0644326171875,-0.9888988137245178,3.8118724822998047,0.4194340705871582
1782969352652358400,2.0743583984375,-1.231345534324646,4.06923246383667,-0.21180514991283417
1782969352662285300,2.084285400390625,-1.3185985088348389,3.784827947616577,-0.5492616891860962
1782969352672211500,2.09421142578125,-1.3214155435562134,3.1605801582336426,-0.5883249640464783
1782969352682137300,2.104137451171875,-1.2600027322769165,2.4254097938537598,-0.4205862581729889
1782969352692063200,2.114063232421875,-1.132347583770752,1.7547144889831543,-0.15703612565994263
1782969352701989400,2.1239892578125,-0.9568576812744141,1.2098544836044312,0.11416389793157578
1782969352711915300,2.133915283203125,-0.764012336730957,0.8110743761062622,0.3625446856021881
1782969352721842200,2.14384228515625,-0.5957391262054443,0.581601619720459,0.5747786164283752
1782969352731768300,2.153768310546875,-0.46677926182746887,0.49907344579696655,0.7527424693107605
1782969352741694500,2.163694580078125,-0.3825001120567322,0.4907435178756714,0.9074406623840332
1782969352751620400,2.173620361328125,-0.38064947724342346,0.53978031873703,1.0670230388641357
1782969352761546500,2.18354638671875,-0.45035627484321594,0.6432986855506897,1.2384257316589355
1782969352771473400,2.193473388671875,-0.5496037006378174,0.7942479848861694,1.355533480644226
1782969352781399600,2.203399658203125,-0.6503642201423645,0.957453727722168,1.3808034658432007
1782969352791325700,2.21332568359375,-0.7535691261291504,1.1152210235595703,1.2894961833953857
1782969352801251300,2.223251220703125,-0.8303480744361877,1.2905114889144897,1.0903780460357666
1782969352811177500,2.233177490234375,-0.8686275482177734,1.4571406841278076,0.8106041550636292
1782969352821104600,2.243104736328125,-0.8842917680740356,1.5918235778808594,0.4557127058506012
1782969352831030300,2.2530302734375,-0.841819703578949,1.6536693572998047,0.061578214168548584
1782969352840956400,2.262956298828125,-0.7498893737792969,1.6354115009307861,-0.32862672209739685
1782969352850882600,2.272882568359375,-0.6120510697364807,1.5218894481658936,-0.6685731410980225
1782969352860808400,2.282808349609375,-0.390094131231308,1.3046170473098755,-0.9330520629882812
1782969352870735400,2.2927353515625,-0.17713287472724915,0.9958453178405762,-1.1009962558746338
1782969352880661500,2.30266162109375,-0.018766507506370544,0.6259852051734924,-1.1734673976898193
1782969352890587600,2.312587646484375,0.08990564942359924,0.19066859781742096,-1.1113091707229614
1782969352900513500,2.322513427734375,0.15871788561344147,-0.24455446004867554,-0.9024821519851685
1782969352910439400,2.332439453125,0.23438335955142975,-0.5854747891426086,-0.6547123193740845
1782969352920366600,2.34236669921875,0.3579563498497009,-0.8016787767410278,-0.5088539719581604
1782969352930292500,2.35229248046875,0.5331968069076538,-0.8923274874687195,-0.5389602184295654
1782969352940218400,2.36221826171875,0.723644495010376,-0.8811804056167603,-0.7600092887878418
1782969352950144500,2.37214453125,0.9288037419319153,-0.8421259522438049,-1.1550383567810059
1782969352960070400,2.3820703125,1.220593810081482,-0.8682113885879517,-1.7175475358963013
1782969352969996500,2.39199658203125,1.5847067832946777,-1.225706696510315,-2.328169107437134
1782969352979923500,2.40192333984375,1.9665683507919312,-2.478740930557251,-2.5802290439605713
1782969352989849600,2.411849609375,2.2215936183929443,-4.736015319824219,-2.028526782989502
1782969352999775500,2.421775390625,2.297170877456665,-7.1005539894104,-0.5648823976516724
1782969353009701400,2.431701416015625,2.0900561809539795,-7.867550849914551,1.3850945234298706
1782969353019627500,2.44162744140625,1.6392005681991577,-6.0049052238464355,3.002587080001831
1782969353029554400,2.451554443359375,0.9226371049880981,-2.2395541667938232,3.418116569519043
1782969353039480300,2.461480224609375,0.15523725748062134,1.3807109594345093,2.4691994190216064
1782969353049406500,2.471406494140625,-0.6818478107452393,4.0670905113220215,0.9643303751945496
1782969353059332400,2.481332275390625,-1.3464857339859009,5.359270095825195,-0.3995361924171448
1782969353069258500,2.491258544921875,-1.8105162382125854,5.336988925933838,-1.1125231981277466
1782969353079185400,2.501185302734375,-2.0725626945495605,4.578932762145996,-1.141618013381958
1782969353089111600,2.511111572265625,-2.0873663425445557,3.5200250148773193,-0.7958385348320007
1782969353099037400,2.521037353515625,-1.8140408992767334,2.3980653285980225,-0.36400678753852844
1782969353108963600,2.530963623046875,-1.4031213521957397,1.280493974685669,0.04081152006983757
1782969353118889500,2.540889404296875,-0.9812444448471069,0.3401210606098175,0.369669109582901
1782969353128816400,2.55081640625,-0.6204878687858582,-0.31716784834861755,0.6307276487350464
1782969353138742500,2.560742431640625,-0.33479833602905273,-0.6727392673492432,0.8527851700782776
1782969353148668400,2.57066845703125,-0.12083382904529572,-0.7513368725776672,1.0161226987838745
1782969353158594300,2.58059423828125,-0.005328849423676729,-0.5937149524688721,1.0993512868881226
1782969353168520400,2.5905205078125,-0.013533249497413635,-0.2684609591960907,1.1164690256118774
1782969353178447400,2.600447265625,-0.14958073198795319,0.09786071628332138,1.0990526676177979
1782969353188373500,2.61037353515625,-0.34517577290534973,0.4765414595603943,1.0496346950531006
1782969353198299400,2.62029931640625,-0.541384220123291,0.8637161254882812,0.9392442107200623
1782969353208225500,2.6302255859375,-0.7047001719474792,1.2392282485961914,0.7550131678581238
1782969353218151700,2.640151611328125,-0.841852068901062,1.565134048461914,0.4878706932067871
1782969353228078300,2.650078369140625,-0.9416958093643188,1.8805080652236938,0.1681952327489853
1782969353238004500,2.66000439453125,-0.9439926147460938,2.0503532886505127,-0.17462158203125
1782969353247930600,2.6699306640625,-0.898171603679657,2.0368683338165283,-0.5041864514350891
1782969353257856300,2.679856201171875,-0.7617249488830566,1.809655785560608,-0.7713143229484558
1782969353267782400,2.689782470703125,-0.5402598977088928,1.3565919399261475,-0.9417377710342407
1782969353277708500,2.69970849609375,-0.28970712423324585,0.7220720052719116,-1.0188134908676147
1782969353287635500,2.709635498046875,-0.06193414330482483,0.035232074558734894,-0.988534688949585
1782969353297561300,2.719561279296875,0.157522514462471,-0.6044071912765503,-0.8833233714103699
1782969353307487500,2.729487548828125,0.3701852560043335,-1.1152795553207397,-0.7588562965393066
1782969353317413600,2.73941357421875,0.5659217834472656,-1.4281238317489624,-0.6771374940872192
1782969353327339500,2.749339599609375,0.7361363768577576,-1.6092382669448853,-0.6966241002082825
1782969353337266400,2.759266357421875,0.9067665934562683,-1.6960463523864746,-0.8425766825675964
1782969353347192600,2.769192626953125,1.0279247760772705,-1.7132844924926758,-1.1045533418655396
1782969353357118500,2.779118408203125,1.0808178186416626,-1.6921125650405884,-1.44412362575531
1782969353367044400,2.78904443359375,1.0460963249206543,-1.750622272491455,-1.7766504287719727
1782969353376970500,2.798970458984375,0.9625838398933411,-2.0037777423858643,-1.9590613842010498
1782969353386897700,2.808897705078125,0.8740832209587097,-2.424694061279297,-2.0162618160247803
1782969353396823300,2.8188232421875,0.8092400431632996,-3.0102438926696777,-2.110100030899048
1782969353406749400,2.82874951171875,0.7862998247146606,-3.7705740928649902,-2.2258641719818115
1782969353416675600,2.838675537109375,0.8245740532875061,-4.36667537689209,-2.0591933727264404
1782969353426601500,2.8486015625,0.9361850023269653,-4.385090351104736,-1.4157593250274658
1782969353436528400,2.8585283203125,0.9508687853813171,-3.531892776489258,-0.3468262255191803
1782969353446454500,2.86845458984375,0.6791056990623474,-1.9223138093948364,0.7131526470184326
1782969353456380400,2.87838037109375,0.0843396857380867,0.11501503735780716,1.3389440774917603
1782969353466306600,2.888306640625,-0.5132433176040649,2.0257952213287354,1.2955923080444336
1782969353476232400,2.898232421875,-1.0908418893814087,3.5633604526519775,0.7663150429725647
1782969353486159600,2.90815966796875,-1.560192346572876,4.479369163513184,0.04866693913936615
1782969353496085500,2.91808544921875,-1.894618034362793,4.754223346710205,-0.508769690990448
1782969353506011400,2.928011474609375,-2.047701597213745,4.5963029861450195,-0.7260942459106445
1782969353515937500,2.9379375,-2.013340950012207,4.164086818695068,-0.6350593566894531
1782969353525863400,2.947863525390625,-1.81136953830719,3.553283214569092,-0.36686810851097107
1782969353535789600,2.95778955078125,-1.5192787647247314,2.898589849472046,-0.06218234822154045
1782969353545716500,2.967716552734375,-1.1918272972106934,2.330688714981079,0.20207087695598602
1782969353555642400,2.977642333984375,-0.8543432950973511,1.913120150566101,0.40876832604408264
1782969353565568500,2.987568603515625,-0.5027996301651001,1.5729361772537231,0.6147388219833374
1782969353575494400,2.997494384765625,-0.22438716888427734,1.2505075931549072,0.8495801091194153
1782969353585420300,3.007420166015625,-0.07076828181743622,0.8891916275024414,1.145218849182129
1782969353595347500,3.017347412109375,-0.02574331872165203,0.4435749351978302,1.4355717897415161
1782969353605273600,3.027273681640625,-0.026210704818367958,0.06455332040786743,1.5664587020874023
1782969353615199500,3.037199462890625,-0.03941668942570686,-0.0986141785979271,1.4915642738342285
1782969353625125400,3.04712548828125,-0.0601390115916729,-0.021933510899543762,1.1807388067245483
1782969353635051500,3.057051513671875,-0.08145900815725327,0.2904124855995178,0.6702240705490112
1782969353644978400,3.066978515625,-0.11418632417917252,0.6988665461540222,0.06287580728530884
1782969353654904300,3.076904296875,-0.13383613526821136,1.0413439273834229,-0.5013776421546936
1782969353664830500,3.08683056640625,-0.1340923309326172,1.2229589223861694,-0.901672899723053
1782969353674756600,3.096756591796875,-0.11597389727830887,1.253646969795227,-1.1016435623168945
1782969353684682500,3.1066826171875,-0.06770649552345276,1.1185306310653687,-1.1301101446151733
1782969353694609400,3.116609375,-0.009229600429534912,0.8508448004722595,-1.030542016029358
1782969353704535600,3.12653564453125,0.052010320127010345,0.5147520303726196,-0.8786821365356445
1782969353714461400,3.13646142578125,0.12106238305568695,0.1421855390071869,-0.7262064814567566
1782969353724387300,3.14638720703125,0.19027741253376007,-0.23056647181510925,-0.6384769082069397
1782969353734313500,3.1563134765625,0.23483389616012573,-0.5723814368247986,-0.6601532101631165
1782969353744240600,3.16624072265625,0.27375680208206177,-0.8794127702713013,-0.7265468835830688
1782969353754166300,3.176166259765625,0.33133596181869507,-1.087623953819275,-0.7983661890029907
1782969353764092400,3.186092529296875,0.44770199060440063,-1.2057050466537476,-0.9187061786651611
1782969353774018800,3.196018798828125,0.6145524978637695,-1.3597122430801392,-0.985695481300354
1782969353783944700,3.20594482421875,0.8038350939750671,-1.6931625604629517,-0.8418240547180176
1782969353793870600,3.21587060546875,1.0455231666564941,-2.233544111251831,-0.6134138107299805
1782969353803797800,3.2257978515625,1.2571078538894653,-3.0299270153045654,-0.5264200568199158
1782969353813724000,3.235723876953125,1.392519235610962,-4.004189968109131,-0.5253797173500061
1782969353823649500,3.2456494140625,1.3818362951278687,-4.916294574737549,-0.38265934586524963
1782969353833575700,3.25557568359375,1.1809825897216797,-5.448410511016846,0.0890427827835083
1782969353843501800,3.265501708984375,0.8797451853752136,-5.073309421539307,0.8113040328025818
1782969353853428500,3.275428466796875,0.5822880864143372,-3.6187214851379395,1.348949670791626
1782969353863354600,3.285354736328125,0.2991626262664795,-1.4858797788619995,1.5103864669799805
1782969353873280800,3.29528076171875,-0.047339797019958496,0.7595863938331604,1.2044111490249634
1782969353883206700,3.30520654296875,-0.44089534878730774,2.417436361312866,0.5442836284637451
1782969353893132800,3.3151328125,-0.8201298117637634,3.284959077835083,-0.13743609189987183
1782969353903059700,3.325059814453125,-1.1513959169387817,3.351067543029785,-0.5787421464920044
1782969353912985900,3.33498583984375,-1.3673018217086792,2.8381283283233643,-0.7163817882537842
1782969353922911700,3.344911865234375,-1.4470456838607788,2.0012407302856445,-0.6110071539878845
1782969353932837600,3.354837646484375,-1.3708797693252563,1.0732460021972656,-0.30198612809181213
1782969353942763800,3.364763671875,-1.1600791215896606,0.2688562870025635,0.1217409074306488
1782969353952690700,3.374690673828125,-0.9043654799461365,-0.2559821307659149,0.5641132593154907
1782969353962616600,3.384616455078125,-0.677185595035553,-0.452598512172699,0.9496833086013794
1782969353972542700,3.394542724609375,-0.5479358434677124,-0.33290472626686096,1.1778662204742432
1782969353982468600,3.404468505859375,-0.5470035076141357,0.03522776812314987,1.218255639076233
1782969353992394800,3.414394775390625,-0.6396970152854919,0.5745219588279724,1.0864038467407227
1782969354002321700,3.42432177734375,-0.7686941623687744,1.107874870300293,0.8446474671363831
1782969354012247800,3.434247802734375,-0.9124882221221924,1.430806040763855,0.5307775735855103
1782969354022173700,3.444173583984375,-1.0419327020645142,1.4421519041061401,0.2420763075351715
1782969354032099800,3.454099853515625,-1.099745273590088,1.1438851356506348,0.002505196025595069
1782969354042025700,3.464025634765625,-1.075843334197998,0.5716129541397095,-0.2162092924118042
1782969354051951600,3.47395166015625,-0.9173980951309204,-0.07329829037189484,-0.4410773515701294
1782969354061878800,3.483878662109375,-0.6554493308067322,-0.7255905866622925,-0.6499096155166626
1782969354071804700,3.4938046875,-0.3259008228778839,-1.2587486505508423,-0.7811654210090637
1782969354081730600,3.50373046875,0.05013829842209816,-1.6524336338043213,-0.7997872829437256
1782969354091656700,3.51365673828125,0.40874290466308594,-1.9034795761108398,-0.7206769585609436
1782969354101582800,3.523582763671875,0.7091363072395325,-2.0025596618652344,-0.6085938215255737
1782969354111509800,3.533509765625,0.9336702227592468,-1.9489850997924805,-0.5013364553451538
1782969354121435600,3.543435546875,1.0851325988769531,-1.8086016178131104,-0.4030543267726898
1782969354131361800,3.55336181640625,1.18770170211792,-1.6738531589508057,-0.29362621903419495
1782969354141287700,3.56328759765625,1.2409271001815796,-1.6151692867279053,-0.17811721563339233
1782969354151213600,3.573213623046875,1.251708984375,-1.6253252029418945,-0.06737511605024338
1782969354161140700,3.583140625,1.2441167831420898,-1.7412158250808716,-0.016086889430880547
1782969354171067000,3.59306689453125,1.2452236413955688,-1.9433088302612305,-0.07248920202255249
1782969354180992500,3.602992431640625,1.2651941776275635,-2.2532248497009277,-0.3207288682460785
1782969354190918700,3.612918701171875,1.3072935342788696,-2.703608751296997,-0.6801754236221313
1782969354200844800,3.6228447265625,1.4137754440307617,-3.238368511199951,-0.9824433922767639
1782969354210771700,3.632771728515625,1.6633063554763794,-3.7792153358459473,-1.0551671981811523
1782969354220697600,3.642697509765625,1.9994699954986572,-4.312049388885498,-0.9005287885665894
1782969354230623700,3.652623779296875,2.1475303173065186,-4.7758097648620605,-0.45985180139541626
1782969354240550000,3.6625498046875,1.9348808526992798,-4.889510631561279,0.28544315695762634
1782969354250475500,3.6724755859375,1.361257553100586,-4.233107566833496,1.021038293838501
1782969354260401700,3.682401611328125,0.5297337770462036,-2.5412018299102783,1.3739742040634155
1782969354270328800,3.692328857421875,-0.30908235907554626,-0.13573388755321503,1.1886357069015503
1782969354280254700,3.702254638671875,-0.9895586371421814,2.1494863033294678,0.6396346092224121
1782969354290180600,3.7121806640625,-1.4166916608810425,3.6970081329345703,0.04158372804522514
1782969354300106800,3.722106689453125,-1.5600991249084473,4.2586259841918945,-0.40620604157447815
1782969354310032600,3.73203271484375,-1.5387167930603027,4.0781354904174805,-0.4888071119785309
1782969354319959600,3.74195947265625,-1.4175821542739868,3.4644522666931152,-0.24748314917087555
1782969354329885700,3.7518857421875,-1.2052463293075562,2.7164361476898193,0.15543894469738007
1782969354339811800,3.761811767578125,-0.9312470555305481,2.075343608856201,0.5884239673614502
1782969354349737700,3.77173779296875,-0.6783153414726257,1.5700756311416626,0.9988880157470703
1782969354359663600,3.78166357421875,-0.45243319869041443,1.2021578550338745,1.324387550354004
1782969354369590800,3.7915908203125,-0.25589442253112793,1.0318868160247803,1.4788843393325806
1782969354379516700,3.8015166015625,-0.12787920236587524,1.0286039113998413,1.529287576675415
1782969354389442600,3.811442626953125,-0.13461118936538696,1.1361851692199707,1.588263750076294
1782969354399368700,3.82136865234375,-0.26564618945121765,1.298384666442871,1.7181732654571533
1782969354409294600,3.831294677734375,-0.4865223169326782,1.5099811553955078,1.8669002056121826
1782969354419221800,3.8412216796875,-0.7536296248435974,1.7497918605804443,2.018096685409546
1782969354429147600,3.851147705078125,-1.0632604360580444,2.014648914337158,2.11722993850708
1782969354439073800,3.86107373046875,-1.2425380945205688,2.385622978210449,2.0529325008392334
1782969354448999700,3.870999755859375,-1.2919827699661255,2.8108882904052734,1.8145406246185303
1782969354458925800,3.88092578125,-1.2482645511627197,3.2916393280029297,1.4394018650054932
1782969354468851700,3.890851806640625,-1.142405390739441,3.520193576812744,1.0435150861740112
1782969354478778600,3.900778564453125,-0.9673790335655212,3.165828227996826,0.7935986518859863
1782969354488704800,3.910704833984375,-0.8028895258903503,2.323293924331665,0.50224369764328
1782969354498630700,3.920630615234375,-0.7000380158424377,1.4573029279708862,-0.1438586264848709
1782969354508556500,3.930556640625,-0.6408455967903137,0.9889274835586548,-1.0616133213043213
1782969354518482700,3.940482666015625,-0.5164163708686829,0.7749203443527222,-1.7952247858047485
1782969354528409600,3.95040966796875,-0.3554706871509552,0.5717551708221436,-2.081507921218872
1782969354538335700,3.960335693359375,-0.24148418009281158,0.26589006185531616,-1.9254271984100342
1782969354548261600,3.97026171875,-0.14676067233085632,-0.09971316158771515,-1.5156786441802979
1782969354558187800,3.980187744140625,-0.07424359768629074,-0.40594443678855896,-1.1789813041687012
1782969354568114000,3.990114013671875,-0.013542523607611656,-0.5581278800964355,-1.1236637830734253
1782969354578038800,4.000038818359375,0.07910725474357605,-0.5407528877258301,-1.2984803915023804
1782969354587964700,4.009964599609375,0.2097472846508026,-0.42214342951774597,-1.5805739164352417
1782969354597890600,4.019890625,0.3908936381340027,-0.3895772397518158,-1.8610039949417114
1782969354607817700,4.029817626953125,0.6172124743461609,-0.6546739935874939,-2.110299587249756
1782969354617743600,4.03974365234375,0.7886531949043274,-1.4283231496810913,-2.282418966293335
1782969354627669800,4.049669677734375,0.9382475018501282,-2.7723655700683594,-2.2896482944488525
1782969354637595600,4.059595703125,1.2227377891540527,-4.705916881561279,-2.0225486755371094
1782969354647521800,4.069521728515625,1.6910451650619507,-7.020962238311768,-1.2088055610656738
1782969354657448700,4.07944873046875,2.170894145965576,-8.870349884033203,0.03641541302204132
1782969354667374600,4.08937451171875,2.465770959854126,-8.992547035217285,1.2995965480804443
1782969354677300700,4.09930078125,2.2924022674560547,-6.870891094207764,2.2684881687164307
1782969354687227000,4.109226806640625,1.6036510467529297,-3.2192888259887695,2.704802989959717
1782969354697152500,4.119152587890625,0.5549682974815369,0.5611394643783569,2.4263756275177
1782969354707078700,4.12907861328125,-0.5480542182922363,3.461901903152466,1.5074142217636108
1782969354717005800,4.139005859375,-1.4277986288070679,5.15360164642334,0.4295162856578827
1782969354726931700,4.148931640625,-1.994901418685913,5.651075839996338,-0.3423670828342438
1782969354736857600,4.158857666015625,-2.2941439151763916,5.316591262817383,-0.595835268497467
1782969354746783700,4.16878369140625,-2.371722459793091,4.477794170379639,-0.46112295985221863
1782969354756710000,4.1787099609375,-2.2003588676452637,3.393639326095581,-0.13013063371181488
1782969354766636500,4.188636474609375,-1.8365980386734009,2.2477991580963135,0.23715002834796906
1782969354776563200,4.198563232421875,-1.3525760173797607,1.2442119121551514,0.5778002738952637
1782969354786489300,4.2084892578125,-0.8468396663665771,0.49408671259880066,0.8586260080337524
1782969354796415000,4.2184150390625,-0.40041446685791016,-0.041799869388341904,1.0951311588287354
1782969354806341000,4.228341064453125,-0.09201247245073318,-0.3202923834323883,1.3154423236846924
1782969354816268300,4.238268310546875,0.03189855068922043,-0.3183336555957794,1.5241646766662598
1782969354826194200,4.248194091796875,-0.04420536011457443,-0.07787127047777176,1.6919305324554443
1782969354836120000,4.2581201171875,-0.2671383023262024,0.29744988679885864,1.7325612306594849
1782969354846046200,4.268046142578125,-0.5537165403366089,0.8342124223709106,1.6128344535827637
1782969354855972400,4.277972412109375,-0.8699373602867126,1.5077420473098755,1.324318528175354
1782969354865899300,4.287899169921875,-1.119287371635437,2.0608866214752197,0.900564432144165
1782969354875825200,4.2978251953125,-1.2704176902770996,2.343980312347412,0.34164124727249146
1782969354885751300,4.307751220703125,-1.3158518075942993,2.3017947673797607,-0.23864629864692688
1782969354895677400,4.317677490234375,-1.1844810247421265,1.9513838291168213,-0.7429621815681458
1782969354905603000,4.32760302734375,-0.9756425619125366,1.356802225112915,-1.012284755706787
1782969354915529200,4.337529296875,-0.6994813084602356,0.6932865977287292,-1.0404431819915771
1782969354925456400,4.347456298828125,-0.38302087783813477,0.04509736970067024,-0.8889244198799133
1782969354935382000,4.357382080078125,-0.03845126926898956,-0.5185087323188782,-0.6964157223701477
1782969354945310200,4.367310302734375,0.31673046946525574,-0.9018831849098206,-0.6081030964851379
1782969354955237000,4.377237060546875,0.6104491949081421,-1.0821959972381592,-0.6789386868476868
1782969354965163300,4.387163330078125,0.7651214599609375,-1.0659183263778687,-0.8656203746795654
1782969354975089400,4.39708935546875,0.774864912033081,-0.9425709247589111,-1.076364278793335
1782969354985015000,4.40701513671875,0.7143726348876953,-0.8357208967208862,-1.2794328927993774
1782969354994941200,4.416941162109375,0.6269181370735168,-0.8474861979484558,-1.4281781911849976
1782969355004867300,4.426867431640625,0.5416926145553589,-0.9921506643295288,-1.5553110837936401
1782969355014794000,4.4367939453125,0.5010392069816589,-1.2337526082992554,-1.7486035823822021
1782969355024720100,4.44672021484375,0.48876556754112244,-1.5548301935195923,-2.065446376800537
1782969355034646300,4.456646240234375,0.4955984354019165,-2.0527803897857666,-2.5003724098205566
1782969355044572200,4.466572265625,0.6501421332359314,-2.813558578491211,-2.9218263626098633
1782969355054498300,4.476498291015625,0.9299756288528442,-3.8161325454711914,-2.960087299346924
1782969355064425200,4.48642529296875,1.2085872888565063,-5.003314971923828,-2.3695008754730225
1782969355074351400,4.496351318359375,1.4082047939300537,-5.893619060516357,-1.2646607160568237
1782969355084277200,4.50627734375,1.5350815057754517,-5.770928382873535,0.0073913512751460075
1782969355094203100,4.516203125,1.4484301805496216,-4.359571933746338,0.967508852481842
1782969355104129300,4.52612939453125,0.8674278259277344,-1.8953977823257446,1.4798294305801392
1782969355114056200,4.53605615234375,0.07808796316385269,0.7590309381484985,1.461830973625183
1782969355123982000,4.545982177734375,-0.6390203833580017,2.855394124984741,1.0351976156234741
1782969355133908200,4.555908203125,-1.1781309843063354,4.086164951324463,0.40676918625831604
1782969355143834000,4.565834228515625,-1.4966009855270386,4.432889461517334,-0.11468188464641571
1782969355153760300,4.57576025390625,-1.625439167022705,4.123983383178711,-0.31100985407829285
1782969355163687200,4.585687255859375,-1.6046031713485718,3.4582712650299072,-0.17099566757678986
1782969355173613300,4.59561328125,-1.419445276260376,2.6826815605163574,0.1326981782913208
1782969355183539200,4.605539306640625,-1.1044825315475464,1.9392989873886108,0.44496917724609375
1782969355193465300,4.61546533203125,-0.7333996891975403,1.3236674070358276,0.701322078704834
1782969355203391200,4.62539111328125,-0.3922586441040039,0.9446667432785034,0.8822951912879944
1782969355213317000,4.635317138671875,-0.1227869763970375,0.7990394830703735,0.9604475498199463
1782969355223244300,4.645244384765625,0.048564016819000244,0.8313427567481995,0.9801363945007324
1782969355233170200,4.655170166015625,0.08773698657751083,1.0022200345993042,0.9922428131103516
1782969355243096000,4.665095947265625,0.03564542531967163,1.2781480550765991,1.0119627714157104
1782969355253022200,4.675022216796875,-0.07324004918336868,1.5676871538162231,1.0617671012878418
1782969355262948400,4.6849482421875,-0.18607549369335175,1.7863229513168335,1.0872547626495361
1782969355272875300,4.694875244140625,-0.2231118083000183,1.8737952709197998,1.0747160911560059
1782969355282801200,4.70480126953125,-0.19541124999523163,1.8145904541015625,0.9274046421051025
1782969355292727300,4.714727294921875,-0.09261935204267502,1.6362746953964233,0.6385791897773743
1782969355302653400,4.7246533203125,0.040202490985393524,1.5032926797866821,0.21448580920696259
1782969355312579000,4.7345791015625,0.1110239326953888,1.5147857666015625,-0.3388330340385437
1782969355322506200,4.74450634765625,0.1235877126455307,1.6103039979934692,-0.9376400113105774
1782969355332432400,4.754432373046875,0.09891992062330246,1.6881994009017944,-1.377699375152588
1782969355342358000,4.76435791015625,0.013593585230410099,1.5738431215286255,-1.5146150588989258
1782969355352284200,4.7742841796875,-0.12171976268291473,1.1897287368774414,-1.3481261730194092
1782969355362210300,4.784210205078125,-0.21677304804325104,0.6283551454544067,-1.078717827796936
1782969355372137200,4.79413720703125,-0.2537204325199127,0.10012991726398468,-0.9311420321464539
1782969355382063000,4.80406298828125,-0.25104862451553345,-0.25519779324531555,-0.9559938907623291
1782969355391989200,4.8139892578125,-0.21727439761161804,-0.4761967360973358,-1.0902817249298096
1782969355401915400,4.823915283203125,-0.168369859457016,-0.6179527044296265,-1.2558891773223877
1782969355411841300,4.83384130859375,-0.04850231483578682,-0.6380323767662048,-1.3560549020767212
1782969355421767200,4.84376708984375,0.15546156466007233,-0.5475136041641235,-1.3581124544143677
1782969355431694300,4.8536943359375,0.42208924889564514,-0.414776086807251,-1.263107180595398
1782969355441620200,4.8636201171875,0.6901420950889587,-0.4317696988582611,-1.1165982484817505
1782969355451546000,4.873546142578125,0.8410075306892395,-0.8276150226593018,-1.0186011791229248
1782969355461472300,4.88347216796875,0.8644891381263733,-1.8224128484725952,-1.0480974912643433
1782969355471398100,4.893398193359375,0.8594033122062683,-3.3780839443206787,-1.0494341850280762
1782969355481325000,4.903324951171875,0.8946717977523804,-5.116287708282471,-0.7999717593193054
1782969355491251200,4.913251220703125,0.9989097714424133,-6.4410505294799805,-0.16196571290493011
1782969355501177300,4.92317724609375,1.1576863527297974,-6.457806587219238,0.7401262521743774
1782969355511103200,4.933103271484375,1.2466861009597778,-5.003814697265625,1.4084402322769165
1782969355521029000,4.943029052734375,0.9635109305381775,-2.510605812072754,1.72805917263031
1782969355530956300,4.952956298828125,0.46103155612945557,0.22653712332248688,1.7628240585327148
1782969355540882200,4.962882080078125,-0.1595335155725479,2.4094622135162354,1.5286041498184204
1782969355550808000,4.97280810546875,-0.6931390762329102,3.7756943702697754,1.1163246631622314
1782969355560734200,4.982734130859375,-1.0236196517944336,4.143329620361328,0.6866691708564758
1782969355570660000,4.99266015625,-1.1628954410552979,3.860807180404663,0.48200151324272156
1782969355580586200,5.002586181640625,-1.1831474304199219,3.215369701385498,0.537623941898346
1782969355590513200,5.01251318359375,-1.1075618267059326,2.3473243713378906,0.7338893413543701
1782969355600439300,5.022439208984375,-0.9492363929748535,1.53795325756073,0.9240357279777527
1782969355610365200,5.032365234375,-0.7671960592269897,0.9757282137870789,1.0415740013122559
1782969355620291300,5.042291259765625,-0.6128150820732117,0.7269903421401978,1.0740423202514648
1782969355630217200,5.05221728515625,-0.5211631655693054,0.7771397829055786,1.0110875368118286
1782969355640144100,5.06214404296875,-0.5227717757225037,1.0363680124282837,0.8885753154754639
1782969355650070300,5.0720703125,-0.6276862025260925,1.3921988010406494,0.7817457914352417
1782969355659996200,5.08199609375,-0.8136968612670898,1.7862051725387573,0.6820255517959595
1782969355669922000,5.091922119140625,-1.0576444864273071,2.1616508960723877,0.6322110891342163
1782969355679848200,5.10184814453125,-1.3303086757659912,2.4549496173858643,0.7227224707603455
1782969355689775000,5.111775146484375,-1.5233561992645264,2.523625373840332,0.8406824469566345
1782969355699701200,5.121701171875,-1.562934398651123,2.385777473449707,0.8100500106811523
1782969355709627100,5.131627197265625,-1.3658949136734009,2.2114100456237793,0.59488445520401
1782969355719553300,5.14155322265625,-1.0553845167160034,1.9910813570022583,0.32218989729881287
1782969355729479400,5.1514794921875,-0.7228710651397705,1.6929066181182861,0.17513974010944366
1782969355739405000,5.161405029296875,-0.4581078886985779,1.2864718437194824,0.1812407225370407
1782969355749332200,5.171332275390625,-0.2586187422275543,0.7900881171226501,0.22410297393798828
1782969355759258400,5.18125830078125,-0.08694521337747574,0.22391490638256073,0.16798701882362366
1782969355769184000,5.19118408203125,0.0769909992814064,-0.30595719814300537,-0.010398165322840214
1782969355779110000,5.20110986328125,0.24885837733745575,-0.760714590549469,-0.25876206159591675
1782969355789036000,5.2110361328125,0.3982135057449341,-1.1579657793045044,-0.4680977165699005
1782969355798963000,5.220962890625,0.541493833065033,-1.4401741027832031,-0.5939056277275085
1782969355808888800,5.230888916015625,0.7326244115829468,-1.6220272779464722,-0.659614086151123
1782969355818815000,5.24081494140625,0.9523088335990906,-1.7095109224319458,-0.7314871549606323
1782969355828741000,5.2507412109375,1.168887734413147,-1.6920421123504639,-0.8633543252944946
1782969355838667000,5.2606669921875,1.2565689086914062,-1.6357988119125366,-0.9897974133491516
1782969355848594000,5.270593994140625,1.1755385398864746,-1.6583068370819092,-1.061113715171814
1782969355858520000,5.28052001953125,0.9869213104248047,-1.8137511014938354,-1.1572585105895996
1782969355868446000,5.290446044921875,0.7906460762023926,-2.072371006011963,-1.4287853240966797
1782969355878371800,5.300371826171875,0.584344208240509,-2.4536936283111572,-1.8046574592590332
1782969355888298000,5.310298095703125,0.4884030222892761,-2.9854354858398438,-2.115550994873047
1782969355898223900,5.320223876953125,0.540962815284729,-3.567227602005005,-2.1873979568481445
1782969355908150800,5.33015087890625,0.8495147824287415,-4.067591190338135,-2.011725664138794
1782969355918077000,5.340076904296875,1.2936288118362427,-4.566280841827393,-1.5831376314163208
1782969355928003000,5.350003173828125,1.6614552736282349,-4.846778869628906,-0.8497995734214783
1782969355937929000,5.359928955078125,1.7913826704025269,-4.639761447906494,0.07269495725631714
1782969355947855000,5.369855224609375,1.6210039854049683,-3.8790409564971924,1.0046690702438354
1782969355957782000,5.379781982421875,1.2374144792556763,-2.689716100692749,1.6544255018234253
1782969355967708000,5.3897080078125,0.6484604477882385,-1.2495754957199097,1.9223028421401978
1782969355977634000,5.399634033203125,-0.08365888148546219,0.3730064034461975,1.7761287689208984
1782969355987560000,5.409559814453125,-0.800622820854187,1.8968548774719238,1.2384506464004517
1782969355997485800,5.41948583984375,-1.3685307502746582,2.928123712539673,0.5239586234092712
1782969356007413000,5.4294130859375,-1.7713615894317627,3.376824378967285,-0.0036010865587741137
1782969356017339000,5.4393388671875,-2.019280433654785,3.3337769508361816,-0.1798172891139984
1782969356027265000,5.44926513671875,-2.0459775924682617,2.994802951812744,-0.13371077179908752
1782969356037191000,5.45919091796875,-1.8415467739105225,2.5206034183502197,0.018808668479323387
1782969356047117000,5.469116943359375,-1.4859000444412231,1.9984406232833862,0.2761014401912689
1782969356057044000,5.4790439453125,-1.0831315517425537,1.5062708854675293,0.5772443413734436
1782969356066969900,5.488969970703125,-0.6831051111221313,1.0947706699371338,0.8663605451583862
1782969356076896000,5.49889599609375,-0.3345195949077606,0.8127264976501465,1.1295205354690552
1782969356086822100,5.508822265625,-0.09848761558532715,0.6841203570365906,1.3125100135803223
1782969356096747800,5.518747802734375,-0.0008627218194305897,0.69557785987854,1.3543559312820435
1782969356106674000,5.528673828125,-0.02642321027815342,0.7883293628692627,1.2792690992355347
1782969356116601000,5.53860107421875,-0.13300588726997375,0.8660863637924194,1.100642204284668
1782969356126527000,5.54852685546875,-0.2537762522697449,0.791712760925293,0.8426689505577087
1782969356136452900,5.558452880859375,-0.3018934428691864,0.5592272877693176,0.5476532578468323
1782969356146379000,5.56837890625,-0.23948201537132263,0.3859575390815735,0.1326751857995987
1782969356156305200,5.57830517578125,-0.17161953449249268,0.3143566846847534,-0.3193797767162323
1782969356166231800,5.588231689453125,-0.1216847375035286,0.302472323179245,-0.6912699937820435
1782969356176158000,5.598157958984375,-0.08114424347877502,0.3544573187828064,-0.8880782127380371
1782969356186084000,5.608083984375,-0.04888803884387016,0.36360394954681396,-0.9177260994911194
1782969356196010000,5.618010009765625,-0.037776198238134384,0.2879151403903961,-0.8009759187698364
1782969356205935900,5.627935791015625,-0.006122133694589138,0.13240118324756622,-0.6127585768699646
1782969356215862000,5.637862060546875,0.06978782266378403,-0.050539854913949966,-0.494954913854599
1782969356225789200,5.6477890625,0.16269512474536896,-0.23414617776870728,-0.5154753923416138
1782969356235714800,5.65771484375,0.23696787655353546,-0.43216201663017273,-0.6115429401397705
1782969356245641000,5.667640869140625,0.28467652201652527,-0.6725623607635498,-0.7137942314147949
1782969356255567000,5.677567138671875,0.31824207305908203,-0.9203593730926514,-0.7726616263389587
1782969356265493000,5.687492919921875,0.3611525297164917,-1.0697864294052124,-0.8143025636672974
1782969356275420000,5.697419921875,0.413140207529068,-1.1400189399719238,-0.8868303298950195
1782969356285346000,5.707345947265625,0.46143531799316406,-1.2236590385437012,-0.9501293897628784
1782969356295272000,5.71727197265625,0.5106108784675598,-1.239593744277954,-1.0166656970977783
1782969356305198000,5.727197998046875,0.6128101944923401,-1.256861925125122,-1.1069111824035645
1782969356315124000,5.7371240234375,0.7740535736083984,-1.4483914375305176,-1.1121608018875122
1782969356325051100,5.747051025390625,1.0690224170684814,-2.025191068649292,-1.0268166065216064
1782969356334977000,5.75697705078125,1.5182547569274902,-3.1028733253479004,-0.6890995502471924
1782969356344903000,5.76690283203125,1.9704023599624634,-4.357805252075195,0.183633491396904
1782969356354829000,5.7768291015625,2.2018473148345947,-5.179310321807861,1.462766408920288
1782969356364755000,5.7867548828125,2.008734941482544,-5.037294864654541,2.6316640377044678
1782969356374681900,5.796681884765625,1.3041069507598877,-3.6663942337036133,3.042229175567627
1782969356384608000,5.80660791015625,0.28153252601623535,-1.3032116889953613,2.5102500915527344
1782969356394534000,5.816533935546875,-0.8145500421524048,1.3253527879714966,1.470078468322754
1782969356404460000,5.8264599609375,-1.6815290451049805,3.2464680671691895,0.5219497084617615
1782969356414386000,5.836385986328125,-2.1904852390289307,4.2059407234191895,0.02947276644408703
1782969356424311800,5.846311767578125,-2.3784055709838867,4.412731647491455,-0.013478962704539299
1782969356434239000,5.856239013671875,-2.2850069999694824,4.118004322052002,0.25420260429382324
1782969356444164900,5.866164794921875,-1.9852015972137451,3.5008881092071533,0.6058876514434814
1782969356454091000,5.876091064453125,-1.5902715921401978,2.685412883758545,0.9199374318122864
1782969356464017000,5.886016845703125,-1.2010822296142578,1.7986218929290771,1.1478807926177979
1782969356473943000,5.895943115234375,-0.8844795227050781,0.9586207866668701,1.3162565231323242
1782969356483870000,5.905869873046875,-0.6186704635620117,0.2713625431060791,1.441415548324585
1782969356493795800,5.9157958984375,-0.37344154715538025,-0.1829002946615219,1.509985327720642
1782969356503722000,5.925721923828125,-0.208074152469635,-0.3206869065761566,1.5269824266433716
1782969356513648000,5.935648193359375,-0.1457359790802002,-0.1081700548529625,1.4826382398605347
1782969356523573800,5.94557373046875,-0.19447822868824005,0.32783815264701843,1.3411458730697632
1782969356533500000,5.9555,-0.3278230130672455,0.8833197951316833,1.126371145248413
1782969356543427000,5.965427001953125,-0.5081011652946472,1.4427847862243652,0.8634591102600098
1782969356553353000,5.97535302734375,-0.709086000919342,1.8371440172195435,0.6012625098228455
1782969356563278800,5.98527880859375,-0.8489142060279846,1.9509499073028564,0.4235404431819916
1782969356573205000,5.995205078125,-0.8975037336349487,1.792301893234253,0.32149508595466614
1782969356583131100,6.005131103515625,-0.8960579037666321,1.458545207977295,0.19228410720825195
1782969356593057800,6.015057861328125,-0.8681524395942688,1.0518046617507935,0.013495050370693207
1782969356602984000,6.02498388671875,-0.8161630034446716,0.6958332657814026,-0.21789875626564026
1782969356612910000,6.03491015625,-0.7305381894111633,0.39951473474502563,-0.46517497301101685
1782969356622836000,6.0448359375,-0.6235760450363159,0.10811270773410797,-0.6692953109741211
1782969356632761900,6.054761962890625,-0.4993739128112793,-0.17144285142421722,-0.81797194480896
1782969356642689000,6.06468896484375,-0.35944879055023193,-0.4513013958930969,-0.8705661296844482
1782969356652615200,6.074615234375,-0.21794964373111725,-0.7615073323249817,-0.8551053404808044
1782969356662540800,6.084540771484375,-0.11341629922389984,-1.0952123403549194,-0.826377809047699
1782969356672467000,6.094467041015625,-0.07192360609769821,-1.4640729427337646,-0.8329010009765625
1782969356682393000,6.10439306640625,-0.08165959268808365,-1.846443772315979,-0.9057185053825378
1782969356692319000,6.114319091796875,-0.13801923394203186,-2.1879477500915527,-1.0673842430114746
1782969356702246000,6.124245849609375,-0.19991908967494965,-2.436206817626953,-1.3223669528961182
1782969356712172000,6.134172119140625,-0.26281437277793884,-2.5646557807922363,-1.6408368349075317
1782969356722098000,6.144097900390625,-0.3341261148452759,-2.5909104347229004,-1.9586472511291504
1782969356732024000,6.154024169921875,-0.37386801838874817,-2.6013762950897217,-2.2249231338500977
1782969356741950000,6.163949951171875,-0.3459426462650299,-2.622218132019043,-2.3595523834228516
1782969356751877000,6.173877197265625,-0.21609137952327728,-2.682481527328491,-2.4556875228881836
1782969356761803000,6.183802978515625,0.044766589999198914,-2.7475833892822266,-2.544947385787964
1782969356771729200,6.193729248046875,0.42623838782310486,-2.799051284790039,-2.601179361343384
1782969356781655300,6.2036552734375,0.7765522003173828,-3.104170799255371,-2.6920523643493652
1782969356791581200,6.213581298828125,0.9734933972358704,-3.9866890907287598,-2.674720525741577
1782969356801508000,6.223508056640625,1.2022120952606201,-5.221498966217041,-1.9961144924163818
1782969356811434200,6.233434326171875,1.5833207368850708,-5.880000591278076,-0.4623076319694519
1782969356821360400,6.2433603515625,1.9308611154556274,-5.405704498291016,1.441351294517517
1782969356831286300,6.253286376953125,1.6846556663513184,-3.4923079013824463,2.9422600269317627
1782969356841212200,6.263212158203125,1.1504853963851929,-0.8926424384117126,3.2446439266204834
1782969356851139300,6.273139404296875,0.42621952295303345,1.5889812707901,2.4433953762054443
1782969356861065200,6.283065185546875,-0.29715093970298767,3.56858491897583,1.1746463775634766
1782969356870991000,6.2929912109375,-0.8784705400466919,4.690121650695801,0.11332505196332932
1782969356880917200,6.302917236328125,-1.290969967842102,5.035844802856445,-0.41827359795570374
1782969356890843100,6.312843017578125,-1.5644248723983765,4.78342866897583,-0.4926096200942993
1782969356900769300,6.322769287109375,-1.654035210609436,4.106247425079346,-0.3090302050113678
1782969356910696200,6.3326962890625,-1.581223964691162,3.215930223464966,-0.011546521447598934
1782969356920622300,6.342622314453125,-1.3908050060272217,2.3284060955047607,0.2763827443122864
1782969356930548200,6.35254833984375,-1.117154836654663,1.5664258003234863,0.4880063235759735
1782969356940474400,6.362474365234375,-0.8035457730293274,1.0475280284881592,0.6080413460731506
1782969356950400300,6.372400146484375,-0.5006927847862244,0.7809603810310364,0.6699244976043701
1782969356960327200,6.3823271484375,-0.25873950123786926,0.7294811606407166,0.7362247109413147
1782969356970253300,6.39225341796875,-0.087546207010746,0.8326416611671448,0.8336659073829651
1782969356980179200,6.40217919921875,-0.05915344879031181,1.0253427028656006,0.9884805083274841
1782969356990105000,6.41210498046875,-0.098482146859169,1.2182488441467285,1.1733434200286865
1782969357000031200,6.42203125,-0.14575724303722382,1.2730711698532104,1.4575765132904053
1782969357009958100,6.431958251953125,-0.13815288245677948,1.1852134466171265,1.6590213775634766
1782969357019884300,6.44188427734375,-0.04040662199258804,1.078106164932251,1.516073226928711
1782969357029810200,6.45181005859375,0.10959088802337646,1.009582281112671,0.9922567009925842
1782969357039736300,6.461736328125,0.229869082570076,0.939570963382721,0.2598429322242737
1782969357049662500,6.471662353515625,0.2723199725151062,0.7890734076499939,-0.43641069531440735
1782969357059588000,6.481588134765625,0.23034749925136566,0.5646323561668396,-0.869248628616333
1782969357069515300,6.491515380859375,0.15950480103492737,0.3449288606643677,-0.9814584851264954
1782969357079441400,6.50144140625,0.12176673859357834,0.12122226506471634,-0.8848456740379333
1782969357089367000,6.511366943359375,0.14632101356983185,-0.09227973222732544,-0.7264372706413269
1782969357099293200,6.521293212890625,0.2240608185529709,-0.2644648253917694,-0.5825386643409729
1782969357109219300,6.53121923828125,0.34299227595329285,-0.39696985483169556,-0.4862450957298279
1782969357119146200,6.541146240234375,0.4572714567184448,-0.5769724249839783,-0.44729292392730713
1782969357129072000,6.551072021484375,0.5348290801048279,-0.7629525661468506,-0.509489893913269
1782969357138998300,6.560998291015625,0.5334426164627075,-0.8623614311218262,-0.6607891321182251
1782969357148924400,6.57092431640625,0.46685466170310974,-0.968159019947052,-0.8508397936820984
1782969357158850300,6.580850341796875,0.4407002627849579,-1.05930757522583,-1.0628242492675781
1782969357168777200,6.590777099609375,0.5548936128616333,-1.1848812103271484,-1.2520534992218018
1782969357178703400,6.600703369140625,0.7699928879737854,-1.2882965803146362,-1.3584845066070557
1782969357188629200,6.610629150390625,1.0886226892471313,-1.554128885269165,-1.3705124855041504
1782969357198555100,6.62055517578125,1.416355013847351,-2.143690824508667,-1.1974695920944214
1782969357208481300,6.630481201171875,1.7596153020858765,-3.1302239894866943,-0.8539419174194336
1782969357218407200,6.6404072265625,2.1008212566375732,-4.497516632080078,-0.23650509119033813
1782969357228334000,6.650333984375,2.347433090209961,-5.553680896759033,0.8342105150222778
1782969357238260200,6.66026025390625,2.303410768508911,-5.515620708465576,2.034085273742676
1782969357248186400,6.670186279296875,1.8272961378097534,-4.125881195068359,2.7353169918060303
1782969357258112300,6.6801123046875,1.054896354675293,-1.9318326711654663,2.703119993209839
1782969357268038400,6.690038330078125,0.20662188529968262,0.29255396127700806,2.005309820175171
1782969357277965300,6.69996533203125,-0.6087355017662048,2.2222914695739746,1.0387625694274902
1782969357287891200,6.70989111328125,-1.2036237716674805,3.4603185653686523,0.2503332197666168
1782969357297817300,6.7198173828125,-1.5179204940795898,3.93929123878479,-0.16920174658298492
1782969357307743200,6.7297431640625,-1.582836389541626,3.868574857711792,-0.246231809258461
1782969357317669000,6.739669189453125,-1.4671568870544434,3.415921926498413,-0.13269726932048798
1782969357327596300,6.74959619140625,-1.2260770797729492,2.691434144973755,0.08081451803445816
1782969357337522200,6.759522216796875,-0.9233118891716003,1.8716663122177124,0.33819466829299927
1782969357347448300,6.7694482421875,-0.6192983984947205,1.0670708417892456,0.5908443331718445
1782969357357374200,6.779374267578125,-0.334266722202301,0.35389551520347595,0.8386070132255554
1782969357367300400,6.78930029296875,-0.07162298262119293,-0.20337969064712524,1.0610355138778687
1782969357377227300,6.799227294921875,0.14846812188625336,-0.5549939274787903,1.2802770137786865
1782969357387153200,6.809153076171875,0.2953198254108429,-0.6459823250770569,1.5098326206207275
1782969357397079300,6.819079345703125,0.3463020324707031,-0.5379243493080139,1.7091890573501587
1782969357407005200,6.829005126953125,0.2851908504962921,-0.31569841504096985,1.8088830709457397
1782969357416931000,6.83893115234375,0.13887545466423035,-0.04388687387108803,1.822540283203125
1782969357426857200,6.848857177734375,-0.0814402848482132,0.3194043040275574,1.7460092306137085
1782969357436784400,6.858784423828125,-0.34890687465667725,0.7594833970069885,1.514486312866211
1782969357446710300,6.868710205078125,-0.5841423273086548,1.1454702615737915,1.0671664476394653
1782969357456636200,6.87863623046875,-0.7673531174659729,1.4419677257537842,0.46207395195961
1782969357466562300,6.888562255859375,-0.888935387134552,1.682013750076294,-0.20633038878440857
1782969357476488400,6.898488525390625,-0.9330775737762451,1.80783212184906,-0.8327053189277649
1782969357486415000,6.9084150390625,-0.961005449295044,1.7580472230911255,-1.2723547220230103
1782969357496341200,6.91834130859375,-0.7894009351730347,1.5086467266082764,-1.494140863418579
1782969357506267400,6.928267333984375,-0.5667118430137634,0.9491596221923828,-1.4498050212860107
1782969357516193000,6.938193115234375,-0.33765706419944763,0.2520090341567993,-1.2372297048568726
1782969357526119200,6.948119140625,-0.14499035477638245,-0.47023674845695496,-0.9336777925491333
1782969357536045300,6.95804541015625,-0.008125719614326954,-1.1502515077590942,-0.6283210515975952
1782969357545972200,6.96797216796875,0.09460695087909698,-1.6990102529525757,-0.43840229511260986
1782969357555898000,6.977898193359375,0.14959190785884857,-2.0175864696502686,-0.43167540431022644
1782969357565824300,6.98782421875,0.14901013672351837,-2.0174059867858887,-0.632890522480011
1782969357575750400,6.99775048828125,0.10877084732055664,-1.7429237365722656,-0.9994786381721497
1782969357585676300,7.00767626953125,0.009678401052951813,-1.3742984533309937,-1.372072458267212
1782969357595603200,7.017603271484375,-0.07261673361063004,-1.0903223752975464,-1.618343472480774
1782969357605529300,7.027529296875,-0.05651942268013954,-0.9310378432273865,-1.7358969449996948
1782969357615455200,7.037455322265625,0.06112278625369072,-0.8614435791969299,-1.7653679847717285
1782969357625381000,7.047381103515625,0.21697171032428741,-0.9860002994537354,-1.7195396423339844
1782969357635307300,7.057307373046875,0.4084908068180084,-1.3504866361618042,-1.6470433473587036
1782969357645234400,7.067234375,0.7136551141738892,-1.990382432937622,-1.5640848875045776
1782969357655160000,7.07716015625,1.1369733810424805,-2.9788010120391846,-1.312180995941162
1782969357665086200,7.087086181640625,1.5568711757659912,-3.924482822418213,-0.6954807043075562
1782969357675012400,7.097012451171875,1.783954381942749,-4.280028343200684,0.2714938819408417
1782969357684938200,7.106938232421875,1.672020435333252,-3.820796012878418,1.3444817066192627
1782969357694865200,7.116865234375,1.1808427572250366,-2.4251177310943604,2.189016342163086
1782969357704791300,7.126791259765625,0.5049065947532654,-0.34152108430862427,2.4461424350738525
1782969357714717200,7.13671728515625,-0.12923170626163483,1.6336349248886108,2.0533785820007324
1782969357724643300,7.146643310546875,-0.5979130864143372,2.9594669342041016,1.4482656717300415
1782969357734569200,7.1565693359375,-0.9108963012695312,3.542875289916992,1.0286140441894531
1782969357744495000,7.1664951171875,-1.1075630187988281,3.4291832447052,0.9167549014091492
1782969357754422300,7.17642236328125,-1.161666750907898,2.8351821899414062,0.9581491947174072
1782969357764348200,7.18634814453125,-1.0680203437805176,2.0846099853515625,0.9351471066474915
1782969357774273500,7.1962734375,-0.8884132504463196,1.295023798942566,0.9125086665153503
1782969357784199700,7.20619970703125,-0.6957156658172607,0.6028939485549927,0.8814610242843628
1782969357794125800,7.216125732421875,-0.5209017395973206,0.11703532189130783,0.8069723844528198
1782969357804052700,7.226052734375,-0.37534597516059875,-0.14315074682235718,0.7063203454017639
1782969357813978600,7.235978515625,-0.259182333946228,-0.16242271661758423,0.6135408282279968
1782969357823904800,7.24590478515625,-0.17047512531280518,-0.00022875703871250153,0.5526774525642395
1782969357833831000,7.255830810546875,-0.12998442351818085,0.25889280438423157,0.5183684825897217
1782969357843756800,7.2657568359375,-0.11486560106277466,0.5405087471008301,0.48258015513420105
1782969357853683700,7.27568359375,-0.08033265918493271,0.7963101863861084,0.45992839336395264
1782969357863609900,7.28560986328125,-0.03409083932638168,0.9333525896072388,0.44217538833618164
1782969357873535700,7.29553564453125,0.020414216443896294,0.9406301975250244,0.4351571500301361
1782969357883461600,7.305461669921875,0.07861266285181046,0.870568573474884,0.45000818371772766
1782969357893387800,7.3153876953125,0.13243168592453003,0.7647294998168945,0.452268123626709
1782969357903313700,7.325313720703125,0.16230987012386322,0.7043611407279968,0.4061228036880493
1782969357913240600,7.335240478515625,0.17119231820106506,0.7333422303199768,0.30595651268959045
1782969357923166700,7.345166748046875,0.12139225006103516,0.7574033141136169,0.21839863061904907
1782969357933092900,7.3550927734375,0.06607653200626373,0.7684741020202637,0.13249225914478302
1782969357943018800,7.365018798828125,0.07115994393825531,0.7879241108894348,-0.013338161632418633
1782969357952944600,7.374944580078125,0.11651011556386948,0.8266528844833374,-0.21603801846504211
1782969357962871800,7.384871826171875,0.17212003469467163,0.8542492389678955,-0.43966224789619446
1782969357972797700,7.394797607421875,0.18420039117336273,0.7365667819976807,-0.5731230974197388
1782969357982723800,7.404723876953125,0.12736214697360992,0.47482192516326904,-0.6370383501052856
1782969357992649700,7.414649658203125,0.07108823210000992,0.20147186517715454,-0.6466944217681885
1782969358002575600,7.42457568359375,0.08095967769622803,-0.04819843918085098,-0.6231153607368469
1782969358012502800,7.434502685546875,0.15380406379699707,-0.2707870304584503,-0.5397626757621765
1782969358022428700,7.4444287109375,0.27332812547683716,-0.4216156005859375,-0.5008413791656494
1782969358032354800,7.454354736328125,0.3898824155330658,-0.4435153007507324,-0.5525359511375427
1782969358042280700,7.46428076171875,0.4648796617984772,-0.34061387181282043,-0.6809596419334412
1782969358052206800,7.474206787109375,0.5043889880180359,-0.21615371108055115,-0.829953134059906
1782969358062132700,7.4841328125,0.5256375670433044,-0.13926398754119873,-1.041048526763916
1782969358072060000,7.494059814453125,0.46939319372177124,-0.2703647315502167,-1.3476595878601074
1782969358081985800,7.50398583984375,0.2712700664997101,-0.8094472885131836,-1.655385136604309
1782969358091911700,7.51391162109375,0.10227305442094803,-1.8373134136199951,-1.890600323677063
1782969358101837600,7.523837646484375,0.3620465397834778,-3.335474729537964,-1.9424324035644531
1782969358111763700,7.533763671875,0.943343997001648,-4.805858135223389,-1.4123576879501343
1782969358121690600,7.543690673828125,1.7744487524032593,-5.532191753387451,-0.29323554039001465
1782969358131616800,7.55361669921875,2.4133007526397705,-4.958981513977051,1.1557743549346924
1782969358141542700,7.563542724609375,2.246554374694824,-3.145716428756714,2.342540979385376
1782969358151468800,7.57346875,1.3097394704818726,-0.6539109349250793,2.719818115234375
1782969358161395000,7.58339501953125,0.12120915204286575,1.689431071281433,2.162045478820801
1782969358171321900,7.59332177734375,-0.9225334525108337,3.546647310256958,1.1184511184692383
1782969358181247700,7.603247802734375,-1.583372712135315,4.481937885284424,0.16031703352928162
1782969358191174000,7.613173828125,-1.8599958419799805,4.453430652618408,-0.30550792813301086
1782969358201099500,7.623099609375,-1.8297147750854492,3.7269632816314697,-0.2874511480331421
1782969358211025700,7.633025634765625,-1.5563985109329224,2.5609958171844482,0.023826036602258682
1782969358220951800,7.642951904296875,-1.1399943828582764,1.2249773740768433,0.49816977977752686
1782969358230878700,7.652878662109375,-0.6664142608642578,-0.04849914833903313,1.0399683713912964
1782969358240804600,7.6628046875,-0.22686316072940826,-1.0869700908660889,1.5924453735351562
1782969358250730800,7.672730712890625,0.08077721297740936,-1.7730848789215088,2.0921313762664795
1782969358260657000,7.682656982421875,0.16927096247673035,-2.013279676437378,2.4507603645324707
1782969358270582800,7.692582763671875,0.01958000846207142,-1.8472895622253418,2.611311435699463
1782969358280509700,7.702509765625,-0.29946959018707275,-1.420109748840332,2.5825281143188477
1782969358290435800,7.712435791015625,-0.6875752210617065,-0.8430728316307068,2.4091544151306152
1782969358300361700,7.72236181640625,-1.0576854944229126,-0.19406884908676147,2.1303904056549072
1782969358310287600,7.73228759765625,-1.3796957731246948,0.4551706910133362,1.7903870344161987
1782969358320213800,7.7422138671875,-1.6111656427383423,1.0508443117141724,1.4340691566467285
1782969358330141000,7.752140869140625,-1.739996314048767,1.564557671546936,1.0932961702346802
1782969358340066600,7.762066650390625,-1.7670303583145142,2.014705181121826,0.80592280626297
1782969358349992700,7.77199267578125,-1.6791434288024902,2.3225317001342773,0.5593708157539368
1782969358359918800,7.7819189453125,-1.529316782951355,2.4175140857696533,0.37383320927619934
1782969358369844700,7.7918447265625,-1.329005479812622,2.2855145931243896,0.22880864143371582
1782969358379771000,7.80177099609375,-1.0824474096298218,1.9718843698501587,0.10564108192920685
1782969358389697800,7.81169775390625,-0.8137795329093933,1.5656518936157227,0.046429961919784546
1782969358399623700,7.821623779296875,-0.5510292649269104,1.1308822631835938,0.08563726395368576
1782969358409549800,7.8315498046875,-0.30889859795570374,0.6908551454544067,0.21033978462219238
1782969358419475700,7.841475830078125,-0.07333049178123474,0.29869890213012695,0.3537876307964325
1782969358429401600,7.851401611328125,0.1667257845401764,-0.023945186287164688,0.4062463045120239
1782969358439328800,7.861328857421875,0.39384517073631287,-0.2653779685497284,0.32787853479385376
1782969358449254700,7.871254638671875,0.5933526754379272,-0.39821723103523254,0.125989630818367
1782969358459180800,7.881180908203125,0.7976799011230469,-0.45611199736595154,-0.16141073405742645
1782969358469106700,7.891106689453125,0.9929279685020447,-0.4815976619720459,-0.47578784823417664
1782969358479032800,7.90103271484375,1.147045373916626,-0.49986857175827026,-0.7618178129196167
1782969358488959700,7.910959716796875,1.2192740440368652,-0.5780496597290039,-1.0104094743728638
1782969358498885600,7.9208857421875,1.1952338218688965,-0.7925691604614258,-1.217323899269104
1782969358508811800,7.930811767578125,1.1143512725830078,-1.1194031238555908,-1.4545015096664429
1782969358518738000,7.940738037109375,0.9733818769454956,-1.4758774042129517,-1.8547836542129517
1782969358528663600,7.95066357421875,0.8198964595794678,-1.7834535837173462,-2.495295286178589
1782969358538589700,7.960589599609375,0.7478682994842529,-2.062629222869873,-3.3384859561920166
1782969358548516900,7.970516845703125,0.8011893033981323,-2.5660171508789062,-4.180877685546875
1782969358558442800,7.98044287109375,0.9614155888557434,-3.419957399368286,-4.639885425567627
1782969358568368600,7.99036865234375,1.2271769046783447,-4.357662677764893,-4.281221389770508
1782969358578303000,8.000302978515625,1.5093662738800049,-4.809128284454346,-2.819624662399292
1782969358588218600,8.010218505859376,1.6248859167099,-4.2649102210998535,-0.8314850330352783
1782969358598144800,8.020144775390625,1.3710945844650269,-2.9062163829803467,0.724887490272522
1782969358608071700,8.03007177734375,0.7423667311668396,-1.013443112373352,1.4263336658477783
1782969358617997600,8.03999755859375,-0.0721493512392044,1.1093400716781616,1.2061481475830078
1782969358627923700,8.049923828125,-0.8271464705467224,2.9834210872650146,0.4347822368144989
1782969358637849900,8.059849853515624,-1.3898669481277466,4.1391401290893555,-0.325533002614975
1782969358647775700,8.069775634765625,-1.672180414199829,4.412299156188965,-0.7619121670722961
1782969358657701600,8.07970166015625,-1.6887463331222534,4.0054473876953125,-0.8280019760131836
1782969358667628800,8.08962890625,-1.519782543182373,3.196701765060425,-0.6083717346191406
1782969358677555000,8.099554931640625,-1.2415168285369873,2.2253599166870117,-0.2415824830532074
1782969358687480600,8.10948046875,-0.9180751442909241,1.306835412979126,0.15495048463344574
1782969358697406700,8.11940673828125,-0.6091306805610657,0.5902249217033386,0.4924602210521698
1782969358707332900,8.129332763671876,-0.3278532326221466,0.13727231323719025,0.7253464460372925
1782969358717259500,8.139259521484375,-0.08681812882423401,-0.05207609385251999,0.83781498670578
1782969358727185700,8.149185546875,0.14148536324501038,-0.06236974522471428,0.8569293022155762
1782969358737111800,8.15911181640625,0.3232520520687103,0.019530311226844788,0.837368905544281
1782969358747037700,8.16903759765625,0.4494304955005646,0.12813961505889893,0.8548815846443176
1782969358756963800,8.1789638671875,0.5256413221359253,0.19510512053966522,0.9254292249679565
1782969358766889700,8.1888896484375,0.5804619789123535,0.20740573108196259,1.0328179597854614
1782969358776816400,8.19881640625,0.6130133271217346,0.20514251291751862,1.1541696786880493
1782969358786742500,8.208742431640625,0.643697202205658,0.20178693532943726,1.2577896118164062
1782969358796668400,8.21866845703125,0.688141942024231,0.2294791340827942,1.2575573921203613
1782969358806594300,8.22859423828125,0.7347096800804138,0.3302976191043854,1.0513792037963867
1782969358816520400,8.2385205078125,0.7580047845840454,0.5071426630020142,0.6800642609596252
1782969358826447400,8.248447265625,0.7044385075569153,0.6836015582084656,0.19031372666358948
1782969358836373200,8.258373291015625,0.581649124622345,0.7827669382095337,-0.3086129426956177
1782969358846299400,8.26829931640625,0.4122558534145355,0.7245020270347595,-0.734332799911499
1782969358856225300,8.278225341796874,0.24036936461925507,0.5204696655273438,-1.0612560510635376
1782969358866151400,8.2881513671875,0.11854200810194016,0.24137116968631744,-1.279896855354309
1782969358876078300,8.298078369140624,0.09224944561719894,-0.03771568089723587,-1.4153432846069336
1782969358886004500,8.30800439453125,0.15101422369480133,-0.24783776700496674,-1.5194413661956787
1782969358895930400,8.317930419921876,0.2607167959213257,-0.3757951557636261,-1.6473344564437866
1782969358905856300,8.327856201171874,0.38285520672798157,-0.44301387667655945,-1.7923827171325684
1782969358915782400,8.337782470703125,0.5144257545471191,-0.4221735894680023,-1.9255770444869995
1782969358925708300,8.347708251953126,0.6297507286071777,-0.4123646318912506,-1.9742112159729004
1782969358935635500,8.357635498046875,0.729935884475708,-0.5593044757843018,-1.9121131896972656
1782969358945561300,8.367561279296876,0.7639617919921875,-1.0174075365066528,-1.7593954801559448
1782969358955487200,8.3774873046875,0.7517748475074768,-1.8339742422103882,-1.5515553951263428
1782969358965413400,8.387413330078125,0.7714257836341858,-2.9603123664855957,-1.3614834547042847
1782969358975339500,8.397339599609374,0.9537597298622131,-4.233118534088135,-1.134289026260376
1782969358985268500,8.4072685546875,1.3770055770874023,-5.297861099243164,-0.4809282720088959
1782969358995194400,8.4171943359375,1.8322577476501465,-5.570816993713379,0.555596649646759
1782969359005120300,8.427120361328125,2.0681211948394775,-4.5584540367126465,1.5105260610580444
1782969359015047400,8.43704736328125,1.6729586124420166,-2.546384334564209,1.9961673021316528
1782969359024973300,8.446973388671875,0.7013341188430786,-0.14785948395729065,1.9460207223892212
1782969359034899200,8.456899169921876,-0.44706350564956665,2.1862332820892334,1.5251364707946777
1782969359044825300,8.466825439453125,-1.254581332206726,4.09342622756958,0.9583002328872681
1782969359054751500,8.47675146484375,-1.5648727416992188,5.194153308868408,0.4151045083999634
1782969359064677000,8.486677001953124,-1.550362229347229,5.369471073150635,0.21313142776489258
1782969359074604300,8.496604248046875,-1.410097360610962,4.894678115844727,0.40517380833625793
1782969359084530400,8.506530517578126,-1.1883047819137573,4.060568332672119,0.8123506903648376
1782969359094456300,8.516456298828125,-0.9244256615638733,3.1469364166259766,1.258173942565918
1782969359104382200,8.52638232421875,-0.6591524481773376,2.3283402919769287,1.608074426651001
1782969359114308400,8.536308349609374,-0.45136651396751404,1.664788842201233,1.7704652547836304
1782969359124235300,8.5462353515625,-0.3280094265937805,1.1962732076644897,1.7792315483093262
1782969359134161200,8.5561611328125,-0.2789112627506256,0.9441691040992737,1.6769044399261475
1782969359144087300,8.56608740234375,-0.28274354338645935,0.8874821662902832,1.5085140466690063
1782969359154013400,8.576013427734376,-0.34408876299858093,0.9377646446228027,1.338212013244629
1782969359163939300,8.585939208984374,-0.43024522066116333,1.0616191625595093,1.1947704553604126
1782969359173866200,8.5958662109375,-0.52132248878479,1.2189446687698364,1.1103739738464355
1782969359183792400,8.60579248046875,-0.6176801919937134,1.3431816101074219,1.0578721761703491
1782969359193718500,8.615718505859375,-0.7124953866004944,1.3548643589019775,0.9963557124137878
1782969359203644200,8.62564404296875,-0.7668068408966064,1.238419771194458,0.9105252623558044
1782969359213570300,8.6355703125,-0.7444785237312317,1.1131749153137207,0.7735071182250977
1782969359223497500,8.64549755859375,-0.6712448000907898,0.9999462962150574,0.5885642170906067
1782969359233423400,8.65542333984375,-0.5825119018554688,0.8778132796287537,0.340862512588501
1782969359243349200,8.665349365234375,-0.5028737783432007,0.7578437328338623,0.05684038996696472
1782969359253275400,8.675275390625,-0.4334496557712555,0.6740422248840332,-0.24799516797065735
1782969359263201300,8.685201171875,-0.36155495047569275,0.6035448908805847,-0.5576952695846558
1782969359273127400,8.69512744140625,-0.29494354128837585,0.45555660128593445,-0.8270524740219116
1782969359283054300,8.705054443359375,-0.22508804500102997,0.2103167623281479,-1.0092694759368896
1782969359292980500,8.71498046875,-0.14070317149162292,-0.10777129232883453,-1.1238789558410645
1782969359302906400,8.72490625,-0.04725763574242592,-0.4496593773365021,-1.1939136981964111
1782969359312832300,8.734832275390625,0.06318466365337372,-0.7968462705612183,-1.2170066833496094
1782969359322758400,8.74475830078125,0.17847371101379395,-1.083750605583191,-1.2015379667282104
1782969359332685300,8.754685302734375,0.31358906626701355,-1.2583357095718384,-1.1906837224960327
1782969359342611200,8.764611083984375,0.44294095039367676,-1.2969677448272705,-1.2260249853134155
1782969359352537300,8.774537353515624,0.5124277472496033,-1.3381028175354004,-1.3234131336212158
1782969359362463200,8.784463134765625,0.5174353122711182,-1.4476807117462158,-1.4739400148391724
1782969359372389400,8.794389404296876,0.4939756989479065,-1.6104079484939575,-1.742917776107788
1782969359382316300,8.80431640625,0.43243882060050964,-1.8435964584350586,-2.087578535079956
1782969359392242400,8.814242431640626,0.3900062143802643,-2.14561128616333,-2.399184465408325
1782969359402168300,8.824168212890624,0.385662317276001,-2.6077160835266113,-2.6935856342315674
1782969359412094500,8.834094482421875,0.40672534704208374,-3.270145893096924,-2.963344097137451
1782969359422020400,8.844020263671876,0.5187975168228149,-3.8776159286499023,-2.946054220199585
1782969359431946200,8.8539462890625,0.7771955728530884,-4.207034111022949,-2.507035732269287
1782969359441873400,8.863873291015626,1.119948148727417,-4.112641334533691,-1.5995557308197021
1782969359451799300,8.87379931640625,1.3308652639389038,-3.5406033992767334,-0.3365083634853363
1782969359461725200,8.88372509765625,1.2104594707489014,-2.7112672328948975,0.8337999582290649
1782969359471651300,8.8936513671875,0.8068062663078308,-1.7758699655532837,1.5346304178237915
1782969359481577500,8.903577392578125,0.2563449740409851,-0.5215054154396057,1.6396446228027344
1782969359491504400,8.91350439453125,-0.32035261392593384,1.0507067441940308,1.3167481422424316
1782969359501430300,8.92343017578125,-0.7932525277137756,2.5592148303985596,0.8031145930290222
1782969359511356400,8.9333564453125,-1.0667887926101685,3.515302896499634,0.23660853505134583
1782969359521282600,8.943282470703124,-1.1934682130813599,3.757962703704834,-0.2222602367401123
1782969359531208200,8.953208251953125,-1.257392168045044,3.4446115493774414,-0.44532039761543274
1782969359541135400,8.96313525390625,-1.240605354309082,2.8099422454833984,-0.40566354990005493
1782969359551061500,8.9730615234375,-1.1088858842849731,2.0304837226867676,-0.1238057091832161
1782969359560987100,8.982987060546876,-0.8639742136001587,1.3032505512237549,0.2583158314228058
1782969359570913300,8.992913330078125,-0.5592458248138428,0.7976610660552979,0.7104213237762451
1782969359580839400,9.00283935546875,-0.28206291794776917,0.5729773044586182,1.1383391618728638
1782969359590766300,9.012766357421874,-0.09830759465694427,0.6662982106208801,1.4720631837844849
1782969359600692200,9.022692138671875,-0.008341491222381592,0.9853656888008118,1.6766031980514526
1782969359610618400,9.032618408203126,-0.02345714159309864,1.3727473020553589,1.7072038650512695
1782969359620544500,9.04254443359375,-0.07517706602811813,1.7582281827926636,1.5545541048049927
1782969359630470400,9.052470458984375,-0.12312542647123337,2.0222930908203125,1.307608962059021
1782969359640396300,9.062396240234374,-0.1581374853849411,2.047222852706909,1.0574291944503784
1782969359650323500,9.072323486328125,-0.15959592163562775,1.8568217754364014,0.8860682845115662
1782969359660249300,9.082249267578124,-0.0906488224864006,1.5904194116592407,0.8186793923377991
1782969359670175200,9.09217529296875,0.07705364376306534,1.3136576414108276,0.7993555068969727
1782969359680101400,9.102101318359376,0.3153602182865143,1.0063393115997314,0.8130689263343811
1782969359690027300,9.11202734375,0.5626125335693359,0.7025632858276367,0.8980773687362671
1782969359699954200,9.1219541015625,0.7580768465995789,0.44933632016181946,1.0062059164047241
1782969359709880300,9.13188037109375,0.8487243056297302,0.2651236355304718,1.029460072517395
1782969359719806500,9.141806396484375,0.8253707885742188,0.16063611209392548,0.9493787884712219
1782969359729732400,9.151732421875,0.6909480690956116,0.17726048827171326,0.7571995258331299
1782969359739658200,9.161658203125,0.5046448111534119,0.30138617753982544,0.4718184173107147
1782969359749585400,9.17158544921875,0.32681387662887573,0.47252514958381653,0.15107089281082153
1782969359759511300,9.18151123046875,0.16917231678962708,0.5953688025474548,-0.1468484103679657
1782969359769437400,9.1914375,0.06687910854816437,0.624472975730896,-0.40382319688796997
1782969359779364000,9.201364013671874,0.031355734914541245,0.5032168626785278,-0.604954183101654
1782969359789290000,9.2112900390625,0.0833195149898529,0.277347594499588,-0.7370562553405762
1782969359799216000,9.221216064453126,0.2101384550333023,0.003530710469931364,-0.8391942977905273
1782969359809143000,9.23114306640625,0.3775530159473419,-0.3816465139389038,-0.9516063332557678
1782969359819069000,9.24106884765625,0.5524587631225586,-0.9378333687782288,-1.0764275789260864
1782969359828995000,9.2509951171875,0.7662224173545837,-1.6151783466339111,-1.2050267457962036
1782969359838921000,9.2609208984375,1.0071849822998047,-2.3782663345336914,-1.3976664543151855
1782969359848846800,9.270846923828126,1.1535569429397583,-3.2363040447235107,-1.743480920791626
1782969359858774000,9.28077392578125,1.0728533267974854,-4.284428596496582,-2.113780975341797
1782969359868700000,9.290699951171876,0.8446357846260071,-5.163182258605957,-2.149390459060669
1782969359878626000,9.3006259765625,0.5114147067070007,-5.365610122680664,-1.7905950546264648
1782969359888552000,9.310552001953125,0.21313166618347168,-4.723828315734863,-1.226608395576477
1782969359898478000,9.32047802734375,0.010141806676983833,-3.2078304290771484,-0.5891765356063843
1782969359908405000,9.330405029296875,-0.19404597580432892,-1.1907110214233398,-0.11291369795799255
1782969359918331000,9.340330810546876,-0.504849910736084,0.8453000783920288,0.1885705143213272
1782969359928257000,9.350257080078125,-0.8735825419425964,2.5904157161712646,0.3263111412525177
1782969359938183200,9.36018310546875,-1.1943269968032837,3.840547800064087,0.3352753520011902
1782969359948108800,9.37010888671875,-1.3642100095748901,4.46162748336792,0.3260408043861389
1782969359958035000,9.380034912109375,-1.3667628765106201,4.4729228019714355,0.32197389006614685
1782969359967962000,9.389962158203126,-1.2568680047988892,3.9293339252471924,0.35759884119033813
1782969359977888000,9.399887939453125,-1.0849710702896118,3.031277656555176,0.47134992480278015
1782969359987814000,9.40981396484375,-0.8712263107299805,2.039299726486206,0.6626608967781067
1782969359997740000,9.419739990234374,-0.6361898183822632,1.2426329851150513,0.8850958347320557
1782969360007666200,9.429666259765625,-0.4191065728664398,0.7650054097175598,1.0334495306015015
1782969360017592800,9.4395927734375,-0.24654890596866608,0.5445268154144287,1.0870810747146606
1782969360027519000,9.44951904296875,-0.15380412340164185,0.4852348566055298,1.0730842351913452
1782969360037445000,9.459445068359376,-0.14403803646564484,0.5621663331985474,1.0090436935424805
1782969360047371000,9.46937109375,-0.1962868869304657,0.7838621139526367,0.9087198972702026
1782969360057297000,9.479296875,-0.2573699653148651,1.1137217283248901,0.7988293170928955
1782969360067224000,9.48922412109375,-0.3217104971408844,1.4077078104019165,0.7215400338172913
1782969360077150200,9.499150146484375,-0.38006195425987244,1.5441511869430542,0.7236468195915222
1782969360087075800,9.509075927734376,-0.4252100884914398,1.4597647190093994,0.7749341130256653
1782969360097002000,9.519001953125,-0.45883411169052124,1.1838129758834839,0.8390827775001526
1782969360106928000,9.52892822265625,-0.45611971616744995,0.8767334818840027,0.8598844408988953
1782969360116854000,9.53885400390625,-0.4142516255378723,0.626109778881073,0.7811846137046814
1782969360126781000,9.548781005859375,-0.35641953349113464,0.5007408857345581,0.5955081582069397
1782969360136707000,9.55870703125,-0.30698779225349426,0.41280192136764526,0.3415277898311615
1782969360146633000,9.568633056640625,-0.2898232340812683,0.3012273609638214,0.0630631074309349
1782969360156559000,9.57855908203125,-0.26413998007774353,0.18712769448757172,-0.21367767453193665
1782969360166485000,9.588485107421874,-0.22397074103355408,0.06136788800358772,-0.5032099485397339
1782969360176412200,9.598412109375,-0.2342585325241089,-0.18404294550418854,-0.6393161416053772
1782969360186338000,9.608338134765624,-0.2723478376865387,-0.45763063430786133,-0.6485013365745544
1782969360196264000,9.618263916015625,-0.30677905678749084,-0.5959123373031616,-0.5437642931938171
1782969360206190000,9.628190185546876,-0.2696077227592468,-0.8436081409454346,-0.6417792439460754
1782969360216116000,9.638115966796875,-0.20002704858779907,-1.0095553398132324,-0.7624379992485046
1782969360226043000,9.64804296875,-0.11934329569339752,-1.13545823097229,-0.9292743802070618
1782969360235969000,9.657968994140624,-0.029812615364789963,-1.286777377128601,-1.1000276803970337
1782969360245895000,9.66789501953125,0.0975639671087265,-1.502159595489502,-1.2831087112426758
1782969360255821000,9.677821044921876,0.2398257702589035,-1.8329607248306274,-1.5539360046386719
1782969360265747000,9.687746826171875,0.30805590748786926,-2.301954984664917,-1.8803452253341675
1782969360275672800,9.6976728515625,0.3152802586555481,-2.777353525161743,-2.126650810241699
1782969360285600000,9.70760009765625,0.3213820159435272,-3.244723320007324,-2.3035733699798584
1782969360295526100,9.717526123046875,0.2699965834617615,-3.63578462600708,-2.3709988594055176
1782969360305452000,9.7274521484375,0.18930628895759583,-3.9651458263397217,-2.2180016040802
1782969360315378000,9.7373779296875,0.08439213037490845,-3.835331916809082,-1.6465167999267578
1782969360325304000,9.747303955078126,-0.020666802302002907,-2.9666712284088135,-0.8129688501358032
1782969360335231000,9.75723095703125,-0.09765719622373581,-1.7159382104873657,-0.06645312905311584
1782969360345156900,9.767156982421875,-0.04165084287524223,-0.5424551963806152,0.41030582785606384
1782969360355083000,9.7770830078125,-0.05101105198264122,0.19082491099834442,0.704187273979187
1782969360365009200,9.787009033203125,-0.21838408708572388,0.6250354647636414,0.8985140323638916
1782969360374934800,9.796934814453126,-0.41719383001327515,0.9888603091239929,0.9825966954231262
1782969360384862000,9.806862060546875,-0.5798737406730652,1.4502676725387573,0.8922625184059143
1782969360394788000,9.8167880859375,-0.6502267122268677,1.7517253160476685,0.6238675713539124
1782969360404714000,9.8267138671875,-0.6662919521331787,1.8215068578720093,0.2626359462738037
1782969360414639900,9.836639892578125,-0.6346842050552368,1.6918634176254272,-0.0632590651512146
1782969360424566000,9.84656591796875,-0.5972845554351807,1.4440301656723022,-0.2715243697166443
1782969360434492200,9.8564921875,-0.5382699966430664,1.21770179271698,-0.3783075511455536
1782969360444418800,9.866418701171876,-0.46582308411598206,1.094962477684021,-0.36503493785858154
1782969360454345000,9.876344970703125,-0.36727282404899597,1.0408002138137817,-0.26537492871284485
1782969360464271000,9.88627099609375,-0.22307676076889038,1.043668508529663,-0.11136307567358017
1782969360474197000,9.896197021484374,-0.06753590703010559,1.0529289245605469,0.08989200741052628
1782969360484123000,9.906122802734375,0.04854709282517433,0.9999001026153564,0.30120810866355896
1782969360494050000,9.916050048828126,0.09684138745069504,0.9311253428459167,0.4853161573410034
1782969360503976200,9.92597607421875,0.08226819336414337,0.9038223028182983,0.6118252277374268
1782969360513901800,9.93590185546875,0.022475704550743103,0.9530300498008728,0.6611776351928711
1782969360523828000,9.945827880859374,-0.03320111334323883,0.967549741268158,0.6642262935638428
1782969360533754000,9.955754150390625,-0.08321182429790497,0.8839060068130493,0.5896250605583191
1782969360543681000,9.965680908203124,-0.13552096486091614,0.7779852747917175,0.47454017400741577
1782969360553607000,9.97560693359375,-0.13025802373886108,0.660723090171814,0.34795135259628296
1782969360563533000,9.985532958984376,-0.06366866081953049,0.5081980228424072,0.24928739666938782
1782969360573459000,9.995458984375,0.06941322982311249,0.35597121715545654,0.18298186361789703
1782969360583385000,10.005385009765625,0.2478652000427246,0.17563211917877197,0.19163070619106293
1782969360593312000,10.01531201171875,0.42981237173080444,0.026197364553809166,0.2713966369628906
1782969360603238100,10.025238037109375,0.5535717606544495,-0.08388388901948929,0.4092136025428772
1782969360613164000,10.0351640625,0.5788094401359558,-0.1301850825548172,0.5370208024978638
1782969360623090000,10.04508984375,0.5637296438217163,-0.11352895945310593,0.599511981010437
1782969360633016000,10.05501611328125,0.5665501952171326,0.031121432781219482,0.5097397565841675
1782969360642942000,10.06494189453125,0.5985562205314636,0.255824476480484,0.27431297302246094
1782969360652868900,10.074868896484375,0.6095292568206787,0.43226394057273865,-0.024013523012399673
1782969360662795000,10.084794921875,0.6076217293739319,0.5079788565635681,-0.29738059639930725
1782969360672721000,10.094720947265625,0.6253991723060608,0.40281885862350464,-0.529650092124939
1782969360682647000,10.10464697265625,0.6795424222946167,0.1722244769334793,-0.8067414164543152
1782969360692573200,10.1145732421875,0.7246147990226746,-0.07817257940769196,-1.2095451354980469
1782969360702500000,10.1245,0.7625131607055664,-0.2649303376674652,-1.6823954582214355
1782969360712426000,10.134426025390624,0.7379883527755737,-0.4360083341598511,-1.960081696510315
1782969360722352000,10.14435205078125,0.6463483572006226,-0.5611610412597656,-1.7168163061141968
1782969360732278000,10.154278076171876,0.4848020374774933,-0.5398155450820923,-0.9805773496627808
1782969360742204000,10.164203857421874,0.3872951865196228,-0.5489334464073181,-0.12215513736009598
1782969360752131000,10.174131103515625,0.27330282330513,-0.48627084493637085,0.578371524810791
1782969360762057000,10.184056884765624,0.10309069603681564,-0.2272140383720398,0.9107741117477417
1782969360771983000,10.193983154296875,-0.06916069984436035,0.21379505097866058,0.8474811315536499
1782969360781909000,10.203908935546876,-0.17411966621875763,0.7307146787643433,0.595374584197998
1782969360791835100,10.213835205078125,-0.18589456379413605,1.1443421840667725,0.3437921404838562
1782969360801761000,10.223760986328125,-0.14325407147407532,1.338734745979309,0.1665043830871582
1782969360811688200,10.233688232421875,-0.08869443088769913,1.3156996965408325,0.062192097306251526
1782969360821614000,10.243614013671875,-0.05638702213764191,1.0511877536773682,0.03047850728034973
1782969360831540200,10.253540283203124,-0.0216375645250082,0.6431370973587036,0.028036922216415405
1782969360841466000,10.263466064453125,0.013135918416082859,0.18578840792179108,0.06575506180524826
1782969360851392000,10.27339208984375,0.025699112564325333,-0.24576619267463684,0.13649554550647736
1782969360861319200,10.283319091796875,0.025897899642586708,-0.5565198659896851,0.21273617446422577
1782969360871245000,10.2932451171875,0.05509786307811737,-0.6860544085502625,0.23489366471767426
1782969360881171000,10.3031708984375,0.09438331425189972,-0.6624088883399963,0.22774150967597961
1782969360891097000,10.31309716796875,0.12506745755672455,-0.5088585019111633,0.2621716558933258
1782969360901023200,10.323023193359376,0.1744389533996582,-0.2568213641643524,0.35107120871543884
1782969360910950100,10.3329501953125,0.1932363510131836,-0.046679843217134476,0.45015063881874084
1782969360920876000,10.3428759765625,0.19571255147457123,0.13102330267429352,0.4905409514904022
1782969360930802200,10.35280224609375,0.1759316623210907,0.27780023217201233,0.4423358738422394
1782969360940728000,10.36272802734375,0.10423444956541061,0.3958842158317566,0.36943483352661133
1782969360950654000,10.372654052734376,0.009520727209746838,0.46502256393432617,0.3371128439903259
1782969360960580000,10.382580078125,-0.09837806969881058,0.45415186882019043,0.33684128522872925
1782969360970507300,10.39250732421875,-0.20654182136058807,0.3487943112850189,0.38937774300575256
1782969360980433000,10.402432861328125,-0.3067537546157837,0.20220480859279633,0.46024009585380554
1782969360990359000,10.412359130859375,-0.37543562054634094,0.04897824674844742,0.6762254238128662
1782969361000285200,10.42228515625,-0.3847450911998749,-0.07478634268045425,0.7946818470954895
1782969361010211000,10.432211181640625,-0.3852100670337677,-0.010765288025140762,0.8383664488792419
1782969361020138000,10.442137939453126,-0.35765743255615234,-0.015546170994639397,0.7432596683502197
1782969361030064000,10.452064208984375,-0.3225995898246765,0.06645815074443817,0.5797210931777954
1782969361039990300,10.461990234375,-0.30034148693084717,0.17987366020679474,0.4215949475765228
1782969361049916000,10.471916015625,-0.3084113895893097,0.2286936640739441,0.32549503445625305
1782969361059842000,10.481842041015625,-0.34322428703308105,0.2853958010673523,0.2575186789035797
1782969361069769200,10.491769287109374,-0.3725070655345917,0.35766252875328064,0.206891730427742
1782969361079695000,10.501695068359375,-0.36637580394744873,0.3840334415435791,0.17811566591262817
