time,seconds_elapsed,z,y,x
1782969658216707800,0.056707763671875,-1.082183837890625,0.055877685546875,-0.1695098876953125
1782969658226634000,0.066634033203125,-1.1002349853515625,0.1210174560546875,-0.2916717529296875
1782969658236561200,0.07656103515625,-1.1005706787109375,0.1168365478515625,-0.30438232421875
1782969658246486800,0.08648681640625,-1.057830810546875,0.0743255615234375,-0.2551116943359375
1782969658256414000,0.0964140625,-1.00250244140625,-0.069122314453125,-0.268707275390625
1782969658266340000,0.106340087890625,-0.98345947265625,-0.160491943359375,-0.25531005859375
1782969658276266000,0.116265869140625,-0.966827392578125,-0.1995849609375,-0.2205810546875
1782969658286193000,0.12619287109375,-0.930908203125,-0.204620361328125,-0.1977691650390625
1782969658296119000,0.136119140625,-0.8867340087890625,-0.1914520263671875,-0.17230224609375
1782969658306045000,0.146044921875,-0.8391265869140625,-0.177490234375,-0.15399169921875
1782969658315970800,0.155970703125,-0.821044921875,-0.1705322265625,-0.1442108154296875
1782969658325898000,0.16589794921875,-0.8699493408203125,-0.1797637939453125,-0.1615753173828125
1782969658335824100,0.17582421875,-0.938018798828125,-0.2117156982421875,-0.200408935546875
1782969658345750000,0.18575,-0.969818115234375,-0.2162322998046875,-0.2209320068359375
1782969658355677000,0.195677001953125,-0.9409942626953125,-0.1347198486328125,-0.2766571044921875
1782969658365603000,0.20560302734375,-0.945404052734375,-0.1158447265625,-0.287933349609375
1782969658375529000,0.215529052734375,-0.9631195068359375,-0.1128997802734375,-0.247711181640625
1782969658385456000,0.2254560546875,-0.99432373046875,-0.0800628662109375,-0.1941070556640625
1782969658395382000,0.235382080078125,-1.0280609130859375,-0.0717620849609375,-0.165069580078125
1782969658405308000,0.245307861328125,-1.0360565185546875,-0.07293701171875,-0.1722412109375
1782969658415235000,0.255235107421875,-1.0206146240234375,-0.0536346435546875,-0.1974334716796875
1782969658425161000,0.265160888671875,-1.061553955078125,-0.089263916015625,-0.199310302734375
1782969658435086800,0.2750869140625,-1.0220947265625,-0.1209716796875,-0.232086181640625
1782969658445011000,0.285010986328125,-0.9840850830078125,-0.125762939453125,-0.277740478515625
1782969658454937900,0.294937744140625,-1.00543212890625,-0.1455078125,-0.210296630859375
1782969658464864000,0.304864013671875,-1.0372161865234375,-0.182342529296875,-0.1512908935546875
1782969658474790100,0.3147900390625,-1.00177001953125,-0.170745849609375,-0.123046875
1782969658484716800,0.324716796875,-0.96551513671875,-0.133636474609375,-0.091278076171875
1782969658494643000,0.334642822265625,-0.8951873779296875,-0.1002655029296875,-0.1402130126953125
1782969658504569000,0.344569091796875,-0.87823486328125,-0.087890625,-0.165863037109375
1782969658514496000,0.35449609375,-0.92218017578125,-0.132110595703125,-0.0924835205078125
1782969658524422000,0.364421875,-0.9287261962890625,-0.1371917724609375,-0.113739013671875
1782969658534348000,0.37434814453125,-0.929901123046875,-0.08148193359375,-0.15545654296875
1782969658544275000,0.38427490234375,-0.9231109619140625,-0.0725860595703125,-0.1159820556640625
1782969658554200800,0.394200927734375,-0.9119110107421875,-0.0953521728515625,-0.088836669921875
1782969658564127000,0.404126953125,-0.9403839111328125,-0.1053009033203125,-0.070556640625
1782969658574054000,0.414053955078125,-0.96282958984375,-0.115875244140625,-0.0680084228515625
1782969658583980000,0.42397998046875,-0.947967529296875,-0.1121826171875,-0.1356964111328125
1782969658593906000,0.433906005859375,-1.000091552734375,-0.0926971435546875,-0.115142822265625
1782969658603833000,0.4438330078125,-1.0009918212890625,-0.1104278564453125,-0.1044921875
1782969658613759000,0.453759033203125,-0.9936370849609375,-0.113189697265625,-0.1277618408203125
1782969658623684900,0.463684814453125,-1.011383056640625,-0.1376190185546875,-0.1002349853515625
1782969658633612000,0.473612060546875,-1.0121307373046875,-0.148529052734375,-0.124969482421875
1782969658643538000,0.483537841796875,-0.9881591796875,-0.122283935546875,-0.1912078857421875
1782969658653464000,0.493464111328125,-0.95391845703125,-0.091156005859375,-0.2824249267578125
1782969658663391000,0.503390869140625,-1.01837158203125,-0.1611328125,-0.0787200927734375
1782969658673316900,0.51331689453125,-1.0023651123046875,-0.1623687744140625,-0.0745697021484375
1782969658683243000,0.523242919921875,-1.0214080810546875,-0.111602783203125,-0.1204071044921875
1782969658693170200,0.533170166015625,-0.9839630126953125,-0.0994110107421875,-0.11309814453125
1782969658703095800,0.543095703125,-0.9716949462890625,-0.0876617431640625,-0.12091064453125
1782969658713022000,0.55302197265625,-0.9913787841796875,-0.11016845703125,-0.0715484619140625
1782969658722949000,0.56294921875,-0.9969940185546875,-0.1245269775390625,-0.0533905029296875
1782969658732875000,0.572875,-1.0054779052734375,-0.10089111328125,-0.09185791015625
1782969658742801000,0.58280078125,-0.94342041015625,-0.0631103515625,-0.208343505859375
1782969658752728000,0.59272802734375,-0.9963531494140625,-0.103424072265625,-0.1001739501953125
1782969658762654000,0.602654052734375,-0.959136962890625,-0.15057373046875,-0.00555419921875
1782969658772583000,0.6125830078125,-0.919830322265625,-0.125457763671875,-0.062896728515625
1782969658782509000,0.622509033203125,-0.9342498779296875,-0.10076904296875,-0.0829315185546875
1782969658792435000,0.63243505859375,-0.9564361572265625,-0.116973876953125,-0.03179931640625
1782969658802361900,0.64236181640625,-0.95074462890625,-0.11151123046875,-0.0504150390625
1782969658812288000,0.6522880859375,-0.9681549072265625,-0.08453369140625,-0.104736328125
1782969658822214000,0.6622138671875,-1.0013580322265625,-0.0773468017578125,-0.1035003662109375
1782969658832140800,0.672140869140625,-1.0214691162109375,-0.0904541015625,-0.0841827392578125
1782969658842067000,0.68206689453125,-1.021270751953125,-0.0902099609375,-0.0828399658203125
1782969658851993000,0.6919931640625,-1.001983642578125,-0.082183837890625,-0.0758056640625
1782969658861920000,0.701919921875,-0.9873504638671875,-0.0851898193359375,-0.05633544921875
1782969658871846000,0.711845947265625,-1.050567626953125,-0.08465576171875,-0.0877532958984375
1782969658881772000,0.72177197265625,-1.0386505126953125,-0.09393310546875,-0.09222412109375
1782969658891699200,0.73169921875,-1.01611328125,-0.0985260009765625,-0.084381103515625
1782969658901624800,0.741624755859375,-0.97607421875,-0.0985565185546875,-0.089111328125
1782969658911551000,0.751551025390625,-0.9586944580078125,-0.099609375,-0.086822509765625
1782969658921478100,0.76147802734375,-0.9894866943359375,-0.092132568359375,-0.076934814453125
1782969658931403800,0.77140380859375,-1.01434326171875,-0.09161376953125,-0.068695068359375
1782969658941330000,0.781329833984375,-0.9974212646484375,-0.095001220703125,-0.077362060546875
1782969658951257000,0.791257080078125,-0.97222900390625,-0.0924224853515625,-0.089263916015625
1782969658961183000,0.801182861328125,-0.9682159423828125,-0.0890655517578125,-0.0902099609375
1782969658971108900,0.81110888671875,-0.988739013671875,-0.08251953125,-0.0851287841796875
1782969658981036000,0.8210361328125,-1.00445556640625,-0.0774688720703125,-0.080352783203125
1782969658990962000,0.8309619140625,-1.003448486328125,-0.08270263671875,-0.072296142578125
1782969659000888000,0.84088818359375,-0.9978790283203125,-0.088836669921875,-0.07080078125
1782969659010815000,0.85081494140625,-0.9951019287109375,-0.090606689453125,-0.0753173828125
1782969659020740900,0.860740966796875,-0.9953460693359375,-0.0919952392578125,-0.07916259765625
1782969659030667000,0.8706669921875,-0.9897918701171875,-0.0944671630859375,-0.0785369873046875
1782969659040594200,0.88059423828125,-0.990020751953125,-0.092437744140625,-0.0767364501953125
1782969659050520000,0.89052001953125,-0.9837188720703125,-0.091796875,-0.0717926025390625
1782969659060446000,0.900446044921875,-0.9764251708984375,-0.0948028564453125,-0.067474365234375
1782969659070373000,0.910373046875,-0.984954833984375,-0.0956878662109375,-0.07196044921875
1782969659080299000,0.920299072265625,-0.996307373046875,-0.0935821533203125,-0.079498291015625
1782969659090225000,0.930224853515625,-0.994964599609375,-0.08709716796875,-0.0829925537109375
1782969659100152000,0.940152099609375,-0.984649658203125,-0.0883026123046875,-0.08319091796875
1782969659110078200,0.950078125,-0.9729461669921875,-0.0875244140625,-0.0803680419921875
1782969659120003800,0.96000390625,-0.9720916748046875,-0.089080810546875,-0.0812835693359375
1782969659129931000,0.969930908203125,-0.979583740234375,-0.090576171875,-0.088775634765625
1782969659139857200,0.979857177734375,-0.9882049560546875,-0.089141845703125,-0.089324951171875
1782969659149782800,0.98978271484375,-0.9973297119140625,-0.08941650390625,-0.086944580078125
1782969659159710000,0.9997099609375,-1.0101470947265625,-0.087310791015625,-0.093505859375
1782969659169636000,1.009635986328125,-1.021331787109375,-0.0860137939453125,-0.09600830078125
1782969659179562000,1.01956201171875,-1.0242767333984375,-0.0879974365234375,-0.095672607421875
1782969659189489000,1.029489013671875,-1.01409912109375,-0.0900421142578125,-0.090545654296875
1782969659199415000,1.0394150390625,-0.9931488037109375,-0.0961456298828125,-0.079681396484375
1782969659209341000,1.0493408203125,-0.974334716796875,-0.098846435546875,-0.0735626220703125
1782969659219268000,1.05926806640625,-0.961700439453125,-0.0951690673828125,-0.074371337890625
1782969659229194000,1.069194091796875,-0.957122802734375,-0.0911712646484375,-0.074737548828125
1782969659239120100,1.0791201171875,-0.95697021484375,-0.088287353515625,-0.0712890625
1782969659249047000,1.089047119140625,-0.96307373046875,-0.085601806640625,-0.0706939697265625
1782969659258973000,1.098972900390625,-0.970977783203125,-0.0832672119140625,-0.071502685546875
1782969659268899000,1.108899169921875,-0.9810333251953125,-0.084442138671875,-0.0741729736328125
1782969659278826000,1.118825927734375,-1.0012664794921875,-0.086944580078125,-0.08160400390625
1782969659288752000,1.128752197265625,-1.0119171142578125,-0.082061767578125,-0.080963134765625
1782969659298678000,1.138677978515625,-1.0180206298828125,-0.0825042724609375,-0.0767974853515625
1782969659308605000,1.14860498046875,-1.0140838623046875,-0.087738037109375,-0.0775146484375
1782969659318531000,1.158531005859375,-1.0037841796875,-0.0892333984375,-0.0788421630859375
1782969659328457000,1.16845703125,-1.0008392333984375,-0.087860107421875,-0.080474853515625
1782969659338384000,1.1783837890625,-0.9980926513671875,-0.0911712646484375,-0.0814666748046875
1782969659348310000,1.18831005859375,-0.9916839599609375,-0.0908966064453125,-0.080657958984375
1782969659358236200,1.198236083984375,-0.990203857421875,-0.0895233154296875,-0.0800628662109375
1782969659368163000,1.2081630859375,-0.98992919921875,-0.0916290283203125,-0.0776519775390625
1782969659378089000,1.2180888671875,-0.984619140625,-0.092559814453125,-0.077728271484375
1782969659388015000,1.22801513671875,-0.9821319580078125,-0.09521484375,-0.0800018310546875
1782969659397942000,1.23794189453125,-0.976470947265625,-0.0949249267578125,-0.081573486328125
1782969659407868000,1.247867919921875,-0.97802734375,-0.09222412109375,-0.082305908203125
1782969659417794000,1.2577939453125,-0.98614501953125,-0.0877838134765625,-0.083404541015625
1782969659427721000,1.267720947265625,-0.99517822265625,-0.086151123046875,-0.084075927734375
1782969659437647000,1.277647216796875,-0.9989013671875,-0.08795166015625,-0.082275390625
1782969659447573000,1.287572998046875,-1.0003662109375,-0.0892791748046875,-0.0869903564453125
1782969659457500000,1.2975,-0.998291015625,-0.0911102294921875,-0.09088134765625
1782969659467426000,1.307426025390625,-0.99102783203125,-0.0926971435546875,-0.08746337890625
1782969659477352000,1.31735205078125,-0.9943389892578125,-0.0884552001953125,-0.0849151611328125
1782969659487278800,1.32727880859375,-0.9975738525390625,-0.087188720703125,-0.09027099609375
1782969659497205000,1.337205078125,-0.9922637939453125,-0.0858154296875,-0.0848236083984375
1782969659507131100,1.347131103515625,-0.9892425537109375,-0.09130859375,-0.0809783935546875
1782969659517057800,1.357057861328125,-0.9852294921875,-0.0960845947265625,-0.0828704833984375
1782969659526984000,1.36698388671875,-0.9752044677734375,-0.0919647216796875,-0.0820770263671875
1782969659536910000,1.37691015625,-0.96783447265625,-0.0909576416015625,-0.076629638671875
1782969659546837000,1.3868369140625,-0.9711761474609375,-0.09637451171875,-0.076629638671875
1782969659556763000,1.396762939453125,-0.9746551513671875,-0.097015380859375,-0.0831146240234375
1782969659566689000,1.40668896484375,-0.9866485595703125,-0.0941925048828125,-0.0911865234375
1782969659576616000,1.416615966796875,-0.99188232421875,-0.0955047607421875,-0.0808563232421875
1782969659586541800,1.426541748046875,-0.9900665283203125,-0.08477783203125,-0.07476806640625
1782969659596468000,1.436468017578125,-0.991851806640625,-0.0777740478515625,-0.0726776123046875
1782969659606395000,1.446394775390625,-0.9875946044921875,-0.0799560546875,-0.0685882568359375
1782969659616321000,1.456321044921875,-0.9844970703125,-0.0840911865234375,-0.071258544921875
1782969659626247000,1.466246826171875,-0.9812774658203125,-0.085479736328125,-0.0777587890625
1782969659636174000,1.476174072265625,-0.9911651611328125,-0.083953857421875,-0.08160400390625
1782969659646100000,1.486099853515625,-1.0058135986328125,-0.0860748291015625,-0.0827178955078125
1782969659656025900,1.49602587890625,-1.004669189453125,-0.0881195068359375,-0.0822601318359375
1782969659665953000,1.505953125,-0.9958343505859375,-0.0888824462890625,-0.0775146484375
1782969659675879000,1.51587890625,-0.98883056640625,-0.087646484375,-0.077239990234375
1782969659685805000,1.52580517578125,-0.9909515380859375,-0.0889739990234375,-0.0833740234375
1782969659695732000,1.53573193359375,-1.0009765625,-0.0871429443359375,-0.0836029052734375
1782969659705657900,1.545657958984375,-0.998443603515625,-0.0850830078125,-0.0792999267578125
1782969659715584000,1.555583984375,-0.9884796142578125,-0.0825958251953125,-0.0814971923828125
1782969659725511200,1.56551123046875,-0.978424072265625,-0.0802154541015625,-0.077911376953125
1782969659735436800,1.575436767578125,-0.9827728271484375,-0.0747528076171875,-0.0677642822265625
1782969659745363000,1.585363037109375,-0.9876556396484375,-0.079193115234375,-0.0721435546875
1782969659755290000,1.5952900390625,-0.9888763427734375,-0.0802764892578125,-0.0777587890625
1782969659765216000,1.605216064453125,-0.98126220703125,-0.080657958984375,-0.07733154296875
1782969659775142000,1.615141845703125,-0.9753875732421875,-0.0805816650390625,-0.0772857666015625
1782969659785069000,1.625069091796875,-0.98040771484375,-0.0775146484375,-0.068756103515625
1782969659794995000,1.634994873046875,-0.993255615234375,-0.0723419189453125,-0.0638427734375
1782969659804920800,1.6449208984375,-1.005706787109375,-0.0708160400390625,-0.0684051513671875
1782969659814847000,1.654846923828125,-1.00946044921875,-0.07244873046875,-0.072906494140625
1782969659824774100,1.664774169921875,-1.0054473876953125,-0.0782928466796875,-0.0777435302734375
1782969659834700000,1.674699951171875,-1.0041961669921875,-0.0814971923828125,-0.083953857421875
1782969659844626000,1.6846259765625,-1.001617431640625,-0.08160400390625,-0.08782958984375
1782969659854553000,1.694552978515625,-1.002197265625,-0.083587646484375,-0.0851287841796875
1782969659864479000,1.70447900390625,-0.9971466064453125,-0.084808349609375,-0.0848388671875
1782969659874404900,1.71440478515625,-0.9915924072265625,-0.0843353271484375,-0.0843048095703125
1782969659884332000,1.72433203125,-0.9868316650390625,-0.0858001708984375,-0.0860595703125
1782969659894258000,1.7342578125,-0.986297607421875,-0.083404541015625,-0.085357666015625
1782969659904184000,1.74418408203125,-0.98553466796875,-0.085784912109375,-0.0848236083984375
1782969659914111000,1.754111083984375,-0.987457275390625,-0.087432861328125,-0.084869384765625
1782969659924036900,1.764036865234375,-0.9954071044921875,-0.0868072509765625,-0.086090087890625
1782969659933963000,1.773962890625,-1.0007476806640625,-0.0878448486328125,-0.0864410400390625
1782969659943890200,1.78389013671875,-1.000030517578125,-0.084991455078125,-0.0849151611328125
1782969659953816000,1.793816162109375,-0.9948883056640625,-0.0809326171875,-0.078338623046875
1782969659963742000,1.803741943359375,-0.9946441650390625,-0.078826904296875,-0.072296142578125
1782969659973669000,1.813669189453125,-0.99462890625,-0.078125,-0.06610107421875
1782969659983595000,1.823594970703125,-1.0000762939453125,-0.0802459716796875,-0.06610107421875
1782969659993521000,1.83352099609375,-1.0082244873046875,-0.081787109375,-0.0710296630859375
1782969660003448000,1.843447998046875,-1.011260986328125,-0.085479736328125,-0.0751190185546875
1782969660013374200,1.853374267578125,-1.0075531005859375,-0.0833892822265625,-0.0765228271484375
1782969660023299800,1.8632998046875,-1.0009002685546875,-0.083740234375,-0.0768890380859375
1782969660033227000,1.87322705078125,-0.9910430908203125,-0.0871429443359375,-0.0758819580078125
1782969660043153200,1.883153076171875,-0.982177734375,-0.089385986328125,-0.07568359375
1782969660053078800,1.893078857421875,-0.9884796142578125,-0.088531494140625,-0.0767669677734375
1782969660063006200,1.903006103515625,-0.9942474365234375,-0.08612060546875,-0.082794189453125
1782969660072932000,1.91293212890625,-0.995819091796875,-0.0860595703125,-0.087310791015625
1782969660082858000,1.92285791015625,-1.0007781982421875,-0.0914306640625,-0.08892822265625
1782969660092785200,1.93278515625,-0.9961700439453125,-0.0939483642578125,-0.085479736328125
1782969660102711300,1.942711181640625,-0.987884521484375,-0.09332275390625,-0.0847320556640625
1782969660112637000,1.952636962890625,-0.981719970703125,-0.09234619140625,-0.0854949951171875
1782969660122564000,1.962564208984375,-0.9855194091796875,-0.091094970703125,-0.087982177734375
1782969660132490200,1.972490234375,-0.9839324951171875,-0.0978851318359375,-0.089385986328125
1782969660142416100,1.982416015625,-0.9770660400390625,-0.097808837890625,-0.0855865478515625
1782969660152343000,1.992343017578125,-0.9686737060546875,-0.09661865234375,-0.0823211669921875
1782969660162269200,2.002269287109375,-0.95916748046875,-0.0952911376953125,-0.0724945068359375
1782969660172195000,2.012195068359375,-0.96356201171875,-0.09442138671875,-0.0747833251953125
1782969660182121000,2.022120849609375,-0.9779205322265625,-0.0904083251953125,-0.076812744140625
1782969660192048000,2.032048095703125,-0.9909515380859375,-0.086151123046875,-0.0791168212890625
1782969660201974300,2.041974365234375,-0.9954681396484375,-0.089874267578125,-0.0779876708984375
1782969660211900200,2.051900146484375,-0.9973297119140625,-0.091278076171875,-0.08026123046875
1782969660221827000,2.0618271484375,-0.997894287109375,-0.0945892333984375,-0.0792083740234375
1782969660231753200,2.071753173828125,-0.9953155517578125,-0.0990447998046875,-0.0781097412109375
1782969660241679000,2.08167919921875,-0.9908599853515625,-0.0983428955078125,-0.081329345703125
1782969660251606300,2.091606201171875,-0.9943695068359375,-0.0956573486328125,-0.080718994140625
1782969660261532200,2.1015322265625,-0.997650146484375,-0.0908966064453125,-0.080169677734375
1782969660271458000,2.1114580078125,-0.9966888427734375,-0.0903778076171875,-0.081634521484375
1782969660281385200,2.12138525390625,-0.99591064453125,-0.0923614501953125,-0.0760345458984375
1782969660291311000,2.13131103515625,-0.9882354736328125,-0.0955657958984375,-0.0737762451171875
1782969660301237000,2.141237060546875,-0.982330322265625,-0.0966796875,-0.07415771484375
1782969660311164200,2.1511640625,-0.9821319580078125,-0.0943603515625,-0.0764007568359375
1782969660321090300,2.16109033203125,-0.98126220703125,-0.0954132080078125,-0.0748443603515625
1782969660331016000,2.171015869140625,-0.9844207763671875,-0.094879150390625,-0.0763092041015625
1782969660340943000,2.180943115234375,-0.9850616455078125,-0.0963592529296875,-0.0784759521484375
1782969660350869200,2.190869140625,-0.985992431640625,-0.097564697265625,-0.0777740478515625
1782969660360795100,2.200795166015625,-0.9871978759765625,-0.0975189208984375,-0.076568603515625
1782969660370722000,2.21072216796875,-0.990814208984375,-0.0954742431640625,-0.0754852294921875
1782969660380648200,2.220648193359375,-0.9951019287109375,-0.0942535400390625,-0.0745086669921875
1782969660390574300,2.23057421875,-0.9965667724609375,-0.0911712646484375,-0.072296142578125
1782969660400501000,2.2405009765625,-0.999420166015625,-0.0907135009765625,-0.0734710693359375
1782969660410427100,2.25042724609375,-0.996063232421875,-0.094818115234375,-0.0788116455078125
1782969660420353300,2.260353271484375,-0.993560791015625,-0.0933990478515625,-0.0793914794921875
1782969660430280200,2.2702802734375,-0.9913177490234375,-0.0919189453125,-0.0767669677734375
1782969660440206000,2.2802060546875,-0.989501953125,-0.0913543701171875,-0.078826904296875
1782969660450132200,2.29013232421875,-0.9945526123046875,-0.08868408203125,-0.079193115234375
1782969660460058000,2.30005810546875,-0.995391845703125,-0.0894775390625,-0.077667236328125
1782969660469985000,2.309985107421875,-0.9904632568359375,-0.09124755859375,-0.077362060546875
1782969660479911200,2.3199111328125,-0.9842529296875,-0.0940704345703125,-0.0800018310546875
1782969660489837000,2.329837158203125,-0.9816741943359375,-0.09869384765625,-0.084503173828125
1782969660499764200,2.33976416015625,-0.9806060791015625,-0.100494384765625,-0.08233642578125
1782969660509690000,2.349690185546875,-0.9827423095703125,-0.09808349609375,-0.080230712890625
1782969660519616000,2.359615966796875,-0.9933624267578125,-0.09332275390625,-0.0814361572265625
1782969660529543200,2.369543212890625,-0.9983367919921875,-0.0962066650390625,-0.0826416015625
1782969660539469000,2.379468994140625,-0.98870849609375,-0.0970306396484375,-0.080413818359375
1782969660549395200,2.389395263671875,-0.9833526611328125,-0.0939788818359375,-0.077545166015625
1782969660559322000,2.399322021484375,-0.989532470703125,-0.093109130859375,-0.0749969482421875
1782969660569248300,2.409248291015625,-0.99713134765625,-0.0922088623046875,-0.07379150390625
1782969660579174100,2.419174072265625,-1.003326416015625,-0.0924835205078125,-0.0768280029296875
1782969660589101000,2.42910107421875,-0.9994964599609375,-0.0933685302734375,-0.075927734375
1782969660599027200,2.439027099609375,-0.99041748046875,-0.09283447265625,-0.0770721435546875
1782969660608953300,2.448953369140625,-0.9882659912109375,-0.095184326171875,-0.0834503173828125
1782969660618880000,2.4588798828125,-0.98626708984375,-0.095977783203125,-0.085052490234375
1782969660628806100,2.46880615234375,-0.9813385009765625,-0.094970703125,-0.0820465087890625
1782969660638732300,2.478732177734375,-0.9811859130859375,-0.0915069580078125,-0.076202392578125
1782969660648659200,2.4886591796875,-0.9827728271484375,-0.0901947021484375,-0.071197509765625
1782969660658585000,2.498585205078125,-0.98358154296875,-0.0927276611328125,-0.06982421875
1782969660668511200,2.50851123046875,-0.9945068359375,-0.0933380126953125,-0.072174072265625
1782969660678438100,2.518438232421875,-1.0072784423828125,-0.0922393798828125,-0.0758056640625
1782969660688364000,2.528364013671875,-1.0115814208984375,-0.09515380859375,-0.0776519775390625
1782969660698290200,2.538290283203125,-1.0013885498046875,-0.100372314453125,-0.08221435546875
1782969660708217000,2.548217041015625,-0.99066162109375,-0.1013946533203125,-0.0838165283203125
1782969660718143200,2.558143310546875,-0.9824371337890625,-0.101226806640625,-0.083282470703125
1782969660728069000,2.568069091796875,-0.9818878173828125,-0.0976409912109375,-0.08441162109375
1782969660737995300,2.577995361328125,-0.9802703857421875,-0.09686279296875,-0.0792083740234375
1782969660747922200,2.587922119140625,-0.9785003662109375,-0.096221923828125,-0.070953369140625
1782969660757848000,2.59784814453125,-0.9786529541015625,-0.0955810546875,-0.070343017578125
1782969660767774200,2.607774169921875,-0.98388671875,-0.0992279052734375,-0.0709228515625
1782969660777701000,2.617701171875,-0.9897003173828125,-0.0986785888671875,-0.0734710693359375
1782969660787627300,2.627627197265625,-0.993988037109375,-0.09771728515625,-0.0760345458984375
1782969660797553200,2.63755322265625,-0.9940185546875,-0.1003875732421875,-0.0765380859375
1782969660807480000,2.64747998046875,-0.9918365478515625,-0.100982666015625,-0.0782318115234375
1782969660817406200,2.65740625,-0.99072265625,-0.1009674072265625,-0.080657958984375
1782969660827332000,2.66733203125,-0.9950714111328125,-0.1018829345703125,-0.08538818359375
1782969660837259000,2.677259033203125,-0.9986724853515625,-0.102874755859375,-0.086639404296875
1782969660847185200,2.68718505859375,-0.999969482421875,-0.1030731201171875,-0.08502197265625
1782969660857111300,2.697111328125,-0.990753173828125,-0.10406494140625,-0.083251953125
1782969660867038000,2.707037841796875,-0.9797821044921875,-0.1008148193359375,-0.08050537109375
1782969660876964000,2.716964111328125,-0.98016357421875,-0.09869384765625,-0.0777435302734375
1782969660886890200,2.72689013671875,-0.98553466796875,-0.0975494384765625,-0.0793609619140625
1782969660896817200,2.736817138671875,-0.98779296875,-0.0982818603515625,-0.0773773193359375
1782969660906743000,2.746742919921875,-0.9894256591796875,-0.0989990234375,-0.076507568359375
1782969660916669200,2.756669189453125,-0.989349365234375,-0.101470947265625,-0.07379150390625
1782969660926596000,2.76659619140625,-0.987213134765625,-0.10308837890625,-0.0714263916015625
1782969660936522000,2.77652197265625,-0.9868927001953125,-0.1013946533203125,-0.0732269287109375
1782969660946448100,2.7864482421875,-0.9919281005859375,-0.0992584228515625,-0.074188232421875
1782969660956375000,2.796375,-0.99462890625,-0.09735107421875,-0.07513427734375
1782969660966301200,2.80630126953125,-0.9935150146484375,-0.099212646484375,-0.0770263671875
1782969660976227000,2.81622705078125,-0.9878692626953125,-0.1013031005859375,-0.078643798828125
1782969660986154000,2.826154052734375,-0.9846343994140625,-0.10003662109375,-0.0791168212890625
1782969660996080000,2.836080078125,-0.985107421875,-0.0986328125,-0.0819549560546875
1782969661006006000,2.846006103515625,-0.9899139404296875,-0.096221923828125,-0.084442138671875
1782969661015933000,2.855932861328125,-0.99078369140625,-0.096405029296875,-0.08087158203125
1782969661025859000,2.865859130859375,-0.9903564453125,-0.0966033935546875,-0.0836181640625
1782969661035785200,2.87578515625,-0.9915771484375,-0.1001739501953125,-0.0836334228515625
1782969661045712100,2.885712158203125,-0.9934234619140625,-0.099639892578125,-0.0840606689453125
1782969661055638000,2.895637939453125,-0.99139404296875,-0.099609375,-0.084075927734375
1782969661065563600,2.905563720703125,-0.9881591796875,-0.098968505859375,-0.07806396484375
1782969661075489800,2.91548974609375,-0.986236572265625,-0.0963897705078125,-0.074493408203125
1782969661085416700,2.925416748046875,-0.9865570068359375,-0.0985870361328125,-0.077545166015625
1782969661095342800,2.9353427734375,-0.9910736083984375,-0.1004638671875,-0.0814056396484375
1782969661105268700,2.945268798828125,-0.9930419921875,-0.10223388671875,-0.0851287841796875
1782969661115195600,2.955195556640625,-0.9894866943359375,-0.102813720703125,-0.0828857421875
1782969661125121800,2.965121826171875,-0.9839630126953125,-0.099029541015625,-0.07855224609375
1782969661135047700,2.975047607421875,-0.9844512939453125,-0.098236083984375,-0.0764923095703125
1782969661144974600,2.984974609375,-0.9825439453125,-0.10308837890625,-0.08160400390625
1782969661154900700,2.994900634765625,-0.982513427734375,-0.102813720703125,-0.0833740234375
1782969661164827000,3.004826904296875,-0.9868316650390625,-0.10345458984375,-0.0792388916015625
1782969661174753800,3.01475390625,-0.9890289306640625,-0.1016845703125,-0.0810089111328125
1782969661184679700,3.0246796875,-0.992034912109375,-0.0991058349609375,-0.0802459716796875
1782969661194605800,3.034605712890625,-0.990692138671875,-0.1006927490234375,-0.0777435302734375
1782969661204532700,3.04453271484375,-0.989349365234375,-0.1017913818359375,-0.0782318115234375
1782969661214458600,3.054458740234375,-0.9875030517578125,-0.1008758544921875,-0.0751495361328125
1782969661224384800,3.064384765625,-0.993316650390625,-0.10107421875,-0.073272705078125
1782969661234312000,3.07431201171875,-0.9965972900390625,-0.099853515625,-0.0786285400390625
1782969661244237800,3.08423779296875,-0.9975128173828125,-0.1005859375,-0.0783843994140625
1782969661254163700,3.094163818359375,-0.9952850341796875,-0.102691650390625,-0.07965087890625
1782969661264091000,3.1040908203125,-0.994476318359375,-0.1048431396484375,-0.08441162109375
1782969661274016800,3.114016845703125,-0.988922119140625,-0.10491943359375,-0.085296630859375
1782969661283942700,3.123942626953125,-0.9848480224609375,-0.1022796630859375,-0.08453369140625
1782969661293868800,3.133868896484375,-0.9799346923828125,-0.1016998291015625,-0.0810089111328125
1782969661303795700,3.143795654296875,-0.9749298095703125,-0.1041717529296875,-0.08160400390625
1782969661313721900,3.153721923828125,-0.97528076171875,-0.10516357421875,-0.0833587646484375
1782969661323647700,3.163647705078125,-0.976531982421875,-0.103302001953125,-0.0813751220703125
1782969661333574700,3.17357470703125,-0.9820098876953125,-0.1020965576171875,-0.07928466796875
1782969661343500800,3.183500732421875,-0.989471435546875,-0.1009063720703125,-0.0785980224609375
1782969661353426700,3.1934267578125,-0.9994964599609375,-0.1014862060546875,-0.0808868408203125
1782969661363353900,3.203353759765625,-1.005828857421875,-0.0997161865234375,-0.0734710693359375
1782969661373279700,3.21327978515625,-1.0078582763671875,-0.0962982177734375,-0.0666656494140625
1782969661383206000,3.223205810546875,-1.006378173828125,-0.09466552734375,-0.065032958984375
1782969661393132800,3.2331328125,-0.9994049072265625,-0.098968505859375,-0.0663909912109375
1782969661403058700,3.24305859375,-0.9920196533203125,-0.1043701171875,-0.0710601806640625
1782969661412984800,3.25298486328125,-0.991180419921875,-0.1082305908203125,-0.07855224609375
1782969661422912000,3.262912109375,-0.991302490234375,-0.1080169677734375,-0.085235595703125
1782969661432837600,3.272837646484375,-0.989410400390625,-0.1059112548828125,-0.0894622802734375
1782969661442763800,3.282763671875,-0.9909210205078125,-0.105499267578125,-0.08905029296875
1782969661452691000,3.29269091796875,-0.988372802734375,-0.1082000732421875,-0.0891265869140625
1782969661462616600,3.302616455078125,-0.982025146484375,-0.10980224609375,-0.0873870849609375
1782969661472542700,3.312542724609375,-0.9758453369140625,-0.1118011474609375,-0.0886688232421875
1782969661482470000,3.322469970703125,-0.9756317138671875,-0.1101226806640625,-0.0904541015625
1782969661492395800,3.332395751953125,-0.9744720458984375,-0.1083526611328125,-0.0918121337890625
1782969661502321700,3.34232177734375,-0.9729766845703125,-0.106842041015625,-0.0894317626953125
1782969661512248800,3.352248779296875,-0.9723052978515625,-0.1041107177734375,-0.0877532958984375
1782969661522174700,3.3621748046875,-0.975341796875,-0.1051788330078125,-0.0839996337890625
1782969661532100600,3.3721005859375,-0.9846954345703125,-0.1025238037109375,-0.080108642578125
1782969661542027800,3.38202783203125,-0.99993896484375,-0.101715087890625,-0.078704833984375
1782969661551954000,3.391953857421875,-1.00689697265625,-0.1012725830078125,-0.07635498046875
1782969661561879800,3.4018798828125,-1.0130767822265625,-0.1016082763671875,-0.0755462646484375
1782969661571805700,3.4118056640625,-1.0157012939453125,-0.10235595703125,-0.078582763671875
1782969661581732900,3.42173291015625,-1.0087738037109375,-0.1051788330078125,-0.082122802734375
1782969661591658800,3.43165869140625,-0.992523193359375,-0.1043701171875,-0.082763671875
1782969661601584600,3.441584716796875,-0.9803466796875,-0.1046905517578125,-0.0827789306640625
1782969661611511800,3.45151171875,-0.9719696044921875,-0.103668212890625,-0.0778656005859375
1782969661621437700,3.461437744140625,-0.9679718017578125,-0.1034698486328125,-0.0788421630859375
1782969661631363800,3.47136376953125,-0.9694061279296875,-0.1042633056640625,-0.0792999267578125
1782969661641291000,3.481291015625,-0.9754180908203125,-0.1013641357421875,-0.0768585205078125
1782969661651216600,3.491216552734375,-0.9804840087890625,-0.1065521240234375,-0.0799560546875
1782969661661142800,3.501142822265625,-0.9848480224609375,-0.107208251953125,-0.0830078125
1782969661671070000,3.511070068359375,-0.9899749755859375,-0.106781005859375,-0.0835113525390625
1782969661680995600,3.52099560546875,-0.9965362548828125,-0.1051177978515625,-0.0844879150390625
1782969661690921700,3.530921630859375,-0.9990386962890625,-0.1038970947265625,-0.081878662109375
1782969661700849000,3.540848876953125,-0.9962310791015625,-0.10589599609375,-0.0818328857421875
1782969661710774800,3.55077490234375,-0.9938507080078125,-0.1046905517578125,-0.081390380859375
1782969661720700700,3.56070068359375,-1.00189208984375,-0.1009979248046875,-0.0775146484375
1782969661730627800,3.5706279296875,-1.00775146484375,-0.1025390625,-0.075958251953125
1782969661740553700,3.5805537109375,-1.003021240234375,-0.1024932861328125,-0.079345703125
1782969661750479600,3.590479736328125,-0.9894561767578125,-0.1066436767578125,-0.083740234375
1782969661760406800,3.60040673828125,-0.9786529541015625,-0.10638427734375,-0.08868408203125
1782969661770333000,3.6103330078125,-0.9770050048828125,-0.1068878173828125,-0.0896148681640625
1782969661780258800,3.6202587890625,-0.9776763916015625,-0.105499267578125,-0.0842437744140625
1782969661790185700,3.630185791015625,-0.9765472412109375,-0.1056976318359375,-0.0819244384765625
1782969661800111900,3.64011181640625,-0.978607177734375,-0.1083221435546875,-0.0841827392578125
1782969661810037800,3.650037841796875,-0.98687744140625,-0.1067962646484375,-0.084625244140625
1782969661819963600,3.659963623046875,-0.990478515625,-0.1060638427734375,-0.083251953125
1782969661829890800,3.669890869140625,-0.9886627197265625,-0.107574462890625,-0.082611083984375
1782969661839816700,3.679816650390625,-0.98529052734375,-0.107513427734375,-0.0811004638671875
1782969661849742800,3.689742919921875,-0.98455810546875,-0.1046142578125,-0.0807342529296875
1782969661859669800,3.699669677734375,-0.991424560546875,-0.10223388671875,-0.0811614990234375
1782969661869595600,3.709595703125,-0.9990692138671875,-0.1038970947265625,-0.0833587646484375
1782969661879521800,3.719521728515625,-0.996612548828125,-0.1081695556640625,-0.084808349609375
1782969661889449000,3.729448974609375,-0.9893646240234375,-0.1090545654296875,-0.088623046875
1782969661899374800,3.739374755859375,-0.987396240234375,-0.109466552734375,-0.0880584716796875
1782969661909300700,3.74930078125,-0.9856719970703125,-0.1083831787109375,-0.0840301513671875
1782969661919228000,3.759227783203125,-0.9868316650390625,-0.107757568359375,-0.08233642578125
1782969661929153800,3.76915380859375,-0.99041748046875,-0.1073760986328125,-0.0800323486328125
1782969661939079700,3.77907958984375,-0.99432373046875,-0.1076507568359375,-0.0815582275390625
1782969661949006800,3.7890068359375,-0.991607666015625,-0.1112213134765625,-0.081390380859375
1782969661958933000,3.79893310546875,-0.98370361328125,-0.1123809814453125,-0.0809173583984375
1782969661968858600,3.808858642578125,-0.9817962646484375,-0.107452392578125,-0.0802001953125
1782969661978785800,3.818785888671875,-0.990020751953125,-0.104248046875,-0.077911376953125
1782969661988712000,3.8287119140625,-0.9960174560546875,-0.1055145263671875,-0.0756683349609375
1782969661998637600,3.838637451171875,-0.991546630859375,-0.109344482421875,-0.0760498046875
1782969662008564700,3.848564697265625,-0.9894866943359375,-0.1097564697265625,-0.0796966552734375
1782969662018491000,3.858490966796875,-0.9893798828125,-0.111541748046875,-0.08563232421875
1782969662028416800,3.868416748046875,-0.9849700927734375,-0.1150665283203125,-0.0875701904296875
1782969662038342700,3.8783427734375,-0.981353759765625,-0.115966796875,-0.088134765625
1782969662048269800,3.888269775390625,-0.981170654296875,-0.1131744384765625,-0.0875396728515625
1782969662058195700,3.89819580078125,-0.98095703125,-0.112945556640625,-0.087127685546875
1782969662068121300,3.908121337890625,-0.9843597412109375,-0.111572265625,-0.0860595703125
1782969662078048500,3.918048583984375,-0.992828369140625,-0.10797119140625,-0.0834808349609375
1782969662087974700,3.927974609375,-0.9927520751953125,-0.109771728515625,-0.08148193359375
1782969662097900300,3.937900390625,-0.9888916015625,-0.11163330078125,-0.0803375244140625
1782969662107827500,3.947827392578125,-0.9836578369140625,-0.111236572265625,-0.0794677734375
1782969662117753600,3.957753662109375,-0.982635498046875,-0.111419677734375,-0.0797119140625
1782969662127679500,3.967679443359375,-0.98553466796875,-0.111602783203125,-0.08306884765625
1782969662137603600,3.977603515625,-0.9900970458984375,-0.1112823486328125,-0.08642578125
1782969662147530500,3.987530517578125,-0.9931182861328125,-0.11407470703125,-0.08758544921875
1782969662157456400,3.997456298828125,-0.9890289306640625,-0.1151885986328125,-0.085418701171875
1782969662167382500,4.007382568359375,-0.9873199462890625,-0.1138916015625,-0.0819091796875
1782969662177309400,4.017309326171875,-0.9869384765625,-0.1148529052734375,-0.0821990966796875
1782969662187235600,4.027235595703125,-0.99200439453125,-0.1126556396484375,-0.079376220703125
1782969662197161500,4.037161376953125,-0.9937591552734375,-0.1114044189453125,-0.0807037353515625
1782969662207088400,4.04708837890625,-0.9902801513671875,-0.110015869140625,-0.0804595947265625
1782969662217014500,4.0570146484375,-0.9847564697265625,-0.1092376708984375,-0.078369140625
1782969662226940400,4.0669404296875,-0.98260498046875,-0.105194091796875,-0.0788116455078125
1782969662236867300,4.076867431640625,-0.983428955078125,-0.108428955078125,-0.084136962890625
1782969662246793500,4.08679345703125,-0.9857177734375,-0.1131744384765625,-0.088470458984375
1782969662256719600,4.0967197265625,-0.99029541015625,-0.1143646240234375,-0.0915069580078125
1782969662266645500,4.1066455078125,-0.99114990234375,-0.1161041259765625,-0.091827392578125
1782969662276572400,4.116572509765625,-0.9919891357421875,-0.115997314453125,-0.0943756103515625
1782969662286498600,4.12649853515625,-0.9934844970703125,-0.1128997802734375,-0.088134765625
1782969662296424400,4.136424560546875,-0.993499755859375,-0.111419677734375,-0.0849761962890625
1782969662306351400,4.146351318359375,-0.9860076904296875,-0.11102294921875,-0.0821685791015625
1782969662316277500,4.156277587890625,-0.9813232421875,-0.1100921630859375,-0.0805816650390625
1782969662326203600,4.16620361328125,-0.9783172607421875,-0.112701416015625,-0.075164794921875
1782969662336130300,4.17613037109375,-0.9762115478515625,-0.1148223876953125,-0.071990966796875
1782969662346056400,4.186056396484375,-0.982147216796875,-0.11224365234375,-0.0730133056640625
1782969662355982600,4.195982666015625,-0.9906463623046875,-0.11297607421875,-0.07269287109375
1782969662365909500,4.205909423828125,-0.99267578125,-0.110687255859375,-0.0714874267578125
1782969662375835400,4.21583544921875,-0.9903717041015625,-0.109771728515625,-0.0737457275390625
1782969662385761500,4.225761474609375,-0.9892730712890625,-0.113525390625,-0.0807342529296875
1782969662395688400,4.2356884765625,-0.9882354736328125,-0.1155548095703125,-0.083099365234375
1782969662405614300,4.2456142578125,-0.993865966796875,-0.1150054931640625,-0.08587646484375
1782969662415540500,4.25554052734375,-0.998382568359375,-0.1151123046875,-0.08221435546875
1782969662425467400,4.26546728515625,-1.00408935546875,-0.112762451171875,-0.0805816650390625
1782969662435393500,4.2753935546875,-1.00238037109375,-0.112060546875,-0.08172607421875
1782969662445319400,4.2853193359375,-0.990447998046875,-0.1147003173828125,-0.0809478759765625
1782969662455246300,4.295246337890625,-0.9797821044921875,-0.1142730712890625,-0.0796356201171875
1782969662465172500,4.30517236328125,-0.973876953125,-0.112518310546875,-0.082366943359375
1782969662475098600,4.3150986328125,-0.9742431640625,-0.1121063232421875,-0.08245849609375
1782969662485025300,4.325025390625,-0.9759674072265625,-0.111785888671875,-0.08251953125
1782969662494951400,4.334951416015625,-0.975921630859375,-0.117095947265625,-0.0803375244140625
1782969662504877600,4.344877685546875,-0.9751129150390625,-0.1201324462890625,-0.0842437744140625
1782969662514803500,4.354803466796875,-0.9813385009765625,-0.121917724609375,-0.0941009521484375
1782969662524730400,4.36473046875,-0.9954986572265625,-0.121734619140625,-0.084442138671875
1782969662534656500,4.374656494140625,-1,-0.116455078125,-0.076995849609375
1782969662544582700,4.384582763671875,-1.001312255859375,-0.1117706298828125,-0.080047607421875
1782969662554509300,4.39450927734375,-1.0013580322265625,-0.1114959716796875,-0.079986572265625
1782969662564435500,4.404435546875,-1.000885009765625,-0.1109161376953125,-0.0712127685546875
1782969662574361600,4.414361572265625,-0.992340087890625,-0.1108856201171875,-0.07440185546875
1782969662584288500,4.42428857421875,-0.98486328125,-0.110992431640625,-0.0796661376953125
1782969662594214400,4.43421435546875,-0.98626708984375,-0.1118316650390625,-0.0771636962890625
1782969662604140500,4.444140625,-0.9854736328125,-0.111602783203125,-0.0819854736328125
1782969662614067500,4.4540673828125,-0.990386962890625,-0.1119232177734375,-0.0853729248046875
1782969662623993300,4.463993408203125,-0.991485595703125,-0.113311767578125,-0.085693359375
1782969662633919500,4.47391943359375,-0.98199462890625,-0.115692138671875,-0.0847320556640625
1782969662643846400,4.483846435546875,-0.969940185546875,-0.119232177734375,-0.080718994140625
1782969662653772500,4.4937724609375,-0.96551513671875,-0.1194915771484375,-0.0771942138671875
1782969662663698400,4.503698486328125,-0.96826171875,-0.115692138671875,-0.072296142578125
1782969662673625300,4.513625244140625,-0.9768524169921875,-0.11419677734375,-0.0723419189453125
1782969662683551500,4.523551513671875,-0.9862518310546875,-0.115020751953125,-0.0715789794921875
1782969662693477400,4.533477294921875,-0.9937591552734375,-0.1136932373046875,-0.0744781494140625
1782969662703404500,4.543404541015625,-1.0016937255859375,-0.1135711669921875,-0.07513427734375
1782969662713330400,4.553330322265625,-1.010589599609375,-0.115264892578125,-0.08209228515625
1782969662723256600,4.563256591796875,-1.008087158203125,-0.121002197265625,-0.0866546630859375
1782969662733182500,4.573182373046875,-0.9965362548828125,-0.1201629638671875,-0.085968017578125
1782969662743109400,4.583109375,-0.984527587890625,-0.116546630859375,-0.0875701904296875
1782969662753035500,4.593035400390625,-0.9778900146484375,-0.1159820556640625,-0.0838775634765625
1782969662762961400,4.60296142578125,-0.9669342041015625,-0.114898681640625,-0.08392333984375
1782969662772888300,4.612888427734375,-0.9675750732421875,-0.111724853515625,-0.0830841064453125
1782969662782814500,4.622814453125,-0.9766693115234375,-0.1095428466796875,-0.0816497802734375
1782969662792740600,4.63274072265625,-0.984832763671875,-0.11102294921875,-0.0813140869140625
1782969662802667300,4.642667236328125,-0.9907684326171875,-0.114959716796875,-0.085906982421875
1782969662812593400,4.652593505859375,-0.9981842041015625,-0.117156982421875,-0.0910797119140625
1782969662822519600,4.66251953125,-1.0001983642578125,-0.1163787841796875,-0.08636474609375
1782969662832446500,4.672446533203125,-0.9930419921875,-0.1170654296875,-0.08349609375
1782969662842372400,4.682372314453125,-0.9890594482421875,-0.1145172119140625,-0.0824127197265625
1782969662852298500,4.692298583984375,-0.987060546875,-0.1141204833984375,-0.0833587646484375
1782969662862225400,4.702225341796875,-0.9922332763671875,-0.113128662109375,-0.0847930908203125
1782969662872151300,4.7121513671875,-0.994964599609375,-0.1126556396484375,-0.08795166015625
1782969662882077400,4.722077392578125,-0.99298095703125,-0.11712646484375,-0.0876007080078125
1782969662892004600,4.732004638671875,-0.98724365234375,-0.119537353515625,-0.088470458984375
1782969662901930500,4.741930419921875,-0.98455810546875,-0.121612548828125,-0.091217041015625
1782969662911856400,4.7518564453125,-0.982940673828125,-0.11859130859375,-0.091949462890625
1782969662921783600,4.761783447265625,-0.9815673828125,-0.11383056640625,-0.0885009765625
1782969662931709400,4.77170947265625,-0.969268798828125,-0.1081390380859375,-0.1076812744140625
1782969662941635600,4.781635498046875,-0.9810638427734375,-0.116455078125,-0.0772705078125
1782969662951562500,4.7915625,-0.9914703369140625,-0.1186981201171875,-0.060791015625
1782969662961488400,4.80148828125,-0.984100341796875,-0.1050567626953125,-0.08251953125
1782969662971414500,4.81141455078125,-0.9907073974609375,-0.11114501953125,-0.0765380859375
1782969662981340400,4.82134033203125,-0.9869384765625,-0.1177215576171875,-0.0831451416015625
1782969662991267300,4.831267333984375,-0.9867095947265625,-0.1177215576171875,-0.080169677734375
1782969663001193500,4.841193359375,-0.9899139404296875,-0.1195831298828125,-0.0746612548828125
1782969663011119600,4.85111962890625,-0.99273681640625,-0.11712646484375,-0.078857421875
1782969663021046500,4.861046630859375,-1.0023193359375,-0.1154632568359375,-0.0811309814453125
1782969663030972400,4.870972412109375,-0.999176025390625,-0.1153106689453125,-0.0771942138671875
1782969663040898600,4.880898681640625,-0.991119384765625,-0.1146240234375,-0.077056884765625
1782969663050825500,4.890825439453125,-0.9842529296875,-0.1118011474609375,-0.0792083740234375
1782969663060751400,4.90075146484375,-0.9815521240234375,-0.112518310546875,-0.07989501953125
1782969663070678000,4.910677978515625,-0.979278564453125,-0.1128082275390625,-0.0804443359375
1782969663080605000,4.92060498046875,-0.97802734375,-0.1158905029296875,-0.08294677734375
1782969663090531000,4.930531005859375,-0.9914703369140625,-0.1127471923828125,-0.0876617431640625
1782969663100457000,4.94045703125,-1.0062713623046875,-0.1132965087890625,-0.093048095703125
1782969663110383900,4.9503837890625,-0.99749755859375,-0.1166229248046875,-0.08917236328125
1782969663120310000,4.96031005859375,-0.9811248779296875,-0.116546630859375,-0.08551025390625
1782969663130236000,4.97023583984375,-0.9773406982421875,-0.1114044189453125,-0.0795440673828125
1782969663140163000,4.9801630859375,-0.987152099609375,-0.1063690185546875,-0.0774993896484375
1782969663150089000,4.9900888671875,-0.985137939453125,-0.1086273193359375,-0.0755615234375
1782969663160015000,5.00001513671875,-0.9752349853515625,-0.113800048828125,-0.0777130126953125
1782969663169942000,5.00994189453125,-0.9703826904296875,-0.1156005859375,-0.08172607421875
1782969663179868000,5.019867919921875,-0.9816741943359375,-0.1128082275390625,-0.0829315185546875
1782969663189794000,5.0297939453125,-1.000030517578125,-0.10748291015625,-0.0826416015625
1782969663199721200,5.03972119140625,-1.002105712890625,-0.1102294921875,-0.0841522216796875
1782969663209646800,5.049646728515625,-0.989044189453125,-0.117919921875,-0.0862884521484375
1782969663219573000,5.059572998046875,-0.9801788330078125,-0.120697021484375,-0.090087890625
1782969663229499100,5.0694990234375,-0.9758758544921875,-0.1177825927734375,-0.093353271484375
1782969663239425800,5.07942578125,-0.9742431640625,-0.1143951416015625,-0.092315673828125
1782969663249352000,5.08935205078125,-0.9789276123046875,-0.1089935302734375,-0.089141845703125
1782969663259278000,5.099278076171875,-0.9867706298828125,-0.1063232421875,-0.084686279296875
1782969663269205000,5.109205078125,-0.9942474365234375,-0.1061248779296875,-0.083099365234375
1782969663279131000,5.119130859375,-0.996185302734375,-0.111724853515625,-0.0819244384765625
1782969663289057000,5.12905712890625,-0.992431640625,-0.1136322021484375,-0.0843048095703125
1782969663298984000,5.13898388671875,-0.986480712890625,-0.11334228515625,-0.086029052734375
1782969663308909800,5.148909912109375,-0.9918975830078125,-0.1136932373046875,-0.0825653076171875
1782969663318836000,5.1588359375,-0.9929351806640625,-0.113006591796875,-0.08050537109375
1782969663328763100,5.16876318359375,-0.989532470703125,-0.111419677734375,-0.07763671875
1782969663338689000,5.17868896484375,-0.9775390625,-0.1136627197265625,-0.074951171875
1782969663348615000,5.188614990234375,-0.974822998046875,-0.1161346435546875,-0.0775909423828125
1782969663358542000,5.1985419921875,-0.97882080078125,-0.1145477294921875,-0.08099365234375
1782969663368468000,5.208468017578125,-0.98126220703125,-0.115570068359375,-0.0852203369140625
1782969663378393900,5.218393798828125,-0.983123779296875,-0.1141357421875,-0.0851593017578125
1782969663388321000,5.228321044921875,-0.985015869140625,-0.114105224609375,-0.0825958251953125
1782969663398247000,5.238246826171875,-0.99127197265625,-0.1120452880859375,-0.0838165283203125
1782969663408173000,5.248173095703125,-0.9945526123046875,-0.1104736328125,-0.0830535888671875
1782969663418100000,5.258099853515625,-0.99652099609375,-0.1109161376953125,-0.080078125
1782969663428025900,5.26802587890625,-0.99700927734375,-0.1106414794921875,-0.0797882080078125
1782969663437952000,5.277951904296875,-0.9976654052734375,-0.1112213134765625,-0.0812530517578125
1782969663447878000,5.2878779296875,-0.9962615966796875,-0.114288330078125,-0.084503173828125
1782969663457804800,5.2978046875,-0.98760986328125,-0.1131134033203125,-0.0858154296875
1782969663467731000,5.30773095703125,-0.9788818359375,-0.1133880615234375,-0.084808349609375
1782969663477657000,5.317656982421875,-0.9760894775390625,-0.1135711669921875,-0.081512451171875
1782969663487584000,5.327583984375,-0.9763946533203125,-0.1102294921875,-0.077484130859375
1782969663497510000,5.337510009765625,-0.9756927490234375,-0.1095733642578125,-0.0744781494140625
1782969663507436000,5.34743603515625,-0.977691650390625,-0.108856201171875,-0.074920654296875
1782969663517363000,5.357363037109375,-0.9811248779296875,-0.1122589111328125,-0.0757293701171875
1782969663527288800,5.367288818359375,-0.9841766357421875,-0.1124420166015625,-0.0795745849609375
1782969663537215000,5.377215087890625,-0.9906005859375,-0.1142578125,-0.0830230712890625
1782969663547142100,5.38714208984375,-0.9979400634765625,-0.1136627197265625,-0.088226318359375
1782969663557068000,5.397068115234375,-1.0005645751953125,-0.1157379150390625,-0.09161376953125
1782969663566994000,5.406993896484375,-0.9952392578125,-0.115570068359375,-0.09149169921875
1782969663576921000,5.416921142578125,-0.988494873046875,-0.1149444580078125,-0.08917236328125
1782969663586847000,5.426846923828125,-0.9890594482421875,-0.112701416015625,-0.088623046875
1782969663596772900,5.43677294921875,-0.9892425537109375,-0.1106109619140625,-0.08624267578125
1782969663606700000,5.446699951171875,-0.986114501953125,-0.1096649169921875,-0.083709716796875
1782969663616626000,5.4566259765625,-0.9854278564453125,-0.10675048828125,-0.08062744140625
1782969663626552000,5.466552001953125,-0.9894866943359375,-0.1027069091796875,-0.0759429931640625
1782969663636479000,5.47647900390625,-0.9901885986328125,-0.1041259765625,-0.0782928466796875
1782969663646404900,5.48640478515625,-0.987823486328125,-0.110137939453125,-0.0823516845703125
1782969663656331000,5.4963310546875,-0.9862060546875,-0.1110687255859375,-0.08697509765625
1782969663666257000,5.5062568359375,-0.9853973388671875,-0.11065673828125,-0.085205078125
1782969663676184000,5.51618408203125,-0.9893798828125,-0.1101226806640625,-0.0866546630859375
1782969663686110000,5.52610986328125,-0.989349365234375,-0.1105194091796875,-0.088134765625
1782969663696036000,5.5360361328125,-0.9899444580078125,-0.1070098876953125,-0.0886077880859375
1782969663705963000,5.545962890625,-0.9897613525390625,-0.1041412353515625,-0.0855865478515625
1782969663715889000,5.555888916015625,-0.9837188720703125,-0.1049957275390625,-0.084136962890625
1782969663725815000,5.56581494140625,-0.9798736572265625,-0.1052093505859375,-0.0858917236328125
1782969663735742200,5.5757421875,-0.9791717529296875,-0.106292724609375,-0.087646484375
1782969663745667800,5.585667724609375,-0.9832763671875,-0.10614013671875,-0.0885009765625
1782969663755594000,5.595593994140625,-0.9844207763671875,-0.10638427734375,-0.087371826171875
1782969663765521200,5.605521240234375,-0.9883270263671875,-0.105987548828125,-0.085662841796875
1782969663775446800,5.61544677734375,-0.99066162109375,-0.1052398681640625,-0.0840301513671875
1782969663785373000,5.625373046875,-0.9898834228515625,-0.1080474853515625,-0.08245849609375
1782969663795300000,5.635300048828125,-0.987335205078125,-0.107269287109375,-0.08441162109375
1782969663805226000,5.64522607421875,-0.9852294921875,-0.1055908203125,-0.0850372314453125
1782969663815151900,5.65515185546875,-0.9882049560546875,-0.10498046875,-0.086578369140625
1782969663825079000,5.6650791015625,-0.9917449951171875,-0.1034698486328125,-0.0861053466796875
1782969663835005000,5.6750048828125,-0.994659423828125,-0.102874755859375,-0.087432861328125
1782969663844930800,5.684930908203125,-0.994537353515625,-0.1032867431640625,-0.0883026123046875
1782969663854857000,5.69485693359375,-0.993682861328125,-0.1058807373046875,-0.0916290283203125
1782969663864784100,5.7047841796875,-0.98736572265625,-0.1084136962890625,-0.0918731689453125
1782969663874710000,5.7147099609375,-0.98089599609375,-0.107421875,-0.0890045166015625
1782969663884636000,5.724635986328125,-0.979766845703125,-0.10577392578125,-0.0887603759765625
1782969663894563000,5.73456298828125,-0.9832611083984375,-0.1016693115234375,-0.0890045166015625
1782969663904489000,5.744489013671875,-0.985748291015625,-0.1002349853515625,-0.0903778076171875
1782969663914414800,5.754414794921875,-0.9855804443359375,-0.1006927490234375,-0.0899658203125
1782969663924342000,5.764342041015625,-0.991363525390625,-0.0973968505859375,-0.088134765625
1782969663934268000,5.774267822265625,-0.9930267333984375,-0.098419189453125,-0.0877532958984375
1782969663944194000,5.784194091796875,-0.9909820556640625,-0.0998992919921875,-0.0854339599609375
1782969663954121200,5.794121337890625,-0.99078369140625,-0.0999908447265625,-0.084869384765625
1782969663964046800,5.804046875,-0.99365234375,-0.100372314453125,-0.0880889892578125
1782969663973973000,5.813972900390625,-0.992523193359375,-0.1002197265625,-0.087646484375
1782969663983900200,5.823900146484375,-0.989044189453125,-0.0997772216796875,-0.089324951171875
1782969663993825800,5.83382568359375,-0.987030029296875,-0.099884033203125,-0.0930938720703125
1782969664003752000,5.843751953125,-0.9853515625,-0.100006103515625,-0.0941009521484375
1782969664013679000,5.85367919921875,-0.985076904296875,-0.0997161865234375,-0.0970001220703125
1782969664023605000,5.86360498046875,-0.9869232177734375,-0.098846435546875,-0.097991943359375
1782969664033531000,5.87353076171875,-0.9835052490234375,-0.100372314453125,-0.0887603759765625
1782969664043458000,5.8834580078125,-0.9880828857421875,-0.099578857421875,-0.087921142578125
1782969664053384200,5.89338427734375,-0.9901275634765625,-0.1004638671875,-0.09130859375
1782969664063309800,5.903309814453125,-0.9961700439453125,-0.102813720703125,-0.0943603515625
1782969664073236500,5.913236572265625,-0.9961395263671875,-0.1023406982421875,-0.09765625
1782969664083163100,5.9231630859375,-0.988372802734375,-0.1044158935546875,-0.0968780517578125
1782969664093089300,5.93308935546875,-0.9832611083984375,-0.10296630859375,-0.0928802490234375
1782969664103015400,5.943015380859375,-0.982696533203125,-0.0992889404296875,-0.0868377685546875
1782969664112942300,5.9529423828125,-0.981201171875,-0.0995330810546875,-0.080810546875
1782969664122868200,5.9628681640625,-0.9807281494140625,-0.1000213623046875,-0.081390380859375
1782969664132794400,5.97279443359375,-0.97900390625,-0.1019134521484375,-0.081939697265625
1782969664142721500,5.982721435546875,-0.9830169677734375,-0.10260009765625,-0.08349609375
1782969664152647200,5.992647216796875,-0.9921112060546875,-0.101226806640625,-0.084075927734375
1782969664162573300,6.0025732421875,-0.9967193603515625,-0.1002960205078125,-0.0868682861328125
1782969664172500500,6.01250048828125,-1.000701904296875,-0.098907470703125,-0.0901947021484375
1782969664182426400,6.02242626953125,-1.0017852783203125,-0.100189208984375,-0.0882415771484375
1782969664192352300,6.032352294921875,-0.9981689453125,-0.1031341552734375,-0.0906524658203125
1782969664202279400,6.042279541015625,-0.9927520751953125,-0.103302001953125,-0.0921478271484375
1782969664212205300,6.052205322265625,-0.9925689697265625,-0.09979248046875,-0.0928497314453125
1782969664222131200,6.062131103515625,-0.9954376220703125,-0.0959625244140625,-0.089080810546875
1782969664232058400,6.072058349609375,-0.9928131103515625,-0.0961456298828125,-0.0882415771484375
1782969664241984300,6.081984375,-0.9897308349609375,-0.0977935791015625,-0.0904541015625
1782969664251910400,6.091910400390625,-0.9855499267578125,-0.097503662109375,-0.0925140380859375
1782969664261836300,6.101836181640625,-0.979949951171875,-0.09912109375,-0.090118408203125
1782969664271763200,6.11176318359375,-0.980133056640625,-0.1013031005859375,-0.0894927978515625
1782969664281689300,6.121689453125,-0.984405517578125,-0.101318359375,-0.090789794921875
1782969664291615500,6.131615478515625,-0.9869842529296875,-0.1025848388671875,-0.09271240234375
1782969664301542400,6.14154248046875,-0.9889984130859375,-0.1023101806640625,-0.0912322998046875
1782969664311468300,6.15146826171875,-0.9920501708984375,-0.0980987548828125,-0.09228515625
1782969664321394400,6.16139453125,-0.993255615234375,-0.0996551513671875,-0.093231201171875
1782969664331321600,6.171321533203125,-0.9921417236328125,-0.0987701416015625,-0.0900421142578125
1782969664341247200,6.181247314453125,-0.9897003173828125,-0.0963134765625,-0.0885772705078125
1782969664351173400,6.19117333984375,-0.9839630126953125,-0.0968475341796875,-0.0837860107421875
1782969664361100500,6.2011005859375,-0.9847869873046875,-0.0966033935546875,-0.0815582275390625
1782969664371026200,6.211026123046875,-0.9917449951171875,-0.09765625,-0.0838165283203125
1782969664380952300,6.220952392578125,-0.9941864013671875,-0.0988616943359375,-0.0905303955078125
1782969664390879500,6.23087939453125,-0.9952239990234375,-0.10003662109375,-0.09112548828125
1782969664400805400,6.240805419921875,-0.99566650390625,-0.0989837646484375,-0.087158203125
1782969664410731300,6.250731201171875,-0.991912841796875,-0.096405029296875,-0.088775634765625
1782969664420658400,6.260658447265625,-0.988433837890625,-0.0958709716796875,-0.0909576416015625
1782969664430584300,6.270584228515625,-0.987091064453125,-0.0974273681640625,-0.0953216552734375
1782969664440510200,6.28051025390625,-0.987152099609375,-0.09783935546875,-0.0957183837890625
1782969664450437400,6.290437255859375,-0.983428955078125,-0.097503662109375,-0.0921173095703125
1782969664460363300,6.30036328125,-0.9870147705078125,-0.096710205078125,-0.0894317626953125
1782969664470289400,6.310289306640625,-0.9932403564453125,-0.0947418212890625,-0.089874267578125
1782969664480215300,6.32021533203125,-0.9925689697265625,-0.0967864990234375,-0.087677001953125
1782969664490142500,6.330142578125,-0.9869384765625,-0.097320556640625,-0.085968017578125
1782969664500068400,6.340068359375,-0.9825286865234375,-0.096649169921875,-0.0845794677734375
1782969664509994200,6.349994140625,-0.984375,-0.0974273681640625,-0.0854339599609375
1782969664519921400,6.35992138671875,-0.990142822265625,-0.095611572265625,-0.086639404296875
1782969664529847300,6.369847412109375,-0.993499755859375,-0.0972137451171875,-0.085662841796875
1782969664539773400,6.3797734375,-0.9908905029296875,-0.09967041015625,-0.086700439453125
1782969664549700400,6.389700439453125,-0.986846923828125,-0.0990142822265625,-0.0855560302734375
1782969664559626200,6.399626220703125,-0.986572265625,-0.1002349853515625,-0.085479736328125
1782969664569552400,6.409552490234375,-0.9892730712890625,-0.101287841796875,-0.087188720703125
1782969664579479600,6.4194794921875,-0.988739013671875,-0.10113525390625,-0.0935821533203125
1782969664589405200,6.4294052734375,-0.9930877685546875,-0.0994720458984375,-0.0950927734375
1782969664599331300,6.439331298828125,-0.9916839599609375,-0.0987091064453125,-0.091705322265625
1782969664609258500,6.449258544921875,-0.9903106689453125,-0.0947418212890625,-0.0868988037109375
1782969664619184000,6.45918408203125,-0.9892425537109375,-0.094879150390625,-0.0850982666015625
1782969664629110300,6.4691103515625,-0.988372802734375,-0.0951080322265625,-0.08575439453125
1782969664639037400,6.479037353515625,-0.9834747314453125,-0.0981903076171875,-0.089111328125
1782969664648963300,6.48896337890625,-0.9842529296875,-0.1000518798828125,-0.092315673828125
1782969664658889200,6.49888916015625,-0.9868316650390625,-0.1019134521484375,-0.095489501953125
1782969664668815400,6.5088154296875,-0.984100341796875,-0.103118896484375,-0.090576171875
1782969664678742500,6.518742431640625,-0.985443115234375,-0.102081298828125,-0.088775634765625
1782969664688668200,6.528668212890625,-0.9886016845703125,-0.09808349609375,-0.086761474609375
1782969664698594300,6.53859423828125,-0.98931884765625,-0.0973968505859375,-0.0844268798828125
1782969664708521500,6.548521484375,-0.985687255859375,-0.098907470703125,-0.0819549560546875
1782969664718447400,6.558447265625,-0.9809722900390625,-0.1004180908203125,-0.08026123046875
1782969664728373200,6.568373291015625,-0.9823455810546875,-0.10076904296875,-0.0843353271484375
1782969664738300400,6.578300537109375,-0.9881134033203125,-0.102294921875,-0.0889739990234375
1782969664748226300,6.588226318359375,-0.992401123046875,-0.104278564453125,-0.09661865234375
1782969664758152400,6.59815234375,-0.9917144775390625,-0.1062774658203125,-0.097625732421875
1782969664768079400,6.608079345703125,-0.9883575439453125,-0.1044769287109375,-0.096282958984375
1782969664778005200,6.618005126953125,-0.98382568359375,-0.1010894775390625,-0.0941162109375
1782969664787931400,6.627931396484375,-0.9851837158203125,-0.0989532470703125,-0.090484619140625
1782969664797858600,6.637858642578125,-0.9894561767578125,-0.0970458984375,-0.087615966796875
1782969664807784200,6.6477841796875,-0.99591064453125,-0.0978240966796875,-0.08648681640625
1782969664817710300,6.65771044921875,-0.998321533203125,-0.0963592529296875,-0.088592529296875
1782969664827637500,6.667637451171875,-0.9996795654296875,-0.0947723388671875,-0.085784912109375
1782969664837563400,6.6775634765625,-0.9964141845703125,-0.0960235595703125,-0.087615966796875
1782969664847489300,6.6874892578125,-0.9895172119140625,-0.099609375,-0.09393310546875
1782969664857415400,6.69741552734375,-0.983642578125,-0.1035308837890625,-0.0930633544921875
1782969664867342600,6.707342529296875,-0.9770355224609375,-0.1054229736328125,-0.091156005859375
1782969664877268200,6.717268310546875,-0.9763641357421875,-0.104248046875,-0.089752197265625
1782969664887194400,6.7271943359375,-0.9800872802734375,-0.1032867431640625,-0.0863189697265625
1782969664897121500,6.73712158203125,-0.985076904296875,-0.1024322509765625,-0.0829315185546875
1782969664907047200,6.747047119140625,-0.9882049560546875,-0.10467529296875,-0.081756591796875
1782969664916973300,6.756973388671875,-0.9945220947265625,-0.105255126953125,-0.082000732421875
1782969664926900500,6.766900390625,-0.996826171875,-0.1020050048828125,-0.08056640625
1782969664936826400,6.776826416015625,-0.9978790283203125,-0.102264404296875,-0.0808563232421875
1782969664946752300,6.786752197265625,-0.9975433349609375,-0.1038970947265625,-0.0840606689453125
1782969664956679400,6.796679443359375,-0.997528076171875,-0.1009063720703125,-0.0825653076171875
1782969664966605300,6.806605224609375,-0.9979400634765625,-0.0998992919921875,-0.08184814453125
1782969664976531200,6.81653125,-0.9973297119140625,-0.1030426025390625,-0.0886383056640625
1782969664986458400,6.826458251953125,-0.99542236328125,-0.1050872802734375,-0.097320556640625
1782969664996384300,6.83638427734375,-0.9837646484375,-0.103759765625,-0.0975494384765625
1782969665006310400,6.846310302734375,-0.9705657958984375,-0.10430908203125,-0.0962371826171875
1782969665016237300,6.8562373046875,-0.9676513671875,-0.1013031005859375,-0.092254638671875
1782969665026163500,6.86616357421875,-0.9734649658203125,-0.09930419921875,-0.0890045166015625
1782969665036089300,6.87608935546875,-0.979248046875,-0.1010894775390625,-0.087493896484375
1782969665046015200,6.88601513671875,-0.985076904296875,-0.1008758544921875,-0.08441162109375
1782969665055942400,6.8959423828125,-0.9923248291015625,-0.1021575927734375,-0.086700439453125
1782969665065868300,6.905868408203125,-0.99542236328125,-0.1042633056640625,-0.088714599609375
1782969665075793700,6.915793701171875,-0.999542236328125,-0.102935791015625,-0.0855255126953125
1782969665085720800,6.925720947265625,-1.00115966796875,-0.102691650390625,-0.08636474609375
1782969665095646700,6.935646728515625,-0.9947967529296875,-0.1030426025390625,-0.0865631103515625
1782969665105572600,6.945572509765625,-0.991546630859375,-0.103057861328125,-0.083526611328125
1782969665115499800,6.955499755859375,-0.9888458251953125,-0.1019439697265625,-0.0834503173828125
1782969665125425700,6.96542578125,-0.982574462890625,-0.1019134521484375,-0.085205078125
1782969665135351600,6.9753515625,-0.9805908203125,-0.1028900146484375,-0.0864715576171875
1782969665145278700,6.98527880859375,-0.982025146484375,-0.1051177978515625,-0.0915679931640625
1782969665155204900,6.995204833984375,-0.9832611083984375,-0.1065673828125,-0.0954132080078125
1782969665165130500,7.005130615234375,-0.981658935546875,-0.1061248779296875,-0.0947418212890625
1782969665175057700,7.0150576171875,-0.9847259521484375,-0.10455322265625,-0.0865478515625
1782969665184983800,7.02498388671875,-0.9899139404296875,-0.101898193359375,-0.0864715576171875
1782969665194909700,7.03490966796875,-0.9990997314453125,-0.10272216796875,-0.0848236083984375
1782969665204836600,7.044836669921875,-1.002227783203125,-0.102996826171875,-0.08282470703125
1782969665214762800,7.0547626953125,-0.998870849609375,-0.1039276123046875,-0.0876007080078125
1782969665224689000,7.06468896484375,-0.998077392578125,-0.1027984619140625,-0.0879058837890625
1782969665234614500,7.074614501953125,-0.998443603515625,-0.1026458740234375,-0.0869293212890625
1782969665244541700,7.084541748046875,-0.9940185546875,-0.107421875,-0.091796875
1782969665254467800,7.0944677734375,-0.993316650390625,-0.106475830078125,-0.0868072509765625
1782969665264393500,7.1043935546875,-0.9864349365234375,-0.1048736572265625,-0.0859375
1782969665274320600,7.114320556640625,-0.9801177978515625,-0.105987548828125,-0.0887603759765625
1782969665284246800,7.124246826171875,-0.9739532470703125,-0.1080780029296875,-0.0929718017578125
1782969665294172700,7.134172607421875,-0.975006103515625,-0.1082763671875,-0.0921630859375
1782969665304099600,7.144099609375,-0.9774322509765625,-0.10906982421875,-0.095733642578125
1782969665314025700,7.154025634765625,-0.976898193359375,-0.109527587890625,-0.0975494384765625
1782969665323951600,7.16395166015625,-0.9836273193359375,-0.1074066162109375,-0.0920562744140625
1782969665333878800,7.173878662109375,-0.989715576171875,-0.1094512939453125,-0.0964202880859375
1782969665343804700,7.1838046875,-0.9949188232421875,-0.10968017578125,-0.1012725830078125
1782969665353730600,7.19373046875,-1.001251220703125,-0.1135101318359375,-0.0979766845703125
1782969665363657700,7.20365771484375,-1.004547119140625,-0.1153411865234375,-0.087005615234375
1782969665373583600,7.21358349609375,-1.0013885498046875,-0.1132965087890625,-0.0986480712890625
1782969665383509800,7.223509765625,-0.991363525390625,-0.1076507568359375,-0.094268798828125
1782969665393436700,7.233436767578125,-0.9878082275390625,-0.1035308837890625,-0.0809326171875
1782969665403362800,7.24336279296875,-0.9871368408203125,-0.1035919189453125,-0.0734710693359375
1782969665413288700,7.253288818359375,-0.9931488037109375,-0.1033782958984375,-0.071258544921875
1782969665423215600,7.263215576171875,-0.9976043701171875,-0.105316162109375,-0.0714569091796875
1782969665433141800,7.273141845703125,-0.9984130859375,-0.1070556640625,-0.074920654296875
1782969665443067600,7.283067626953125,-1.0046234130859375,-0.107025146484375,-0.076507568359375
1782969665452993500,7.29299365234375,-0.99749755859375,-0.1121673583984375,-0.0788116455078125
1782969665462920700,7.302920654296875,-0.9883270263671875,-0.114715576171875,-0.0772857666015625
1782969665472846800,7.312846923828125,-0.9767913818359375,-0.11676025390625,-0.07769775390625
1782969665482772500,7.3227724609375,-0.9605865478515625,-0.1257781982421875,-0.0797882080078125
1782969665492699600,7.33269970703125,-0.9601287841796875,-0.12811279296875,-0.0739898681640625
1782969665502625800,7.342625732421875,-0.9698486328125,-0.1162261962890625,-0.0758209228515625
1782969665512551400,7.352551513671875,-0.99139404296875,-0.111846923828125,-0.080047607421875
1782969665522478600,7.362478515625,-1.011871337890625,-0.112548828125,-0.0845794677734375
1782969665532404700,7.37240478515625,-1.01678466796875,-0.108612060546875,-0.09130859375
1782969665542330600,7.38233056640625,-1.0148468017578125,-0.119476318359375,-0.0921630859375
1782969665552257800,7.3922578125,-1.0406646728515625,-0.14111328125,-0.077484130859375
1782969665562183700,7.40218359375,-0.99859619140625,-0.0976104736328125,-0.14044189453125
1782969665572109800,7.41210986328125,-0.9978485107421875,-0.1121368408203125,-0.1379852294921875
1782969665582036700,7.42203662109375,-0.9867401123046875,-0.1376495361328125,-0.125823974609375
1782969665591962600,7.431962646484375,-0.9839935302734375,-0.129608154296875,-0.13623046875
1782969665601888800,7.441888671875,-0.9894866943359375,-0.1210479736328125,-0.1538543701171875
1782969665611814700,7.451814697265625,-0.9970703125,-0.130096435546875,-0.13067626953125
1782969665621741800,7.461741943359375,-0.9855804443359375,-0.1452178955078125,-0.100067138671875
1782969665631667700,7.471667724609375,-0.9459686279296875,-0.1392669677734375,-0.1095123291015625
1782969665641593600,7.481593505859375,-0.934173583984375,-0.1360015869140625,-0.098663330078125
1782969665651520800,7.491520751953125,-0.9322509765625,-0.132965087890625,-0.1055145263671875
1782969665661446700,7.50144677734375,-0.9422760009765625,-0.1301116943359375,-0.0886383056640625
1782969665671372500,7.51137255859375,-0.943878173828125,-0.133819580078125,-0.0573577880859375
1782969665681299700,7.5212998046875,-0.9465484619140625,-0.130950927734375,-0.0771484375
1782969665691225900,7.531225830078125,-0.989593505859375,-0.1254425048828125,-0.0823822021484375
1782969665701151500,7.5411513671875,-1.0048065185546875,-0.125,-0.1023712158203125
1782969665711078700,7.55107861328125,-1.0124664306640625,-0.125396728515625,-0.106048583984375
1782969665721004800,7.5610048828125,-1.0168304443359375,-0.1399078369140625,-0.0632781982421875
1782969665730930700,7.5709306640625,-1.00445556640625,-0.1446990966796875,-0.0930328369140625
1782969665740857600,7.580857666015625,-1.0058746337890625,-0.1361846923828125,-0.105560302734375
1782969665750783700,7.59078369140625,-0.987518310546875,-0.1479339599609375,-0.088043212890625
1782969665760710000,7.6007099609375,-0.9813690185546875,-0.1518402099609375,-0.0894622802734375
1782969665770636500,7.610636474609375,-0.9825897216796875,-0.1373291015625,-0.093475341796875
1782969665780562700,7.620562744140625,-0.9823760986328125,-0.13134765625,-0.0931243896484375
1782969665790488800,7.63048876953125,-0.984466552734375,-0.1285400390625,-0.089447021484375
1782969665800414500,7.64041455078125,-0.9926605224609375,-0.1290740966796875,-0.0949249267578125
1782969665810341600,7.650341552734375,-0.9876708984375,-0.1288604736328125,-0.10443115234375
1782969665820267800,7.660267822265625,-0.9788665771484375,-0.14093017578125,-0.1110382080078125
1782969665830193700,7.670193603515625,-0.97857666015625,-0.146881103515625,-0.1196136474609375
1782969665840120600,7.68012060546875,-0.984954833984375,-0.1441497802734375,-0.1374359130859375
1782969665850046700,7.690046630859375,-0.9914398193359375,-0.142913818359375,-0.1421356201171875
1782969665859972600,7.69997265625,-0.988555908203125,-0.1507568359375,-0.13629150390625
1782969665869899800,7.709899658203125,-0.9789276123046875,-0.1532745361328125,-0.1187591552734375
1782969665879825700,7.71982568359375,-0.963470458984375,-0.14678955078125,-0.0967254638671875
1782969665889751600,7.72975146484375,-0.9552459716796875,-0.148101806640625,-0.0919952392578125
1782969665899678700,7.7396787109375,-0.9584808349609375,-0.15277099609375,-0.0991973876953125
1782969665909604600,7.7496044921875,-0.9627838134765625,-0.153656005859375,-0.1074981689453125
1782969665919530800,7.75953076171875,-0.9659576416015625,-0.1520233154296875,-0.1231689453125
1782969665929457700,7.769457763671875,-0.9710845947265625,-0.1482391357421875,-0.132843017578125
1782969665939383800,7.7793837890625,-0.96923828125,-0.14569091796875,-0.1072998046875
1782969665949309700,7.789309814453125,-0.9780120849609375,-0.141998291015625,-0.10498046875
1782969665959235600,7.799235595703125,-1.0057373046875,-0.143798828125,-0.1087799072265625
1782969665969162800,7.809162841796875,-0.99188232421875,-0.17034912109375,-0.102691650390625
1782969665979088600,7.819088623046875,-0.982940673828125,-0.1645660400390625,-0.1312713623046875
1782969665989014500,7.8290146484375,-0.969482421875,-0.1515960693359375,-0.138946533203125
1782969665998941700,7.838941650390625,-0.97869873046875,-0.144927978515625,-0.1304168701171875
1782969666008867800,7.848867919921875,-0.977935791015625,-0.14630126953125,-0.114990234375
1782969666018793500,7.85879345703125,-0.9770660400390625,-0.1512603759765625,-0.102874755859375
1782969666028720600,7.868720703125,-0.954833984375,-0.156524658203125,-0.0872650146484375
1782969666038646800,7.878646728515625,-0.96319580078125,-0.1511383056640625,-0.1158599853515625
1782969666048572700,7.88857275390625,-0.9687347412109375,-0.1599884033203125,-0.0808868408203125
1782969666058499600,7.89849951171875,-0.977142333984375,-0.14862060546875,-0.1005401611328125
1782969666068425700,7.90842578125,-0.9770050048828125,-0.1508941650390625,-0.0856781005859375
1782969666078353200,7.918353271484375,-0.9909515380859375,-0.1494903564453125,-0.1042022705078125
1782969666088280300,7.9282802734375,-1.0205078125,-0.1861419677734375,-0.1078338623046875
1782969666098206200,7.938206298828125,-1.03094482421875,-0.144256591796875,-0.093658447265625
1782969666108132400,7.94813232421875,-0.964324951171875,-0.1193695068359375,-0.100341796875
1782969666118059500,7.9580595703125,-0.9369964599609375,-0.17327880859375,-0.123809814453125
1782969666127985200,7.967985107421875,-0.950164794921875,-0.1934356689453125,-0.130706787109375
1782969666137911300,7.977911376953125,-0.9737091064453125,-0.1733856201171875,-0.1261444091796875
1782969666147837400,7.98783740234375,-0.9875335693359375,-0.1595306396484375,-0.112518310546875
1782969666157764000,7.99776416015625,-0.9674835205078125,-0.1692047119140625,-0.0848541259765625
1782969666167690200,8.007690185546876,-0.9529571533203125,-0.13519287109375,-0.0937652587890625
1782969666177616400,8.017616455078125,-0.95489501953125,-0.1353912353515625,-0.0900115966796875
1782969666187543300,8.027543212890626,-0.9869384765625,-0.150177001953125,-0.0888214111328125
1782969666197469200,8.03746923828125,-1.0286865234375,-0.1516571044921875,-0.0947418212890625
1782969666207395300,8.047395263671875,-1.0376434326171875,-0.156524658203125,-0.10369873046875
1782969666217322200,8.057322265625,-1.02581787109375,-0.177337646484375,-0.1031341552734375
1782969666227248000,8.067248046875,-1.0543060302734375,-0.22430419921875,-0.0789794921875
1782969666237174300,8.07717431640625,-0.9929046630859375,-0.1573638916015625,-0.1073455810546875
1782969666247101200,8.08710107421875,-0.956939697265625,-0.112091064453125,-0.12078857421875
1782969666257027300,8.09702734375,-0.9292144775390625,-0.1391143798828125,-0.1056671142578125
1782969666266953200,8.106953125,-0.9452362060546875,-0.1688079833984375,-0.0813446044921875
1782969666276880400,8.11688037109375,-0.9792633056640625,-0.176055908203125,-0.0941925048828125
1782969666286806300,8.12680615234375,-0.984527587890625,-0.1839141845703125,-0.1191253662109375
1782969666296732200,8.136732177734375,-0.9715423583984375,-0.1893157958984375,-0.13507080078125
1782969666306658300,8.146658203125,-0.955780029296875,-0.1709136962890625,-0.1520843505859375
1782969666316585200,8.156585205078125,-0.95684814453125,-0.1641845703125,-0.14361572265625
1782969666326511400,8.166511474609376,-0.967437744140625,-0.180572509765625,-0.1030731201171875
1782969666336437200,8.176437255859375,-0.97259521484375,-0.19140625,-0.0686798095703125
1782969666346364200,8.1863642578125,-0.9772186279296875,-0.1576080322265625,-0.0953369140625
1782969666356290300,8.196290283203124,-0.987640380859375,-0.1634674072265625,-0.0749053955078125
1782969666366216200,8.20621630859375,-0.977874755859375,-0.1562042236328125,-0.10980224609375
1782969666376143000,8.21614306640625,-0.957611083984375,-0.1872406005859375,-0.0689849853515625
1782969666386069200,8.2260693359375,-0.938568115234375,-0.176025390625,-0.1217498779296875
1782969666395995400,8.235995361328126,-0.9412384033203125,-0.15020751953125,-0.1194305419921875
1782969666405922000,8.245922119140625,-0.9553985595703125,-0.161285400390625,-0.099945068359375
1782969666415848200,8.25584814453125,-0.9795989990234375,-0.182861328125,-0.1041412353515625
1782969666425774300,8.2657744140625,-0.991302490234375,-0.194000244140625,-0.1040802001953125
1782969666435701200,8.275701171875,-0.97100830078125,-0.1904449462890625,-0.0777130126953125
1782969666445627100,8.285627197265624,-0.940399169921875,-0.1832733154296875,-0.037841796875
1782969666455553300,8.29555322265625,-0.941925048828125,-0.176025390625,-0.0299224853515625
1782969666465480400,8.30548046875,-0.9468994140625,-0.16375732421875,-0.029693603515625
1782969666475406000,8.315406005859375,-0.953277587890625,-0.1619873046875,-0.0424041748046875
1782969666485332200,8.325332275390625,-0.956207275390625,-0.16900634765625,-0.05242919921875
1782969666495258400,8.33525830078125,-0.9539337158203125,-0.1690673828125,-0.05963134765625
1782969666505185300,8.345185302734375,-0.9561767578125,-0.1687164306640625,-0.062225341796875
1782969666515112400,8.355112548828124,-0.98443603515625,-0.1760101318359375,-0.0635986328125
1782969666525038300,8.365038330078125,-1.041748046875,-0.2145843505859375,-0.0018463134765625
1782969666534964200,8.374964111328126,-0.971527099609375,-0.1727142333984375,-0.14227294921875
1782969666544891400,8.384891357421875,-0.9887237548828125,-0.1121978759765625,-0.1865234375
1782969666554817300,8.3948173828125,-1.0240631103515625,-0.168304443359375,-0.0532989501953125
1782969666564743200,8.4047431640625,-0.9622650146484375,-0.2193756103515625,-0.03509521484375
1782969666574670300,8.41467041015625,-0.921295166015625,-0.16162109375,-0.1544952392578125
1782969666584596500,8.424596435546874,-0.973419189453125,-0.1292724609375,-0.135955810546875
1782969666594522000,8.434522216796875,-0.9965362548828125,-0.1338348388671875,-0.149993896484375
1782969666604449300,8.44444921875,-1.0382843017578125,-0.1508636474609375,-0.0858612060546875
1782969666614375400,8.45437548828125,-1.0105438232421875,-0.1634979248046875,-0.084808349609375
1782969666624301300,8.46430126953125,-0.9745025634765625,-0.149658203125,-0.1137542724609375
1782969666634228200,8.474228271484375,-0.9389495849609375,-0.1505584716796875,-0.0882568359375
1782969666644154400,8.484154296875,-0.89666748046875,-0.1497344970703125,-0.1044158935546875
1782969666654080500,8.49408056640625,-0.9282684326171875,-0.13311767578125,-0.1013641357421875
1782969666664007200,8.504007080078125,-0.9825439453125,-0.1256256103515625,-0.120330810546875
1782969666673933300,8.513933349609376,-1.0242156982421875,-0.132720947265625,-0.11053466796875
1782969666683859500,8.523859375,-1.0301513671875,-0.1477813720703125,-0.095458984375
1782969666693786400,8.533786376953126,-1.0218048095703125,-0.13812255859375,-0.111358642578125
1782969666703712300,8.543712158203125,-1.010986328125,-0.1307830810546875,-0.1165618896484375
1782969666713638400,8.553638427734375,-0.9986572265625,-0.131195068359375,-0.0963592529296875
1782969666723565300,8.5635654296875,-0.99444580078125,-0.129180908203125,-0.0787811279296875
1782969666733491200,8.5734912109375,-1.00726318359375,-0.12451171875,-0.0804443359375
1782969666743417300,8.583417236328126,-1.009033203125,-0.124603271484375,-0.0827484130859375
1782969666753343200,8.59334326171875,-1.003082275390625,-0.133453369140625,-0.0836639404296875
1782969666763270400,8.6032705078125,-0.9874114990234375,-0.1396484375,-0.075714111328125
1782969666773196300,8.6131962890625,-0.97515869140625,-0.117645263671875,-0.089599609375
1782969666783122200,8.6231220703125,-0.9885406494140625,-0.1290283203125,-0.0691680908203125
1782969666793049300,8.63304931640625,-1.0104522705078125,-0.11962890625,-0.076324462890625
1782969666802975200,8.642975341796875,-1.043365478515625,-0.1414031982421875,-0.05194091796875
1782969666812901400,8.6529013671875,-1.0385589599609375,-0.1370849609375,-0.059783935546875
1782969666822828300,8.662828369140625,-1.0160980224609375,-0.129913330078125,-0.077056884765625
1782969666832754400,8.67275439453125,-0.9806060791015625,-0.1335296630859375,-0.0882110595703125
1782969666842680300,8.682680419921875,-0.9510040283203125,-0.1328277587890625,-0.099365234375
1782969666852607200,8.692607177734375,-0.9453277587890625,-0.1287078857421875,-0.10064697265625
1782969666862533400,8.702533447265624,-0.9618072509765625,-0.131072998046875,-0.1032562255859375
1782969666872459300,8.712459228515625,-0.9761505126953125,-0.1322174072265625,-0.1023101806640625
1782969666882386200,8.72238623046875,-0.984710693359375,-0.1304168701171875,-0.0979156494140625
1782969666892312300,8.732312255859375,-0.989013671875,-0.1263427734375,-0.096099853515625
1782969666902238500,8.742238525390626,-0.988861083984375,-0.124542236328125,-0.10296630859375
1782969666912164000,8.7521640625,-0.9898529052734375,-0.1246795654296875,-0.1110076904296875
1782969666922091300,8.76209130859375,-0.99114990234375,-0.126495361328125,-0.1178436279296875
1782969666932017400,8.772017333984374,-0.9903717041015625,-0.1307373046875,-0.120758056640625
1782969666941943300,8.781943359375,-0.9812469482421875,-0.133453369140625,-0.1156158447265625
1782969666951870200,8.7918701171875,-0.97015380859375,-0.13555908203125,-0.0985107421875
1782969666961796400,8.80179638671875,-0.959869384765625,-0.140838623046875,-0.078887939453125
1782969666971722200,8.81172216796875,-0.9482421875,-0.139739990234375,-0.068511962890625
1782969666981649400,8.8216494140625,-0.9465789794921875,-0.1346282958984375,-0.0692291259765625
1782969666991575300,8.8315751953125,-0.9557037353515625,-0.1303863525390625,-0.0784454345703125
1782969667001501400,8.84150146484375,-0.97845458984375,-0.1175689697265625,-0.095001220703125
1782969667011428400,8.851428466796875,-1.0082855224609375,-0.1052093505859375,-0.115325927734375
1782969667021354200,8.861354248046876,-1.03533935546875,-0.1018524169921875,-0.1397705078125
1782969667031280400,8.8712802734375,-1.046112060546875,-0.10394287109375,-0.159759521484375
1782969667041207300,8.881207275390626,-1.031402587890625,-0.134918212890625,-0.14093017578125
1782969667051133400,8.891133544921875,-0.9939727783203125,-0.1636962890625,-0.11181640625
1782969667061059300,8.901059326171875,-0.9532623291015625,-0.1564788818359375,-0.1044464111328125
1782969667070985200,8.910985107421874,-0.930145263671875,-0.135467529296875,-0.0944671630859375
1782969667080911400,8.920911376953125,-0.9399871826171875,-0.12225341796875,-0.0840301513671875
1782969667090837200,8.930837158203126,-0.9696502685546875,-0.1151275634765625,-0.0789337158203125
1782969667100763400,8.940763427734375,-0.99249267578125,-0.109039306640625,-0.07928466796875
1782969667110690300,8.950690185546875,-0.998565673828125,-0.109161376953125,-0.07830810546875
1782969667120616200,8.9606162109375,-1.0028228759765625,-0.1327667236328125,-0.068115234375
1782969667130542300,8.970542236328125,-0.994232177734375,-0.109039306640625,-0.0955657958984375
1782969667140469200,8.98046923828125,-0.9931640625,-0.1274261474609375,-0.10260009765625
1782969667150395400,8.9903955078125,-0.9855804443359375,-0.1352691650390625,-0.1138916015625
1782969667160321300,9.0003212890625,-0.995391845703125,-0.12762451171875,-0.1253662109375
1782969667170248200,9.010248291015625,-1.006134033203125,-0.1441650390625,-0.101806640625
1782969667180174300,9.02017431640625,-0.9999542236328125,-0.1497344970703125,-0.0518035888671875
1782969667190100200,9.030100341796874,-0.9957427978515625,-0.1114044189453125,-0.0613250732421875
1782969667200027100,9.040027099609375,-1.0029449462890625,-0.1024627685546875,-0.080291748046875
1782969667209953300,9.049953369140624,-1.0046234130859375,-0.0976104736328125,-0.1082763671875
1782969667219879400,9.05987939453125,-1.0063934326171875,-0.1114654541015625,-0.1182708740234375
1782969667229806000,9.06980615234375,-0.9991302490234375,-0.1359405517578125,-0.1082305908203125
1782969667239732200,9.079732177734375,-0.9848480224609375,-0.159332275390625,-0.078826904296875
1782969667249658400,9.089658447265625,-0.9626922607421875,-0.1505279541015625,-0.061492919921875
1782969667259584300,9.099584228515624,-0.94879150390625,-0.158721923828125,-0.0367889404296875
1782969667269511200,9.10951123046875,-0.9412689208984375,-0.121978759765625,-0.0677337646484375
1782969667279437300,9.119437255859374,-0.9567108154296875,-0.113311767578125,-0.090606689453125
1782969667289363500,9.129363525390625,-0.97833251953125,-0.110870361328125,-0.113525390625
1782969667299290000,9.1392900390625,-0.9977569580078125,-0.1107177734375,-0.129547119140625
1782969667309216300,9.14921630859375,-1.0131072998046875,-0.1073455810546875,-0.13568115234375
1782969667319142400,9.159142333984375,-1.023345947265625,-0.1179962158203125,-0.1259613037109375
1782969667329069300,9.1690693359375,-1.024261474609375,-0.1439208984375,-0.1046295166015625
1782969667338995200,9.1789951171875,-1.0194549560546875,-0.158905029296875,-0.0788116455078125
1782969667348921300,9.18892138671875,-0.99835205078125,-0.145050048828125,-0.06890869140625
1782969667358848300,9.19884814453125,-0.970611572265625,-0.1628875732421875,-0.0290374755859375
1782969667368774100,9.208774169921876,-0.9471588134765625,-0.14093017578125,-0.058502197265625
1782969667378700300,9.2187001953125,-0.943695068359375,-0.121673583984375,-0.08087158203125
1782969667388627200,9.228627197265626,-0.9396209716796875,-0.10919189453125,-0.1006317138671875
1782969667398553300,9.23855322265625,-0.94659423828125,-0.11114501953125,-0.1094512939453125
1782969667408479200,9.248479248046875,-0.95660400390625,-0.122650146484375,-0.1098480224609375
1782969667418405400,9.2584052734375,-0.961029052734375,-0.133148193359375,-0.09698486328125
1782969667428332300,9.268332275390625,-0.9745025634765625,-0.137969970703125,-0.0848388671875
1782969667438258200,9.278258056640626,-0.993133544921875,-0.135711669921875,-0.09039306640625
1782969667448184300,9.288184326171875,-1.0089111328125,-0.1272430419921875,-0.1043243408203125
1782969667458111200,9.298111328125,-1.01953125,-0.12518310546875,-0.1187286376953125
1782969667468037400,9.308037353515624,-1.0319671630859375,-0.1309356689453125,-0.13214111328125
1782969667477963300,9.31796337890625,-1.0463409423828125,-0.132232666015625,-0.1428070068359375
1782969667487890200,9.32789013671875,-1.041900634765625,-0.126708984375,-0.148712158203125
1782969667497816300,9.33781640625,-1.03106689453125,-0.11956787109375,-0.149169921875
1782969667507742200,9.3477421875,-1.021087646484375,-0.13104248046875,-0.11102294921875
1782969667517669000,9.357669189453125,-0.9981842041015625,-0.149383544921875,-0.072265625
1782969667527595300,9.36759521484375,-0.9654998779296875,-0.1550140380859375,-0.0536651611328125
1782969667537521400,9.377521484375,-0.9391326904296875,-0.1290283203125,-0.06005859375
1782969667547448300,9.3874482421875,-0.943695068359375,-0.1338958740234375,-0.0508880615234375
1782969667557374200,9.397374267578124,-0.9571380615234375,-0.1516571044921875,-0.0316162109375
1782969667567300400,9.40730029296875,-0.9539794921875,-0.1665496826171875,-0.0045166015625
1782969667577227300,9.417227294921876,-0.948455810546875,-0.142578125,-0.0321197509765625
1782969667587153200,9.427153076171875,-0.95330810546875,-0.1334381103515625,-0.0619049072265625
1782969667597079300,9.437079345703125,-0.956390380859375,-0.124969482421875,-0.0933990478515625
1782969667607005400,9.44700537109375,-0.9610443115234375,-0.1290740966796875,-0.107086181640625
1782969667616932400,9.456932373046875,-0.968505859375,-0.138946533203125,-0.1134490966796875
1782969667626858200,9.466858154296874,-0.970733642578125,-0.1422119140625,-0.11761474609375
1782969667636784400,9.476784423828125,-0.9791107177734375,-0.13751220703125,-0.1306304931640625
1782969667646711300,9.486711181640626,-1.0058441162109375,-0.1407623291015625,-0.1321258544921875
1782969667656637200,9.49663720703125,-1.0261077880859375,-0.1623687744140625,-0.1114959716796875
1782969667666563300,9.506563232421875,-1.0302276611328125,-0.1667327880859375,-0.0986480712890625
1782969667676490200,9.516490234375,-1.0200042724609375,-0.156219482421875,-0.088226318359375
1782969667686416400,9.52641650390625,-1.0042724609375,-0.1510467529296875,-0.0713958740234375
1782969667696342300,9.53634228515625,-0.983856201171875,-0.14483642578125,-0.0657196044921875
1782969667706269200,9.546269287109375,-0.9655303955078125,-0.145294189453125,-0.055267333984375
1782969667716195300,9.5561953125,-0.9539031982421875,-0.166168212890625,-0.0413055419921875
1782969667726121200,9.566121337890625,-0.9532928466796875,-0.14215087890625,-0.0765838623046875
1782969667736048000,9.576048095703126,-0.9779815673828125,-0.143310546875,-0.110687255859375
1782969667745974300,9.585974365234375,-1.0049896240234375,-0.1424713134765625,-0.1468353271484375
1782969667755900400,9.595900390625,-1.015625,-0.126708984375,-0.167694091796875
1782969667765826300,9.605826416015624,-1.0064544677734375,-0.1449432373046875,-0.1303863525390625
1782969667775753200,9.615753173828125,-0.98431396484375,-0.1618194580078125,-0.0930023193359375
1782969667785679400,9.625679443359376,-0.961029052734375,-0.1611480712890625,-0.086334228515625
1782969667795605200,9.635605224609375,-0.9471282958984375,-0.162322998046875,-0.09381103515625
1782969667805532200,9.6455322265625,-0.951141357421875,-0.1607666015625,-0.1009979248046875
1782969667815458300,9.655458251953124,-0.960601806640625,-0.1613616943359375,-0.11212158203125
1782969667825384400,9.665384521484375,-0.973175048828125,-0.15875244140625,-0.11328125
1782969667835311000,9.67531103515625,-0.98114013671875,-0.1525726318359375,-0.101715087890625
1782969667845237200,9.6852373046875,-0.981109619140625,-0.15216064453125,-0.0875244140625
1782969667855163400,9.695163330078126,-0.982574462890625,-0.1519927978515625,-0.0683746337890625
1782969667865090300,9.70509033203125,-0.9868621826171875,-0.1491241455078125,-0.041748046875
1782969667875016200,9.71501611328125,-0.986572265625,-0.148193359375,-0.0480804443359375
1782969667884942300,9.7249423828125,-0.9912872314453125,-0.1551666259765625,-0.0657806396484375
1782969667894869200,9.734869140625,-1.00677490234375,-0.161468505859375,-0.065643310546875
1782969667904795100,9.744795166015624,-1.01080322265625,-0.1571502685546875,-0.068511962890625
1782969667914721300,9.75472119140625,-1.00543212890625,-0.1772308349609375,-0.0225067138671875
1782969667924647400,9.7646474609375,-0.98736572265625,-0.1597900390625,-0.04644775390625
1782969667934574300,9.77457421875,-0.962615966796875,-0.1450958251953125,-0.073333740234375
1782969667944500200,9.784500244140625,-0.9578399658203125,-0.159149169921875,-0.085418701171875
1782969667954426400,9.79442626953125,-0.9579010009765625,-0.1685028076171875,-0.0946502685546875
1782969667964353300,9.804353271484375,-0.954986572265625,-0.1729278564453125,-0.11346435546875
1782969667974279400,9.814279541015624,-0.9454193115234375,-0.1674346923828125,-0.1246490478515625
1782969667984205300,9.824205322265625,-0.93780517578125,-0.165191650390625,-0.1318817138671875
1782969667994132200,9.83413232421875,-0.9382171630859375,-0.170074462890625,-0.125518798828125
1782969668004058400,9.844058349609375,-0.9453125,-0.1768646240234375,-0.1017303466796875
1782969668013984300,9.853984375,-0.961456298828125,-0.1721954345703125,-0.0811309814453125
1782969668023911200,9.8639111328125,-0.9715576171875,-0.1630706787109375,-0.0789642333984375
1782969668033837300,9.87383740234375,-0.9746856689453125,-0.1561126708984375,-0.0881805419921875
1782969668043763500,9.883763427734374,-0.973907470703125,-0.1555023193359375,-0.0949249267578125
1782969668053690000,9.893690185546875,-0.970062255859375,-0.1617279052734375,-0.090728759765625
1782969668063616300,9.9036162109375,-0.9622650146484375,-0.1692047119140625,-0.0752105712890625
1782969668073541400,9.913541259765625,-0.9530181884765625,-0.17431640625,-0.0564727783203125
1782969668083468500,9.923468505859375,-0.964935302734375,-0.168182373046875,-0.050384521484375
1782969668093394400,9.93339453125,-0.9918365478515625,-0.1559295654296875,-0.0712738037109375
1782969668103320600,9.943320556640625,-1.0056915283203125,-0.1509552001953125,-0.094635009765625
1782969668113246500,9.95324658203125,-1.0167694091796875,-0.1564788818359375,-0.11090087890625
1782969668123173400,9.96317333984375,-1.007476806640625,-0.1656036376953125,-0.1154937744140625
1782969668133099500,9.973099609375,-1.0069427490234375,-0.1695709228515625,-0.106353759765625
1782969668143025400,9.983025390625,-1.00567626953125,-0.15838623046875,-0.084320068359375
1782969668152952300,9.992952392578125,-0.993011474609375,-0.1427764892578125,-0.0632781982421875
1782969668162878500,10.00287841796875,-0.988037109375,-0.132080078125,-0.0518646240234375
1782969668172804600,10.0128046875,-0.9874420166015625,-0.1311492919921875,-0.04498291015625
1782969668182731300,10.022731201171876,-0.993438720703125,-0.1364288330078125,-0.041107177734375
1782969668192657400,10.032657470703125,-1.0069122314453125,-0.142333984375,-0.041290283203125
1782969668202583600,10.04258349609375,-1.005615234375,-0.1498870849609375,-0.0504913330078125
1782969668212510500,10.052510498046875,-0.990936279296875,-0.15509033203125,-0.0677490234375
1782969668222436400,10.062436279296875,-0.9634857177734375,-0.161895751953125,-0.0976409912109375
1782969668232362500,10.072362548828124,-0.9504547119140625,-0.16595458984375,-0.1141357421875
1782969668242289700,10.08228955078125,-0.96124267578125,-0.16497802734375,-0.0457763671875
1782969668252215300,10.09221533203125,-0.9366455078125,-0.1683502197265625,0.033447265625
1782969668262141400,10.102141357421875,-0.9221649169921875,-0.1537933349609375,-0.0053253173828125
1782969668272067600,10.112067626953126,-0.94403076171875,-0.133270263671875,-0.0608673095703125
1782969668281994500,10.121994384765625,-0.9752044677734375,-0.1088714599609375,-0.0830841064453125
1782969668291920400,10.13192041015625,-1.020172119140625,-0.104339599609375,-0.0875396728515625
1782969668301846500,10.141846435546874,-1.0402984619140625,-0.1174163818359375,-0.08392333984375
1782969668311773400,10.1517734375,-1.035675048828125,-0.136993408203125,-0.0688018798828125
1782969668321699300,10.16169921875,-1.024627685546875,-0.1433258056640625,-0.0557403564453125
1782969668331625500,10.17162548828125,-1.0175323486328125,-0.1390380859375,-0.064697265625
1782969668341552400,10.181552490234376,-1.0069732666015625,-0.1451416015625,-0.090179443359375
1782969668351478500,10.191478515625,-0.9967041015625,-0.13092041015625,-0.0812835693359375
1782969668361404400,10.201404296875,-0.98712158203125,-0.1273193359375,-0.062530517578125
1782969668371331300,10.211331298828124,-0.97552490234375,-0.1316986083984375,-0.0692138671875
1782969668381257500,10.221257568359375,-0.9702911376953125,-0.1255035400390625,-0.0941619873046875
1782969668391183400,10.231183349609376,-0.9752197265625,-0.1212005615234375,-0.0801849365234375
1782969668401110500,10.241110595703125,-0.988861083984375,-0.13470458984375,-0.0587310791015625
1782969668411036400,10.251036376953126,-1.0117645263671875,-0.13677978515625,-0.069549560546875
1782969668420962600,10.260962646484375,-1.0167388916015625,-0.1279754638671875,-0.0767059326171875
1782969668430888400,10.270888427734375,-1.0071258544921875,-0.124969482421875,-0.0696563720703125
1782969668440815400,10.2808154296875,-0.9961395263671875,-0.1330413818359375,-0.06201171875
1782969668450741500,10.290741455078125,-0.98455810546875,-0.1381683349609375,-0.0614776611328125
1782969668460667600,10.300667724609376,-0.98004150390625,-0.13336181640625,-0.0624847412109375
1782969668470594300,10.31059423828125,-0.9840850830078125,-0.121185302734375,-0.0567779541015625
1782969668480520400,10.3205205078125,-0.9995574951171875,-0.12054443359375,-0.0499725341796875
1782969668490446600,10.330446533203125,-1.019287109375,-0.130767822265625,-0.0509033203125
1782969668500373500,10.34037353515625,-1.0218505859375,-0.141815185546875,-0.0589141845703125
1782969668510299400,10.35029931640625,-1.0027618408203125,-0.147369384765625,-0.0492706298828125
1782969668520225500,10.3602255859375,-0.9657745361328125,-0.1405487060546875,-0.0588836669921875
1782969668530152400,10.37015234375,-0.9503936767578125,-0.1309051513671875,-0.073944091796875
1782969668540078300,10.380078369140625,-0.9578704833984375,-0.1494140625,-0.07769775390625
1782969668550004500,10.39000439453125,-0.9771270751953125,-0.164886474609375,-0.0591278076171875
1782969668559931400,10.399931396484375,-0.99041748046875,-0.130096435546875,-0.0861968994140625
1782969668569857500,10.409857421875,-1.01422119140625,-0.1380615234375,-0.0708770751953125
1782969668579783400,10.419783447265624,-1.0103302001953125,-0.1285247802734375,-0.0655517578125
1782969668589709600,10.42970947265625,-1.001678466796875,-0.124664306640625,-0.061492919921875
1782969668599636500,10.439636474609374,-1.0029449462890625,-0.1411285400390625,-0.05487060546875
1782969668609562400,10.449562255859375,-0.9977874755859375,-0.1493988037109375,-0.0593109130859375
1782969668619488500,10.459488525390626,-0.98614501953125,-0.1507720947265625,-0.0727386474609375
1782969668629415400,10.46941552734375,-0.975494384765625,-0.1483612060546875,-0.0791168212890625
1782969668639341600,10.479341552734375,-0.9608306884765625,-0.145843505859375,-0.084503173828125
1782969668649267500,10.489267333984374,-0.9502716064453125,-0.1486968994140625,-0.086761474609375
1782969668659194400,10.4991943359375,-0.9430084228515625,-0.1535186767578125,-0.08013916015625
1782969668669120500,10.50912060546875,-0.9384765625,-0.13922119140625,-0.08441162109375
1782969668679046400,10.51904638671875,-0.95257568359375,-0.1438446044921875,-0.0734405517578125
1782969668688973300,10.528973388671876,-0.9768829345703125,-0.153106689453125,-0.06671142578125
1782969668698899500,10.5388994140625,-0.99737548828125,-0.15167236328125,-0.068695068359375
1782969668708825600,10.54882568359375,-1.0057220458984375,-0.1561279296875,-0.048126220703125
1782969668718752500,10.55875244140625,-0.9876861572265625,-0.1373443603515625,-0.0537567138671875
1782969668728678400,10.568678466796875,-0.9896240234375,-0.1399383544921875,-0.0606842041015625
1782969668738604500,10.5786044921875,-1.0020599365234375,-0.158355712890625,-0.05712890625
1782969668748530400,10.588530517578125,-0.9929656982421875,-0.1561279296875,-0.0548095703125
1782969668758457300,10.598457275390626,-0.9808197021484375,-0.1458587646484375,-0.0716705322265625
1782969668768383500,10.608383544921875,-0.988494873046875,-0.155029296875,-0.0586395263671875
1782969668778309600,10.6183095703125,-0.9824371337890625,-0.1551666259765625,-0.039703369140625
1782969668788236300,10.628236328125,-0.965728759765625,-0.1410675048828125,-0.0466156005859375
1782969668798162400,10.638162353515625,-0.980499267578125,-0.15057373046875,-0.0413970947265625
1782969668808088600,10.648088623046876,-0.99407958984375,-0.1541900634765625,-0.047027587890625
1782969668818015500,10.658015380859375,-0.9929962158203125,-0.1469879150390625,-0.053436279296875
1782969668827941400,10.66794140625,-0.98748779296875,-0.1497955322265625,-0.05712890625
1782969668837867500,10.677867431640625,-0.976165771484375,-0.154388427734375,-0.060272216796875
1782969668847794400,10.68779443359375,-0.9677276611328125,-0.1593170166015625,-0.063323974609375
1782969668857720300,10.69772021484375,-0.958953857421875,-0.156341552734375,-0.06146240234375
1782969668867646500,10.707646484375,-0.9533538818359375,-0.1515960693359375,-0.0544281005859375
1782969668877573400,10.717573486328124,-0.965423583984375,-0.1532440185546875,-0.0615997314453125
1782969668887499500,10.72749951171875,-0.972625732421875,-0.1531219482421875,-0.0717010498046875
1782969668897425400,10.73742529296875,-0.9712982177734375,-0.14776611328125,-0.06829833984375
1782969668907352300,10.747352294921875,-0.969970703125,-0.1442413330078125,-0.06005859375
1782969668917278500,10.757278564453125,-0.9747467041015625,-0.144439697265625,-0.061065673828125
1782969668927204600,10.76720458984375,-0.98516845703125,-0.147918701171875,-0.0666351318359375
1782969668937130500,10.777130615234375,-0.993255615234375,-0.1470947265625,-0.0691070556640625
1782969668947057400,10.787057373046874,-0.9983062744140625,-0.1504669189453125,-0.072998046875
1782969668956983600,10.796983642578125,-0.9959869384765625,-0.15032958984375,-0.0666351318359375
1782969668966909400,10.806909423828126,-0.9914703369140625,-0.149688720703125,-0.0565185546875
1782969668976836400,10.81683642578125,-0.980865478515625,-0.1479644775390625,-0.047821044921875
1782969668986762500,10.826762451171875,-0.9729156494140625,-0.150665283203125,-0.0479888916015625
1782969668996688600,10.836688720703124,-0.9739837646484375,-0.1455078125,-0.0474090576171875
1782969669006615300,10.846615234375,-0.9783935546875,-0.1478424072265625,-0.0408172607421875
1782969669016541400,10.85654150390625,-0.9807281494140625,-0.1643218994140625,-0.0229034423828125
1782969669026467600,10.866467529296875,-0.980194091796875,-0.132476806640625,-0.0347747802734375
1782969669036394500,10.87639453125,-0.9876708984375,-0.1061859130859375,-0.0402984619140625
1782969669046320400,10.8863203125,-0.98223876953125,-0.105712890625,-0.055816650390625
1782969669056246500,10.89624658203125,-0.973724365234375,-0.1390228271484375,-0.0608367919921875
1782969669066173400,10.90617333984375,-0.96002197265625,-0.1531219482421875,-0.0668487548828125
1782969669076099600,10.916099609375,-0.9490203857421875,-0.17529296875,-0.0685882568359375
1782969669086025700,10.926025634765624,-0.953460693359375,-0.1533203125,-0.109710693359375
1782969669095951600,10.93595166015625,-0.973480224609375,-0.1201629638671875,-0.114776611328125
1782969669105878500,10.94587841796875,-0.9827728271484375,-0.127471923828125,-0.0880126953125
1782969669115804700,10.9558046875,-0.9921875,-0.1473388671875,-0.0858612060546875
1782969669125730800,10.965730712890625,-1.005401611328125,-0.1438140869140625,-0.0753326416015625
1782969669135657500,10.975657470703124,-1.007354736328125,-0.1228179931640625,-0.058990478515625
1782969669145583600,10.98558349609375,-0.999420166015625,-0.114227294921875,-0.04412841796875
1782969669155509800,10.995509765625,-0.991729736328125,-0.1198883056640625,-0.0347900390625
1782969669165436700,11.005436767578125,-0.9999542236328125,-0.1173095703125,-0.0333251953125
1782969669175362600,11.015362548828126,-1.000274658203125,-0.1089935302734375,-0.0513153076171875
1782969669185288700,11.025288818359375,-1.0023651123046875,-0.121368408203125,-0.0728607177734375
1782969669195215600,11.035215576171876,-1.001983642578125,-0.1483001708984375,-0.0778350830078125
1782969669205141500,11.0451416015625,-0.9982452392578125,-0.1473846435546875,-0.0709991455078125
1782969669215067600,11.055067626953125,-0.9905853271484375,-0.100677490234375,-0.0986175537109375
1782969669224994600,11.06499462890625,-1.00079345703125,-0.1206512451171875,-0.0781097412109375
1782969669234920700,11.074920654296875,-0.9974365234375,-0.124908447265625,-0.0598297119140625
1782969669244846600,11.0848466796875,-1.00042724609375,-0.111724853515625,-0.05462646484375
1782969669254772700,11.094772705078125,-1.00213623046875,-0.10662841796875,-0.055206298828125
1782969669264699600,11.10469970703125,-0.9915924072265625,-0.099395751953125,-0.0494384765625
1782969669274625800,11.114625732421874,-0.9846649169921875,-0.1014862060546875,-0.044525146484375
1782969669284551700,11.1245517578125,-0.984405517578125,-0.10540771484375,-0.0505828857421875
1782969669294478600,11.134478515625,-0.9815673828125,-0.108062744140625,-0.0565948486328125
1782969669304404700,11.14440478515625,-0.99029541015625,-0.1126861572265625,-0.057830810546875
1782969669314330600,11.15433056640625,-1.019439697265625,-0.11566162109375,-0.0664215087890625
1782969669324257500,11.164257568359375,-1.0384063720703125,-0.1182708740234375,-0.06927490234375
1782969669334183700,11.17418359375,-1.043182373046875,-0.11639404296875,-0.0719451904296875
1782969669344109800,11.18410986328125,-1.0339202880859375,-0.11541748046875,-0.0770111083984375
1782969669354036500,11.194036376953125,-1.0167999267578125,-0.1153564453125,-0.07025146484375
1782969669363962600,11.203962646484374,-1.0059967041015625,-0.107666015625,-0.062469482421875
1782969669373888800,11.213888671875,-0.999359130859375,-0.104400634765625,-0.0562591552734375
1782969669383815700,11.223815673828126,-0.9933624267578125,-0.104522705078125,-0.048187255859375
1782969669393741600,11.233741455078125,-0.9835662841796875,-0.106414794921875,-0.0495758056640625
