time,seconds_elapsed,z,y,x
1782969658237801000,0.077801025390625,-1.2004250060647725,1.7658610870093105,-1.3933696905009447
1782969658247726800,0.087726806640625,-0.954366424947977,1.7528496297448872,-0.7843181935831904
1782969658257654000,0.097654052734375,-0.39217502501308915,0.5706846491225064,-0.7319833184510469
1782969658267580200,0.107580078125,-0.11898527586460113,-0.5149595470301807,-0.6575261894904076
1782969658277506000,0.117506103515625,-0.0019277531921863555,-0.9668126495450734,-0.28500746658369897
1782969658287433000,0.127432861328125,0.25401275499165055,-1.0562789854586123,0.07641761537864804
1782969658297359000,0.137359130859375,0.6420008497089147,-0.8882382945239543,0.37544498561695216
1782969658307285000,0.147284912109375,1.0885177057623863,-0.6942171399626881,0.6600615531869233
1782969658317211000,0.1572109375,1.425916599971056,-0.574462487160787,0.8372666705690324
1782969658327138000,0.167137939453125,1.1679144830822943,-0.5752746072612702,0.8173648692689836
1782969658337064000,0.17706396484375,0.5214473016142844,-0.8156525123931467,0.412999055724591
1782969658346990000,0.186989990234375,-0.01613163511157036,-1.109018349738419,0.1505751768708229
1782969658356917000,0.1969169921875,0.17503215725719928,-0.5009897661276161,-0.3570065348677337
1782969658366843000,0.2068427734375,0.28447394422888755,0.0030748043354600664,-0.7475278013244271
1782969658376769000,0.21676904296875,0.15054945790767668,-0.0672429597981274,-0.5648262784831225
1782969658386696200,0.2266962890625,-0.07517477571070194,0.196427996507287,-0.09195727594643831
1782969658396621800,0.236621826171875,-0.413339393594861,0.37620968637913466,0.2612410988099873
1782969658406548000,0.2465478515625,-0.636218759176135,0.3074016692213714,0.25446035262867805
1782969658416475100,0.25647509765625,-0.4014420350521803,0.4767781388044357,-0.0027279636591672897
1782969658426401000,0.266401123046875,-0.7047977898836135,0.2762552741989493,-0.13224910045489668
1782969658436327000,0.276326904296875,-0.6962269454151392,-0.11796879229843615,-0.2488986268483102
1782969658446252000,0.286251953125,-0.06820844382941722,-0.27537454584166404,-0.9398504083395004
1782969658456179000,0.296178955078125,-0.13192249884903431,-0.3435119702614844,-0.6018044483989476
1782969658466105000,0.30610498046875,-0.5391565613061189,-0.6501002042081206,0.04992430685907602
1782969658476031000,0.316031005859375,-0.34869068807363507,-0.7508502968106419,0.32066096376702186
1782969658485958100,0.325958251953125,-0.05292027380466461,-0.3403708226915449,0.7427109025619923
1782969658495884000,0.335884033203125,0.5762538275569677,0.0016914602182805537,0.5050926714017987
1782969658505810000,0.345809814453125,1.046913775742054,0.304470584205538,-0.042028585173189636
1782969658515736000,0.355736083984375,0.7103115848690271,0.05219225179105997,0.43422421458289023
1782969658525663000,0.3656630859375,0.4736152908593416,-0.2738216173112392,0.744601684744656
1782969658535588900,0.3755888671875,0.5018512052625418,0.17597141086868942,0.07853022361844778
1782969658545515000,0.385514892578125,0.5488543639779091,0.48648836256638167,0.20514175657778977
1782969658555442200,0.395442138671875,0.6034165597707033,0.27161745833046735,0.6089860304661094
1782969658565368000,0.4053681640625,0.5808551838725805,0.15425832236297427,0.6532271771222352
1782969658575295000,0.415294921875,0.29627193405032154,-0.0025050416234880684,0.7413052735477685
1782969658585221000,0.42522119140625,0.24942542720139024,-0.07764072743281722,0.3515760342516005
1782969658595147000,0.43514697265625,0.14441606971919535,0.10999737502783537,-0.08820975998118519
1782969658605074000,0.445073974609375,-0.2528694301754236,0.018331994700059293,0.3277233033686876
1782969658615000000,0.455,0.011718494844436645,-0.08006042886041104,-0.0683507018443197
1782969658624926200,0.46492626953125,-0.2484831779152155,-0.22160108927376568,0.19987397224269807
1782969658634851800,0.474851806640625,-0.19694763646721838,-0.4650605207428336,0.009465162959694861
1782969658644779000,0.484779052734375,-0.2645125216960907,-0.3465648550260812,-0.2947928744737059
1782969658654705200,0.494705078125,0.5430623365730047,0.09253266468159854,-1.7707266472190617
1782969658664632000,0.504632080078125,-0.22333938430845737,-0.308477993215993,-0.41098384344466027
1782969658674558000,0.514557861328125,-0.1412637431681156,-0.7500084391590207,0.5833231083560735
1782969658684484000,0.524484130859375,-0.3019704379528761,-0.25655842088647185,-0.08011011322103441
1782969658694410000,0.534409912109375,-0.11163023692667484,-0.043709450932219625,-0.07452960967496038
1782969658704337000,0.5443369140625,0.18598259033858774,0.08816343662142753,-0.229732811672613
1782969658714263000,0.554262939453125,0.08483692254722118,-0.01791713028885424,-0.015827975989878177
1782969658724189000,0.56418896484375,-0.06561082855165004,-0.27278642904460426,0.41984556061848993
1782969658734116000,0.5741162109375,-0.0976981576859951,-0.17021233588531612,0.08408106267862021
1782969658744042000,0.5840419921875,0.2270931838840246,0.18097754859291015,-0.7540597603764384
1782969658753968000,0.593968017578125,0.19433599266409873,0.1580715239755809,-0.9293323753260075
1782969658763895000,0.60389501953125,0.07453764685094356,-0.4877997374258935,0.6796639331489801
1782969658773823000,0.613822998046875,0.6698252607017755,-0.45959801755324003,0.345722266722098
1782969658783749000,0.6237490234375,0.6308990254580974,-0.13128222818411886,-0.034993206643685694
1782969658793675000,0.633675048828125,0.42782969124019143,-0.201816484612599,0.2774368121337145
1782969658803602000,0.643601806640625,0.3814414495527744,-0.2673397810112685,0.46378655528426166
1782969658813528000,0.653528076171875,0.3265601048082113,-0.07372801096849144,-0.0643014995187521
1782969658823454000,0.663453857421875,0.07199497663080692,0.09900734058842062,-0.2949578557770699
1782969658833380900,0.673380859375,-0.2588520117163658,-0.010466960413381457,-0.04875730890631676
1782969658843307000,0.68330712890625,-0.293242357096076,-0.0812638133008033,0.009310995311290026
1782969658853233200,0.693233154296875,-0.18808394653201102,-0.02462744158245623,0.03970547598786652
1782969658863159800,0.703159912109375,0.09753098442554474,-0.01823218758739531,0.2474874448761344
1782969658873086000,0.7130859375,-0.3634674014449119,-0.04526822468154132,0.12374686424322426
1782969658883012000,0.72301220703125,-0.558656796067953,-0.09149725721925496,-0.08395246786288917
1782969658892939000,0.73293896484375,-0.31640286793112754,-0.17292334840968251,0.025947803466022015
1782969658902865000,0.742864990234375,0.002751344534754753,-0.17077976050972937,0.018631342972815036
1782969658912791000,0.752791015625,0.33044016111195085,-0.1918742787256837,0.011443842621520161
1782969658922718000,0.762718017578125,0.18519757744073867,-0.14755531759299337,0.06683408673629164
1782969658932643800,0.772643798828125,-0.1749865645498037,-0.0895795870296657,0.2103090031478554
1782969658942570000,0.782570068359375,-0.14082535175085067,-0.12926299731619656,0.16606047690287232
1782969658952497000,0.792496826171875,0.119392103099823,-0.1294819007638842,0.039579803781583905
1782969658962423000,0.802423095703125,0.2593079387903213,-0.08436937810070812,-0.02869527554325759
1782969658972349000,0.812348876953125,0.12286357860267162,-0.04957980427034199,0.014592223649844527
1782969658982275800,0.82227587890625,-0.07980126646757126,0.02305880402624607,0.052960898075997825
1782969658992202000,0.832201904296875,-0.12312895154058932,0.00595759323015809,0.12131934483535588
1782969659002128000,0.8421279296875,-0.06786065330505371,-0.06084660982452333,0.157186411704123
1782969659012055000,0.852054931640625,-0.021514497193694113,-0.09427322473861277,0.12495024868361651
1782969659021981000,0.86198095703125,-0.01642214249074459,-0.09773147543370724,0.06705941992476581
1782969659031907000,0.871906982421875,0.013949030375480651,-0.1265312342647463,0.05743073696643114
1782969659041834000,0.881833984375,0.03180032888650894,-0.11816731054522096,0.07284662502408028
1782969659051759900,0.891759765625,0.05160509955286979,-0.09321239057406783,0.11084171689748763
1782969659061686000,0.90168603515625,0.15029694445133207,-0.11838431429676712,0.1663768493756652
1782969659071613200,0.91161328125,0.12658698303997515,-0.1352047353900969,0.16945779119096696
1782969659081538800,0.921538818359375,-0.004271101447939872,-0.13609620433710515,0.09833514041528105
1782969659091465000,0.93146484375,-0.04399520907104015,-0.06540814558640122,0.050952626993507145
1782969659101392100,0.94139208984375,0.03995324020385742,-0.058059097997844214,0.03707797702848911
1782969659111318000,0.951318115234375,0.15739304019212721,-0.06369008962213993,0.06014313773028552
1782969659121244000,0.961243896484375,0.21459026066362857,-0.06290573431141674,0.07271547292508185
1782969659131171000,0.971171142578125,0.1637117218196392,-0.0889280643183738,0.014011135826259851
1782969659141097000,0.981096923828125,0.07069850707948207,-0.08506342477947473,-0.01898950876072049
1782969659151022800,0.99102294921875,-0.0044470425367355345,-0.0790185185920447,0.01915207891128957
1782969659160950000,1.000949951171875,-0.12250935833752155,-0.0768305800937116,-0.013582462085410953
1782969659170876000,1.0108759765625,-0.24540450112223625,-0.04984261992499232,-0.07561126743182539
1782969659180802000,1.020802001953125,-0.3197112618267536,-0.04772789279334247,-0.06910510040819645
1782969659190729000,1.03072900390625,-0.2599672794818878,-0.06119293904416263,-0.051758682679384944
1782969659200655000,1.040655029296875,-0.08727437882721424,-0.1062731668729335,0.03200030843801796
1782969659210581000,1.0505810546875,0.12299334246218203,-0.14282617017924784,0.1313217564769089
1782969659220508200,1.060508056640625,0.2715782222986221,-0.11568674577586352,0.12926993851363658
1782969659230434000,1.07043408203125,0.33539223056137557,-0.0864607243567705,0.11806151208318769
1782969659240360000,1.08035986328125,0.3445458433538675,-0.046212008337676524,0.14286138762310147
1782969659250287000,1.090287109375,0.31852526691257954,-0.028123467004671693,0.16762399989254773
1782969659260213000,1.100212890625,0.2350666469812393,-0.0048408641599118705,0.16440671834647655
1782969659270139000,1.110138916015625,0.16373218008577822,-0.010465426043421029,0.15049451285004614
1782969659280066000,1.120066162109375,-0.009959668478369712,-0.04223053748607635,0.08662892053052783
1782969659289992200,1.1299921875,-0.15921148779094219,-0.021519246434047817,0.05361103254780173
1782969659299917800,1.139917724609375,-0.22230302699804305,0.006586831044405698,0.10197064737342297
1782969659309845000,1.149844970703125,-0.23625381093919276,-0.04326594494841993,0.11478621673956513
1782969659319771100,1.159771240234375,-0.1495639540016651,-0.06681187490448355,0.09505407291799783
1782969659329696800,1.16969677734375,-0.08115326559841632,-0.0592566372193396,0.07474705181792378
1782969659339624000,1.1796240234375,-0.07082067215442657,-0.07447232652977108,0.056199441605806345
1782969659349550000,1.189550048828125,-0.0083785367667675,-0.09183036163114011,0.061744289316609496
1782969659359476000,1.19947607421875,0.03193827605247497,-0.06304090499840677,0.06256693081110716
1782969659369403000,1.20940283203125,0.01672492482960224,-0.07035122801177203,0.0869217659972608
1782969659379329000,1.2193291015625,0.06031330666542053,-0.08840279833525419,0.09153152481503785
1782969659389255200,1.229255126953125,0.09192834211289883,-0.10753434591516851,0.08793269660547375
1782969659399182000,1.23918212890625,0.1315560036242008,-0.11927987489700316,0.0705785339616239
1782969659409108000,1.24910791015625,0.15917641647756098,-0.0887026580646634,0.0544607812449336
1782969659419034000,1.2590341796875,0.10068331097662449,-0.056920084030553694,0.046421194108948106
1782969659428961000,1.2689609375,0.005524900901317596,-0.02806121542342007,0.04212291239313781
1782969659438887000,1.278886962890625,-0.05445522828698158,-0.03972008903510868,0.058329658567532895
1782969659448813000,1.28881298828125,-0.06744505824148654,-0.05478643300272524,0.03558006662093103
1782969659458740000,1.298739990234375,-0.07575988212227822,-0.05394844780862331,-0.030579043463245033
1782969659468666000,1.308666015625,-0.007587678650021553,-0.09096300421208142,-0.011848770160600543
1782969659478592000,1.318592041015625,0.007806289836764335,-0.05617627992592752,0.020905425384640693
1782969659488519000,1.328518798828125,-0.05353694439828396,-0.03320040494278073,-0.0266585820838809
1782969659498445000,1.338445068359375,-0.011388239976763725,-0.008570333011820912,-0.015184052063152194
1782969659508371000,1.348370849609375,0.019128478839993475,-0.03808722713626921,0.03162774879857898
1782969659518297900,1.3582978515625,0.05608721340298652,-0.10345109518952667,0.027464345508813857
1782969659528224000,1.36822412109375,0.12180851659178733,-0.07839015756063163,0.0020662118148058652
1782969659538150100,1.378150146484375,0.23656243849694727,-0.05901055350378155,0.04685242513306439
1782969659548077000,1.3880771484375,0.2364917113482952,-0.08389854571856557,0.08061280204616486
1782969659558003000,1.3980029296875,0.18858897344470024,-0.13564305374212562,0.01987995479442179
1782969659567929000,1.40792919921875,0.11759762089848518,-0.09618176177367567,-0.05990019581988454
1782969659577856000,1.41785595703125,0.00719955611526966,-0.12099288935996591,-0.034862566001340745
1782969659587782000,1.427781982421875,0.03569032206237316,-0.04800999767035245,0.0846561591528356
1782969659597708000,1.4377080078125,0.013532850790023802,0.040639395837113255,0.08221446508914232
1782969659607635000,1.447635009765625,0.043482583373785015,0.04828917993791401,0.13058233628645538
1782969659617561000,1.45756103515625,0.07039046404361725,0.004369081929698586,0.138923828978464
1782969659627487000,1.467487060546875,0.10056991373002529,-0.031975320127233864,0.07407711666710674
1782969659637414000,1.477413818359375,0.0831459007203579,-0.018887875017151234,0.023000497967749833
1782969659647340000,1.487340087890625,-0.08054302474558353,-0.027155060363933444,-0.0030406828701496124
1782969659657266000,1.497265869140625,-0.1313303781747818,-0.050855742490291594,0.00790353966616094
1782969659667192800,1.50719287109375,-0.06274316416084766,-0.06736008337177336,0.03871851077713072
1782969659677119000,1.517118896484375,0.023923311901092526,-0.0640808425053954,0.07266366967260837
1782969659687045000,1.527045166015625,0.051100072640180585,-0.07025953114032744,0.02951711332015693
1782969659696971800,1.5369716796875,-0.048018473237752914,-0.06378755864724517,-0.01951163293868303
1782969659706898000,1.54689794921875,-0.07599427540004253,-0.03694930914752185,0.027782763808220624
1782969659716824000,1.556823974609375,0.008210194462537766,-0.015348302714154124,0.03403371396176517
1782969659726751000,1.5667509765625,0.1161328090429306,0.002160831295698881,0.029981589026749134
1782969659736676900,1.5766767578125,0.14087035993635655,0.03680186350084841,0.1289198099017143
1782969659746603000,1.58660302734375,0.06624854193329811,0.04052811748236418,0.14564320036135614
1782969659756530000,1.596530029296875,0.04109071980118751,-0.007071253560483455,0.07320406015962362
1782969659766455800,1.606455810546875,0.08913783461153507,-0.0035583500687032935,0.07070311018936336
1782969659776382000,1.6163818359375,0.17083412104547022,-0.01472834418490529,0.06504084664396942
1782969659786309000,1.62630908203125,0.14960487053394317,-0.007271525372937321,0.12140775377117097
1782969659796235000,1.636235107421875,0.04694412200450897,0.03570281621776521,0.20221556693278253
1782969659806161000,1.646160888671875,-0.07993804458975791,0.06151727562770247,0.1928113403800875
1782969659816087000,1.656087158203125,-0.1572802274674177,0.058415948611497875,0.14203348543159663
1782969659826014000,1.666013916015625,-0.13264905955791473,0.009353373148292302,0.11309322215132414
1782969659835939800,1.67593994140625,-0.10662146885395049,-0.05059921044595539,0.05849558971896767
1782969659845866000,1.685865966796875,-0.09266893134713172,-0.04713248418346047,0.008879691221937536
1782969659855793000,1.69579296875,-0.08977437894940375,-0.06338716115280986,0.011830138525366782
1782969659865719000,1.705718994140625,-0.05423953970968723,-0.08726210386753082,0.02540266373865306
1782969659875645000,1.71564501953125,-0.0031026421904563903,-0.0742469202760607,0.03623217385411262
1782969659885571800,1.72557177734375,0.053365094962716096,-0.09504187102355062,0.03156958887055516
1782969659895498000,1.735498046875,0.0663666153550148,-0.07101962879262864,0.019598142178356648
1782969659905424000,1.745423828125,0.07681435961127281,-0.07958565095551312,0.027099092392995953
1782969659915351000,1.75535107421875,0.07113982110619545,-0.10678571950495243,0.034661636601760984
1782969659925277000,1.76527685546875,0.007425181564688682,-0.10494074922539293,0.008975041355192661
1782969659935203000,1.775203125,-0.06112228496074676,-0.1085232108220458,0.015051292528957127
1782969659945130000,1.7851298828125,-0.07865911069512367,-0.11058657309263945,0.0017602146055549382
1782969659955055900,1.795055908203125,-0.037380759367346764,-0.06340630424469709,0.06721073802895844
1782969659964982000,1.80498193359375,-0.012902736192941664,-0.029357904170453548,0.11825294300206005
1782969659974909200,1.8149091796875,-0.0069669164031744,-0.020950725831091404,0.18276443200968204
1782969659984834800,1.824834716796875,-0.03414835331737995,-0.03546491580866277,0.20882913985364138
1782969659994761000,1.834760986328125,-0.11905892562270164,-0.04686163135282695,0.17449768505431712
1782969660004688100,1.844688232421875,-0.17248422634005545,-0.06995842930190264,0.1259371408291161
1782969660014614000,1.854614013671875,-0.15794365981221198,-0.06270714299939573,0.10543152841702103
1782969660024540000,1.864539794921875,-0.11458733316659926,-0.05277611609362066,0.10384520907364785
1782969660034467000,1.874467041015625,-0.01239537119269371,-0.06066496964730322,0.10112235998101532
1782969660044393000,1.88439306640625,0.08271686165332794,-0.09459390806034207,0.11097184608317912
1782969660054318800,1.89431884765625,0.08561316761672497,-0.08761515508890151,0.11520005823746322
1782969660064246300,1.904246337890625,0.001994388687610626,-0.07170534603446721,0.05798493678309023
1782969660074172000,1.914171875,-0.020278817918896675,-0.0435229884494096,0.00951557797268033
1782969660084098000,1.92409814453125,-0.05662146641016006,-0.07599917077086865,-0.02282550672702491
1782969660094025200,1.934025146484375,-0.061515083670616144,-0.10355550541207194,-0.007750541061535477
1782969660103951000,1.943951171875,0.006570610561966896,-0.10064707061946392,0.020147885015606878
1782969660113877000,1.953876953125,0.09751403329074382,-0.09163038207963109,-0.0020661387495696545
1782969660123804200,1.96380419921875,0.09252280087471008,-0.06384498792290687,-0.015775222889333963
1782969660133730000,1.97372998046875,0.058874798294901845,-0.10311353379823267,-0.05409063275828957
1782969660143656000,1.983656005859375,0.13303542852699757,-0.14074680662192404,-0.017586071703583003
1782969660153583000,1.9935830078125,0.19823709175586698,-0.1026844216659665,-0.010483984613418578
1782969660163509200,2.00350927734375,0.3061421706795692,-0.10336246705800295,0.07407134451344609
1782969660173435100,2.01343505859375,0.3219885591089725,-0.08775112949348986,0.10893727151565254
1782969660183361000,2.023361083984375,0.20780103891491888,-0.0724533148575574,0.0805124834768474
1782969660193288200,2.0332880859375,0.05967500876188278,-0.01931706021465361,0.058639674364775414
1782969660203214000,2.043214111328125,-0.018444003707170486,-0.03361380804926157,0.05822853628061712
1782969660213140000,2.053139892578125,-0.03912088103294372,-0.05619703045301139,0.050903307959064836
1782969660223067100,2.063067138671875,-0.04920154554247856,-0.06243950503915548,0.04147796555310487
1782969660232993000,2.072992919921875,-0.04346504771709442,-0.12099968442693353,0.06783727242946624
1782969660242919200,2.082919189453125,0.008078092515468597,-0.12644209467656908,0.03638612230680883
1782969660252846000,2.09284619140625,0.004196282646059989,-0.11179770244807004,0.030279475994780657
1782969660262772000,2.10277197265625,-0.041322774991393085,-0.06506546962857246,0.04937646371796727
1782969660272698000,2.112697998046875,-0.040838790866732595,-0.041018092956393956,0.02736789939701557
1782969660282625300,2.122625244140625,-0.03320902664065361,-0.05860672194324434,0.06745762546211481
1782969660292551200,2.13255126953125,0.005088263049721717,-0.09218962339758872,0.10567417806647718
1782969660302477000,2.14247705078125,0.08744681278467178,-0.09960990959145129,0.10886508306227624
1782969660312404200,2.152404296875,0.10595686746537684,-0.08132949894815683,0.09359561773799359
1782969660322330000,2.162330078125,0.11554419550001621,-0.08801043801680207,0.10503661081530154
1782969660332256000,2.172256103515625,0.09642506901025771,-0.08334522268474101,0.09602605975531041
1782969660342183200,2.18218310546875,0.0665448945313692,-0.08894216590896248,0.08125826034285127
1782969660352109300,2.192109375,0.07227613165974617,-0.10894413964785635,0.07314553490541875
1782969660362035000,2.202034912109375,0.0652858343809843,-0.11766622915528714,0.09103424281738698
1782969660371962000,2.211962158203125,0.033197920724749565,-0.09499686283804476,0.098440135159716
1782969660381888300,2.22188818359375,-0.011114683732390404,-0.09398023314140737,0.1132116608992219
1782969660391814100,2.231814208984375,-0.03431903370916843,-0.06633622021675109,0.12189780231043695
1782969660401741000,2.241740966796875,-0.05113982012867927,-0.0393657957047224,0.13903371909372508
1782969660411667200,2.251667236328125,-0.0578571456849575,-0.07294168289639055,0.1000738007761538
1782969660421593000,2.261593017578125,-0.011277180817723274,-0.07706577708907425,0.06068944650143385
1782969660431520300,2.271520263671875,-0.004227262306213378,-0.06015358605906367,0.08765249142460524
1782969660441446100,2.281446044921875,0.03453179967701435,-0.045592707395553586,0.08360182779431342
1782969660451372000,2.2913720703125,0.0052139352560043335,-0.027568974927067755,0.07121010986343025
1782969660461298200,2.301298095703125,-0.030260113707184788,-0.022032895044609903,0.07453823137283325
1782969660471225000,2.31122509765625,-0.005130933147668838,-0.03379844390116632,0.09905001068636775
1782969660481151000,2.32115087890625,0.06445932042896747,-0.05831438793316483,0.0730939508486539
1782969660491077000,2.3310771484375,0.11107494113147258,-0.08934548601284623,0.03581109889782965
1782969660501004300,2.34100439453125,0.10476619637608528,-0.12956738709025084,0.027973244879022238
1782969660510930200,2.35093017578125,0.11479191582798957,-0.11611439660340547,0.06135572839044034
1782969660520856000,2.36085595703125,0.035973230656981464,-0.07178864040374755,0.05427760669775307
1782969660530783200,2.370783203125,-0.05200608156919479,-0.06820727478563784,0.04177782528251409
1782969660540709000,2.380709228515625,-0.005895487779378891,-0.09504932367764413,0.050552302564308045
1782969660550635000,2.390635009765625,0.0772287856310606,-0.07636515453904867,0.07664346002377569
1782969660560562200,2.400562255859375,0.05769874025285244,-0.06128010587096214,0.10367862033508718
1782969660570488300,2.41048828125,-0.012609306204319,-0.05661284471228718,0.11926102406606078
1782969660580414000,2.4204140625,-0.0927180311858654,-0.04820383974201977,0.10051511480286716
1782969660590341000,2.430341064453125,-0.10115092848837375,-0.059911447866261,0.09394998413361609
1782969660600267300,2.440267333984375,-0.0075169515013694755,-0.052237333041802045,0.09522212296128273
1782969660610193000,2.45019287109375,0.038381460842490195,-0.05684102744497359,0.0623890169609338
1782969660620120000,2.4601201171875,0.047507601106166836,-0.07967354843467474,0.0064911886502057314
1782969660630046200,2.470046142578125,0.08259352753460407,-0.07046835158541798,0.01634586238414049
1782969660639972000,2.47997216796875,0.11010346575081348,-0.040548356552794575,0.0597764233097434
1782969660649899000,2.48989892578125,0.10094751487076283,-0.02497647421583533,0.1201793079547584
1782969660659825200,2.4998251953125,0.09604922143518924,-0.026323577975854277,0.1477276784852147
1782969660669751000,2.5097509765625,0.032093758875131606,-0.06248568226844072,0.14435915190018714
1782969660679678200,2.51967822265625,-0.10613339307606219,-0.03486987252496183,0.10245273180194199
1782969660689604000,2.52960400390625,-0.17966624679863452,-0.0529728807747364,0.09405227546431123
1782969660699530200,2.5395302734375,-0.13658581448495388,-0.09996471437849104,0.04970657245516777
1782969660709457200,2.54945703125,-0.011922492983937263,-0.11545717480368911,0.021528160392865536
1782969660719383000,2.559383056640625,0.07872223905920982,-0.12598412177599966,0.020629604117944834
1782969660729309200,2.56930908203125,0.10002280124127864,-0.09058043463528155,0.010351298144459724
1782969660739235000,2.579235107421875,0.11238602373003959,-0.06732778853736818,0.03316672186888754
1782969660749162200,2.589162353515625,0.11895488072633742,-0.06582023351863026,0.1110811516765505
1782969660759088000,2.599088134765625,0.14488660984039306,-0.05974325169250369,0.14444785309694708
1782969660769014000,2.609013916015625,0.10475333689451218,-0.07992635415196418,0.13918679076358675
1782969660778941200,2.618941162109375,0.049501989793777464,-0.09555924596115946,0.12688136287666857
1782969660788867300,2.628867431640625,0.006176058286428451,-0.07549779711998998,0.09272102686055005
1782969660798793000,2.63879296875,-0.021052140378952026,-0.09602898236475885,0.0844488730777055
1782969660808720100,2.64872021484375,-0.006711480337381362,-0.11034648072645067,0.07749678891748189
1782969660818646300,2.658646240234375,0.014335399344563484,-0.1078231727939099,0.05535962978079915
1782969660828572200,2.668572265625,-0.00400455946624279,-0.11758176574222742,0.01174742867797613
1782969660838499000,2.6784990234375,-0.05485211865007877,-0.12859540025293825,-0.014070391732826829
1782969660848425200,2.68842529296875,-0.07775076367855072,-0.12581124942712485,-0.007108151504769921
1782969660858351000,2.69835107421875,-0.022122399958968163,-0.13713570345267653,0.006547521947324275
1782969660868278000,2.708278076171875,0.09458440957963465,-0.1133764960721135,0.030343846467882393
1782969660878204200,2.7182041015625,0.13856792821288108,-0.09132358115278184,0.060212695835158224
1782969660888130300,2.72813037109375,0.08543664200603962,-0.07424684721082449,0.05990224164649844
1782969660898057200,2.73805712890625,0.06093114630281925,-0.07204517244808376,0.06153400756679475
1782969660907983000,2.747983154296875,0.0279547593742609,-0.08434322074614464,0.08387472645156085
1782969660917909200,2.7579091796875,0.02251461414694786,-0.09057999624386429,0.0933951997950673
1782969660927836200,2.767836181640625,0.03874152632653713,-0.12059709497541188,0.13198635786548257
1782969660937762000,2.777761962890625,0.050202831539511675,-0.09973170934021472,0.13216324880234898
1782969660947688200,2.787688232421875,0.024804770910739897,-0.09677563601359725,0.1103865204758942
1782969660957615000,2.797614990234375,-0.021312837141752243,-0.06368431746847927,0.11117102191708982
1782969660967541200,2.807541259765625,-0.024803601866960526,-0.06753733963482081,0.08041830238737166
1782969660977467100,2.817467041015625,0.02619067231118679,-0.09080774058513343,0.0714439186193049
1782969660987394000,2.82739404296875,0.06540624589025974,-0.0899886062219739,0.06918795638605951
1782969660997320200,2.8373203125,0.07472703194320202,-0.07462452141679823,0.05008227389976382
1782969661007246000,2.84724609375,0.041433249628543854,-0.05180339860394597,0.012071107674390076
1782969661017173000,2.857173095703125,0.019341244807839393,-0.049774084733426566,0.04521671369001269
1782969661027099100,2.86709912109375,0.01787818651795387,-0.055456368153542275,0.03379376772604883
1782969661037025300,2.877025390625,0.008912789773941039,-0.07089490643441676,0.014231719774380326
1782969661046952000,2.886951904296875,-0.011278349861502647,-0.08402487551197409,0.014967852029204368
1782969661056878000,2.896878173828125,-0.0010626607954502105,-0.07384016610607505,0.020775953786075115
1782969661066803700,2.9068037109375,0.029341245296597478,-0.07450739784315229,0.047776188914477824
1782969661076729900,2.916729736328125,0.05103519071042537,-0.04525543826520443,0.11179909068755804
1782969661086656800,2.92665673828125,0.05972761573195457,-0.057357598664984105,0.09265307619087397
1782969661096583000,2.9365830078125,0.0308522343814373,-0.06696786918379366,0.06930573754683136
1782969661106508800,2.9465087890625,-0.005672784939408302,-0.08832432627156377,0.00745608815960586
1782969661116435700,2.956435791015625,-0.002186111867427826,-0.10023571333959698,0.02065291192829609
1782969661126361900,2.96636181640625,0.0644756870418787,-0.08124993090592324,0.06459471031166612
1782969661136287700,2.976287841796875,0.0844482154905796,-0.04605111868754029,0.09116422587260603
1782969661146214700,2.986214599609375,0.08304185582399368,-0.09263627118654548,0.07362243170216679
1782969661156140800,2.996140869140625,0.10248071578741073,-0.10561572587750852,0.02183810312487185
1782969661166067000,3.00606689453125,0.06476677894294261,-0.09596431963071227,0.06089804775081575
1782969661175993600,3.01599365234375,0.04336217186450958,-0.10224347296543419,0.05439721448943018
1782969661185919700,3.025919677734375,0.014444120416045187,-0.060824178797006606,0.050504737095534796
1782969661195846000,3.035845947265625,0.006893851166963577,-0.06984284009821713,0.07597812798283994
1782969661205772800,3.045772705078125,0.023425883772969246,-0.09025653644315898,0.08497530810460448
1782969661215698700,3.05569873046875,0.0402893402904272,-0.07077975562214851,0.08934913927465676
1782969661225624800,3.065624755859375,0.008320084577798844,-0.0797881147250533,0.13069880227297545
1782969661235551700,3.0755517578125,-0.04193360036611557,-0.07738792171552777,0.09779416540637612
1782969661245477600,3.0854775390625,-0.05767068320214748,-0.06896240400187671,0.07390614401437341
1782969661255403800,3.09540380859375,-0.043102644145488735,-0.08480214349478482,0.08641169758327305
1782969661265330700,3.10533056640625,-0.0324818814098835,-0.10680230531357228,0.03461209837161004
1782969661275256800,3.1152568359375,0.008092121040821075,-0.11059066474586725,0.018772066617757082
1782969661285182700,3.1251826171875,0.05846037227511405,-0.08877155858241022,0.011734130804985761
1782969661295108900,3.13510888671875,0.092569562625885,-0.06483524106927216,0.04408836724720895
1782969661305035800,3.145035888671875,0.14946926145553588,-0.0928375659123063,0.05820552073121071
1782969661314961700,3.154961669921875,0.15959961032569409,-0.10511617885753512,0.04066679530069232
1782969661324887800,3.1648876953125,0.1560527314990759,-0.09506897822618483,0.04158939003832638
1782969661334814700,3.174814697265625,0.12008768414855002,-0.0856579566065222,0.061455608568340536
1782969661344740900,3.184740966796875,0.05206745636761188,-0.07047624263092875,0.08545593122839927
1782969661354666800,3.194666748046875,-0.03677694825530052,-0.07519165378026664,0.06463884171433747
1782969661364593700,3.20459375,-0.11877017180919647,-0.07677490438371896,0.10651245552152394
1782969661374519800,3.214519775390625,-0.1475339094787836,-0.030407705484330652,0.18553316607065498
1782969661384445700,3.22444580078125,-0.1574076532393694,-0.006869958834722638,0.21869747678674756
1782969661394372600,3.23437255859375,-0.10514672012627124,-0.02893200690858066,0.20711437182500958
1782969661404298800,3.244298828125,-0.022611644780635834,-0.07712941690981388,0.1759478107973933
1782969661414225000,3.254224853515625,0.011252630898356437,-0.12845745308697223,0.1185625204078853
1782969661424151800,3.26415185546875,-0.0017038813084363936,-0.12631488810032607,0.04955605806857347
1782969661434077700,3.27407763671875,0.011858780097961425,-0.10674224568940699,-0.01814962387047708
1782969661444003800,3.28400390625,0.007532149070501327,-0.08514847271442413,-0.00799399442858994
1782969661453930800,3.2939306640625,0.023564999982714652,-0.10406425865180789,-0.0213800571590662
1782969661463856600,3.303856689453125,0.06290390768051148,-0.1188980359725654,-0.010146057895943522
1782969661473782800,3.31378271484375,0.1490934138804674,-0.13047872978150843,-0.010802695173770189
1782969661483709700,3.323709716796875,0.16021394283175466,-0.13335150873884558,-0.029027283976599573
1782969661493635800,3.3336357421875,0.15261282017827033,-0.10418182061687112,-0.042525647975131864
1782969661503561700,3.343561767578125,0.17866671436727047,-0.09721307758279144,-0.03732069974318147
1782969661513489000,3.353489013671875,0.1853705959200859,-0.0688935034841299,-0.0109128044847399
1782969661523414800,3.363414794921875,0.17241642180085182,-0.06391527668014169,0.013365093007683753
1782969661533340700,3.373340576171875,0.10832008946537972,-0.06591010375916957,0.0559452476490289
1782969661543267800,3.383267822265625,-0.02740881592929363,-0.04832293607704341,0.07243928633220494
1782969661553193700,3.39319384765625,-0.13478724063038824,-0.04659450484924018,0.08403598142787813
1782969661563119900,3.403119873046875,-0.1820803222030401,-0.03841828572154045,0.1174755288887769
1782969661573045800,3.413045654296875,-0.2450800914734602,-0.046344402545690534,0.0973585504680872
1782969661582972700,3.42297265625,-0.2063672067195177,-0.06496895045153796,0.0606985796559602
1782969661592898800,3.43289892578125,-0.08365618833005428,-0.06002718320041894,0.03903466405421495
1782969661602824700,3.44282470703125,0.07368307584822177,-0.05326368041485548,0.03614376491829753
1782969661612751600,3.452751708984375,0.16752631167173385,-0.051485345630720256,0.079580755584687
1782969661622677800,3.462677734375,0.2163105085849762,-0.031566447065398094,0.08758739029914141
1782969661632604000,3.47260400390625,0.2204535997390747,-0.042824850117415186,0.06876812353879212
1782969661642530600,3.482530517578125,0.17918460076153278,-0.026037527576088904,0.09568681786358356
1782969661652456700,3.492456787109375,0.12145078919529914,-0.04667758002281189,0.08947269258908927
1782969661662382800,3.5023828125,0.07658405798673629,-0.08265417168065906,0.046705710138753055
1782969661672309800,3.512309814453125,0.03248071236610412,-0.07504435426406562,0.03815437408834695
1782969661682235600,3.522235595703125,-0.027056933751702306,-0.0596960515499115,0.026991832626238464
1782969661692161800,3.532161865234375,-0.07650865466296672,-0.043432022230327126,0.045319078085944056
1782969661702089000,3.5420888671875,-0.05732289267778396,-0.06219283680170774,0.06249620366245508
1782969661712014600,3.5520146484375,-0.023982348611950872,-0.05986746259406209,0.049804845197871324
1782969661721940700,3.561940673828125,-0.06900456264317036,-0.02516644382998347,0.07684957705512642
1782969661731868000,3.571867919921875,-0.15068623602986334,-0.019832535456120966,0.1143485559746623
1782969661741793800,3.581793701171875,-0.15483341883718968,-0.020056115078926084,0.0979229794178158
1782969661751719700,3.5917197265625,-0.03968436013460159,-0.03992722897976637,0.05319412230998277
1782969661761646800,3.601646728515625,0.09065992961227894,-0.06087466687522828,0.0136550158649683
1782969661771572700,3.61157275390625,0.13224281684458256,-0.05320120963789522,-0.024073314831033348
1782969661781498600,3.62149853515625,0.12726093677878378,-0.03980769425332546,0.019811054276674983
1782969661791425800,3.63142578125,0.1420528477191925,-0.0335883813470602,0.04619220765866339
1782969661801351700,3.6413515625,0.13432605285942553,-0.05166720500364899,0.051229763434454796
1782969661811277800,3.65127783203125,0.07999825034439563,-0.054314358511567115,0.02851327003985643
1782969661821203700,3.66120361328125,-0.0002174421429634094,-0.04233787031807005,0.04515585034824907
1782969661831130600,3.671130615234375,0.023821020570397377,-0.049265039232745764,0.05259323380738497
1782969661841056800,3.681056884765625,0.044586745223402974,-0.06119418115317821,0.07039097550027072
1782969661850983000,3.69098291015625,0.06161971308887004,-0.029758447795361277,0.0711125677730888
1782969661860909800,3.700909912109375,0.031386487388610836,-0.015328282839432357,0.0757051562603563
1782969661870835700,3.710835693359375,-0.06670797613859177,-0.005501812286674976,0.05374233077727258
1782969661880761900,3.720761962890625,-0.0797124191403389,-0.04104081624485552,0.036516251492500304
1782969661890689000,3.73068896484375,-0.007540332376956939,-0.06525010548047722,0.004775178512558341
1782969661900614700,3.74061474609375,0.0332312384724617,-0.07213759997189044,-0.00844319950081408
1782969661910540800,3.750540771484375,0.0434744000673294,-0.056871860974654555,0.023129458109661934
1782969661920468000,3.760468017578125,0.05444295332729816,-0.05753909271173179,0.05054477684497833
1782969661930393600,3.7703935546875,0.019445874226093292,-0.041414910254254936,0.07264058105796575
1782969661940319700,3.78031982421875,-0.03489011159539222,-0.04268756053857505,0.06325600905381143
1782969661950247000,3.790246826171875,-0.027018355306982992,-0.06688347883597016,0.05584945912435651
1782969661960172800,3.8001728515625,0.04626081591546535,-0.09567593114338814,0.0741659639943391
1782969661970098700,3.8100986328125,0.09311550607085227,-0.059433528156206006,0.07353263452686369
1782969661980025900,3.82002587890625,0.04048515512347221,-0.019757935849949716,0.09623217678666114
1782969661989951700,3.82995166015625,-0.040358313873410226,-0.0032758798655122515,0.11824344452135264
1782969661999877600,3.839877685546875,-0.025494506740570067,-0.03481609651111066,0.12006539925150572
1782969662009804800,3.8498046875,0.015584522622823714,-0.06226159118898213,0.09940291577726602
1782969662019730700,3.859730712890625,0.0074298577398061744,-0.05974529751911759,0.051644043323770164
1782969662029656800,3.86965673828125,0.02888239561319351,-0.0922353622354567,0.007247852236405014
1782969662039582700,3.879582763671875,0.08451017481088638,-0.11651260214075446,0.000018047113344073295
1782969662049510000,3.889510009765625,0.08994272125363349,-0.10124437892548739,0.004777881926298141
1782969662059435800,3.899435791015625,0.08976736468672752,-0.08418065059557557,0.010268661362305283
1782969662069361400,3.909361328125,0.08946925852298736,-0.07364077107645571,0.01526632351912558
1782969662079288600,3.91928857421875,0.0025128596037626264,-0.0415071916475892,0.041131563268229365
1782969662089214500,3.92921435546875,-0.03750175539851188,-0.037249534203112125,0.04890285485684871
1782969662099140400,3.939140380859375,0.002664250773191452,-0.05974646656289696,0.08101100758351384
1782969662109067500,3.949067626953125,0.05014262578487396,-0.056706075953692196,0.08245273082442581
1782969662118993400,3.958993408203125,0.08242401618659496,-0.06394274920895696,0.08563983642794191
1782969662128919600,3.96891943359375,0.061056233987212175,-0.06304667715206742,0.0706616091351956
1782969662138844400,3.978844482421875,0.01844458822906017,-0.05705605843514204,0.03339687736295163
1782969662148770600,3.9887705078125,-0.02641103706359863,-0.07720167842842637,0.004708396886661649
1782969662158697700,3.99869775390625,-0.0008387889117002486,-0.09640862933211028,0.015396452704817055
1782969662168623400,4.008623291015625,0.018570844957232473,-0.09200973678603767,0.04218655221387744
1782969662178549500,4.018549560546875,0.03898293386697769,-0.09027896747067571,0.061242915665730834
1782969662188476700,4.0284765625,0.006399345648288726,-0.08137823346070945,0.07214607553929091
1782969662198402300,4.03840234375,-0.038190906706452366,-0.061490241490304465,0.08676058408617973
1782969662208328400,4.048328369140625,-0.017114216408133504,-0.05689188084937632,0.07377740306816995
1782969662218255600,4.058255615234375,0.03888064253628254,-0.03125628513768315,0.08236541786715387
1782969662228181500,4.068181396484375,0.07324877608418465,-0.011531959296390414,0.10502945042215286
1782969662238107400,4.078107421875,0.07814063977897166,-0.003037906391173601,0.05980024257674813
1782969662248034600,4.08803466796875,0.05888590421080589,-0.05888422371037304,0.017250921465083956
1782969662257960400,4.09796044921875,0.011928922724723815,-0.07306742816790938,-0.02246770626530051
1782969662267886300,4.10788623046875,-0.006635492491722106,-0.09091120095960796,-0.02596716575361788
1782969662277813500,4.1178134765625,-0.012801029384136199,-0.10448737943470478,-0.049772331167757505
1782969662287739400,4.127739501953125,-0.032440380355715746,-0.079390493709594,-0.025155118718370794
1782969662297665500,4.13766552734375,-0.03849778069853783,-0.05127199514098465,0.026806539187207816
1782969662307592400,4.147592529296875,0.00803308432996273,-0.045425534135103224,0.053945086807757614
1782969662317518600,4.1575185546875,0.08323182543814182,-0.036325185899809,0.07710340568572283
1782969662327444500,4.167444580078125,0.1112000288158655,-0.03508008120954036,0.10446787101663649
1782969662337371600,4.17737158203125,0.13128595451116562,-0.08346015430130065,0.15262253785468638
1782969662347297500,4.187297607421875,0.11139525912702083,-0.056719739152863616,0.15090433575995266
1782969662357223400,4.197223388671875,0.028638649985194206,-0.06573050940856337,0.14829758732765913
1782969662367149600,4.207149658203125,-0.026896190232038496,-0.053480318840220566,0.17271986172683537
1782969662377076500,4.217076416015625,-0.015505612167716025,-0.029634163828566668,0.15940525679737327
1782969662387002400,4.22700244140625,-0.0005494505763053894,-0.04400938372686505,0.10425020967796444
1782969662396928500,4.236928466796875,0.026839491608738896,-0.0872194337695837,0.06408055024445057
1782969662406855700,4.246855712890625,-0.0011976853519678114,-0.08205554820038377,0.027459596268460153
1782969662416781300,4.25678125,-0.067595280367136,-0.08956322041675448,0.04213445670045912
1782969662426707500,4.26670751953125,-0.11628186212480067,-0.06501629672460257,0.08458740476556122
1782969662436634600,4.276634521484375,-0.136658295199275,-0.04692505197785794,0.05873487836755812
1782969662446560300,4.286560302734375,-0.04887947398126125,-0.060217079749330875,0.0766921214710921
1782969662456486400,4.296486328125,0.06689151601195335,-0.060500061409175396,0.08683233414813876
1782969662466413600,4.30641357421875,0.1462315947085619,-0.048073710556328295,0.07408515384308993
1782969662476339500,4.31633935546875,0.1640431457310915,-0.04109013527929783,0.059785118072852486
1782969662486265300,4.326265380859375,0.14933189881145953,-0.02816569871120155,0.056933674164488905
1782969662496192500,4.336192626953125,0.13277882341742514,-0.06798917505554855,0.07410290869548916
1782969662506118700,4.34611865234375,0.15542729307711123,-0.10531257821246981,0.06728446085229516
1782969662516047400,4.35604736328125,0.12545827127099035,-0.13268902624212206,-0.02497530517205596
1782969662525973500,4.365973388671875,0.004637596672773361,-0.14120141852162776,-0.02568367263711989
1782969662535899400,4.3758994140625,-0.0848141261935234,-0.10005546140186489,0.09618081192560493
1782969662545826600,4.38582666015625,-0.10409750333428382,-0.047135699053853744,0.09120053929500281
1782969662555752400,4.39575244140625,-0.10147416909337043,-0.029729952353239057,0.057004547443613406
1782969662565678600,4.4056787109375,-0.11681143895685672,-0.03283193695656955,0.12683518564738333
1782969662575605500,4.41560546875,-0.05544248575866222,-0.02148870516531169,0.15744477037936447
1782969662585531400,4.425531494140625,0.03487900567948818,-0.020056918796524405,0.08176226434223353
1782969662595457500,4.43545751953125,0.04379997875988483,-0.019447627791762352,0.09236403011642395
1782969662605383400,4.445383544921875,0.048538113197684286,-0.02891410592570901,0.07392265675775707
1782969662615310300,4.455310302734375,0.023088614642620086,-0.016708412086218594,0.02549932904615998
1782969662625236500,4.465236572265625,-0.02313888352513313,-0.028015403520315885,0.015160013600438832
1782969662635162600,4.47516259765625,0.04468436037898063,-0.04225362610071897,0.004053074783086776
1782969662645089300,4.48508935546875,0.15172434690594672,-0.0821123929541558,0.051097369226440786
1782969662655015400,4.495015380859375,0.23689853858351706,-0.10565035879947245,0.07806772067323327
1782969662664941600,4.504941650390625,0.24145956288874149,-0.0739262369543314,0.12412322327494621
1782969662674868500,4.514868408203125,0.16993395733535288,-0.05400361206196248,0.13461962897852062
1782969662684794400,4.52479443359375,0.06952712521255015,-0.057624432907626026,0.14926372894607484
1782969662694720500,4.534720458984375,-0.0029629414588212967,-0.061072162208706135,0.13610986753627657
1782969662704647400,4.5446474609375,-0.07438157950639725,-0.04406162537075579,0.11664506941400468
1782969662714573300,4.5545732421875,-0.1733656853497028,-0.05527392425872385,0.07284552904553711
1782969662724499500,4.56449951171875,-0.19270576111376284,-0.10616188851818442,0.019096549331769345
1782969662734426600,4.574426513671875,-0.11092530352771282,-0.1262754328727722,0.005147811217233538
1782969662744352500,4.5843525390625,0.01835924803316593,-0.07695347582101822,-0.0043932665228843685
1782969662754278400,4.5942783203125,0.09010638738274573,-0.06599851269498468,0.009150470987334847
1782969662764205600,4.60420556640625,0.1955132197499275,-0.05737681482210755,0.028122736352309583
1782969662774131500,4.61413134765625,0.24492986934781072,-0.04125920823588967,0.0335451997924596
1782969662784057300,4.624057373046875,0.16736790623962877,-0.014918825255706905,0.05408252251707017
1782969662793984500,4.633984619140625,0.07813187195062637,-0.009024871846288442,0.0572859947334975
1782969662803910400,4.643910400390625,0.01758592557311058,-0.05786087201200425,0.02400770224891603
1782969662813836500,4.65383642578125,-0.04703472289741039,-0.08764547716192901,-0.02685293561220169
1782969662823763700,4.663763671875,-0.10484510683119297,-0.08612542798779904,-0.01351297704577446
1782969662833689300,4.673689453125,-0.056931263011693954,-0.09056224139146506,0.025353052443265914
1782969662843615500,4.683615478515625,0.002792261067032814,-0.06728672587461769,0.04594298213794827
1782969662853542700,4.693542724609375,0.032249241697788235,-0.06797244311645627,0.0423112015068531
1782969662863468300,4.70346826171875,0.00587502951323986,-0.058704264033585786,0.0352592371687293
1782969662873394400,4.71339453125,-0.037541502887010574,-0.04934913731962442,-0.0025339023917913435
1782969662883320600,4.723320556640625,-0.03700783440172672,-0.07584792573191225,0.0021545476853847504
1782969662893247500,4.73324755859375,0.0013695347875356673,-0.1135445461153984,-0.008166574516519904
1782969662903173400,4.74317333984375,0.056090720534324644,-0.13229476622752845,-0.02077916865646839
1782969662913099500,4.753099609375,0.05702770912349224,-0.12002097558788954,-0.04927694886624813
1782969662923026700,4.763026611328125,0.08189093222320079,-0.07782258680574596,-0.021129224203154443
1782969662932952300,4.772952392578125,0.1468628783494234,-0.01981141960285604,-0.11007584709152579
1782969662942878500,4.78287841796875,0.19158289456367492,-0.039738501474633814,-0.09311667511463165
1782969662952805600,4.7928056640625,-0.02505786888897419,-0.13155088905766604,0.2855895042553544
1782969662962731500,4.8027314453125,0.06564648438692093,-0.019699191400036214,0.10246551821827887
1782969662972657400,4.812657470703125,0.020135025534033773,0.00278305484727025,0.070928954834491
1782969662982584600,4.82258447265625,0.012809212690591812,-0.09395064172074198,0.07245083063952625
1782969662992510500,4.832510498046875,0.05526712919175625,-0.10923084763474762,0.043005686577036975
1782969663002436400,4.842436279296875,0.004758592703938484,-0.1332106389634311,0.1216051029741764
1782969663012363500,4.852363525390625,0.00908405468761921,-0.11491671125143765,0.10592910267561674
1782969663022289400,4.862289306640625,-0.08604629833698273,-0.09121632138602435,0.06563019083924591
1782969663032215600,4.872215576171875,-0.10520166518390178,-0.08426262979060412,0.09594305764697492
1782969663042142500,4.882142578125,-0.040438393372297286,-0.0819625361546874,0.10740209783762693
1782969663052068400,4.892068359375,0.041129298245906824,-0.05969722059369087,0.09203516348823905
1782969663061994500,4.901994384765625,0.08112871567904949,-0.05671608589105308,0.08642039234638213
1782969663071922200,4.911922119140625,0.09671031569242478,-0.05140848100222647,0.07316511638872325
1782969663081847800,4.921847900390625,0.12250351311862467,-0.08538067403510212,0.06415222724117338
1782969663091774000,4.93177392578125,0.059330140846967694,-0.07555347282998263,0.029671719359979032
1782969663101700000,4.9417001953125,-0.12887480171620844,-0.049493368095904586,-0.0300070157289505
1782969663111627000,4.951626953125,-0.12370236751437186,-0.08508775550313294,-0.037488603655993935
1782969663121553000,4.961552978515625,0.03515431548953056,-0.09232669378072023,0.01394727680981159
1782969663131479000,4.97147900390625,0.1347077456533909,-0.06846300311237573,0.06459069172367453
1782969663141406000,4.981406005859375,0.06756780783832073,0.003259659383073449,0.10263407971821725
1782969663151331800,4.991331787109375,0.026308161211013793,0.006392915907502174,0.11376944091245532
1782969663161258000,5.001258056640625,0.10317746587991714,-0.04839950844459236,0.12932356839701534
1782969663171185000,5.011184814453125,0.18738661191761494,-0.08458630878701806,0.07941175569333135
1782969663181111000,5.021111083984375,0.14162497769594193,-0.07745148847103119,0.05899944758787751
1782969663191037000,5.031036865234375,-0.03567220188379287,-0.026140330363437533,0.06995046519115566
1782969663200964000,5.040964111328125,-0.13274433662593363,-0.007500584888458252,0.05371091272570192
1782969663210890000,5.050889892578125,-0.03820551975369453,-0.08056815918684006,0.036418709402158855
1782969663220816000,5.06081591796875,0.06789864722788333,-0.14325089839734137,-0.0002728986572474241
1782969663230743000,5.070742919921875,0.11633563813865185,-0.11774915819838642,-0.029175971732288596
1782969663240669000,5.0806689453125,0.15934709686934947,-0.10209113194793462,-0.042707872674241656
1782969663250595000,5.090594970703125,0.12864859174489973,-0.03751461488008499,-0.013398337690159677
1782969663260522000,5.10052197265625,0.07014204224050044,-0.014735212317109107,0.039926059935986996
1782969663270447900,5.11044775390625,-0.014283961418271063,0.010141820112243294,0.058651145606860515
1782969663280374000,5.1203740234375,-0.05523965666294098,-0.02925875464491546,0.08329203119277953
1782969663290300000,5.1302998046875,-0.0367167425006628,-0.0769081753745675,0.06428403692729771
1782969663300226800,5.140226806640625,0.016368950998783112,-0.0731991647887975,0.047814621228724714
1782969663310153000,5.150153076171875,0.01626958227753639,-0.06777589763104916,0.05310680935271084
1782969663320079000,5.1600791015625,-0.035488662010431285,-0.07740845304690301,0.10136785917468369
1782969663330005800,5.170005859375,-0.017314707416296003,-0.055825420661643144,0.1149859040301293
1782969663339932000,5.179931884765625,0.07557225059568881,-0.05632869400866329,0.13801160950437188
1782969663349858000,5.189858154296875,0.1552069283246994,-0.09642937985919416,0.13362272689566015
1782969663359785000,5.199784912109375,0.13079320255815982,-0.08647643338255584,0.1153092177003622
1782969663369710800,5.2097109375,0.09282850582301616,-0.0938407516054809,0.07281367260254919
1782969663379637000,5.219636962890625,0.07850128978490829,-0.08596979903466999,0.04614325395040214
1782969663389564200,5.229564208984375,0.05611702401936054,-0.08505816408246755,0.06792801945284009
1782969663399489800,5.23948974609375,0.019042554122209548,-0.07612615815140307,0.06773951114341616
1782969663409416000,5.249416015625,-0.03213935158252716,-0.06611022944115102,0.07138195929899811
1782969663419343000,5.259343017578125,-0.04997311443686485,-0.0601936258085072,0.09083236356973648
1782969663429269000,5.26926904296875,-0.06697685620784759,-0.0624713614821434,0.0990679116692394
1782969663439195000,5.27919482421875,-0.07345920396447181,-0.06184482708163559,0.09671513799801468
1782969663449122000,5.2891220703125,-0.06818097130060195,-0.08953823210597038,0.07026734912060201
1782969663459048000,5.2990478515625,-0.0059796589314937585,-0.08278634669296443,0.04720701072439551
1782969663468973800,5.308973876953125,0.08904548015296458,-0.0786215551637113,0.058573696456477045
1782969663478901000,5.31890087890625,0.13865268388688565,-0.08517404554709791,0.08085479410849511
1782969663488827000,5.328826904296875,0.13397767781317232,-0.06169679691307246,0.11707220878489315
1782969663498753000,5.3387529296875,0.13463175780773162,-0.05813267469070851,0.14810272234268484
1782969663508680200,5.34868017578125,0.13592472022771834,-0.04353066029921174,0.16563085331395266
1782969663518605800,5.358605712890625,0.10610358245968818,-0.07082819787375629,0.14925554563961924
1782969663528532000,5.368531982421875,0.0695557667851448,-0.08824716938212514,0.1157555001631379
1782969663538458000,5.3784580078125,0.027598201021552086,-0.10197912294082342,0.09268851283043622
1782969663548385000,5.388385009765625,-0.04689969834089279,-0.1096938620366156,0.04656915121227503
1782969663558311000,5.398310791015625,-0.10531798503994941,-0.12066241529658436,0.00131027888096869
1782969663568237000,5.408237060546875,-0.07592647086083888,-0.12505977347269653,-0.007301993576437234
1782969663578164200,5.418164306640625,-0.005398059651255607,-0.12815467074811457,0.013152107844129204
1782969663588089900,5.42808984375,0.022225275811553,-0.10949958157353103,0.022805194591358303
1782969663598016000,5.43801611328125,0.009461655828356742,-0.08134652314819395,0.029958427346870303
1782969663607943200,5.447943115234375,0.03258826439380646,-0.06950031027086079,0.06684029728136956
1782969663617868800,5.457868896484375,0.05783201124370098,-0.05934848022125661,0.08723331616446375
1782969663627795000,5.467794921875,0.018001520636677742,-0.016866525257378816,0.1412649852771312
1782969663637722000,5.47772216796875,0.00760696787238121,-0.007007248413562774,0.14650953486710785
1782969663647648000,5.48764794921875,0.021127543702721595,-0.06113287941999733,0.0985630308870226
1782969663657574000,5.497573974609375,0.03228840466439724,-0.09323452934063971,0.046963922683522105
1782969663667501000,5.5075009765625,0.05013794960975647,-0.07962086839936673,0.04457300895899534
1782969663677427000,5.517427001953125,0.027554946401715276,-0.0834983674198389,0.05548603263944387
1782969663687352800,5.527352783203125,0.008388473638892174,-0.08055120805203914,0.031240795307606456
1782969663697280000,5.537280029296875,0.006789221748709678,-0.068751099338755,0.01873224606402218
1782969663707206000,5.547205810546875,0.0017804536759853363,-0.027794673441722987,0.043768560708314176
1782969663717132000,5.557132080078125,0.04633972637057304,-0.03473557862080633,0.07275514734834432
1782969663727058000,5.567057861328125,0.09839373873472212,-0.041291722266003486,0.0649179509166628
1782969663736985000,5.576985107421875,0.12100187638401984,-0.04845423430651426,0.03475874030068517
1782969663746911000,5.586910888671875,0.09217091869711876,-0.046488194930553436,0.029834435641020535
1782969663756836900,5.5968369140625,0.058446928271651266,-0.052493207499012345,0.03481872685961425
1782969663766764000,5.606763916015625,0.0444721789330244,-0.06787190535143017,0.04784837736785411
1782969663776690000,5.61668994140625,0.003242342922091484,-0.04966112587824464,0.06459843663871288
1782969663786616000,5.626615966796875,0.005399813216924667,-0.0713839320603758,0.0858915461666882
1782969663796543000,5.63654296875,0.025354806008934975,-0.07292363578304648,0.0800756994947791
1782969663806468900,5.64646875,0.052309448429942125,-0.06835501269325614,0.061473363420739766
1782969663816395000,5.65639501953125,0.03401800493597984,-0.06505480210408568,0.0652142304494977
1782969663826322200,5.666322265625,0.001373041918873787,-0.04729980357438326,0.050324192896857856
1782969663836247800,5.676247802734375,-0.03215688723921776,-0.040157749800011515,0.05516337655633688
1782969663846174000,5.686174072265625,-0.03849485808908939,-0.044074411787092684,0.04676123971827328
1782969663856101000,5.69610107421875,-0.03361643839776516,-0.06157580088190734,0.017428616119548677
1782969663866026800,5.70602685546875,0.007806289836764335,-0.0898901142835617,0.002165799731761217
1782969663875953000,5.715952880859375,0.08111176454424858,-0.09982457525543868,0.03204012899175286
1782969663885880000,5.725880126953125,0.10849719959795474,-0.079571403234452,0.041723976203426716
1782969663895806000,5.735805908203125,0.08201835799515247,-0.06112338093928992,0.03026362083852291
1782969663905731800,5.74573193359375,0.04987199214994907,-0.03778364107981324,0.025683161180466412
1782969663915659000,5.755658935546875,0.05530103146135807,-0.032692163159698244,0.029312311463057992
1782969663925585200,5.765585205078125,0.02124678616821766,-0.0208696964841336,0.03867795957103371
1782969663935511000,5.775510986328125,-0.022421675166487694,-0.014507248780131338,0.04101648552119732
1782969663945437000,5.78543701171875,-0.007974047619104386,-0.034121173049509526,0.06400273576788604
1782969663955364000,5.795364013671875,-0.0007183774024248123,-0.03509345214776695,0.08491079150103033
1782969663965290000,5.8052900390625,-0.017289572975039483,-0.04386237647160887,0.05500672468990087
1782969663975215900,5.8152158203125,-0.011402268502116203,-0.050601037076860665,0.05885024837553501
1782969663985143000,5.82514306640625,-0.0011702128231525421,-0.0481358890723437,0.05641900264061987
1782969663995069000,5.83506884765625,0.042786417803168296,-0.04819412206560373,0.010122457824647426
1782969664004995000,5.8449951171875,0.050420858204364774,-0.0403446506742388,-0.0037982232391834255
1782969664014922000,5.854921875,0.06231997031271457,-0.052331294935569164,-0.019772987288609146
1782969664024848000,5.864847900390625,0.05184533804953098,-0.04399513600580394,-0.04875044077411294
1782969664034774000,5.87477392578125,0.057636196410655975,-0.05091346402689814,0.006223185363784432
1782969664044701200,5.884701171875,0.05752747533917427,-0.0640854456152767,0.0672226476624608
1782969664054626800,5.894626708984375,0.012462591210007666,-0.050597822206467385,0.031611309120431544
1782969664064553000,5.904552978515625,-0.025614918249845502,-0.09231785288713872,0.0020103169091045857
1782969664074480400,5.91448046875,-0.06300210735797881,-0.09203136409595608,-0.02769713135138154
1782969664084406300,5.92440625,0.0014876082092523575,-0.10391820124462246,-0.04150792229995131
1782969664094332400,5.93433251953125,0.0694821170270443,-0.10592676458805798,-0.007653437362611293
1782969664104259300,5.94425927734375,0.0824964969009161,-0.07499649653434753,0.04232172290086746
1782969664114185200,5.954185302734375,0.1031482397854328,-0.0646538931529969,0.12014927814267574
1782969664124111400,5.964111328125,0.09733458507061005,-0.06653108520172536,0.13201258828528226
1782969664134038500,5.97403857421875,0.12450199345946311,-0.08115553062073885,0.11975348375812173
1782969664143964400,5.98396435546875,0.10175064794719219,-0.1064850560579449,0.10871405721902846
1782969664153890300,5.993890380859375,0.019431845700740812,-0.10093648202009499,0.10057758557982742
1782969664163816400,6.00381640625,-0.03957563906311989,-0.09048194269686936,0.07980455440320074
1782969664173743400,6.013743408203125,-0.07770692453682422,-0.08357486672215163,0.03882577054388821
1782969664183669200,6.023669189453125,-0.10589140101373196,-0.07958068251945077,0.0538383384976536
1782969664193595400,6.033595458984375,-0.08313421028256415,-0.10801584582179784,0.05086129544824362
1782969664203522600,6.0435224609375,-0.026456629770994184,-0.12207549696490168,0.02159238473549485
1782969664213448200,6.0534482421875,-0.007210077509284019,-0.10141747047007084,0.017254574726894498
1782969664223374300,6.063374267578125,-0.03081950115561485,-0.0582770515974611,0.03821494516916573
1782969664233301500,6.073301513671875,-0.029165304207801817,-0.04270261197723448,0.058736485802754757
1782969664243227400,6.083227294921875,-0.003505377772450447,-0.05005290167480707,0.04538673649467528
1782969664253153300,6.0931533203125,0.045432548397779465,-0.05870068383701145,0.021809096226096152
1782969664263080400,6.10308056640625,0.08526128543913364,-0.06411474477499723,0.028753873862698672
1782969664273006300,6.11300634765625,0.11640461172163485,-0.0859563550312072,0.04978804019354283
1782969664282932200,6.12293212890625,0.08095452815592288,-0.10254260204248129,0.03913140242695808
1782969664292859400,6.132859375,0.05030804547965526,-0.09071852793172001,0.014260945868864654
1782969664302785300,6.142785400390625,0.03623685002923011,-0.11355674800984561,0.028014892063662408
1782969664312711400,6.15271142578125,0.0031482348978519436,-0.0728062930136919,0.02875372773222625
1782969664322638300,6.162638427734375,-0.015618424892425537,-0.07272234105728566,0.0028474253203719852
1782969664332564500,6.172564453125,-0.014445873981714248,-0.08356193417534231,0.03430741633661091
1782969664342490400,6.182490478515625,-0.004538227951526642,-0.04987045777998864,0.041001361017301674
1782969664352416300,6.192416259765625,0.06091244160234928,-0.056977367175742984,0.08354322947487235
1782969664362343400,6.202343505859375,0.07994798146188259,-0.05759601053074002,0.1162955983892083
1782969664372269300,6.212269287109375,0.02021978120803833,-0.049210970957949754,0.1153328908368945
1782969664382195500,6.222195556640625,-0.02668167069852352,-0.062267801734060046,0.058009413637220855
1782969664392122400,6.232122314453125,-0.029347090515494344,-0.07948730514757335,0.025209113927930592
1782969664402048300,6.24204833984375,-0.051148003435134884,-0.07505341435335576,0.0563030481107533
1782969664411974400,6.251974365234375,-0.019848609808087347,-0.0506364006511867,0.060157677712291475
1782969664421901600,6.261901611328125,0.021045710638165474,-0.04133410010300576,0.04047872538268566
1782969664431827200,6.2718271484375,0.03602349953949451,-0.04320917325988412,0.00819375478439033
1782969664441753300,6.28175341796875,0.030530162820219992,-0.0505101439230144,-0.02032097656019032
1782969664451680500,6.291680419921875,0.06862286984920501,-0.04541464741490781,0.0013212386664003134
1782969664461606100,6.301606201171875,0.05855623386502266,-0.04942059512063861,0.03838774445280432
1782969664471532300,6.3115322265625,0.004615384840965271,-0.029143676897883414,0.03817987385578454
1782969664481459500,6.32145947265625,-0.02751169178187847,-0.03333637934736907,0.05651902894899249
1782969664491385300,6.33138525390625,0.022376082459092138,-0.05022263221852481,0.06958915759809314
1782969664501311200,6.341311279296875,0.079480948472023,-0.038182650334760544,0.08852657084539532
1782969664511238400,6.35123828125,0.07613222256600856,-0.04395078540742397,0.08517053841575979
1782969664521164500,6.36116455078125,0.030461189237236976,-0.03698226156905293,0.0764457454945892
1782969664531090200,6.371090087890625,-0.018798808494210242,-0.03357800608351826,0.07874583913050591
1782969664541017300,6.381017333984375,-0.013724573969841003,-0.05643325036168098,0.07107018993608653
1782969664550943500,6.390943603515625,0.0199421333104372,-0.06524893643669784,0.07467676306068897
1782969664560869400,6.400869384765625,0.061946460825204844,-0.06109503162764012,0.0846048673570156
1782969664570795300,6.410795166015625,0.021931261301040648,-0.07332929397448897,0.07699921465888619
1782969664580722400,6.420722412109375,0.02201309436559677,-0.0771552089381963,0.02393777881786227
1782969664590648300,6.4306484375,-0.005109305837750435,-0.06797543879114092,-0.012071107674390076
1782969664600574200,6.44057421875,-0.02072071646749973,-0.0576147882964462,-0.006196808813512325
1782969664610501400,6.45050146484375,0.008253449082374572,-0.029054171983525154,0.05052914088442921
1782969664620427300,6.46042724609375,0.011956395253539085,-0.008384089724719523,0.07904452981613576
1782969664630353400,6.470353515625,0.0275800808429718,-0.013713979510590434,0.08620178115963935
1782969664640280600,6.480280517578125,0.051984454259276384,-0.025171558396518228,0.05570267106480896
1782969664650206200,6.490206298828125,0.08808452616631984,-0.04748078616447746,0.02682268660441041
1782969664660132400,6.50013232421875,0.047426352563500404,-0.07283719960860907,-0.01837612610273063
1782969664670059500,6.5100595703125,0.05704582930207252,-0.07659501777216791,0.007310980600491165
1782969664679985400,6.5199853515625,0.066118193551898,-0.09016257454939186,0.05483246410153806
1782969664689911300,6.529911376953125,0.03469546580612659,-0.058475642909482116,0.05859210889600217
1782969664699838500,6.53983837890625,0.019637597405910492,-0.02721965003274381,0.07538155032917856
1782969664709764600,6.5497646484375,0.03571779459118843,-0.04161430528387427,0.10625336619392037
1782969664719690200,6.559690185546875,0.08276829957962036,-0.05826565342061221,0.1322526075862348
1782969664729617400,6.569617431640625,0.09696399819254875,-0.06725019325651228,0.10284231564141809
1782969664739543600,6.57954345703125,0.054444122371077534,-0.06851151842921972,0.07068002157472074
1782969664749469200,6.58946923828125,0.000263034850358963,-0.08633607506379484,-0.005937646420672535
1782969664759395300,6.599395263671875,-0.01784779137969017,-0.10596775418557226,-0.03638758361153304
1782969664769322500,6.609322509765625,0.00926701003909111,-0.11219663863778113,-0.027487141862511635
1782969664779248400,6.619248291015625,0.05439911418557167,-0.08232157872542739,-0.020764409478753805
1782969664789174300,6.62917431640625,0.07259878774285317,-0.04734912260882556,0.011516907857730983
1782969664799101400,6.639101318359375,0.033873628029227255,-0.03627878947481513,0.0441170818850398
1782969664809027300,6.64902734375,-0.024392682978510855,-0.03465016535967588,0.07436791630722582
1782969664818953200,6.658953125,-0.06927110462486744,-0.03348850116916001,0.056245180443674325
1782969664828880400,6.66888037109375,-0.07260814009308815,-0.009974719917029142,0.07398783094845712
1782969664838806300,6.67880615234375,-0.08318623273074627,-0.01893639033399522,0.07379106626734137
1782969664848732400,6.688732421875,-0.002905658313632011,-0.03142411598525941,0.02324702007472515
1782969664858659300,6.698659423828125,0.047809214401245116,-0.07357537769004702,-0.003680880469828844
1782969664868585500,6.70858544921875,0.11473755529224872,-0.09795615103505552,0.01736030012369156
1782969664878511400,6.718511474609375,0.1506190160125494,-0.0963737041492015,0.048276978043466805
1782969664888438500,6.7284384765625,0.12639525986015795,-0.08954553862959146,0.05578150845468044
1782969664898364400,6.738364501953125,0.07378361361324787,-0.07141958789564669,0.09432648929581046
1782969664908290300,6.748290283203125,0.046585225564241405,-0.09422244439944624,0.1182519200887531
1782969664918217500,6.758217529296875,-0.016990882289409637,-0.11317542054206133,0.11395656098239124
1782969664928143400,6.768143310546875,-0.050073652201890945,-0.07766082037277519,0.1266075143713504
1782969664938069200,6.7780693359375,-0.06049626201689243,-0.06677490389496088,0.13769238748736679
1782969664947996400,6.787996337890625,-0.059601943525671955,-0.08064641205482184,0.11156900825873017
1782969664957922600,6.797922607421875,-0.06264730257093906,-0.0692633597098291,0.10260302699282765
1782969664967848200,6.80784814453125,-0.07490414207577704,-0.040807738141342996,0.12067534784339368
1782969664977774300,6.8177744140625,-0.06932254255115985,-0.054265916259959336,0.0873025089431554
1782969664987701500,6.827701416015625,-0.06509937189817429,-0.09540230183377861,-0.002677475580945611
1782969664997627100,6.837627197265625,0.013885317489504813,-0.07161079961881041,-0.036327743183076376
1782969665007553300,6.84755322265625,0.1530284152418375,-0.07717756690047681,-0.03008453794457018
1782969665017480400,6.85748046875,0.22223346889317033,-0.05627148392871022,0.0021606120999902484
1782969665027406300,6.86740625,0.19563772291243076,-0.02928798073939979,0.037299803085625166
1782969665037332200,6.877332275390625,0.1310720194995403,-0.032449878836423154,0.05551116708070039
1782969665047259400,6.88725927734375,0.08776771530210971,-0.04638320018611848,0.0909554784927517
1782969665057185500,6.897185546875,0.008359832066297531,-0.03718647890426218,0.09096994540952145
1782969665067111200,6.907111083984375,-0.03726736212074756,-0.06146876031085848,0.04643135017678141
1782969665077037600,6.91703759765625,-0.06587912409901618,-0.06664221742600202,0.07689407378397882
1782969665086963700,6.926963623046875,-0.10205576837360858,-0.05150909183248877,0.07009140803180634
1782969665096889900,6.936889892578125,-0.06930968306958675,-0.05654167917221784,0.0710531657360494
1782969665106816800,6.946816650390625,-0.015483984857797622,-0.057714814604818816,0.08899608805328607
1782969665116742700,6.95674267578125,-0.00043429976403713225,-0.049040436696633695,0.106861122828722
1782969665126668800,6.966668701171875,0.06194353821575641,-0.032061610171198844,0.09353906524516642
1782969665136594700,6.9765947265625,0.09296820655465125,-0.04176175093054771,0.08072057326957582
1782969665146521600,6.986521484375,0.09138824388682841,-0.05573796157389879,0.03984261943623423
1782969665156447700,6.99644775390625,0.07341711838841437,-0.06819163882508873,-0.00895545987188816
1782969665166373600,7.00637353515625,0.0872147575944662,-0.08191847781725227,-0.026550591664761303
1782969665176300800,7.01630078125,0.07752981440424919,-0.06571567716561258,0.04119783343747258
1782969665186226700,7.026226806640625,0.03577449321448803,-0.049031888063997026,0.07229900107868015
1782969665196152600,7.036152587890625,-0.046893853121995926,-0.03862162627391517,0.07064429267421364
1782969665206079700,7.046079833984375,-0.10885375795066356,-0.04305573626384139,0.10016535151712595
1782969665216005600,7.056005615234375,-0.08305939148068428,-0.048455184154585,0.07688523289039731
1782969665225931500,7.065931640625,-0.07476561038792133,-0.044058118239417667,0.04315737000741064
1782969665235858700,7.075858642578125,-0.07176993570327758,-0.021036942809820176,0.06517499441765248
1782969665245784800,7.085784912109375,-0.05400222382247448,-0.06431450513079762,0.03718384855575859
1782969665255710700,7.095710693359375,-0.02784720734655857,-0.06692308019399643,0.04726275949962437
1782969665265637600,7.1056376953125,0.0028209026396274566,-0.046592897414043544,0.08143975438959897
1782969665275563800,7.115563720703125,0.0838081640213728,-0.033262072002142665,0.05157850380688905
1782969665285489700,7.12548974609375,0.1425935304671526,-0.06158274207934737,0.017558891435712574
1782969665295416600,7.13541650390625,0.1644739383637905,-0.052135918493941426,0.0032983839582651853
1782969665305342700,7.1453427734375,0.12748597770631312,-0.07331102766543626,0.010689663253352046
1782969665315268900,7.155268798828125,0.13385200560688973,-0.07176072948351502,-0.04494286518469453
1782969665325194500,7.165194580078125,0.09450257651507854,-0.06519822916276753,0.0009507979188114404
1782969665335121700,7.17512158203125,0.023545710760354995,-0.058268502964824435,0.012533245293423532
1782969665345047800,7.1850478515625,-0.02934650599360466,-0.08239047924317419,-0.061812313051521774
1782969665354973400,7.194973388671875,-0.08777882121801375,-0.0966862772297114,-0.06383819285593927
1782969665364900600,7.204900634765625,-0.13760931231379508,-0.12412351553589104,0.041155017209053034
1782969665374826800,7.21482666015625,-0.1325625503182411,-0.09975735523812472,-0.0024372370842844246
1782969665384752600,7.224752685546875,-0.04227963732481003,-0.05834719422422349,-0.04816197336167097
1782969665394679600,7.234679443359375,0.009262333863973618,-0.00048442251607775684,0.07276062724106014
1782969665404605700,7.244605712890625,0.03404664650857448,0.010580722986161709,0.1650207585915923
1782969665414531600,7.254531494140625,0.0011146832436323166,0.018821093391254543,0.220324785727635
1782969665424458800,7.264458740234375,-0.0635042116612196,0.01357617847509682,0.21799838860668241
1782969665434384600,7.274384521484375,-0.08242460070848465,0.0026808365818113086,0.20405060034021735
1782969665444310800,7.284310791015625,-0.1276695175796747,0.0064433309204876416,0.18651092506162822
1782969665454237700,7.29423779296875,-0.11543430538475513,-0.014194091177731752,0.1640120199404657
1782969665464163600,7.30416357421875,-0.02208966673314571,-0.055330476751551026,0.1698096733685583
1782969665474089700,7.31408984375,0.06800386116802692,-0.0627866379763931,0.18001506023630498
1782969665484016600,7.3240166015625,0.23157880486547947,-0.10265241909250616,0.15597703591436146
1782969665493942800,7.33394287109375,0.3119505646973848,-0.18738493141718207,0.22447335677444932
1782969665503868700,7.34386865234375,0.22359540489614008,-0.10607632912658155,0.24868922188133
1782969665513794600,7.353794677734375,0.06657821227908134,-0.010131006457284092,0.22336568779349325
1782969665523721700,7.3637216796875,-0.17676409561634063,-0.012601999680697917,0.19864669547006486
1782969665533648000,7.37364794921875,-0.26664544207155705,0.00552614301033318,0.14730748031176627
1782969665543573500,7.383573486328125,-0.2651841373473406,0.036451807954162356,0.08990867285355925
1782969665553500700,7.393500732421875,-0.4675976380050182,-0.2919124236665666,0.2874778022199869
1782969665563426800,7.4034267578125,-0.2443868485122919,0.024739012198150157,-0.13952223326303065
1782969665573352400,7.4133525390625,-0.10213292526304721,0.17524667679071426,-0.38895365181379016
1782969665583279600,7.423279541015625,-0.015091186147928237,-0.1395874074537307,-0.2618636146225035
1782969665593205800,7.433205810546875,0.022727380114793777,-0.13804470805637536,-0.22471987888142464
1782969665603131600,7.443131591796875,0.0014198036700487136,-0.019081132566928862,-0.44239568447023625
1782969665613058600,7.45305859375,-0.05199848278462887,0.0069021075386554,-0.4347574446767568
1782969665622984700,7.462984619140625,-0.09160042533278465,-0.1580779537163675,-0.0021676994279026984
1782969665632910800,7.472910888671875,0.24836627353727816,-0.14553995918259025,-0.011231807306036352
1782969665642837800,7.482837646484375,0.5143880307525396,-0.09495470419675112,0.022511691537499427
1782969665652763600,7.492763671875,0.5159790993362665,-0.05465557316467166,0.03253543822802603
1782969665662689800,7.502689697265625,0.4910550859600305,-0.007187719547003507,0.06690393710210919
1782969665672616700,7.51261669921875,0.38571430456638334,-0.03068359981626272,0.43114239598475396
1782969665682542600,7.52254248046875,0.4471154064685106,-0.04613602049201727,0.3920769714660942
1782969665692468700,7.53246875,0.13121990353763102,0.02109773308634758,0.26046784941516815
1782969665702394600,7.54239453125,-0.17397008098363875,0.03620017128065228,0.17986681087203324
1782969665712321800,7.55232177734375,-0.22390344793200492,0.04907485042288899,-0.009028378977626561
1782969665722247700,7.56224755859375,-0.32096389223635197,-0.041079613885283466,0.294761383356899
1782969665732173600,7.572173583984375,-0.22230419604182242,-0.15750044608935712,0.3777528972331434
1782969665742100700,7.582100830078125,-0.20870821688771246,-0.07307911860570311,-0.0053512248348444695
1782969665752026600,7.592026611328125,-0.09348667747080326,-0.11372048720419406,0.18931750691495836
1782969665761952500,7.601952392578125,0.024173487269878387,-0.21682737206593156,0.23347104835286736
1782969665771879700,7.611879638671875,0.025304537126421927,-0.09885814137607812,0.1947753339294344
1782969665781805800,7.621805908203125,0.024404957938194274,-0.0003721943132579326,0.17777948320396245
1782969665791731700,7.631731689453125,0.012781740161776542,0.039469986731559034,0.23067425724118948
1782969665801658600,7.64165869140625,-0.05309972202479839,0.06174976920932531,0.23118439872041344
1782969665811584800,7.651584716796875,-0.08155600118041038,0.061112932610511775,0.11218743241801857
1782969665821510700,7.6615107421875,0.03236322346627712,0.007354746676981449,0.08368117664083838
1782969665831437600,7.6714375,0.052341012611985205,-0.09843319396227597,-0.026878727640584108
1782969665841363700,7.68136376953125,0.03107610626518726,-0.07976751032844186,-0.1427962134324014
1782969665851289900,7.691289794921875,-0.06936287456154823,-0.030327918246388433,-0.2810468923896551
1782969665861216500,7.701216552734375,-0.06697042646706104,-0.07190685995593667,-0.23062603418529032
1782969665871142700,7.711142578125,0.0010690905362367629,-0.11827771211713552,-0.1293063980665058
1782969665881068800,7.72106884765625,0.13276654845774172,-0.0688921883098781,0.09681859837248921
1782969665890994400,7.730994384765625,0.2672539293587208,-0.03666150518208742,0.24094576814770696
1782969665900921600,7.740921630859375,0.2461030047804117,-0.07293138069808483,0.1593332144744694
1782969665910847700,7.75084765625,0.22584698321521282,-0.0904828194797039,0.12860467953793703
1782969665920773600,7.760773681640625,0.15871815131604672,-0.08347820141464471,-0.049419572207331654
1782969665930700800,7.77070068359375,0.14112579600214958,-0.040041941400617356,-0.16985329331457613
1782969665940626700,7.780626708984375,0.12035130352079867,-0.019983488234132527,-0.061920668796822426
1782969665950552600,7.790552490234375,0.11586918967068195,0.024263357510417697,0.13488091026321053
1782969665960479700,7.800479736328125,-0.1543827524602413,0.04859729603901505,0.006219020645320415
1782969665970405600,7.810405517578125,-0.18619944795966148,-0.10355419023782014,0.11603621680065988
1782969665980331800,7.820331787109375,-0.01671323439180851,-0.24833032544106243,-0.1085063327524811
1782969665990258700,7.8302587890625,0.0936240401148796,-0.059599313177168364,-0.20748283981122076
1782969666000184800,7.840184814453125,0.06920388460755347,0.02511149877235293,-0.3039359658721834
1782969666010110700,7.85011083984375,0.058277416923642154,0.030836598420888185,-0.02523636726103723
1782969666020037600,7.86003759765625,0.019670915153622626,0.00997530443891883,-0.0030037118606269357
1782969666029963800,7.8699638671875,0.18570494244098662,-0.07442892577946186,0.27538397125713526
1782969666039889700,7.8798896484375,0.2470002458810806,-0.019391805951297282,0.014391294250264763
1782969666049815600,7.889815673828125,0.13093816398680208,-0.08146276993900536,0.19997063755020497
1782969666059742700,7.89974267578125,0.08967734831571579,-0.0160164842993021,0.18225589796565472
1782969666069670100,7.909670166015625,0.04355447956621647,-0.02427037177309394,0.27043475135192274
1782969666079596300,7.91959619140625,-0.02791851901710033,0.03918737039789557,0.10865100192017853
1782969666089523200,7.929523193359375,-0.21911446008980273,-0.18825696501135825,0.045432036941125985
1782969666099449300,7.939449462890625,-0.5678355433017015,-0.2025610924348235,0.1030226406443864
1782969666109375200,7.949375244140625,-0.06438625519275665,0.3657762629091739,0.143395640630275
1782969666119302400,7.959302490234375,0.41148119850754733,0.003580488835275173,-0.0655761225644499
1782969666129228300,7.969228271484375,0.38656361487209795,-0.38434652334451674,-0.20431034725494682
1782969666139152400,7.97915234375,0.17387480391561985,-0.2902687481127679,-0.19911445911228656
1782969666149078300,7.989078369140625,-0.02760872241556644,-0.07385258719623089,-0.0988944547984749
1782969666159005400,7.99900537109375,0.05956862577795982,-0.1484850727237761,0.14903437716960907
1782969666168931300,8.008931396484375,0.22905600838959217,0.05489361970424652,0.17750468485057352
1782969666178857200,8.018857177734375,0.3195627932667732,0.23292072099372743,0.15537636660747228
1782969666188784400,8.028784423828125,0.08946165973842143,0.06839198370277881,0.1991342597912997
1782969666198710300,8.038710205078125,-0.30353578757345673,0.020220219599455594,0.16597345620654522
1782969666208636200,8.04863623046875,-0.569835777208209,0.007038666465133428,0.0703847649551928
1782969666218562300,8.058562255859375,-0.42760172770321364,-0.08772972137928009,-0.005832651676237583
1782969666228489500,8.068489501953126,-0.6963157927423715,-0.562755317427963,0.157043276906386
1782969666238415400,8.078415283203125,-0.32512510356903074,-0.28975714532881974,0.02644640063792467
1782969666248341200,8.08834130859375,0.12716741327643394,0.4336896693147719,-0.25578341792598364
1782969666258268400,8.098268310546874,0.44420098032653327,0.39210912017002697,-0.2251554938197136
1782969666268194300,8.1081943359375,0.47061435547769065,0.03879354877471924,0.03499569086171687
1782969666278120200,8.1181201171875,0.1238707098186016,-0.06486541701182723,0.023704773779585957
1782969666288047400,8.12804736328125,-0.03600011866390705,-0.12290902517959475,-0.21904497505016624
1782969666297973500,8.137973388671876,0.041835400688648224,-0.2030620276942849,-0.41003173035159707
1782969666307899100,8.147899169921875,0.19493921925425528,-0.07558394103348255,-0.5935857783690095
1782969666317826300,8.157826416015626,0.2735053909689188,0.0723532885491848,-0.5984662438869476
1782969666327752400,8.16775244140625,0.15944003584980965,-0.01275587506815791,-0.338898631247133
1782969666337678000,8.177677978515625,0.11319792463481426,-0.21708339265361426,0.22022176374457775
1782969666347605200,8.187605224609374,0.03880348564684391,0.053612347722053526,-0.019835750326514242
1782969666357531400,8.197531494140625,-0.025765140375494957,0.12569047259166835,0.19496325771696865
1782969666367457300,8.207457275390626,-0.060414428952336306,0.16408756939470767,-0.09463628589734435
1782969666377383200,8.217383056640625,0.16831892335414886,0.004218786738812924,0.14098171135634183
1782969666387310300,8.227310302734375,0.34491467666625975,-0.1268796823762357,-0.04491692702583969
1782969666397236200,8.237236328125,0.4197667962938547,0.18418445487543939,-0.3262310189843178
1782969666407162000,8.247162109375,0.29782208610177036,0.19509382529407737,-0.0771356274548918
1782969666417089300,8.25708935546875,0.09171031544804573,-0.012602584202587603,-0.06621025574952363
1782969666427015400,8.267015380859375,-0.0999509050488472,-0.17471520026251672,-0.10267499625049531
1782969666436941300,8.27694140625,-0.02353402032256126,-0.18353329749032854,0.02185761154294014
1782969666446868200,8.2868681640625,0.31583938882946966,-0.12962255134359002,0.43642954260744155
1782969666456794400,8.29679443359375,0.39635435652434825,-0.07372165429294109,0.6290514978952706
1782969666466720300,8.30672021484375,0.36147768893241883,0.024833266352862118,0.6469034539934247
1782969666476647400,8.3166474609375,0.2897954315125942,0.08432751172035932,0.5724826384551823
1782969666486573300,8.3265732421875,0.24698621735572812,0.0071780749358236785,0.4501633958622813
1782969666496499200,8.336499267578125,0.26306699906289577,-0.04615501745343208,0.3760557379264384
1782969666506426400,8.34642626953125,0.2858955014646053,-0.057481151979416605,0.3529142971180379
1782969666516352300,8.356352294921875,0.11577157451510428,-0.10924451083391905,0.322927228198573
1782969666526278100,8.366278076171875,-0.4373877931803465,-0.41724969890639185,0.7094685581736266
1782969666536204300,8.376204345703124,-0.20312369475364683,-0.42646351745352146,0.3333489612307399
1782969666546131500,8.38613134765625,0.12153729843497275,0.29400837303251026,-1.0645336766500026
1782969666556057000,8.39605712890625,-0.29772388642430303,0.1989567843325436,-0.08070004193820059
1782969666565983200,8.405983154296875,-0.1982540428906679,-0.6336940630041062,0.9158684250537306
1782969666575910400,8.415910400390626,0.6895622268289328,-0.36492899843007326,-0.2817275681301951
1782969666585836300,8.425836181640625,0.23933541034162042,0.14482625795528292,-0.4171149666108191
1782969666595762200,8.43576220703125,-0.002976385462284088,0.14804741195887328,-0.47352096363939344
1782969666605689300,8.445689453125,-0.4168582153707742,0.026018822875618932,-0.11361052402369677
1782969666615615500,8.455615478515625,-0.44240357551574705,-0.1847644467204809,0.30016126963905987
1782969666625541000,8.465541015625,0.017898644784092903,-0.12748480866253376,-0.11490158674754201
1782969666635468300,8.47546826171875,0.2528735218286514,-0.06176905843168497,0.096170436662063
1782969666645394400,8.48539453125,0.7802233254849911,-0.14668956760913132,0.034235885470360515
1782969666655320000,8.495320068359375,0.7517343131035565,-0.021693945413827895,0.01361694887690246
1782969666665247200,8.505247314453126,0.20347206979990004,0.05668912481889128,-0.0320950740493834
1782969666675173400,8.51517333984375,-0.24947978773713111,0.034222587597370145,-0.14674758140668273
1782969666685099300,8.525099365234375,-0.44116497363150114,-0.15343363504186272,0.11459383597262203
1782969666695026400,8.5350263671875,-0.39073710116446014,-0.1530709392093122,0.033337402260676025
1782969666704952300,8.544952392578125,-0.2822755574017763,-0.06151990597620606,-0.0973424761161208
1782969666714878200,8.554878173828126,-0.16810206573307512,-0.05632920546531677,0.04553454746752977
1782969666724805400,8.564805419921875,-0.06720423522293567,-0.06882306859642266,0.2404605419140309
1782969666734731300,8.574731201171875,-0.1579559347718954,-0.02635484989695251,0.31064167405590415
1782969666744657200,8.5846572265625,-0.2234387530297041,-0.010809417175501584,0.273125963197276
1782969666754583300,8.594583251953125,-0.18659575380086899,-0.06598777210526167,0.24905462112762033
1782969666764510500,8.604510498046874,-0.08081132029294967,-0.1725945548467338,0.31116489421240984
1782969666774436400,8.614436279296875,0.10036240845918655,-0.06075140582174062,0.2760045143082738
1782969666784362200,8.6243623046875,0.04071954840123653,0.00679382485859096,0.2642377233427018
1782969666794289400,8.634289306640625,-0.12296528541147708,-0.06505714019164442,0.41795054065212606
1782969666804215300,8.64421533203125,-0.46700785541832446,-0.10988054371513425,0.4311446610070765
1782969666814141200,8.65414111328125,-0.5521481448262929,-0.218456069246307,0.566109084835276
1782969666824068400,8.664068359375,-0.3925146322309971,-0.08529482238255441,0.33860563964992757
1782969666833994500,8.673994384765624,-0.0737298375993967,-0.10218735886402427,0.2072388749875128
1782969666843920100,8.683920166015625,0.2608645205825567,-0.09908084421604871,0.07359101365059614
1782969666853847300,8.693847412109376,0.41854514554440975,-0.06595416209660471,0.011691679902747273
1782969666863773400,8.7037734375,0.3191056971490383,-0.0615289660654962,-0.008578589383512735
1782969666873699000,8.713698974609375,0.15327859061062335,-0.09096746119149028,-0.03347432651333511
1782969666883626200,8.723626220703125,0.04842822308242321,-0.07982888512685894,-0.008932005931064486
1782969666893552400,8.733552490234375,0.00026829554736614226,-0.033918563149496914,0.029230989855155348
1782969666903478300,8.743478271484374,-0.023268647384643553,-0.01984817141667008,-0.020804376162961123
1782969666913404200,8.753404052734375,-0.009344166928529738,-0.0010918868899345397,-0.10435798090137541
1782969666923331300,8.763331298828126,-0.034737551382184026,-0.010920111008360982,-0.1853018415328115
1782969666933257200,8.77325732421875,-0.032088498178124425,-0.052650005495920776,-0.23545250449366867
1782969666943183000,8.78318310546875,0.01887421181797981,-0.08204268871881067,-0.22791158759482202
1782969666953110300,8.7931103515625,0.13317103760540486,-0.10621383790113031,-0.10651830074042082
1782969666963036400,8.803036376953125,0.23225977286696434,-0.14647519420608876,0.10242262892462313
1782969666972962300,8.81296240234375,0.3574655306816101,-0.17503084208294747,0.2361278464719653
1782969666982889200,8.82288916015625,0.40731238839030265,-0.13650726935602725,0.27751119254417717
1782969666992815400,8.8328154296875,0.3628986616462469,-0.11132920815348625,0.20664850787892936
1782969667002741200,8.8427412109375,0.18848726663589477,-0.027091493608430026,0.07182393091283738
1782969667012668400,8.85266845703125,-0.08109832054078578,0.11153013755306601,-0.11855514081902802
1782969667022594300,8.86259423828125,-0.37036768235266204,0.15676540981307624,-0.3512310932714492
1782969667032520200,8.872520263671875,-0.5590221222490072,0.1843761780552566,-0.5893943910937756
1782969667042447400,8.882447265625,-0.5079705649256706,-0.0037053573239594698,-0.5735606429502368
1782969667052373200,8.892373291015625,-0.21200258225798604,-0.3482034890785813,-0.26116226142011584
1782969667062299100,8.902299072265626,0.19245733931064604,-0.41058140012361105,-0.12254406432472169
1782969667072225300,8.912225341796875,0.5234434438675641,-0.21451500347033142,-0.055947951062768696
1782969667082151200,8.922151123046875,0.5376134235173463,-0.05438932344391942,0.06838540783151983
1782969667092077300,8.932077392578124,0.2982967178761959,0.01871186086311936,0.14408230772018432
1782969667102003500,8.94200341796875,0.01762684210538864,0.08083667392991482,0.16193382542692125
1782969667111930400,8.951930419921876,-0.08316811255216598,0.10390344206690788,0.1815415391512215
1782969667121856300,8.961856201171875,-0.12443535796403885,-0.032094708723202345,0.21344452469460665
1782969667131782400,8.971782470703126,-0.09431026881337165,-0.06590740034542977,0.1747042404770851
1782969667141709300,8.981709228515625,-0.03518821775913238,0.08204663424156605,-0.11278525218069553
1782969667151635200,8.99163525390625,-0.011152093133330345,-0.23313998976759612,-0.06815306038036942
1782969667161561300,9.001561279296874,-0.008851999497413634,-0.09156060477904975,-0.27784707343503834
1782969667171488300,9.01148828125,-0.15504092410802842,-0.18776677034161984,-0.163652392847836
1782969667181414400,9.021414306640626,-0.14894260723292826,-0.35246494591534133,0.2838248326703906
1782969667191340300,9.03134033203125,-0.07206336569190025,-0.07342983173951506,0.4632296520538628
1782969667201267200,9.04126708984375,-0.12247837867736816,0.15469364504031835,0.24750614957660436
1782969667211193300,9.051193359375,-0.15969547191560268,0.21451142327375708,0.01763480621613562
1782969667221119500,9.061119384765625,-0.1840016456544399,0.15006627750061452,-0.175508250336349
1782969667231046100,9.071046142578124,-0.14186755428016184,-0.04335186966620386,-0.15193660141713916
1782969667240972300,9.08097216796875,-0.0391436773866415,-0.34327085498198867,0.11306743012294172
1782969667250898400,9.0908984375,0.1786217061817646,-0.2263682306103408,0.2246432334486395
1782969667260824300,9.10082421875,0.3217664407908916,-0.4164936198420822,0.6244285873349755
1782969667270751200,9.110751220703126,0.46231472916603084,-0.09692235100790858,0.400896091607213
1782969667280677400,9.120677490234375,0.3653261810541153,0.08007898743040859,0.16359759392067788
1782969667290603500,9.130603515625,0.16945231129825114,0.10439480578042566,-0.06283011179193854
1782969667300530200,9.1405302734375,-0.041814357900619506,0.12180281750336289,-0.25056217614635823
1782969667310456300,9.150456298828125,-0.19632278256714342,0.12507153697572648,-0.3214644621696323
1782969667320382500,9.160382568359376,-0.3239379396110773,0.1256591276053339,-0.3192516084257513
1782969667330309400,9.170309326171875,-0.3610211773365736,-0.12037534198351203,-0.10390351513214409
1782969667340235300,9.1802353515625,-0.3454430844545364,-0.2713095614250749,0.08885339164696633
1782969667350161400,9.190161376953125,-0.2125409269183874,-0.2639773919060826,0.2879176549419761
1782969667360088300,9.20008837890625,0.05370411765873432,-0.29361396688744423,0.5670601019497961
1782969667370014200,9.21001416015625,0.32859599454998967,-0.23289017972499132,0.5361958848696202
1782969667379940400,9.2199404296875,0.4204419190764427,0.005393821867555379,0.2432920390129089
1782969667389867300,9.2298671875,0.4577466905981302,0.14905293573960662,0.06045863342024386
1782969667399793400,9.23979345703125,0.4375239867806434,0.18390709923878312,-0.07028020860217511
1782969667409719300,9.24971923828125,0.32033027050793167,0.08677899652570485,-0.10119549828246235
1782969667419645200,9.259645263671874,0.275772751379013,-0.03850888661444187,-0.011811945281550287
1782969667429572400,9.269572265625,0.17657178791463374,-0.10986220434084534,0.13879925275072455
1782969667439498200,9.279498291015624,0.005493921241164207,-0.13635280944667755,0.15146657275259495
1782969667449424400,9.28942431640625,-0.16474983269572258,-0.05811455451212823,0.03569645954221487
1782969667459351300,9.299351318359374,-0.28875732063651083,-0.003884440217912197,-0.11505962685346603
1782969667469277400,9.30927734375,-0.386477690154314,-0.034080475712940095,-0.25021818501427767
1782969667479203300,9.319203369140626,-0.554085834890604,-0.07367956871688365,-0.38968203915357585
1782969667489130200,9.329130126953125,-0.5658621974021196,-0.01658814670741558,-0.470693485128507
1782969667499056400,9.339056396484375,-0.4730383677542209,0.06944397697374224,-0.5227819842841476
1782969667508982300,9.348982177734374,-0.38681437476277347,0.07845964260026812,-0.30813232158347964
1782969667518909200,9.3589091796875,-0.22240824093818662,-0.10266586309596895,0.12845482273846864
1782969667528835300,9.36883544921875,0.07995265763700007,-0.200841575165838,0.36223807884566483
1782969667538761500,9.378761474609375,0.3891097922235727,-0.029613047975301742,0.39580483288280666
1782969667548688100,9.388688232421876,0.4615501745343208,0.1268741294182837,0.3506848575655371
1782969667558614300,9.3986142578125,0.3105903822600841,-0.07791501432955264,0.5511837567735463
1782969667568540400,9.40854052734375,0.29369653060436246,-0.25495500427782536,0.8454263769533484
1782969667578467300,9.41846728515625,0.35456980924010273,-0.11854337731599807,0.7420417711287737
1782969667588393200,9.428393310546875,0.3438239588201046,0.028790771806985138,0.4444494021296501
1782969667598319400,9.4383193359375,0.28927754511833187,0.11668269801065326,0.129812813218683
1782969667608245200,9.448245361328125,0.2653004572033882,0.1345012632958591,-0.06944814169220626
1782969667618172200,9.458172119140626,0.1892734485775232,0.02640752993226051,-0.13722630434557795
1782969667628098300,9.468098388671875,0.14713058937489987,-0.028923166014999148,-0.17980828561782836
1782969667638024400,9.4780244140625,0.11073241130411625,-0.033632220488786696,-0.26512393159270287
1782969667647951400,9.487951416015624,-0.09226151959002017,0.01866977528706193,-0.36400896097570656
1782969667657877200,9.497877197265625,-0.35073125399053096,-0.16611001513302326,-0.2034961813278496
1782969667667803400,9.507803466796876,-0.4490758928865194,-0.285769244736433,-0.03796170106045901
1782969667677730300,9.517730224609375,-0.38904549481570716,-0.2026508165448904,0.04507883958928287
1782969667687656400,9.527656494140626,-0.2498936292350292,-0.09473828496709466,0.18674743723124265
1782969667697582300,9.537582275390625,-0.06501929239928722,-0.09223346253931522,0.32452567637115715
1782969667707509200,9.54750927734375,0.14225801490247247,0.056279228843748565,0.27748298936299975
1782969667717435400,9.557435302734374,0.25786826137602326,-0.24282953606769442,0.616789616889134
1782969667727361300,9.567361328125,0.340462373432517,-0.05188377036377787,0.3003774696730077
1782969667737288200,9.5772880859375,0.1718079345136881,0.022631226263940332,-0.009926569926366209
1782969667747214300,9.58721435546875,-0.10752923134863376,-0.012879355317354202,-0.3528939849823713
1782969667757140500,9.597140380859376,-0.27794132758975026,0.13977964209020136,-0.6871612301018089
1782969667767066400,9.60706640625,-0.27645781103372574,0.11671104732230304,-0.5162588661257177
1782969667776993300,9.6169931640625,-0.0871621506243944,-0.11408785921186208,-0.09072817254289985
1782969667786919400,9.62691943359375,0.14273556928634643,-0.12789587368145583,0.08572758777663111
1782969667796845300,9.63684521484375,0.33993221207857127,-0.1222531916193664,0.025824615477770565
1782969667806772200,9.646772216796874,0.35505087075531483,-0.10761632511019706,-0.035466450178623196
1782969667816698400,9.656698486328125,0.2620452547997236,-0.10638546814098954,-0.14741474007852376
1782969667826624500,9.66662451171875,0.15633037939667702,-0.09942293565198779,-0.2044304665032774
1782969667836551200,9.67655126953125,0.042810383200645445,-0.03603635902106762,-0.1310570411261171
1782969667846477300,9.686477294921875,0.03236556155383587,-0.007482903101295233,0.005814458432421088
1782969667856403500,9.696403564453124,0.023345219752192496,-0.014642419467121363,0.17014431215040385
1782969667866330400,9.706330322265625,-0.0035562311768531796,0.01709244296774268,0.4180752630103379
1782969667876256300,9.71625634765625,-0.04326631027460098,0.041644262030720705,0.5137757440730929
1782969667886182400,9.726182373046875,-0.037355624926090236,0.012436872246861456,0.31300862238295374
1782969667896109300,9.736109375,-0.17279285389780996,-0.07002645303681493,0.26963885173387825
1782969667906035200,9.74603515625,-0.26463176416158674,-0.028723990181088444,0.21924173973128197
1782969667915961300,9.75596142578125,-0.24744857417047023,-0.14765373646616936,0.5040079449050128
1782969667925887200,9.76588720703125,-0.12508359273970127,-0.13234072426110505,0.5623483440622687
1782969667935814400,9.775814453125,0.13131108895242213,0.12103227152228355,0.23327742547690866
1782969667945740300,9.785740234375,0.25234920569360253,0.05760054057538509,0.03511120700016618
1782969667955666200,9.795666259765625,0.2518061848580837,-0.052833910695463414,-0.01945734546817839
1782969667965593300,9.80559326171875,0.265548879006505,-0.12068608843311666,-0.20512728966102003
1782969667975519200,9.815519287109375,0.3314958076447248,-0.08703297128677367,-0.34698512626476585
1782969667985445400,9.8254453125,0.4304290600836277,-0.052712037881463766,-0.4313060621138662
1782969667995372300,9.835372314453124,0.45318741985857486,-0.07265534023568034,-0.45267041024714705
1782969668005298400,9.84529833984375,0.40636078675389287,-0.15936770126596092,-0.2588533999558538
1782969668015224300,9.855224365234376,0.28345687614083287,-0.1666375461384654,-0.033624840899929405
1782969668025151200,9.865151123046875,0.1500344941228628,-0.09485182834416628,0.05054309634454548
1782969668035077400,9.875077392578126,0.09574117839932442,-0.02817585477903485,-0.01286496146582067
1782969668045003300,9.885003173828125,0.10404898801743984,0.011160276439785956,-0.10116481088325381
1782969668054930200,9.89493017578125,0.12437749029695987,-0.050908057199418544,-0.12120251352265476
1782969668064856300,9.904856201171874,0.1947416508555412,-0.13084654018059372,-0.013126973402872682
1782969668074781400,9.914781494140625,0.2822591907888651,-0.21412381219565868,0.15608473407253623
1782969668084708400,9.924708251953126,0.28412849179208277,-0.22200959700942038,0.3051489949237555
1782969668094634500,9.934634521484375,0.023515315622091294,-0.12620076020136475,0.1878111209399998
1782969668104560400,9.944560302734375,-0.14411153381466865,-0.05289075544923544,-0.052749666478112335
1782969668114486500,9.954486572265624,-0.28627017999589444,-0.0830824800953269,-0.24055530752539633
1782969668124413400,9.964413330078125,-0.24905893197655676,-0.17706380921527742,-0.332416356555745
1782969668134339600,9.974339599609374,-0.1882026044756174,-0.26004618993699546,-0.3018915274977684
1782969668144265500,9.984265380859375,-0.20998013651967048,-0.20337576981857416,-0.12842062820792197
1782969668154192400,9.9941923828125,-0.11143676018118857,-0.05954100711867213,0.09100428607054054
1782969668164118500,10.004118408203125,-0.01635024629831314,0.06808657101541757,0.23422734661288558
1782969668174044700,10.014044677734375,-0.016416297271847725,0.10547361399307846,0.3067429130516946
1782969668183971300,10.023971435546875,-0.02748246568739414,0.06410948407799005,0.35172976350858803
1782969668193897500,10.0338974609375,-0.16027356406450272,0.001744651710242033,0.3704340986523777
1782969668203823600,10.04382373046875,-0.21082126351892946,-0.055915510097891086,0.30811164412163194
1782969668213750500,10.05375048828125,-0.10270108053982258,-0.1305263683155179,0.16628369119949638
1782969668223676400,10.063676513671876,0.1049918218255043,-0.16722206802815198,-0.05040807178802788
1782969668233602600,10.0736025390625,0.3847644564956426,-0.2550073189869523,-0.4043613565649837
1782969668243529500,10.083529541015626,0.26687106752097606,-0.24093758484125136,-0.05215981082618236
1782969668253455400,10.093455322265624,0.3587771978020668,-0.30496698942035433,0.8760196681376546
1782969668263381500,10.103381591796875,0.6611164690673351,-0.2298427748531103,0.8604572112161666
1782969668273307600,10.1133076171875,0.5413298136919736,-0.07696589691117406,0.270201600183174
1782969668283234600,10.123234619140625,0.2555184833794832,0.1609736751578748,-0.07606668304912745
1782969668293160400,10.133160400390626,-0.14579203424751758,0.2565430041216314,-0.1488781636945903
1782969668303086600,10.143086669921875,-0.47243046498894686,0.17996756783276796,-0.16846125443428753
1782969668313013500,10.153013427734376,-0.48349429531693455,-0.011622487124055622,-0.03983947763107717
1782969668322939400,10.162939453125,-0.3899497501790523,-0.1444366741158068,0.08959178892411292
1782969668332865500,10.172865478515625,-0.29641631095707416,-0.12095526076331733,0.11485175625644624
1782969668342792400,10.18279248046875,-0.2273153022021055,-0.16411372674927113,-0.15089812521487472
1782969668352718600,10.192718505859375,-0.09526946923434734,-0.10297317547947167,-0.20171083228103814
1782969668362644500,10.20264453125,-0.013569675669074058,0.007617343135923146,-0.002652341139689088
1782969668372571400,10.2125712890625,0.104063601064682,-0.03827829272896051,0.055890667917579406
1782969668382497500,10.22249755859375,0.18661036684811114,-0.029142069462686774,-0.17610453572906554
1782969668392423400,10.23242333984375,0.16972645206451414,0.053421501325070855,-0.20710129314772782
1782969668402350300,10.242350341796875,0.07835223670303822,-0.03975318758711219,0.07070866314731537
1782969668412276500,10.2522763671875,-0.1487146436959505,-0.12854323167428375,0.0753547353874892
1782969668422202600,10.26220263671875,-0.27496318856179713,-0.05784034068062901,-0.04072195955403149
1782969668432128500,10.27212841796875,-0.20963877573609352,0.014780512763559817,-0.011079320158064366
1782969668442055400,10.282055419921875,-0.11236673450767994,-0.03459039799645543,0.08267382622919976
1782969668451981600,10.291981689453126,0.01948211458325386,-0.1053819901868701,0.11416618514508008
1782969668461907500,10.301907470703124,0.08113514541983603,-0.09949906962811947,0.0905287775132805
1782969668471834400,10.31183447265625,0.07796352964639663,0.010319441701471805,0.1323491267632693
1782969668481760500,10.321760498046874,-0.035867432194948194,0.08042042127922176,0.20299597672075032
1782969668491686700,10.331686767578125,-0.23473989924490452,0.01754763938933611,0.2383591126553714
1782969668501613300,10.34161328125,-0.3369733622729778,-0.09113324621245264,0.14728921400271355
1782969668511539500,10.35153955078125,-0.22569442300200462,-0.1382857502706349,0.15228819133378566
1782969668521465600,10.361465576171875,0.07194236966073513,-0.16587532959431409,0.22929405492916702
1782969668531392500,10.371392578125,0.37821196611225605,0.0331590500190854,-0.004246113137155771
1782969668541318400,10.381318359375,0.3297954334676266,-0.11794058911725878,-0.031133900867030023
1782969668551244500,10.39124462890625,0.20008944162428377,-0.25264833477064963,0.02145224561244249
1782969668561171500,10.40117138671875,0.007522212198376655,-0.16662132565602658,0.02962883006632328
1782969668571097600,10.41109765625,-0.14062310717701912,0.08417948155179619,-0.1538021030280739
1782969668581023500,10.4210234375,-0.28375965847969054,-0.03453443002551794,0.08978000497259199
1782969668590949600,10.43094970703125,-0.14856032991707324,0.14561886963769793,0.05156345236822962
1782969668600876500,10.44087646484375,-0.1434253051161766,0.027294395769387483,0.11877353281006216
1782969668610802400,10.450802490234375,-0.12484627685248852,-0.0807325559683144,0.1158789804123342
1782969668620728600,10.460728515625,-0.027393033838272095,-0.11215732954069971,-0.00015343699604272843
1782969668630655500,10.470655517578125,0.0728980629503727,-0.07555749141797423,-0.1015812827296555
1782969668640581600,10.48058154296875,0.20675942090749738,-0.03907265797704458,-0.15674502461217343
1782969668650507500,10.490507568359375,0.33389000930488105,-0.03371507646664977,-0.21224698547311127
1782969668660434400,10.500434326171876,0.4092091619223356,-0.09516162494570016,-0.14660656550079584
1782969668670360600,10.510360595703125,0.4654927746802568,0.0030380525216460227,-0.167266783952713
1782969668680286500,10.520286376953125,0.4135936606168747,0.04489245017170906,-0.11693513840176165
1782969668690213400,10.53021337890625,0.1919838765799999,-0.07300313076004386,-0.003182064102217555
1782969668700139500,10.540139404296875,-0.028819851770997044,-0.10207052755132318,-0.016358794930949806
1782969668710065700,10.550065673828126,-0.16707155364155768,-0.11033668998479843,0.09819310159608721
1782969668719992300,10.559992431640625,-0.07943710933029652,-0.007726210337877273,0.1657228424463421
1782969668729918500,10.56991845703125,0.025662264522910115,0.08022679840326309,0.06634323447942733
1782969668739844600,10.5798447265625,-0.11714169382452964,-0.05458469988554716,0.02374240237623453
1782969668749770500,10.5897705078125,-0.11806816101968287,-0.17619857068806885,0.14133067092448473
1782969668759697400,10.599697509765624,0.05143617272675037,0.006828384715318679,-0.04823547698929906
1782969668769623600,10.60962353515625,0.011353753185272215,-0.06610314211323857,-0.02309424066580832
1782969668779549700,10.6195498046875,0.010492752441763877,-0.11575433111935854,0.182986915653944
1782969668789476400,10.629476318359375,0.1612847869336605,0.019782997225970027,0.192525947567448
1782969668799402500,10.639402587890626,0.15166063401997087,0.01504793152809143,0.1971901399862021
1782969668809328600,10.64932861328125,-0.048317163923382755,-0.08378741349428892,0.19565577002577483
1782969668819255600,10.659255615234375,-0.06672960344851017,-0.0171101247549057,0.11071904036588966
1782969668829181400,10.669181396484374,-0.03212941471040249,-0.006656827540695667,0.07317804893553256
1782969668839107600,10.679107666015625,0.07380465640127658,-0.050062984677404165,0.0377691741630435
1782969668849034500,10.689034423828126,0.1622737979710102,-0.10311331460252404,0.0018000351592898367
1782969668858960400,10.69896044921875,0.24097616328597068,-0.10999547533169388,0.0016135726764798164
1782969668868886500,10.708886474609375,0.32874504763185974,-0.05868439028933644,0.06373480554670095
1782969668878813400,10.7188134765625,0.26251521039903164,-0.05462240154743194,0.06187441850230097
1782969668888739600,10.728739501953125,0.15457973633706568,-0.0842085615158081,-0.059088733306527134
1782969668898665500,10.73866552734375,0.14111352104246616,-0.044119566103070974,-0.08029314163774251
1782969668908592400,10.74859228515625,0.1742769549757242,-0.009494242923706769,0.005929901505634189
1782969668918518500,10.7585185546875,0.14499649995565414,-0.00992298972979188,0.02767243530154228
1782969668928444400,10.7684443359375,0.05880524019002914,-0.039511049394309515,-0.016092545210197567
1782969668938370600,10.77837060546875,-0.022436872735619545,-0.05472966131418943,-0.05092142813764512
1782969668948297500,10.78829736328125,-0.08905132537186146,-0.07299041740894317,-0.09344561480805277
1782969668958223600,10.7982236328125,-0.09224632202088832,-0.10522753027752041,-0.07130925938896834
1782969668968149500,10.8081494140625,-0.06066401979923248,-0.08945113834440707,0.024028452775999902
1782969668978076400,10.818076416015625,0.02793605467379093,-0.08792816656082868,0.12137523974105716
1782969668988002600,10.82800244140625,0.13013035473525522,-0.10062617396190762,0.16872041682712732
1782969668997928400,10.837928466796875,0.16142156505584715,-0.08334946046844124,0.1391007929805666
1782969669007855400,10.84785546875,0.10282558370232582,-0.08552563546374439,0.21238464037813246
1782969669017781500,10.857781494140625,0.08844751425981522,-0.21013781129941342,0.31845936206951736
1782969669027707600,10.867707763671875,0.07641863829195499,-0.14096139922067522,0.38691198991835113
1782969669037634600,10.877634521484374,0.04932955583631992,0.22349603617489336,0.2540682845711708
1782969669047560400,10.887560546875,0.017381927433609962,0.31615254643186924,0.16918416188135743
1782969669057486600,10.897486572265626,0.1287286712437868,0.07438815537765622,0.06313282106555998
1782969669067413500,10.90741357421875,0.22089549828767774,-0.19560718164369462,0.029129575307294726
1782969669077339600,10.917339599609376,0.36995442537665363,-0.3566650279536843,0.003488718898594379
1782969669087265800,10.927265869140625,0.37790216951072214,-0.387675083245337,-0.23656324221454558
1782969669097191700,10.937191650390625,0.23958675475418567,-0.015335224036872387,-0.5251449140232056
1782969669107118600,10.94711865234375,0.08656827638447284,0.037780791535601016,-0.2852068616133183
1782969669117044700,10.957044677734375,0.029182255342602728,-0.16816884735897183,-0.17753456853218375
1782969669126971000,10.966970947265626,-0.10628419972360134,-0.27547303778007626,-0.13999087368808685
1782969669136897500,10.9768974609375,-0.17090367915034294,-0.10166333498992025,0.02398570961281657
1782969669146823700,10.98682373046875,-0.12454232546985149,0.02803549646027386,0.18253091551475226
1782969669156749800,10.996749755859375,-0.019977789145708084,0.007037351290881634,0.29538221866898234
1782969669166676700,11.0066767578125,-0.04671148229241371,-0.06487900714576245,0.354063905544579
1782969669176602600,11.0166025390625,-0.09979600674808024,0.03731003221869469,0.2353440756831318
1782969669186528800,11.02652880859375,-0.103985275131464,-0.011170067181438207,0.045724517081677914
1782969669196455700,11.03645556640625,-0.10589081649184226,-0.23639438845366237,-0.12625921239033341
1782969669206381600,11.046381591796875,-0.10321721336841583,-0.48709663065783676,0.025003435287997124
1782969669216307700,11.0563076171875,0.005866846206784248,-0.003888166544958949,-0.21415654542148113
1782969669226234600,11.066234619140625,-0.06772329066097736,-0.0025893589060753583,-0.18531104775257407
1782969669236160800,11.076160888671875,-0.07243862874507903,-0.1950094349462539,0.0452059731002897
1782969669246086700,11.086086669921874,-0.060305123358964915,-0.08004654646553098,0.13417875334322452
1782969669256012800,11.0960126953125,-0.11237550233602524,-0.009134908092021941,0.13708192743882536
1782969669265939700,11.105939697265624,-0.03980710973143577,0.04958879129439592,0.17299729042872786
1782969669275865600,11.115865478515625,0.048107320564985276,0.06045943713784217,0.23150946595631539
1782969669285791700,11.125791748046876,0.0768190357863903,0.00893690130189061,0.21308716262429953
1782969669295718700,11.13571875,0.08778642000257969,-0.02100903188958764,0.13628113244995474
1782969669305644800,11.145644775390625,0.08675532338917255,-0.06459945955201983,0.099219229773432
1782969669315570700,11.15557080078125,-0.16288754595518112,-0.10814699792079627,0.054517918259650466
1782969669325497600,11.16549755859375,-0.3868921161741018,-0.13782638913057743,-0.022299363961070774
1782969669335423700,11.175423828125,-0.5072743993550539,-0.13110526418201623,-0.04043627448044717
1782969669345349600,11.185349609375,-0.45775779651403425,-0.10096242017894982,-0.09174348706528544
1782969669355276500,11.195276611328126,-0.29913433774411674,-0.10019355469830334,-0.08025069073550403
1782969669365202700,11.20520263671875,-0.16997136673629282,-0.03772686939127743,0.016765987492352724
1782969669375128800,11.21512890625,-0.09874503639042377,0.020540099203586577,0.05798208723887801
1782969669385055500,11.225055419921874,-0.03965396499633789,0.03849149708822369,0.15634937635809182
1782969669394981600,11.234981689453125,0.04613280562162399,0.051754225699976085,0.16330694041103125
