time,seconds_elapsed,z,y,x
1782969658237801000,0.077801025390625,0.30261874198913574,-0.36479246616363525,0.5923455953598022
1782969658247726800,0.087726806640625,0.20381037890911102,-0.6029080748558044,0.6477742791175842
1782969658257654000,0.097654052734375,0.05873243138194084,-0.6947490572929382,0.7019403576850891
1782969658267580200,0.107580078125,-0.07345223426818848,-0.7792301177978516,0.7993375062942505
1782969658277506000,0.117506103515625,-0.14634816348552704,-0.8533144593238831,0.8416587710380554
1782969658287433000,0.127432861328125,-0.154759481549263,-0.8248276710510254,0.782440721988678
1782969658297359000,0.137359130859375,-0.10270635038614273,-0.7461189031600952,0.6266952157020569
1782969658307285000,0.147284912109375,-0.03486205264925957,-0.6188797354698181,0.3994798958301544
1782969658317211000,0.1572109375,0.056160785257816315,-0.35205063223838806,0.18652455508708954
1782969658327138000,0.167137939453125,0.1485399752855301,0.08296822011470795,0.0556618794798851
1782969658337064000,0.17706396484375,0.24760755896568298,0.5290375351905823,0.06569299101829529
1782969658346990000,0.186989990234375,0.2472512274980545,0.6000710129737854,0.03845258802175522
1782969658356917000,0.1969169921875,0.16780561208724976,0.5249984264373779,-0.009318822994828224
1782969658366843000,0.2068427734375,0.12701529264450073,0.5392040014266968,-0.038216784596443176
1782969658376769000,0.21676904296875,0.18105420470237732,0.6497374176979065,-0.09556222707033157
1782969658386696200,0.2266962890625,0.26305294036865234,0.7301473021507263,-0.12496832013130188
1782969658396621800,0.236621826171875,0.3125767707824707,0.7042018175125122,-0.13359984755516052
1782969658406548000,0.2465478515625,0.3841598629951477,0.39387431740760803,-0.2322382777929306
1782969658416475100,0.25647509765625,0.4344005584716797,0.29141849279403687,-0.22208142280578613
1782969658426401000,0.266401123046875,0.4469616115093231,0.2785077393054962,-0.15888407826423645
1782969658436327000,0.276326904296875,0.3065170347690582,0.2785513699054718,-0.11562306433916092
1782969658446252000,0.286251953125,0.11259309947490692,0.3565391004085541,0.010001707822084427
1782969658456179000,0.296178955078125,-0.08797533065080643,0.519690990447998,0.27319273352622986
1782969658466105000,0.30610498046875,-0.1604577898979187,0.3245026171207428,0.38697707653045654
1782969658476031000,0.316031005859375,-0.04762837663292885,0.1222880408167839,0.4053069055080414
1782969658485958100,0.325958251953125,0.03022328019142151,0.1292458176612854,0.3661768138408661
1782969658495884000,0.335884033203125,0.014496780931949615,0.1253562718629837,0.26206132769584656
1782969658505810000,0.345809814453125,0.03181025758385658,0.15761594474315643,0.19246573746204376
1782969658515736000,0.355736083984375,0.10434917360544205,0.18801991641521454,0.1422150731086731
1782969658525663000,0.3656630859375,0.12650351226329803,0.2501567006111145,0.08374535292387009
1782969658535588900,0.3755888671875,0.13829021155834198,0.3691292107105255,-0.005380177870392799
1782969658545515000,0.385514892578125,0.20518189668655396,0.44683438539505005,-0.0841764584183693
1782969658555442200,0.395442138671875,0.26615655422210693,0.5006027817726135,-0.14409038424491882
1782969658565368000,0.4053681640625,0.3396454155445099,0.5218335390090942,-0.16962291300296783
1782969658575295000,0.415294921875,0.34707003831863403,0.5291769504547119,-0.2011302411556244
1782969658585221000,0.42522119140625,0.3166346251964569,0.5747888684272766,-0.20381097495555878
1782969658595147000,0.43514697265625,0.34051772952079773,0.5381521582603455,-0.1625858098268509
1782969658605074000,0.445073974609375,0.34204745292663574,0.43652859330177307,-0.13599812984466553
1782969658615000000,0.455,0.3196130692958832,0.40553849935531616,-0.0860738530755043
1782969658624926200,0.46492626953125,0.3087519109249115,0.41854190826416016,-0.03936626762151718
1782969658634851800,0.474851806640625,0.2860791087150574,0.39440232515335083,-0.020838269963860512
1782969658644779000,0.484779052734375,0.11522373557090759,0.22456136345863342,-0.09165305644273758
1782969658654705200,0.494705078125,0.043338604271411896,0.1725635677576065,-0.07581695169210434
1782969658664632000,0.504632080078125,0.10482966154813766,0.22038649022579193,-0.03666448965668678
1782969658674558000,0.514557861328125,0.111426942050457,0.21949543058872223,0.008726022206246853
1782969658684484000,0.524484130859375,0.14938950538635254,0.27323269844055176,-0.006931766867637634
1782969658694410000,0.534409912109375,0.15080535411834717,0.33698543906211853,-0.057716671377420425
1782969658704337000,0.5443369140625,0.14816641807556152,0.45960909128189087,-0.10686957091093063
1782969658714263000,0.554262939453125,0.20456042885780334,0.5402693152427673,-0.10838601738214493
1782969658724189000,0.56418896484375,0.21995270252227783,0.5299175977706909,-0.0867648795247078
1782969658734116000,0.5741162109375,0.12270010262727737,0.38339677453041077,-0.10223352164030075
1782969658744042000,0.5840419921875,0.014739812351763248,0.26411324739456177,-0.08475332707166672
1782969658753968000,0.593968017578125,0.026009084656834602,0.23520803451538086,-0.04847968742251396
1782969658763895000,0.60389501953125,0.03218229487538338,0.11405204981565475,-0.0566374808549881
1782969658773823000,0.613822998046875,0.014200202189385891,-0.05186348408460617,-0.07276953011751175
1782969658783749000,0.6237490234375,0.041936494410037994,-0.07870974391698837,-0.0835856944322586
1782969658793675000,0.633675048828125,0.0734296590089798,-0.05839534103870392,-0.1148487776517868
1782969658803602000,0.643601806640625,0.06026565656065941,-0.08953089267015457,-0.15111596882343292
1782969658813528000,0.653528076171875,0.028983553871512413,-0.09133406728506088,-0.16001227498054504
1782969658823454000,0.663453857421875,0.022634044289588928,-0.07780840247869492,-0.13299183547496796
1782969658833380900,0.673380859375,0.020781992003321648,-0.07126742601394653,-0.11924206465482712
1782969658843307000,0.68330712890625,0.022707989439368248,-0.07778657972812653,-0.11083792895078659
1782969658853233200,0.693233154296875,0.10519319027662277,-0.16829663515090942,-0.18660452961921692
1782969658863159800,0.703159912109375,0.038132134824991226,-0.018449336290359497,-0.07531023025512695
1782969658873086000,0.7130859375,0.008667794056236744,-0.08648331463336945,-0.0034575997851788998
1782969658883012000,0.72301220703125,0.01155759021639824,-0.0956358015537262,0.02841484546661377
1782969658892939000,0.73293896484375,-0.0025315009988844395,-0.07132723927497864,0.02584635466337204
1782969658902865000,0.742864990234375,0.004259826149791479,-0.09090999513864517,-0.00385614694096148
1782969658912791000,0.752791015625,0.010064058937132359,-0.06734585016965866,-0.01934153400361538
1782969658922718000,0.762718017578125,0.027020404115319252,-0.012862899340689182,0.002378143137320876
1782969658932643800,0.772643798828125,0.03578224778175354,0.003911478444933891,0.02540167048573494
1782969658942570000,0.782570068359375,0.03349698707461357,0.014115112833678722,0.018411139026284218
1782969658952497000,0.792496826171875,0.024686239659786224,0.025623276829719543,-0.0075135077349841595
1782969658962423000,0.802423095703125,0.026505446061491966,0.05009719356894493,-0.024953750893473625
1782969658972349000,0.812348876953125,0.03797530755400658,0.08232947438955307,-0.018354758620262146
1782969658982275800,0.82227587890625,0.038565199822187424,0.08534497022628784,-0.005595020484179258
1782969658992202000,0.832201904296875,0.04040958359837532,0.07471271604299545,0.01128038763999939
1782969659002128000,0.8421279296875,0.04312867298722267,0.06784602254629135,0.015312680043280125
1782969659012055000,0.852054931640625,0.03268769755959511,0.056644655764102936,0.023208526894450188
1782969659021981000,0.86198095703125,0.029544368386268616,0.030680164694786072,0.026666641235351562
1782969659031907000,0.871906982421875,0.027765993028879166,0.018357835710048676,0.02469557151198387
1782969659041834000,0.881833984375,0.031014252454042435,0.004417783580720425,0.023813266307115555
1782969659051759900,0.891759765625,0.03537779673933983,-0.022196706384420395,0.0164661705493927
1782969659061686000,0.90168603515625,0.04067588970065117,-0.04249558597803116,0.01215637568384409
1782969659071613200,0.91161328125,0.035574693232774734,-0.04972781985998154,0.01672789268195629
1782969659081538800,0.921538818359375,0.03825116902589798,-0.0384991317987442,0.022358082234859467
1782969659091465000,0.93146484375,0.03610767051577568,-0.017844870686531067,0.01451261155307293
1782969659101392100,0.94139208984375,0.034083135426044464,-0.010328631848096848,-0.0017875313060358167
1782969659111318000,0.951318115234375,0.03245716914534569,-0.013537963852286339,-0.015691682696342468
1782969659121244000,0.961243896484375,0.030016114935278893,-0.022766882553696632,-0.02569052018225193
1782969659131171000,0.971171142578125,0.02293362095952034,-0.029685890302062035,-0.029165614396333694
1782969659141097000,0.981096923828125,0.020616138353943825,-0.03987088426947594,-0.024652888998389244
1782969659151022800,0.99102294921875,0.014193277806043625,-0.029497191309928894,-0.012485416606068611
1782969659160950000,1.000949951171875,0.006593149155378342,-0.010357584804296494,0.007489355746656656
1782969659170876000,1.0108759765625,-0.0057270522229373455,0.01282295398414135,0.04138711094856262
1782969659180802000,1.020802001953125,-0.014651571400463581,0.03399774804711342,0.0664977952837944
1782969659190729000,1.03072900390625,-0.011789949610829353,0.03902804106473923,0.07638147473335266
1782969659200655000,1.040655029296875,-0.01128474809229374,0.03001430444419384,0.06702712178230286
1782969659210581000,1.0505810546875,-0.003957411739975214,0.02028805762529373,0.050093479454517365
1782969659220508200,1.060508056640625,0.000550521188415587,0.0077035557478666306,0.022539081051945686
1782969659230434000,1.07043408203125,0.0032128100283443928,-0.007418865337967873,-0.0017018197104334831
1782969659240360000,1.08035986328125,0.0086866719648242,-0.013437076471745968,-0.028056195005774498
1782969659250287000,1.090287109375,0.016830116510391235,-0.019997237250208855,-0.04560238867998123
1782969659260213000,1.100212890625,0.01967943273484707,-0.03015000745654106,-0.055010806769132614
1782969659270139000,1.110138916015625,0.01802915707230568,-0.025750882923603058,-0.05020252987742424
1782969659280066000,1.120066162109375,0.015948960557579994,-0.009616388007998466,-0.0399850457906723
1782969659289992200,1.1299921875,0.02532920241355896,0.008719854056835175,-0.02153157815337181
1782969659299917800,1.139917724609375,0.030048854649066925,0.017215073108673096,-0.00015545007772743702
1782969659309845000,1.149844970703125,0.03707120195031166,0.016963709145784378,0.009873918257653713
1782969659319771100,1.159771240234375,0.040279779583215714,0.019304893910884857,0.017801882699131966
1782969659329696800,1.16969677734375,0.044387344270944595,0.02711564302444458,0.02641015499830246
1782969659339624000,1.1796240234375,0.04707207903265953,0.025528131052851677,0.02924642153084278
1782969659349550000,1.189550048828125,0.04974097013473511,0.0069275107234716415,0.034144338220357895
1782969659359476000,1.19947607421875,0.04730018228292465,0.0016358094289898872,0.03291209414601326
1782969659369403000,1.20940283203125,0.04747910425066948,0.0010369406081736088,0.03430096432566643
1782969659379329000,1.2193291015625,0.045226335525512695,-0.006055057514458895,0.027062226086854935
1782969659389255200,1.229255126953125,0.03884865343570709,-0.009618254378437996,0.015366315841674805
1782969659399182000,1.23918212890625,0.03695008531212807,-0.011762898415327072,0.0011066857259720564
1782969659409108000,1.24910791015625,0.03862560912966728,-0.004066323861479759,-0.005877283867448568
1782969659419034000,1.2590341796875,0.04120461270213127,0.004770044703036547,0.00234043225646019
1782969659428961000,1.2689609375,0.04144938662648201,0.006048897746950388,0.008192239329218864
1782969659438887000,1.278886962890625,0.03640136495232582,0.017032839357852936,0.013057567179203033
1782969659448813000,1.28881298828125,0.03006584569811821,0.025121886283159256,0.02133849635720253
1782969659458740000,1.298739990234375,0.024389315396547318,0.02454211562871933,0.020215176045894623
1782969659468666000,1.308666015625,0.023886874318122864,0.0299968384206295,0.017636829987168312
1782969659478592000,1.318592041015625,0.024503130465745926,0.041815146803855896,0.02146938443183899
1782969659488519000,1.328518798828125,0.031037602573633194,0.06502322107553482,0.015913063660264015
1782969659498445000,1.338445068359375,0.02771184593439102,0.0648687556385994,0.023184558376669884
1782969659508371000,1.348370849609375,0.01853853464126587,0.055321481078863144,0.03322051838040352
1782969659518297900,1.3582978515625,0.0117746377363801,0.04172151908278465,0.02625502273440361
1782969659528224000,1.36822412109375,0.012742877937853336,0.03583315387368202,0.008090462535619736
1782969659538150100,1.378150146484375,0.0166380163282156,0.027615707367658615,-0.009132198989391327
1782969659548077000,1.3880771484375,0.013567083515226841,0.023640748113393784,-0.04043975844979286
1782969659558003000,1.3980029296875,-0.005231637507677078,0.028390493243932724,-0.043653395026922226
1782969659567929000,1.40792919921875,-0.02304908074438572,-0.002125372877344489,-0.027226343750953674
1782969659577856000,1.41785595703125,-0.023671727627515793,-0.0035088849253952503,-0.025164790451526642
1782969659587782000,1.427781982421875,-0.020142409950494766,0.006594385951757431,-0.026376932859420776
1782969659597708000,1.4377080078125,-0.01111163105815649,0.012006993405520916,-0.0304342582821846
1782969659607635000,1.447635009765625,-0.0043640038929879665,0.004825405776500702,-0.034237105399370193
1782969659617561000,1.45756103515625,-0.006854858249425888,-0.007778802886605263,-0.0398838073015213
1782969659627487000,1.467487060546875,-0.0027984038460999727,-0.010216854512691498,-0.03948940336704254
1782969659637414000,1.477413818359375,-0.00552681228145957,-0.0032146056182682514,-0.03026261366903782
1782969659647340000,1.487340087890625,-0.006604200229048729,-0.0009990823455154896,-0.013794254511594772
1782969659657266000,1.497265869140625,-0.009450320154428482,-0.001179911196231842,-0.01035318523645401
1782969659667192800,1.50719287109375,-0.007638838142156601,-0.007072154898196459,-0.007745683193206787
1782969659677119000,1.517118896484375,-0.012641852721571922,-0.010789128951728344,-0.020420731976628304
1782969659687045000,1.527045166015625,-0.02080993726849556,-0.002104524290189147,-0.014259114861488342
1782969659696971800,1.5369716796875,-0.02563265524804592,-0.0012054410763084888,-0.009893128648400307
1782969659706898000,1.54689794921875,-0.02660048007965088,-0.009739277884364128,-0.0038989277090877295
1782969659716824000,1.556823974609375,-0.025267301127314568,-0.018947158008813858,-0.016676774248480797
1782969659726751000,1.5667509765625,-0.020145701244473457,-0.015369539149105549,-0.025864403694868088
1782969659736676900,1.5766767578125,-0.011042218655347824,-0.02153981663286686,-0.026340043172240257
1782969659746603000,1.58660302734375,-0.011472489684820175,-0.01760043203830719,-0.02604164183139801
1782969659756530000,1.596530029296875,-0.015793468803167343,-0.013646437786519527,-0.0370442271232605
1782969659766455800,1.606455810546875,-0.016528300940990448,-0.030350083485245705,-0.04851214960217476
1782969659776382000,1.6163818359375,-0.010675471276044846,-0.04319876804947853,-0.06709834933280945
1782969659786309000,1.62630908203125,0.0019226118456572294,-0.04791229963302612,-0.0755954310297966
1782969659796235000,1.636235107421875,0.015581964515149593,-0.0488036572933197,-0.06418245285749435
1782969659806161000,1.646160888671875,0.02664305455982685,-0.04928154498338699,-0.04807319492101669
1782969659816087000,1.656087158203125,0.03410523012280464,-0.05513650178909302,-0.03164016082882881
1782969659826014000,1.666013916015625,0.03137892484664917,-0.041167959570884705,-0.02239956706762314
1782969659835939800,1.67593994140625,0.02630852907896042,-0.02820662409067154,-0.015439394861459732
1782969659845866000,1.685865966796875,0.02012278139591217,-0.0169247817248106,-0.004807374905794859
1782969659855793000,1.69579296875,0.01861276850104332,-0.009675657376646996,0.0012422617292031646
1782969659865719000,1.705718994140625,0.014140353538095951,-0.002414246555417776,0.00764143280684948
1782969659875645000,1.71564501953125,0.011885189451277256,0.004328344948589802,0.00254414277151227
1782969659885571800,1.72557177734375,0.013222992420196533,0.011259790509939194,-0.0005311480490490794
1782969659895498000,1.735498046875,0.011054379865527153,0.009747647680342197,-0.006581050809472799
1782969659905424000,1.745423828125,0.007741745561361313,0.0042686546221375465,-0.0073317852802574635
1782969659915351000,1.75535107421875,0.0012665358372032642,0.012014725245535374,-0.011240772902965546
1782969659925277000,1.76527685546875,-0.0041396343149244785,0.015047483146190643,-0.005396762862801552
1782969659935203000,1.775203125,-0.005872553214430809,0.018505064770579338,0.00181880546733737
1782969659945130000,1.7851298828125,-0.0037558525800704956,0.01938452199101448,0.004632817581295967
1782969659955055900,1.795055908203125,0.0032653051894158125,0.018467595800757408,0.006024585571140051
1782969659964982000,1.80498193359375,0.014482327736914158,0.01165827177464962,0.0060159568674862385
1782969659974909200,1.8149091796875,0.027507582679390907,-0.008235542103648186,0.011134285479784012
1782969659984834800,1.824834716796875,0.0356377512216568,-0.01310733426362276,0.02655799314379692
1782969659994761000,1.834760986328125,0.03936564549803734,-0.01163460686802864,0.045004379004240036
1782969660004688100,1.844688232421875,0.043033286929130554,-0.003068581223487854,0.05668225511908531
1782969660014614000,1.854614013671875,0.043092142790555954,0.012156179174780846,0.06301525235176086
1782969660024540000,1.864539794921875,0.04482487216591835,0.02024202048778534,0.06277237832546234
1782969660034467000,1.874467041015625,0.04767046123743057,0.010812566615641117,0.052523739635944366
1782969660044393000,1.88439306640625,0.050323955714702606,-0.0001391042023897171,0.05309710651636124
1782969660054318800,1.89431884765625,0.05114474147558212,0.0019429554231464863,0.05676960572600365
1782969660064246300,1.904246337890625,0.04531806334853172,0.00947927962988615,0.06246786192059517
1782969660074172000,1.914171875,0.04384453594684601,0.015297221951186657,0.07099717110395432
1782969660084098000,1.92409814453125,0.04470999166369438,0.024346981197595596,0.08189455419778824
1782969660094025200,1.934025146484375,0.04161539673805237,0.03319613263010979,0.07904177159070969
1782969660103951000,1.943951171875,0.047438062727451324,0.0423436313867569,0.07017529755830765
1782969660113877000,1.953876953125,0.05209806188941002,0.0634494498372078,0.05263865366578102
1782969660123804200,1.96380419921875,0.03723595663905144,0.06591443717479706,0.05619867891073227
1782969660133730000,1.97372998046875,0.024120688438415527,0.05101218819618225,0.05423140153288841
1782969660143656000,1.983656005859375,0.012832904234528542,0.03586183860898018,0.04609503224492073
1782969660153583000,1.9935830078125,0.010504502803087234,0.024232082068920135,0.02292392961680889
1782969660163509200,2.00350927734375,0.004013259895145893,0.00366863701492548,0.0040944223292171955
1782969660173435100,2.01343505859375,0.003646276192739606,-0.015711985528469086,-0.01123952679336071
1782969660183361000,2.023361083984375,0.002851674100384116,-0.011920328252017498,-0.013037756085395813
1782969660193288200,2.0332880859375,0.00038878258783370256,-0.010449464432895184,-0.011866765096783638
1782969660203214000,2.043214111328125,-0.0015278097707778215,-0.005905463360249996,-0.0025068833492696285
1782969660213140000,2.053139892578125,0.0028352471999824047,-0.002948822220787406,0.00044123618863523006
1782969660223067100,2.063067138671875,-0.0007412816630676389,-0.007730225101113319,0.004806817974895239
1782969660232993000,2.072992919921875,-0.003702450543642044,-0.007882557809352875,0.003729835618287325
1782969660242919200,2.082919189453125,-0.007380851078778505,-0.010694514960050583,0.0022483509965240955
1782969660252846000,2.09284619140625,-0.005646866746246815,-0.01383597869426012,0.005089144688099623
1782969660262772000,2.10277197265625,-0.008123364299535751,-0.010922589339315891,0.0145493745803833
1782969660272698000,2.112697998046875,-0.009298883378505707,-0.01317295990884304,0.02213192731142044
1782969660282625300,2.122625244140625,-0.008126802742481232,-0.014877009205520153,0.02042149379849434
1782969660292551200,2.13255126953125,-0.008107361383736134,-0.01705680601298809,0.016561243683099747
1782969660302477000,2.14247705078125,-0.005800234153866768,-0.018024861812591553,0.006485749036073685
1782969660312404200,2.152404296875,-0.006022075656801462,-0.01968640834093094,0.0023040533997118473
1782969660322330000,2.162330078125,-0.006706453859806061,-0.016258275136351585,-0.004005614202469587
1782969660332256000,2.172256103515625,-0.004195093177258968,-0.018376020714640617,-0.00506235659122467
1782969660342183200,2.18218310546875,-0.007899357005953789,-0.018715767189860344,-0.009379616938531399
1782969660352109300,2.192109375,-0.0022230956237763166,-0.024729451164603233,-0.008766823448240757
1782969660362035000,2.202034912109375,-0.004534391686320305,-0.019804194569587708,-0.009077796712517738
1782969660371962000,2.211962158203125,-0.005299251526594162,-0.012171043083071709,-0.010945204645395279
1782969660381888300,2.22188818359375,-0.0016428888775408268,-0.00599548127502203,-0.0036494210362434387
1782969660391814100,2.231814208984375,0.0035263067111372948,-0.005891884211450815,-0.002127158222720027
1782969660401741000,2.241740966796875,0.002983373124152422,-0.004292541649192572,0.009499339386820793
1782969660411667200,2.251667236328125,0.0022129204589873552,-0.0008048657327890396,0.012751591391861439
1782969660421593000,2.261593017578125,0.0008468577871099114,-0.0006222119554877281,0.011526633985340595
1782969660431520300,2.271520263671875,-0.0007598272641189396,-0.004610561765730381,0.010413965210318565
1782969660441446100,2.281446044921875,0.0020848107524216175,-0.001714788842946291,0.013003867119550705
1782969660451372000,2.2913720703125,0.001318352879025042,0.000947040505707264,0.01876082271337509
1782969660461298200,2.301298095703125,0.0057844314724206924,0.0028294380754232407,0.018636485561728477
1782969660471225000,2.31122509765625,0.0032797285821288824,-0.00014051888138055801,0.019000805914402008
1782969660481151000,2.32115087890625,0.0020847260020673275,-0.0006304644048213959,0.013452407903969288
1782969660491077000,2.3310771484375,-0.001511074136942625,-0.0029591326601803303,0.0014649872900918126
1782969660501004300,2.34100439453125,-0.002329494571313262,-0.006783967837691307,-0.004125029779970646
1782969660510930200,2.35093017578125,-0.0019981972873210907,0.0007602348923683167,-0.005956485867500305
1782969660520856000,2.36085595703125,-0.005520306061953306,0.005044241901487112,0.004301200620830059
1782969660530783200,2.370783203125,-0.007537384517490864,0.007860001176595688,0.009200617671012878
1782969660540709000,2.380709228515625,-0.007770761847496033,0.00640153931453824,0.0005403483519330621
1782969660550635000,2.390635009765625,-0.006376863457262516,0.005780756939202547,-0.004198746755719185
1782969660560562200,2.400562255859375,-0.003380486276000738,0.005148101598024368,-0.0012326246360316873
1782969660570488300,2.41048828125,-0.003638546448200941,0.004041558131575584,0.008650366216897964
1782969660580414000,2.4204140625,-0.0011926696170121431,0.012539975345134735,0.019186673685908318
1782969660590341000,2.430341064453125,0.0041323211044073105,0.014397796243429184,0.020310794934630394
1782969660600267300,2.440267333984375,0.001965530915185809,0.016565419733524323,0.02120751142501831
1782969660610193000,2.45019287109375,-0.0022252192720770836,0.015172584913671017,0.017681753262877464
1782969660620120000,2.4601201171875,-0.00449063116684556,0.013605806976556778,0.012226629070937634
1782969660630046200,2.470046142578125,-0.007573772221803665,0.014913685619831085,0.0005531952483579516
1782969660639972000,2.47997216796875,-0.0040657175704836845,0.011814260855317116,-0.0020571392960846424
1782969660649899000,2.48989892578125,0.0016635408392176032,-0.000026153866201639175,-0.009536361321806908
1782969660659825200,2.4998251953125,0.005205236375331879,-0.011447843164205551,-0.009507033973932266
1782969660669751000,2.5097509765625,0.009963505901396275,-0.008363902568817139,0.000871837604790926
1782969660679678200,2.51967822265625,0.011230934411287308,-0.0002037077210843563,0.015430581755936146
1782969660689604000,2.52960400390625,0.012411247007548809,-0.001447936287149787,0.03327668830752373
1782969660699530200,2.5395302734375,0.009450750425457954,0.0013070637360215187,0.03775542601943016
1782969660709457200,2.54945703125,0.0013920256169512868,0.003900716081261635,0.030364355072379112
1782969660719383000,2.559383056640625,0.0020065680146217346,0.006843390874564648,0.022786617279052734
1782969660729309200,2.56930908203125,-0.0022939045447856188,0.011559582315385342,0.019615326076745987
1782969660739235000,2.579235107421875,-0.002217665081843734,0.01032114028930664,0.012400299310684204
1782969660749162200,2.589162353515625,0.002228482160717249,0.007197252940386534,0.007228706497699022
1782969660759088000,2.599088134765625,0.004756608512252569,0.004443624056875706,-0.006356269121170044
1782969660769014000,2.609013916015625,0.009523667395114899,0.007815985009074211,-0.009350728243589401
1782969660778941200,2.618941162109375,0.012860268354415894,0.005782200954854488,-0.00745776342228055
1782969660788867300,2.628867431640625,0.013512210920453072,0.0045837778598070145,-0.00012661388609558344
1782969660798793000,2.63879296875,0.015603494830429554,0.0048913368955254555,0.0037185968831181526
1782969660808720100,2.64872021484375,0.015516143292188644,-0.0017042479012161493,0.0031135263852775097
1782969660818646300,2.658646240234375,0.012875418178737164,-0.0028477765154093504,0.006487570703029633
1782969660828572200,2.668572265625,0.0036680717021226883,-0.002031517680734396,0.01080801710486412
1782969660838499000,2.6784990234375,-0.00019770005019381642,0.0035461350344121456,0.017970066517591476
1782969660848425200,2.68842529296875,-0.006606330629438162,0.0034409393556416035,0.025178443640470505
1782969660858351000,2.69835107421875,-0.006178373005241156,0.002871901262551546,0.021279118955135345
1782969660868278000,2.708278076171875,-0.007143236231058836,-0.00494101457297802,0.012180961668491364
1782969660878204200,2.7182041015625,-0.007176023442298174,-0.009803150780498981,0.008336112834513187
1782969660888130300,2.72813037109375,-0.0072700330056250095,-0.00994669459760189,0.008900171145796776
1782969660898057200,2.73805712890625,-0.00811084732413292,-0.0009341374970972538,0.004824841860681772
1782969660907983000,2.747983154296875,-0.004945946857333183,-0.00031335465610027313,0.002183518372476101
1782969660917909200,2.7579091796875,-0.00420550350099802,-0.004173757508397102,0.006087915040552616
1782969660927836200,2.767836181640625,0.0029541384428739548,-0.0060555473901331425,0.0014446941204369068
1782969660937762000,2.777761962890625,0.005311314947903156,-0.003836680669337511,0.0035573048517107964
1782969660947688200,2.787688232421875,0.011960162781178951,-0.008592819795012474,0.01022665947675705
1782969660957615000,2.797614990234375,0.016963835805654526,-0.0044350530952215195,0.018031755462288857
1782969660967541200,2.807541259765625,0.016237325966358185,-0.004238245543092489,0.015356345102190971
1782969660977467100,2.817467041015625,0.01424469519406557,-0.00742003507912159,0.01136889960616827
1782969660987394000,2.82739404296875,0.011964496225118637,-0.007425627671182156,0.007478554267436266
1782969660997320200,2.8373203125,0.01020805723965168,-0.0033327313140034676,0.0044844262301921844
1782969661007246000,2.84724609375,0.009042657911777496,-0.004891213029623032,0.0038231632206588984
1782969661017173000,2.857173095703125,0.008032224141061306,-0.005468057002872229,0.009664498269557953
1782969661027099100,2.86709912109375,0.008411457762122154,-0.008459852077066898,0.007420784793794155
1782969661037025300,2.877025390625,0.003989043179899454,-0.0034456495195627213,0.014065147377550602
1782969661046952000,2.886951904296875,0.0008403876563534141,-0.0033364598639309406,0.014792456291615963
1782969661056878000,2.896878173828125,0.0029745898209512234,-0.001554383197799325,0.008604975417256355
1782969661066803700,2.9068037109375,0.00676160492002964,-0.004460957366973162,0.012260696850717068
1782969661076729900,2.916729736328125,0.010635463520884514,-0.009958678856492043,0.008209613151848316
1782969661086656800,2.92665673828125,0.010127333924174309,-0.007550382986664772,0.007220515049993992
1782969661096583000,2.9365830078125,0.003781988751143217,-0.00793498009443283,0.01097810734063387
1782969661106508800,2.9465087890625,-0.00034591101575642824,-0.0038345104549080133,0.008584458380937576
1782969661116435700,2.956435791015625,0.000443170836661011,-0.00014914851635694504,0.008706772699952126
1782969661126361900,2.96636181640625,0.0033665229566395283,-0.003626704216003418,0.0033546173945069313
1782969661136287700,2.976287841796875,0.0016400504391640425,-0.004978680517524481,0.002502565272152424
1782969661146214700,2.986214599609375,-0.0032423227094113827,-0.0060117207467556,-0.002833610400557518
1782969661156140800,2.996140869140625,-0.002172700362280011,-0.006635928992182016,-0.0021754156332463026
1782969661166067000,3.00606689453125,-0.0025205090641975403,-0.004666255321353674,-0.006236469838768244
1782969661175993600,3.01599365234375,0.0008563174633309245,-0.0020321283955127,0.0009116363944485784
1782969661185919700,3.025919677734375,-0.00008750683628022671,-0.003297396469861269,0.004259230103343725
1782969661195846000,3.035845947265625,-0.00019297923427075148,-0.004039540886878967,0.005121368914842606
1782969661205772800,3.045772705078125,0.00015429695486091077,-0.005007866304367781,0.002903488464653492
1782969661215698700,3.05569873046875,0.005072484258562326,-0.0056741503067314625,0.002341199666261673
1782969661225624800,3.065624755859375,0.007507678586989641,-0.0056680249981582165,0.006707185413688421
1782969661235551700,3.0755517578125,0.008532577194273472,-0.002640691353008151,0.010193242691457272
1782969661245477600,3.0854775390625,0.011510790325701237,-0.0039986371994018555,0.016546744853258133
1782969661255403800,3.09540380859375,0.00926079973578453,-0.006388171575963497,0.026383109390735626
1782969661265330700,3.10533056640625,0.0052673895843327045,-0.007076598703861237,0.027529601007699966
1782969661275256800,3.1152568359375,0.004136594478040934,-0.0018891107756644487,0.023843135684728622
1782969661285182700,3.1251826171875,0.006437565665692091,-0.0007309019565582275,0.019415097311139107
1782969661295108900,3.13510888671875,0.00384350772947073,-0.003096015891060233,0.011202611960470676
1782969661305035800,3.145035888671875,0.0031359056010842323,-0.007753884419798851,0.0006732722977176309
1782969661314961700,3.154961669921875,-0.0006073067779652774,-0.012549133040010929,-0.008907811716198921
1782969661324887800,3.1648876953125,0.0006630211137235165,-0.01089477725327015,-0.01852608472108841
1782969661334814700,3.174814697265625,0.001392207108438015,-0.012828843668103218,-0.020659351721405983
1782969661344740900,3.184740966796875,0.002992500551044941,-0.008017577230930328,-0.013498377054929733
1782969661354666800,3.194666748046875,0.006722523830831051,-0.00014047930017113686,-0.0027615774888545275
1782969661364593700,3.20459375,0.01679486595094204,0.010111093521118164,0.007107298355549574
1782969661374519800,3.214519775390625,0.03281307592988014,0.01119610108435154,0.021826451644301414
1782969661384445700,3.22444580078125,0.04309500753879547,0.014514399692416191,0.03393424674868584
1782969661394372600,3.23437255859375,0.050553757697343826,0.0057107917964458466,0.03942679613828659
1782969661404298800,3.244298828125,0.051382798701524734,-0.0020555187948048115,0.041620973497629166
1782969661414225000,3.254224853515625,0.04840638116002083,-0.0031226782593876123,0.039952684193849564
1782969661424151800,3.26415185546875,0.03710552304983139,0.003949079662561417,0.042595602571964264
1782969661434077700,3.27407763671875,0.03822043538093567,0.00760049419477582,0.04280124977231026
1782969661444003800,3.28400390625,0.02967221662402153,0.01709679514169693,0.043818578124046326
1782969661453930800,3.2939306640625,0.023810092359781265,0.013969020918011665,0.04701928421854973
1782969661463856600,3.303856689453125,0.020868364721536636,0.006961977109313011,0.03982368856668472
1782969661473782800,3.31378271484375,0.014872372150421143,0.00006717164069414139,0.03344007208943367
1782969661483709700,3.323709716796875,0.005029329098761082,0.0031774775125086308,0.02325907163321972
1782969661493635800,3.3336357421875,-0.005120498593896627,0.005101531744003296,0.00978100672364235
1782969661503561700,3.343561767578125,-0.010955484583973885,0.004563307389616966,-0.00316009228117764
1782969661513489000,3.353489013671875,-0.016902601346373558,-0.004495622124522924,-0.020638078451156616
1782969661523414800,3.363414794921875,-0.01828664541244507,-0.002134996000677347,-0.02770158089697361
1782969661533340700,3.373340576171875,-0.015607209876179695,-0.002704642014577985,-0.02824988216161728
1782969661543267800,3.383267822265625,-0.011691831052303314,-0.013670207932591438,-0.014015287160873413
1782969661553193700,3.39319384765625,-0.004962670151144266,-0.017257871106266975,0.0035623968578875065
1782969661563119900,3.403119873046875,0.0004664499720092863,-0.016635490581393242,0.025313764810562134
1782969661573045800,3.413045654296875,0.004103377461433411,-0.008042415603995323,0.043809663504362106
1782969661582972700,3.42297265625,-0.003870926098898053,0.0016922368668019772,0.05159807950258255
1782969661592898800,3.43289892578125,-0.003345357719808817,0.006508869584649801,0.049158528447151184
1782969661602824700,3.44282470703125,-0.0010417234152555466,0.007023924496024847,0.0397341325879097
1782969661612751600,3.452751708984375,0.002364738844335079,0.0012394594959914684,0.027084842324256897
1782969661622677800,3.462677734375,0.0029583575669676065,0.0012860647402703762,0.01187446340918541
1782969661632604000,3.47260400390625,0.007464692462235689,-0.00024818209931254387,-0.0015920769656077027
1782969661642530600,3.482530517578125,0.008545668795704842,-0.0015784313436597586,-0.005583622958511114
1782969661652456700,3.492456787109375,0.008205093443393707,-0.003926349803805351,-0.005804164335131645
1782969661662382800,3.5023828125,0.006753670517355204,-0.0036336686462163925,-0.007948807440698147
1782969661672309800,3.512309814453125,0.005646800622344017,-0.0030413884669542313,-0.005243387538939714
1782969661682235600,3.522235595703125,0.0070934295654296875,-0.002016337588429451,-0.0012806039303541183
1782969661692161800,3.532161865234375,0.007941875606775284,-0.006522168405354023,0.005534648895263672
1782969661702089000,3.5420888671875,0.009333910420536995,-0.008351227268576622,0.005158610641956329
1782969661712014600,3.5520146484375,0.012028297409415245,-0.012736622244119644,0.011985708959400654
1782969661721940700,3.561940673828125,0.017906958237290382,-0.010179455392062664,0.02756466716527939
1782969661731868000,3.571867919921875,0.020977528765797615,-0.010669322684407234,0.04325319081544876
1782969661741793800,3.581793701171875,0.022013764828443527,-0.010495418682694435,0.04731583967804909
1782969661751719700,3.5917197265625,0.014802415855228901,-0.011742500588297844,0.040832411497831345
1782969661761646800,3.601646728515625,0.00847980473190546,-0.007451882120221853,0.030883638188242912
1782969661771572700,3.61157275390625,0.002918858081102371,-0.0029285030905157328,0.022219842299818993
1782969661781498600,3.62149853515625,0.004854443483054638,-0.0029756410513073206,0.014225566759705544
1782969661791425800,3.63142578125,0.0052213724702596664,-0.009675465524196625,0.008041013032197952
1782969661801351700,3.6413515625,0.006744434125721455,-0.0023685512132942677,0.0004970770096406341
1782969661811277800,3.65127783203125,0.011385846883058548,0.0061299726366996765,0.0042347172275185585
1782969661821203700,3.66120361328125,0.008336260914802551,0.0027235234156250954,0.006010513287037611
1782969661831130600,3.671130615234375,0.01091357134282589,0.00019694725051522255,0.004956839140504599
1782969661841056800,3.681056884765625,0.013182317838072777,-0.0005229050293564796,0.0015836789971217513
1782969661850983000,3.69098291015625,0.018764358013868332,0.0013006720691919327,-0.0005413638427853584
1782969661860909800,3.700909912109375,0.01591584086418152,0.005724715068936348,0.01235153153538704
1782969661870835700,3.710835693359375,0.011798804625868797,0.005440977402031422,0.017660915851593018
1782969661880761900,3.720761962890625,0.009802766144275665,0.006496122106909752,0.017389539629220963
1782969661890689000,3.73068896484375,0.005513494368642569,0.005436268635094166,0.014253786765038967
1782969661900614700,3.74061474609375,0.001533133676275611,0.005004038102924824,0.011694755405187607
1782969661910540800,3.750540771484375,0.00019951656577177346,-0.00021908199414610863,0.010301856324076653
1782969661920468000,3.760468017578125,0.0023372359573841095,-0.000368485227227211,0.010852597653865814
1782969661930393600,3.7703935546875,0.006215796805918217,0.00023175915703177452,0.01694023236632347
1782969661940319700,3.78031982421875,0.006133505143225193,-0.0032370081171393394,0.01807740144431591
1782969661950247000,3.790246826171875,0.002102907979860902,-0.004469750449061394,0.018711097538471222
1782969661960172800,3.8001728515625,0.001079721376299858,-0.009666110388934612,0.010706433095037937
1782969661970098700,3.8100986328125,0.007893545553088188,-0.002357024233788252,0.008114016614854336
1782969661980025900,3.82002587890625,0.014479011297225952,0.003994614817202091,0.014614791609346867
1782969661989951700,3.82995166015625,0.014180638827383518,-0.0015676990151405334,0.02139001339673996
1782969661999877600,3.839877685546875,0.02108674868941307,-0.003036698792129755,0.01873510703444481
1782969662009804800,3.8498046875,0.018660329282283783,-0.0036619289312511683,0.02007821574807167
1782969662019730700,3.859730712890625,0.011294292286038399,-0.004410543479025364,0.022150687873363495
1782969662029656800,3.86965673828125,0.006888299714773893,-0.0055069755762815475,0.014033285900950432
1782969662039582700,3.879582763671875,0.0013007214292883873,-0.0033442224375903606,0.010049995966255665
1782969662049510000,3.889510009765625,-0.00337556516751647,-0.0020487855654209852,0.003817165270447731
1782969662059435800,3.899435791015625,-0.004589700605720282,-0.0034565324895083904,-0.0008771884604357183
1782969662069361400,3.909361328125,-0.0039233057759702206,0.004550989251583815,0.0008786445250734687
1782969662079288600,3.91928857421875,-0.004891364835202694,0.005739824380725622,0.00850700307637453
1782969662089214500,3.92921435546875,-0.003038463881239295,0.003963456489145756,0.010530302301049232
1782969662099140400,3.939140380859375,-0.0008168549975380301,-0.0009444835595786572,0.009812047705054283
1782969662109067500,3.949067626953125,0.0006595038576051593,-0.003952027298510075,0.0037423099856823683
1782969662118993400,3.958993408203125,-0.0032620008569210768,-0.0020947386510670185,-0.004752641543745995
1782969662128919600,3.96891943359375,-0.0026666445191949606,0.004962332546710968,-0.0005077335517853498
1782969662138844400,3.978844482421875,-0.004988121800124645,0.00846518762409687,0.0032459921203553677
1782969662148770600,3.9887705078125,-0.007776269689202309,0.006927363108843565,0.0084530683234334
1782969662158697700,3.99869775390625,-0.004955715965479612,0.006395529489964247,0.007242129184305668
1782969662168623400,4.008623291015625,-0.006657516583800316,-0.002258437918499112,0.0037141991779208183
1782969662178549500,4.018549560546875,-0.004448956809937954,-0.005449703894555569,0.004806095268577337
1782969662188476700,4.0284765625,-0.005298325326293707,-0.0022821538150310516,0.008804968558251858
1782969662198402300,4.03840234375,-0.006883172784000635,-0.0026059942319989204,0.014647677540779114
1782969662208328400,4.048328369140625,-0.004143955186009407,-0.0035151531919837,0.012734142132103443
1782969662218255600,4.058255615234375,0.0011749101104214787,-0.0015524036716669798,0.004970229230821133
1782969662228181500,4.068181396484375,0.001779218902811408,-0.003474645782262087,0.00009295891504734755
1782969662238107400,4.078107421875,-0.0035220691934227943,-0.006888018921017647,-0.0007363493787124753
1782969662248034600,4.08803466796875,-0.006053289398550987,-0.013195065781474113,0.00008734455332159996
1782969662257960400,4.09796044921875,-0.015037995763123035,-0.014443021267652512,0.0005962747382000089
1782969662267886300,4.10788623046875,-0.020516537129878998,-0.015591256320476532,0.0042378599755465984
1782969662277813500,4.1178134765625,-0.028507085517048836,-0.009701943024992943,0.009507723152637482
1782969662287739400,4.127739501953125,-0.030641470104455948,-0.0088239386677742,0.014987006783485413
1782969662297665500,4.13766552734375,-0.02866966463625431,-0.005139188840985298,0.017769742757081985
1782969662307592400,4.147592529296875,-0.022902842611074448,0.001212902832776308,0.00909335631877184
1782969662317518600,4.1575185546875,-0.018599707633256912,0.005642538424581289,0.006718881893903017
1782969662327444500,4.167444580078125,-0.013998505659401417,0.003921347204595804,0.0009841169230639935
1782969662337371600,4.17737158203125,-0.012363324873149395,-0.0003034919500350952,-0.002408750355243683
1782969662347297500,4.187297607421875,-0.005915181245654821,-0.00025285594165325165,-0.002264013048261404
1782969662357223400,4.197223388671875,-0.00022507156245410442,0.00020041409879922867,0.0023685554042458534
1782969662367149600,4.207149658203125,0.004495982080698013,0.004435403272509575,0.004531127400696278
1782969662377076500,4.217076416015625,0.008517089299857616,0.004741400480270386,0.0011385263642296195
1782969662387002400,4.22700244140625,0.005540951620787382,0.00040832674130797386,-0.000543952570296824
1782969662396928500,4.236928466796875,-0.0037287131417542696,-0.004379770252853632,-0.0016473002033308148
1782969662406855700,4.246855712890625,-0.0024332250468432903,-0.0050673591904342175,0.007403889670968056
1782969662416781300,4.25678125,0.0025639303494244814,-0.0016547844279557467,0.010974655859172344
1782969662426707500,4.26670751953125,0.0043567148968577385,0.0005398159846663475,0.02779635414481163
1782969662436634600,4.276634521484375,0.006666740868240595,-0.001534519949927926,0.03422815352678299
1782969662446560300,4.286560302734375,0.007144413888454437,-0.0013470689300447702,0.03421817347407341
1782969662456486400,4.296486328125,0.007637897972017527,-0.0070395758375525475,0.0273477490991354
1782969662466413600,4.30641357421875,0.009414532221853733,-0.0034426841884851456,0.015116425231099129
1782969662476339500,4.31633935546875,0.008647807873785496,0.0018199887126684189,0.009684109129011631
1782969662486265300,4.326265380859375,0.008734977804124355,0.008033258840441704,0.004597940482199192
1782969662496192500,4.336192626953125,0.004333038814365864,0.008286524564027786,-0.003068767488002777
1782969662506118700,4.34611865234375,-0.006509755272418261,0.015478657558560371,-0.014319024980068207
1782969662516047400,4.35604736328125,-0.015770364552736282,0.012330003082752228,-0.012915005907416344
1782969662525973500,4.365973388671875,-0.01387157291173935,0.019595447927713394,-0.004780615214258432
1782969662535899400,4.3758994140625,-0.01050800085067749,0.019830338656902313,0.0008849935838952661
1782969662545826600,4.38582666015625,-0.011103860102593899,0.02990645356476307,0.008154038339853287
1782969662555752400,4.39575244140625,-0.002691733418032527,0.022161979228258133,0.018382441252470016
1782969662565678600,4.4056787109375,0.0052272561006248,0.021653803065419197,0.02414499968290329
1782969662575605500,4.41560546875,0.005928200203925371,0.0043632290326058865,0.021666130051016808
1782969662585531400,4.425531494140625,0.01074458658695221,-0.0015319373924285173,0.020011059939861298
1782969662595457500,4.43545751953125,0.010470813140273094,-0.0022485938388854265,0.016307935118675232
1782969662605383400,4.445383544921875,0.009357878938317299,0.0005136365070939064,0.017595838755369186
1782969662615310300,4.455310302734375,0.006929874420166016,0.013668321073055267,0.022873958572745323
1782969662625236500,4.465236572265625,0.004797421861439943,0.016239063814282417,0.02709418348968029
1782969662635162600,4.47516259765625,0.0028109699487686157,0.016087530180811882,0.01789216324687004
1782969662645089300,4.48508935546875,-0.000032499257940799,0.013244682922959328,-0.0028322150465101004
1782969662655015400,4.495015380859375,0.008181754499673843,0.003822951577603817,-0.01687745936214924
1782969662664941600,4.504941650390625,0.014648192562162876,-0.0031528479885309935,-0.02579493634402752
1782969662674868500,4.514868408203125,0.020032305270433426,-0.0006167194806039333,-0.0310866367071867
1782969662684794400,4.52479443359375,0.029293376952409744,-0.004252396058291197,-0.02968236617743969
1782969662694720500,4.534720458984375,0.0356583297252655,-0.0061578876338899136,-0.02281620353460312
1782969662704647400,4.5446474609375,0.040561798959970474,-0.004445896949619055,-0.0026125041767954826
1782969662714573300,4.5545732421875,0.03710288554430008,-0.0016399903688579798,0.013588037341833115
1782969662724499500,4.56449951171875,0.034501805901527405,0.002040502615272999,0.0225813090801239
1782969662734426600,4.574426513671875,0.02622203901410103,0.004828565288335085,0.022099541500210762
1782969662744352500,4.5843525390625,0.025409674271941185,0.002828229684382677,0.014064657501876354
1782969662754278400,4.5942783203125,0.02382136508822441,0.0016537760384380817,0.003910291474312544
1782969662764205600,4.60420556640625,0.0239699836820364,-0.0004083891399204731,-0.010994430631399155
1782969662774131500,4.61413134765625,0.02722330205142498,0.003304057754576206,-0.02089100517332554
1782969662784057300,4.624057373046875,0.026870474219322205,-0.0007791765965521336,-0.027025360614061356
1782969662793984500,4.633984619140625,0.030140304937958717,-0.0032244911417365074,-0.02565995790064335
1782969662803910400,4.643910400390625,0.02420654520392418,-0.002991726854816079,-0.020353034138679504
1782969662813836500,4.65383642578125,0.01993696391582489,-0.0007493449375033379,-0.015286103822290897
1782969662823763700,4.663763671875,0.019262736663222313,-0.003080294467508793,-0.006765116937458515
1782969662833689300,4.673689453125,0.020436391234397888,-0.005595383699983358,-0.008054619655013084
1782969662843615500,4.683615478515625,0.01847299560904503,-0.012489894405007362,-0.010789133608341217
1782969662853542700,4.693542724609375,0.019222142174839973,-0.013795643113553524,-0.007337676361203194
1782969662863468300,4.70346826171875,0.016434822231531143,-0.006825728807598352,-0.004662690684199333
1782969662873394400,4.71339453125,0.015231341123580933,-0.0026019553188234568,0.0024141273461282253
1782969662883320600,4.723320556640625,0.009213535115122795,-0.001340456074103713,0.006383931264281273
1782969662893247500,4.73324755859375,0.0014605405740439892,-0.0012773391790688038,0.006959706544876099
1782969662903173400,4.74317333984375,-0.002423848956823349,0.008027248084545135,0.005054342560470104
1782969662913099500,4.753099609375,-0.008133399300277233,0.007838429883122444,-0.0003300365060567856
1782969662923026700,4.763026611328125,-0.023738835006952286,0.033042632043361664,-0.007519558537751436
1782969662932952300,4.772952392578125,-0.025020349770784378,-0.0017177455592900515,-0.02075733244419098
1782969662942878500,4.78287841796875,-0.0117563521489501,-0.001467798836529255,-0.013142313808202744
1782969662952805600,4.7928056640625,-0.007717934437096119,0.0004906901158392429,-0.021209560334682465
1782969662962731500,4.8027314453125,-0.0017636087723076344,-0.006559225730597973,-0.017865121364593506
1782969662972657400,4.812657470703125,-0.002550306497141719,-0.0008499412797391415,-0.019618280231952667
1782969662982584600,4.82258447265625,-0.006417355965822935,-0.007114189211279154,-0.020876452326774597
1782969662992510500,4.832510498046875,-0.0011267204536125064,-0.00851874053478241,-0.017487313598394394
1782969663002436400,4.842436279296875,0.005771327298134565,-0.012870807200670242,-0.013579667545855045
1782969663012363500,4.852363525390625,0.01029390748590231,-0.011060922406613827,-0.0037318309769034386
1782969663022289400,4.862289306640625,0.008547871373593807,-0.006217729300260544,0.00539287319406867
1782969663032215600,4.872215576171875,0.00901445746421814,-0.005901345517486334,0.013523236848413944
1782969663042142500,4.882142578125,0.010047776624560356,-0.007155507802963257,0.00828579068183899
1782969663052068400,4.892068359375,0.0060074953362345695,-0.004530163481831551,0.0062213074415922165
1782969663061994500,4.901994384765625,0.007474393583834171,-0.011708177626132965,0.004193087108433247
1782969663071922200,4.911922119140625,0.00518008042126894,-0.019240394234657288,-0.004169238265603781
1782969663081847800,4.921847900390625,0.0030503503512591124,-0.015086929313838482,-0.004786825273185968
1782969663091774000,4.93177392578125,-0.00025836110580712557,0.0013660797849297523,0.00473850267007947
1782969663101700000,4.9417001953125,-0.008835408836603165,0.0027981321327388287,0.019721437245607376
1782969663111627000,4.951626953125,-0.0137745076790452,-0.004263239912688732,0.02093557082116604
1782969663121553000,4.961552978515625,-0.015787899494171143,-0.009522907435894012,0.009410240687429905
1782969663131479000,4.97147900390625,-0.010470099747180939,-0.0027049484197050333,0.005214962642639875
1782969663141406000,4.981406005859375,-0.0039627631194889545,-0.004462670534849167,0.007156013045459986
1782969663151331800,4.991331787109375,0.0012415865203365684,-0.007420643698424101,0.004192980471998453
1782969663161258000,5.001258056640625,-0.00016580976080149412,-0.014772983267903328,-0.00878360215574503
1782969663171185000,5.011184814453125,-0.0025741064455360174,-0.024565426632761955,-0.019190968945622444
1782969663181111000,5.021111083984375,-0.0018689987482503057,-0.012653941288590431,-0.016281859949231148
1782969663191037000,5.031036865234375,-0.000064707244746387,-0.0014332449063658714,0.001159182284027338
1782969663200964000,5.040964111328125,-0.0027580757159739733,-0.007413493003696203,0.012210789136588573
1782969663210890000,5.050889892578125,-0.007019133307039738,-0.010224193334579468,0.007234139367938042
1782969663220816000,5.06081591796875,-0.022398803383111954,-0.017252691090106964,-0.0022475766018033028
1782969663230743000,5.070742919921875,-0.032151300460100174,-0.015583156608045101,-0.01603396236896515
1782969663240669000,5.0806689453125,-0.03793530911207199,-0.015343885868787766,-0.02414970099925995
1782969663250595000,5.090594970703125,-0.035252705216407776,-0.0148842241615057,-0.029172688722610474
1782969663260522000,5.10052197265625,-0.03481785207986832,-0.013302495703101158,-0.02201727405190468
1782969663270447900,5.11044775390625,-0.031321119517087936,-0.014170420356094837,-0.017964741215109825
1782969663280374000,5.1203740234375,-0.029058728367090225,-0.018223457038402557,-0.015084492042660713
1782969663290300000,5.1302998046875,-0.03251444548368454,-0.019100969657301903,-0.01434812881052494
1782969663300226800,5.140226806640625,-0.029874339699745178,-0.021285176277160645,-0.011563814245164394
1782969663310153000,5.150153076171875,-0.02922346256673336,-0.014199036173522472,-0.001561780576594174
1782969663320079000,5.1600791015625,-0.023576943203806877,-0.0061788116581737995,0.005479020997881889
1782969663330005800,5.170005859375,-0.0198567733168602,-0.0034775673411786556,0.003761015832424164
1782969663339932000,5.179931884765625,-0.014541315846145153,-0.005644470453262329,-0.0029404032975435257
1782969663349858000,5.189858154296875,-0.016888359561562538,-0.006761134136468172,-0.012452681548893452
1782969663359785000,5.199784912109375,-0.021418480202555656,0.0009470041841268539,-0.018470030277967453
1782969663369710800,5.2097109375,-0.023146074265241623,-0.002145724603906274,-0.020114265382289886
1782969663379637000,5.219636962890625,-0.020827189087867737,-0.002836087252944708,-0.021419737488031387
1782969663389564200,5.229564208984375,-0.021304426714777946,-0.0007689418271183968,-0.02336304634809494
1782969663399489800,5.23948974609375,-0.020131751894950867,-0.004467424470931292,-0.02195669338107109
1782969663409416000,5.249416015625,-0.018183914944529533,-0.007157216779887676,-0.018379801884293556
1782969663419343000,5.259343017578125,-0.013200034387409687,-0.0031630834564566612,-0.01442690473049879
1782969663429269000,5.26926904296875,-0.010710511356592178,-0.0057159895077347755,-0.006818519439548254
1782969663439195000,5.27919482421875,-0.0065096705220639706,-0.006251822225749493,0.0025171490851789713
1782969663449122000,5.2891220703125,-0.009270302951335907,-0.0018818413373082876,0.008416849188506603
1782969663459048000,5.2990478515625,-0.009695501066744328,-0.000848044641315937,0.0023656683042645454
1782969663468973800,5.308973876953125,-0.01136024296283722,-0.0027253071311861277,-0.008283247239887714
1782969663478901000,5.31890087890625,-0.008577530272305012,0.0003334921784698963,-0.012601947411894798
1782969663488827000,5.328826904296875,-0.000653827388305217,-0.003094795159995556,-0.018435068428516388
1782969663498753000,5.3387529296875,0.0032330984249711037,-0.0031726353336125612,-0.026095150038599968
1782969663508680200,5.34868017578125,0.0077506182715296745,-0.005222736857831478,-0.027265077456831932
1782969663518605800,5.358605712890625,0.010263493284583092,-0.006287849973887205,-0.030433643609285355
1782969663528532000,5.368531982421875,0.01422441191971302,-0.004414582625031471,-0.031695447862148285
1782969663538458000,5.3784580078125,0.01190105825662613,-0.001645348034799099,-0.023625461384654045
1782969663548385000,5.388385009765625,0.006231453735381365,-0.0006147045642137527,-0.014987234026193619
1782969663558311000,5.398310791015625,0.001135537400841713,-0.0006246333941817284,-0.00821324810385704
1782969663568237000,5.408237060546875,-0.00028312846552580595,-0.004657990764826536,-0.008167441934347153
1782969663578164200,5.418164306640625,-0.0003360150149092078,-0.001860385062173009,-0.010584474541246891
1782969663588089900,5.42808984375,-0.003049776190891862,0.0033873734064400196,-0.008648889139294624
1782969663598016000,5.43801611328125,-0.00009223888628184795,0.0013000243343412876,-0.007624243386089802
1782969663607943200,5.447943115234375,-0.004328529350459576,-0.0010696561075747013,-0.009620282799005508
1782969663617868800,5.457868896484375,0.0073209661059081554,0.0025621005333960056,-0.01123518031090498
1782969663627795000,5.467794921875,0.012444887310266495,0.0007295794785022736,-0.00904313288629055
1782969663637722000,5.47772216796875,0.01379963755607605,-0.0024390495382249355,-0.006913935299962759
1782969663647648000,5.48764794921875,0.013613482937216759,-0.0017937654629349709,-0.010656475089490414
1782969663657574000,5.497573974609375,0.015665575861930847,-0.0074055390432477,-0.014917097054421902
1782969663667501000,5.5075009765625,0.01418272778391838,-0.01135181076824665,-0.01238229963928461
1782969663677427000,5.517427001953125,0.010150925256311893,-0.010816439986228943,-0.010169979184865952
1782969663687352800,5.527352783203125,0.0100377406924963,-0.010085668414831161,-0.010089285671710968
1782969663697280000,5.537280029296875,0.009701257571578026,0.0001594717614352703,-0.007779430598020554
1782969663707206000,5.547205810546875,0.011426719836890697,0.0017586997710168362,-0.008531240746378899
1782969663717132000,5.557132080078125,0.013858353719115257,-0.0018709576688706875,-0.013749833218753338
1782969663727058000,5.567057861328125,0.01333104819059372,-0.006456388160586357,-0.015876632183790207
1782969663736985000,5.576985107421875,0.012828496284782887,-0.002093783812597394,-0.022732065990567207
1782969663746911000,5.586910888671875,0.008631886914372444,-0.004710073117166758,-0.02533717080950737
1782969663756836900,5.5968369140625,0.0100190294906497,-0.001254124566912651,-0.029308605939149857
1782969663766764000,5.606763916015625,0.010951935313642025,-0.0007316125556826591,-0.025215592235326767
1782969663776690000,5.61668994140625,0.014168177731335163,-0.001760933781042695,-0.024390630424022675
1782969663786616000,5.626615966796875,0.01598551869392395,-0.004519968759268522,-0.02466040849685669
1782969663796543000,5.63654296875,0.019590947777032852,-0.0064162141643464565,-0.026418661698698997
1782969663806468900,5.64646875,0.018107566982507706,-0.011008037254214287,-0.024286268278956413
1782969663816395000,5.65639501953125,0.017001403495669365,-0.013961628079414368,-0.026101764291524887
1782969663826322200,5.666322265625,0.01865416020154953,-0.008044617250561714,-0.023682549595832825
1782969663836247800,5.676247802734375,0.019131552428007126,-0.004704067949205637,-0.016476547345519066
1782969663846174000,5.686174072265625,0.018761904910206795,-0.0013476861640810966,-0.010823455639183521
1782969663856101000,5.69610107421875,0.011792806908488274,-0.00036467378959059715,-0.008691690862178802
1782969663866026800,5.70602685546875,0.010465754196047783,-0.0017513816710561514,-0.01572509855031967
1782969663875953000,5.715952880859375,0.012652517296373844,-0.0074444967322051525,-0.021078085526823997
1782969663885880000,5.725880126953125,0.012633342295885086,-0.009766772389411926,-0.024368686601519585
1782969663895806000,5.735805908203125,0.0110357366502285,-0.0051444829441607,-0.025698820129036903
1782969663905731800,5.74573193359375,0.008784567937254906,-0.011255638673901558,-0.030282119289040565
1782969663915659000,5.755658935546875,0.006208128295838833,-0.008066539652645588,-0.03055735118687153
1782969663925585200,5.765585205078125,0.007530920207500458,-0.006794081535190344,-0.028186606243252754
1782969663935511000,5.775510986328125,0.010660305619239807,-0.00823498796671629,-0.02227325737476349
1782969663945437000,5.78543701171875,0.014256104826927185,-0.010779905132949352,-0.017686760053038597
1782969663955364000,5.795364013671875,0.018307823687791824,-0.011247641406953335,-0.018012849614024162
1782969663965290000,5.8052900390625,0.01725667342543602,-0.01028996892273426,-0.014947020448744297
1782969663975215900,5.8152158203125,0.021631142124533653,-0.010612135753035545,-0.014579737558960915
1782969663985143000,5.82514306640625,0.018041733652353287,-0.006650949828326702,-0.014519816264510155
1782969663995069000,5.83506884765625,0.015611289069056511,-0.005276949610561132,-0.01736723631620407
1782969664004995000,5.8449951171875,0.009064706973731518,-0.004094240255653858,-0.019843976944684982
1782969664014922000,5.854921875,-0.0020827532280236483,0.010011991485953331,-0.026880847290158272
1782969664024848000,5.864847900390625,-0.006260720081627369,-0.0013149650767445564,-0.031716346740722656
1782969664034774000,5.87477392578125,-0.003341447561979294,-0.006837677676230669,-0.031847044825553894
1782969664044701200,5.884701171875,0.000059142999816685915,-0.013331262394785881,-0.027996115386486053
1782969664054626800,5.894626708984375,-0.000675230345223099,-0.010733842849731445,-0.023768175393342972
1782969664064553000,5.904552978515625,-0.0056028771214187145,-0.007417407818138599,-0.011111502535641193
1782969664074480400,5.91448046875,-0.013670602813363075,-0.005156805273145437,-0.00659062759950757
1782969664084406300,5.92440625,-0.017473863437771797,-0.008315847255289555,-0.008142185397446156
1782969664094332400,5.93433251953125,-0.01573731191456318,0.0014656414277851582,-0.014065182767808437
1782969664104259300,5.94425927734375,-0.007863144390285015,0.0023793717846274376,-0.015426591038703918
1782969664114185200,5.954185302734375,-0.004725576378405094,-0.003116025123745203,-0.019980469718575478
1782969664124111400,5.964111328125,-0.004886431619524956,-0.006116075906902552,-0.02907702885568142
1782969664134038500,5.97403857421875,-0.003708080155774951,-0.006116910837590694,-0.03283620625734329
1782969664143964400,5.98396435546875,-0.002565584145486355,-0.0029821039643138647,-0.03687275946140289
1782969664153890300,5.993890380859375,0.0007430427940562367,0.002217868808656931,-0.031489115208387375
1782969664163816400,6.00381640625,-0.004318827763199806,0.002180851064622402,-0.0220711138099432
1782969664173743400,6.013743408203125,0.0015894663520157337,0.003310226369649172,-0.011211264878511429
1782969664183669200,6.023669189453125,0.00035615640808828175,0.0015357625670731068,-0.007202674634754658
1782969664193595400,6.033595458984375,-0.002101703779771924,-0.006300593726336956,-0.0015560174360871315
1782969664203522600,6.0435224609375,-0.0019208749290555716,-0.005199110135436058,-0.002083855913951993
1782969664213448200,6.0534482421875,-0.000027647125534713268,-0.0018272013403475285,0.007398937363177538
1782969664223374300,6.063374267578125,-0.0027496640104800463,-0.005550567060709,0.010576354339718819
1782969664233301500,6.073301513671875,-0.0013211023760959506,-0.0016584328841418028,0.013583031482994556
1782969664243227400,6.083227294921875,-0.0013155097840353847,0.006527059245854616,0.007786128669977188
1782969664253153300,6.0931533203125,-0.006430181674659252,0.0034655597992241383,0.0018376808147877455
1782969664263080400,6.10308056640625,-0.0049755629152059555,-0.0008620768785476685,-0.005299856886267662
1782969664273006300,6.11300634765625,-0.0038357852026820183,-0.0037019159644842148,-0.004184418357908726
1782969664282932200,6.12293212890625,-0.006952749099582434,-0.0030374571215361357,-0.007235868368297815
1782969664292859400,6.132859375,-0.005871898494660854,-0.005826093722134829,-0.008384926244616508
1782969664302785300,6.142785400390625,-0.00707857683300972,-0.005725958850234747,-0.004373673349618912
1782969664312711400,6.15271142578125,-0.009524635039269924,-0.005582835990935564,-0.000998223666101694
1782969664322638300,6.162638427734375,-0.00928601622581482,-0.002290103817358613,0.004419977776706219
1782969664332564500,6.172564453125,-0.013546008616685867,0.005427204538136721,0.004331294447183609
1782969664342490400,6.182490478515625,-0.009882297366857529,0.00896068662405014,-0.00005040457472205162
1782969664352416300,6.192416259765625,-0.006459307391196489,0.003213589545339346,-0.0016943312948569655
1782969664362343400,6.202343505859375,0.0034274118952453136,-0.001609395258128643,-0.0013406635262072086
1782969664372269300,6.212269287109375,0.0042050122283399105,-0.0011832141317427158,0.004239490255713463
1782969664382195500,6.222195556640625,-0.003634002525359392,-0.002865000395104289,0.0061931852251291275
1782969664392122400,6.232122314453125,0.0020962499547749758,-0.0047808075323700905,0.008755668066442013
1782969664402048300,6.24204833984375,0.0025356714613735676,-0.003201819257810712,0.009985249489545822
1782969664411974400,6.251974365234375,0.002943851985037327,-0.0019341050647199154,0.009350341744720936
1782969664421901600,6.261901611328125,0.0038839480839669704,-0.0022251885384321213,0.011395382694900036
1782969664431827200,6.2718271484375,-0.0013015633448958397,-0.0015611920971423388,0.013608724810183048
1782969664441753300,6.28175341796875,-0.007948813028633595,-0.002713541965931654,0.008090920746326447
1782969664451680500,6.291680419921875,-0.007259909529238939,-0.0002941708080470562,0.007830305024981499
1782969664461606100,6.301606201171875,-0.005437508225440979,0.0018512718379497528,0.00633520632982254
1782969664471532300,6.3115322265625,-0.004862756002694368,0.001057840883731842,0.012145659886300564
1782969664481459500,6.32145947265625,-0.0056158979423344135,0.000017610378563404083,0.013229832984507084
1782969664491385300,6.33138525390625,-0.0026012705639004707,0.0005433885380625725,0.007241969928145409
1782969664501311200,6.341311279296875,-0.0029879615176469088,-0.0005855252966284752,0.0019063267391175032
1782969664511238400,6.35123828125,0.0007191293407231569,-0.005168030969798565,0.0007249052869156003
1782969664521164500,6.36116455078125,0.005318408366292715,0.0026707169599831104,0.002803768962621689
1782969664531090200,6.371090087890625,0.008025274612009525,0.007936589419841766,0.009118433110415936
1782969664541017300,6.381017333984375,0.010720393620431423,0.00731527479365468,0.00878740195184946
1782969664550943500,6.390943603515625,0.01696089468896389,0.0033161561004817486,0.00921144150197506
1782969664560869400,6.400869384765625,0.016280457377433777,0.0028873872943222523,0.008797852322459221
1782969664570795300,6.410795166015625,0.008871431462466717,0.0003587612882256508,0.008664109744131565
1782969664580722400,6.420722412109375,0.005412252154201269,0.002953479066491127,0.0060898978263139725
1782969664590648300,6.4306484375,0.00039838755037635565,0.004325836896896362,0.00937765371054411
1782969664600574200,6.44057421875,-0.0007334559340961277,0.004880307242274284,0.012061054818332195
1782969664610501400,6.45050146484375,0.0015053527895361185,0.005410319659858942,0.00976535864174366
1782969664620427300,6.46042724609375,0.009396831505000591,0.006680914666503668,0.014677292667329311
1782969664630353400,6.470353515625,0.006443314719945192,-0.0008762669749557972,0.012609869241714478
1782969664640280600,6.480280517578125,0.006464087404310703,-0.006400994956493378,0.008675314486026764
1782969664650206200,6.490206298828125,0.00008213057299144566,-0.003048150334507227,0.004765230230987072
1782969664660132400,6.50013232421875,-0.0010047054383903742,-0.006749944295734167,0.005552993156015873
1782969664670059500,6.5100595703125,0.0019016573205590248,-0.007285128813236952,0.002241511596366763
1782969664679985400,6.5199853515625,-0.00001581863034516573,0.002637276891618967,0.001150414813309908
1782969664689911300,6.529911376953125,0.003743427339941263,0.0056930603459477425,0.002005545189604163
1782969664699838500,6.53983837890625,0.007119782734662294,0.009453710168600082,0.004290271084755659
1782969664709764600,6.5497646484375,0.008521125651896,0.009296927601099014,0.0008857602952048182
1782969664719690200,6.559690185546875,0.01248976867645979,-0.00244734575971961,-0.0018586271908134222
1782969664729617400,6.569617431640625,0.012405573390424252,-0.005923063028603792,-0.004421428311616182
1782969664739543600,6.57954345703125,0.009107247926294804,-0.00032749539241194725,0.0005690694088116288
1782969664749469200,6.58946923828125,0.0044908542186021805,0.0028894077986478806,0.004026373382657766
1782969664759395300,6.599395263671875,-0.004201970063149929,0.0028518568724393845,0.0004374977434054017
1782969664769322500,6.609322509765625,-0.005138703156262636,0.0026402678340673447,-0.004145202226936817
1782969664779248400,6.619248291015625,-0.007311842869967222,0.002258104272186756,-0.011910980567336082
1782969664789174300,6.62917431640625,-0.005872570909559727,-0.0067515019327402115,-0.010916090570390224
1782969664799101400,6.639101318359375,-0.006040616426616907,-0.010969948954880238,-0.010847646743059158
1782969664809027300,6.64902734375,-0.00918442290276289,-0.013393048197031021,-0.0015951337991282344
1782969664818953200,6.658953125,-0.0011315563460811973,-0.012382112443447113,0.0032156002707779408
1782969664828880400,6.66888037109375,0.004424092825502157,-0.011812724173069,0.014303449541330338
1782969664838806300,6.67880615234375,0.0022624051198363304,-0.009273665957152843,0.017907239496707916
1782969664848732400,6.688732421875,-0.0026546732988208532,-0.0015575385186821222,0.016319258138537407
1782969664858659300,6.698659423828125,-0.005350058898329735,-0.0017402314115315676,0.013091773726046085
1782969664868585500,6.70858544921875,-0.005363822914659977,-0.0031947344541549683,0.0059096976183354855
1782969664878511400,6.718511474609375,-0.007887967862188816,-0.0013710018247365952,-0.0019471603445708752
1782969664888438500,6.7284384765625,-0.004741792567074299,0.0015799314714968204,-0.004633161239326
1782969664898364400,6.738364501953125,-0.0015545214992016554,-0.0007774988189339638,-0.0036959946155548096
1782969664908290300,6.748290283203125,-0.0011013916227966547,-0.0008576205000281334,-0.0035389638505876064
1782969664918217500,6.758217529296875,0.0021255607716739178,0.00038714101538062096,0.0014171788934618235
1782969664928143400,6.768143310546875,0.005044593010097742,0.0017256373539566994,0.004581727087497711
1782969664938069200,6.7780693359375,0.008709102869033813,-0.0034962890204042196,0.011281708255410194
1782969664947996400,6.787996337890625,0.009607978165149689,-0.0028752312064170837,0.013991559855639935
1782969664957922600,6.797922607421875,0.014014977030456066,-0.003170842071995139,0.0209709070622921
1782969664967848200,6.80784814453125,0.018388966098427773,-0.006658065132796764,0.03270578384399414
1782969664977774300,6.8177744140625,0.01404455117881298,-0.002591151976957917,0.04372088611125946
1782969664987701500,6.827701416015625,0.003814060240983963,0.0034578763879835606,0.045827679336071014
1782969664997627100,6.837627197265625,0.0010566232958808541,0.007922133430838585,0.035245608538389206
1782969665007553300,6.84755322265625,-0.002932035131379962,0.007219400722533464,0.019138310104608536
1782969665017480400,6.85748046875,-0.0020569204352796078,0.0038797971792519093,0.00586271844804287
1782969665027406300,6.86740625,-0.0038611276540905237,0.005626413505524397,-0.002145470818504691
1782969665037332200,6.877332275390625,-0.004049413371831179,0.0032846960239112377,-0.005685077980160713
1782969665047259400,6.88725927734375,-0.0001766577479429543,-0.0001421794295310974,-0.006655724719166756
1782969665057185500,6.897185546875,-0.0011361946817487478,0.002628306858241558,-0.001119811786338687
1782969665067111200,6.907111083984375,-0.0028402816969901323,0.004050364717841148,0.005498421378433704
1782969665077037600,6.91703759765625,0.0029752631671726704,0.0077457670122385025,0.013532113283872604
1782969665086963700,6.926963623046875,0.0062985788099467754,0.003546671010553837,0.02069265767931938
1782969665096889900,6.936889892578125,0.008294884115457535,0.005587717518210411,0.023767543956637383
1782969665106816800,6.946816650390625,0.01049234252423048,0.0047425455413758755,0.026636237278580666
1782969665116742700,6.95674267578125,0.013585604727268219,0.004829098004847765,0.025892416015267372
1782969665126668800,6.966668701171875,0.015468865633010864,0.008145758882164955,0.022072209045290947
1782969665136594700,6.9765947265625,0.013632616028189659,0.007098870817571878,0.017960553988814354
1782969665146521600,6.986521484375,0.006646374240517616,0.008515143766999245,0.015112345106899738
1782969665156447700,6.99644775390625,-0.0005281813791953027,0.007601147051900625,0.00698384502902627
1782969665166373600,7.00637353515625,-0.001053258660249412,0.006663649342954159,0.0001813886919990182
1782969665176300800,7.01630078125,-0.0006974603747949004,0.0030095260590314865,0.0011965857120230794
1782969665186226700,7.026226806640625,0.0035688120406121016,0.0033705299720168114,0.006089098751544952
1782969665196152600,7.036152587890625,0.010194489732384682,0.0028735846281051636,0.013949685730040073
1782969665206079700,7.046079833984375,0.010944155044853687,0.0026676366105675697,0.021041831001639366
1782969665216005600,7.056005615234375,0.014118642546236515,-0.0057663279585540295,0.03129047155380249
1782969665225931500,7.065931640625,0.014608104713261127,-0.005490530747920275,0.03936319798231125
1782969665235858700,7.075858642578125,0.015203321352601051,-0.008087378926575184,0.03961619734764099
1782969665245784800,7.085784912109375,0.013598708435893059,-0.007263406179845333,0.04455653950572014
1782969665255710700,7.095710693359375,0.01258937083184719,-0.0009599705226719379,0.04491553455591202
1782969665265637600,7.1056376953125,0.013406556099653244,-0.0037402701564133167,0.04230367764830589
1782969665275563800,7.115563720703125,0.011828899383544922,-0.005029772408306599,0.03236023336648941
1782969665285489700,7.12548974609375,0.01071527786552906,-0.01069952268153429,0.020425790920853615
1782969665295416600,7.13541650390625,0.002227517543360591,-0.009754367172718048,0.015368180349469185
1782969665305342700,7.1453427734375,-0.0010572810424491763,-0.0058755832724273205,0.008688545785844326
1782969665315268900,7.155268798828125,-0.005463481415063143,-0.0022973602171987295,0.0004963965620845556
1782969665325194500,7.165194580078125,-0.010022757574915886,0.0015696603804826736,0.0014222711324691772
1782969665335121700,7.17512158203125,-0.0198061466217041,0.004494610242545605,0.007502800319343805
1782969665345047800,7.1850478515625,-0.03245137259364128,0.007014329545199871,0.020482854917645454
1782969665354973400,7.194973388671875,-0.03303380683064461,0.008315283805131912,0.03874308615922928
1782969665364900600,7.204900634765625,-0.03347517177462578,0.02076747454702854,0.0487765334546566
1782969665374826800,7.21482666015625,-0.03672982007265091,0.018697932362556458,0.05152731388807297
1782969665384752600,7.224752685546875,-0.03266264125704765,0.007022101432085037,0.052298031747341156
1782969665394679600,7.234679443359375,-0.01825147680938244,-0.013745761476457119,0.046702463179826736
1782969665404605700,7.244605712890625,-0.009639990516006947,-0.020263537764549255,0.04914399981498718
1782969665414531600,7.254531494140625,0.0001865413214545697,-0.03271967172622681,0.05292489007115364
1782969665424458800,7.264458740234375,0.011509488336741924,-0.03821625933051109,0.05423477664589882
1782969665434384600,7.274384521484375,0.020020151510834694,-0.03727962449193001,0.06850426644086838
1782969665444310800,7.284310791015625,0.027377750724554062,-0.034194234758615494,0.0823366567492485
1782969665454237700,7.29423779296875,0.0344226099550724,-0.03975784406065941,0.09024198353290558
1782969665464163600,7.30416357421875,0.04062197357416153,-0.05510180443525314,0.08691772073507309
1782969665474089700,7.31408984375,0.03868478909134865,-0.07932990789413452,0.07303732633590698
1782969665484016600,7.3240166015625,0.04925313591957092,-0.09963167458772659,0.04782561585307121
1782969665493942800,7.33394287109375,0.060156650841236115,-0.13039597868919373,0.02566731534898281
1782969665503868700,7.34386865234375,0.07069914042949677,-0.14280575513839722,0.02008572407066822
1782969665513794600,7.353794677734375,0.07654770463705063,-0.13894496858119965,0.035689983516931534
1782969665523721700,7.3637216796875,0.0817880779504776,-0.12911051511764526,0.05712178349494934
1782969665533648000,7.37364794921875,0.07401431351900101,-0.09727855026721954,0.07801347970962524
1782969665543573500,7.383573486328125,0.09053203463554382,0.05714964121580124,0.13115578889846802
1782969665553500700,7.393500732421875,0.07153277844190598,-0.0280440840870142,0.14823304116725922
1782969665563426800,7.4034267578125,0.025763481855392456,0.0006182990036904812,0.1572895497083664
1782969665573352400,7.4133525390625,0.013014398515224457,0.0243955347687006,0.1488766223192215
1782969665583279600,7.423279541015625,0.004102957900613546,0.008057311177253723,0.1531374603509903
1782969665593205800,7.433205810546875,-0.0289484690874815,-0.006994875147938728,0.16453419625759125
1782969665603131600,7.443131591796875,-0.06383641064167023,-0.009165351279079914,0.18031954765319824
1782969665613058600,7.45305859375,-0.05818784981966019,0.0019355029799044132,0.19313015043735504
1782969665622984700,7.462984619140625,-0.06974103301763535,-0.0461532324552536,0.17694754898548126
1782969665632910800,7.472910888671875,-0.07018551975488663,-0.049682460725307465,0.12895019352436066
1782969665642837800,7.482837646484375,-0.07231718301773071,-0.06325475871562958,0.08038044720888138
1782969665652763600,7.492763671875,-0.07832687348127365,-0.08537843078374863,0.04181228578090668
1782969665662689800,7.502689697265625,-0.04564312472939491,-0.07591661810874939,0.007610039785504341
1782969665672616700,7.51261669921875,-0.02613866701722145,-0.09248574078083038,-0.0301945973187685
1782969665682542600,7.52254248046875,-0.015473436564207077,-0.06707099825143814,-0.035306256264448166
1782969665692468700,7.53246875,-0.009847506880760193,-0.060372885316610336,-0.015377290546894073
1782969665702394600,7.54239453125,-0.020403843373060226,-0.05090777575969696,0.007907930761575699
1782969665712321800,7.55232177734375,-0.0005766088725067675,0.009771814569830894,0.03765810281038284
1782969665722247700,7.56224755859375,0.029433798044919968,-0.014050768688321114,0.05743763595819473
1782969665732173600,7.572173583984375,0.018504716455936432,-0.031216174364089966,0.0758105143904686
1782969665742100700,7.582100830078125,0.03234515339136124,-0.04426531493663788,0.0819086953997612
1782969665752026600,7.592026611328125,0.043339211493730545,-0.07553775608539581,0.0720565989613533
1782969665761952500,7.601952392578125,0.050337087363004684,-0.07902661710977554,0.06758250296115875
1782969665771879700,7.611879638671875,0.05681416019797325,-0.07797227054834366,0.06556436419487
1782969665781805800,7.621805908203125,0.06465009599924088,-0.06951501220464706,0.06296084076166153
1782969665791731700,7.631731689453125,0.07532910257577896,-0.05183801427483559,0.0755288302898407
1782969665801658600,7.64165869140625,0.07175469398498535,-0.024470724165439606,0.08818010985851288
1782969665811584800,7.651584716796875,0.07826665788888931,-0.015079619362950325,0.09071969985961914
1782969665821510700,7.6615107421875,0.07212728261947632,-0.01281521376222372,0.095598004758358
1782969665831437600,7.6714375,0.06340249627828598,-0.010239403694868088,0.10145935416221619
1782969665841363700,7.68136376953125,0.04628515988588333,0.0015395316295325756,0.1116996482014656
1782969665851289900,7.691289794921875,0.02882307767868042,0.020847715437412262,0.11685658991336823
1782969665861216500,7.701216552734375,0.016596687957644463,0.029536163434386253,0.12271907180547714
1782969665871142700,7.711142578125,0.027191009372472763,0.03805481269955635,0.11482919007539749
1782969665881068800,7.72106884765625,0.039278771728277206,0.03716174513101578,0.09920506179332733
1782969665890994400,7.730994384765625,0.04918466880917549,0.0061234040185809135,0.08245697617530823
1782969665900921600,7.740921630859375,0.0524321123957634,0.0061624678783118725,0.06947688013315201
1782969665910847700,7.75084765625,0.03312153369188309,0.020145928487181664,0.0572335310280323
1782969665920773600,7.760773681640625,0.009889936074614525,-0.004034434445202351,0.04064153507351875
1782969665930700800,7.77070068359375,-0.00673431484028697,0.02307068556547165,0.03233646601438522
1782969665940626700,7.780626708984375,-0.0027309535071253777,0.044506240636110306,0.02434285171329975
1782969665950552600,7.790552490234375,-0.004607949405908585,-0.005420307628810406,0.037300460040569305
1782969665960479700,7.800479736328125,0.01716138981282711,0.08529143035411835,0.06693834811449051
1782969665970405600,7.810405517578125,0.002172852633520961,-0.005653128493577242,0.06303095817565918
1782969665980331800,7.820331787109375,-0.01058137696236372,0.008428853005170822,0.0540543757379055
1782969665990258700,7.8302587890625,-0.04316994920372963,0.003382162656635046,0.04742017388343811
1782969666000184800,7.840184814453125,-0.03863776475191116,0.006514924578368664,0.038000427186489105
1782969666010110700,7.85011083984375,-0.03782203793525696,-0.035931602120399475,0.03459184616804123
1782969666020037600,7.86003759765625,-0.017198026180267334,0.04076458141207695,0.03089301474392414
1782969666029963800,7.8699638671875,-0.026853317394852638,-0.07722064107656479,0.003658729838207364
1782969666039889700,7.8798896484375,-0.011268667876720428,0.026157179847359657,0.01146618090569973
1782969666049815600,7.889815673828125,-0.014064987190067768,-0.0734274685382843,-0.011540867388248444
1782969666059742700,7.89974267578125,0.006868412718176842,0.021184302866458893,0.005056698806583881
1782969666069670100,7.909670166015625,0.005528575740754604,0.000999140553176403,0.013072546571493149
1782969666079596300,7.91959619140625,-0.04258434474468231,0.10389934480190277,0.01674683392047882
1782969666089523200,7.929523193359375,-0.02625437267124653,0.22212079167366028,0.09865474700927734
1782969666099449300,7.939449462890625,0.024810899049043655,0.06343667954206467,0.12349461019039154
1782969666109375200,7.949375244140625,0.02532169409096241,-0.008757887408137321,0.07059704512357712
1782969666119302400,7.959302490234375,-0.0016002996126189828,0.010342001914978027,0.028103256598114967
1782969666129228300,7.969228271484375,-0.028398891910910606,0.006361375562846661,0.017442889511585236
1782969666139152400,7.97915234375,-0.03965207561850548,-0.004079547710716724,0.028286747634410858
1782969666149078300,7.989078369140625,-0.023496543988585472,0.043430447578430176,0.02203311398625374
1782969666159005400,7.99900537109375,-0.023498885333538055,0.031132612377405167,0.004356275778263807
1782969666168931300,8.008931396484375,-0.011048074811697006,0.004311650991439819,-0.02581068128347397
1782969666178857200,8.018857177734375,0.0067090559750795364,-0.03919747844338417,-0.031435586512088776
1782969666188784400,8.028784423828125,0.004928732756525278,-0.007298404350876808,-0.013136474415659904
1782969666198710300,8.038710205078125,0.011064097285270691,0.01769232749938965,0.04797390103340149
1782969666208636200,8.04863623046875,0.011381546035408974,0.05801791325211525,0.0910734310746193
1782969666218562300,8.058562255859375,-0.0004458613693714142,0.5656513571739197,0.28360268473625183
1782969666228489500,8.068489501953126,-0.024140270426869392,0.47271186113357544,0.24355807900428772
1782969666238415400,8.078415283203125,-0.018214430660009384,0.286948025226593,0.2185238003730774
1782969666248341200,8.08834130859375,-0.02666437439620495,0.18337343633174896,0.16363951563835144
1782969666258268400,8.098268310546874,-0.026481948792934418,0.1676427721977234,0.12568074464797974
1782969666268194300,8.1081943359375,-0.02752138115465641,0.14008411765098572,0.1263023316860199
1782969666278120200,8.1181201171875,-0.04793863371014595,0.13338038325309753,0.13956443965435028
1782969666288047400,8.12804736328125,-0.07092836499214172,0.09343615174293518,0.13331639766693115
1782969666297973500,8.137973388671876,-0.1145792305469513,-0.020620591938495636,0.0959932953119278
1782969666307899100,8.147899169921875,-0.1581576019525528,-0.13174471259117126,0.05674682557582855
1782969666317826300,8.157826416015626,-0.1805640012025833,-0.1524004340171814,0.04474781081080437
1782969666327752400,8.16775244140625,-0.16796618700027466,-0.09023132175207138,0.05546597018837929
1782969666337678000,8.177677978515625,-0.17037367820739746,-0.15664663910865784,0.05017578974366188
1782969666347605200,8.187605224609374,-0.14786329865455627,-0.11899887770414352,0.06140074506402016
1782969666357531400,8.197531494140625,-0.15783417224884033,-0.14703911542892456,0.06454453617334366
1782969666367457300,8.207457275390626,-0.13453443348407745,-0.10467993468046188,0.054828256368637085
1782969666377383200,8.217383056640625,-0.1601812094449997,-0.07120533287525177,0.01574823260307312
1782969666387310300,8.227310302734375,-0.19008611142635345,-0.0832875594496727,-0.03478498384356499
1782969666397236200,8.237236328125,-0.20226071774959564,-0.04663393646478653,-0.05689956247806549
1782969666407162000,8.247162109375,-0.2060253620147705,-0.020451068878173828,-0.052860077470541
1782969666417089300,8.25708935546875,-0.21372738480567932,0.0021166782826185226,-0.036453425884246826
1782969666427015400,8.267015380859375,-0.2184334695339203,0.008816126734018326,-0.03374871984124184
1782969666436941300,8.27694140625,-0.19219987094402313,0.001866562757641077,-0.06199362501502037
1782969666446868200,8.2868681640625,-0.15042659640312195,-0.018250424414873123,-0.10226994752883911
1782969666456794400,8.29679443359375,-0.09428173303604126,-0.03609364852309227,-0.14312385022640228
1782969666466720300,8.30672021484375,-0.05093052238225937,-0.04601898416876793,-0.16680601239204407
1782969666476647400,8.3166474609375,-0.014361873269081116,-0.065785251557827,-0.18641965091228485
1782969666486573300,8.3265732421875,0.004377459175884724,-0.07926084101200104,-0.2054724395275116
1782969666496499200,8.336499267578125,0.0292251855134964,-0.10348622500896454,-0.22591225802898407
1782969666506426400,8.34642626953125,0.046825751662254333,-0.09804379194974899,-0.23751245439052582
1782969666516352300,8.356352294921875,0.11162259429693222,0.053287677466869354,-0.18211416900157928
1782969666526278100,8.366278076171875,0.1505633294582367,0.05391005799174309,-0.15624237060546875
1782969666536204300,8.376204345703124,0.030334940180182457,-0.1517103910446167,-0.17952759563922882
1782969666546131500,8.38613134765625,0.009900771081447601,-0.058661941438913345,-0.15653198957443237
1782969666556057000,8.39605712890625,0.10666310042142868,0.10565752536058426,-0.12185005843639374
1782969666565983200,8.405983154296875,0.07096342742443085,-0.06682982295751572,-0.18941685557365417
1782969666575910400,8.415910400390626,0.021514004096388817,-0.09192144870758057,-0.2114638090133667
1782969666585836300,8.425836181640625,-0.021053431555628777,-0.08124403655529022,-0.2113490253686905
1782969666595762200,8.43576220703125,-0.03199170529842377,-0.04868258908390999,-0.16214002668857574
1782969666605689300,8.445689453125,-0.003776046447455883,-0.004931914620101452,-0.11185581982135773
1782969666615615500,8.455615478515625,-0.016831617802381516,-0.02385667897760868,-0.11161643266677856
1782969666625541000,8.465541015625,-0.020386671647429466,-0.011374443769454956,-0.13271239399909973
1782969666635468300,8.47546826171875,-0.02414090372622013,-0.0644569993019104,-0.2074272632598877
1782969666645394400,8.48539453125,-0.039039693772792816,-0.12039297074079514,-0.27941569685935974
1782969666655320000,8.495320068359375,-0.050841450691223145,-0.15690764784812927,-0.29352810978889465
1782969666665247200,8.505247314453126,-0.07177815586328506,-0.1511448323726654,-0.26753512024879456
1782969666675173400,8.51517333984375,-0.06140371039509773,-0.10282716900110245,-0.21820132434368134
1782969666685099300,8.525099365234375,-0.059260930866003036,-0.07202744483947754,-0.1825740933418274
1782969666695026400,8.5350263671875,-0.06819017231464386,-0.046099673956632614,-0.15448884665966034
1782969666704952300,8.544952392578125,-0.06898539513349533,-0.03854907676577568,-0.1324131041765213
1782969666714878200,8.554878173828126,-0.05683628097176552,-0.05485941842198372,-0.12157006561756134
1782969666724805400,8.564805419921875,-0.03613340109586716,-0.051999449729919434,-0.10504887998104095
1782969666734731300,8.574731201171875,-0.0159353818744421,-0.030081968754529953,-0.08446530252695084
1782969666744657200,8.5846572265625,-0.004322666674852371,-0.018421318382024765,-0.06379304826259613
1782969666754583300,8.594583251953125,0.021234707906842232,0.004064665175974369,-0.04943947121500969
1782969666764510500,8.604510498046874,0.03291400149464607,-0.05816967785358429,-0.06201944500207901
1782969666774436400,8.614436279296875,0.045472852885723114,-0.01972333714365959,-0.05398542061448097
1782969666784362200,8.6243623046875,0.06846045702695847,-0.005337740294635296,-0.04927828535437584
1782969666794289400,8.634289306640625,0.10418251901865005,0.10904068499803543,0.00536224665120244
1782969666804215300,8.64421533203125,0.14454218745231628,0.14323754608631134,0.05482833459973335
1782969666814141200,8.65414111328125,0.16907653212547302,0.1713191419839859,0.09644383937120438
1782969666824068400,8.664068359375,0.18610398471355438,0.20350663363933563,0.11168830096721649
1782969666833994500,8.673994384765624,0.1979650855064392,0.1904519647359848,0.09234768897294998
1782969666843920100,8.683920166015625,0.19823886454105377,0.14338751137256622,0.061152491718530655
1782969666853847300,8.693847412109376,0.19037625193595886,0.1216692104935646,0.03735940530896187
1782969666863773400,8.7037734375,0.1820908933877945,0.1199466809630394,0.027054833248257637
1782969666873699000,8.713698974609375,0.1710791289806366,0.11997353285551071,0.02328282967209816
1782969666883626200,8.723626220703125,0.1715792715549469,0.1035628691315651,0.026622965931892395
1782969666893552400,8.733552490234375,0.16926400363445282,0.09439212828874588,0.030360648408532143
1782969666903478300,8.743478271484374,0.15735886991024017,0.09593622386455536,0.026273228228092194
1782969666913404200,8.753404052734375,0.13675184547901154,0.09724152088165283,0.026754803955554962
1782969666923331300,8.763331298828126,0.11027123779058456,0.07769711315631866,0.02931862883269787
1782969666933257200,8.77325732421875,0.08677271008491516,0.052025798708200455,0.026883263140916824
1782969666943183000,8.78318310546875,0.07529794424772263,0.031577784568071365,0.018394436687231064
1782969666953110300,8.7931103515625,0.08217684924602509,0.023163067176938057,0.0015683510573580861
1782969666963036400,8.803036376953125,0.10471358150243759,0.015446025878190994,-0.026713088154792786
1782969666972962300,8.81296240234375,0.1252535730600357,0.017107075080275536,-0.06104084104299545
1782969666982889200,8.82288916015625,0.14071854948997498,0.014452168717980385,-0.08921682089567184
1782969666992815400,8.8328154296875,0.14224109053611755,0.005911678075790405,-0.09900979697704315
1782969667002741200,8.8427412109375,0.12402611970901489,0.014446843415498734,-0.09607046842575073
1782969667012668400,8.85266845703125,0.08539723604917526,0.022503437474370003,-0.06107279658317566
1782969667022594300,8.86259423828125,0.029997363686561584,0.0135823804885149,-0.012006185948848724
1782969667032520200,8.872520263671875,-0.02112680673599243,0.040815066546201706,0.038149394094944
1782969667042447400,8.882447265625,-0.043585777282714844,0.05978503078222275,0.06279800832271576
1782969667052373200,8.892373291015625,-0.05744697153568268,0.023488279432058334,0.050733406096696854
1782969667062299100,8.902299072265626,-0.0648481547832489,-0.01531797181814909,0.006009342614561319
1782969667072225300,8.912225341796875,-0.06007702276110649,-0.038135554641485214,-0.04531116411089897
1782969667082151200,8.922151123046875,-0.05692783370614052,-0.058044545352458954,-0.0720149502158165
1782969667092077300,8.932077392578124,-0.05248099938035011,-0.05910860002040863,-0.06584411859512329
1782969667102003500,8.94200341796875,-0.03563544154167175,-0.05175907537341118,-0.052385833114385605
1782969667111930400,8.951930419921876,-0.015072867274284363,-0.0006964989006519318,-0.03431924432516098
1782969667121856300,8.961856201171875,-0.007329726591706276,-0.028858095407485962,-0.028939396142959595
1782969667131782400,8.971782470703126,-0.017311114817857742,-0.039323292672634125,-0.023757053539156914
1782969667141709300,8.981709228515625,-0.02764098346233368,-0.029086900874972343,-0.020998286083340645
1782969667151635200,8.99163525390625,-0.058378081768751144,-0.06500529497861862,-0.02484578639268875
1782969667161561300,9.001561279296874,-0.07044167071580887,-0.052398424595594406,-0.002369239926338196
1782969667171488300,9.01148828125,-0.0457429364323616,-0.009241973981261253,0.02924990840256214
1782969667181414400,9.021414306640626,-0.020679662004113197,-0.06218854710459709,0.027156664058566093
1782969667191340300,9.03134033203125,-0.006279502063989639,-0.04886966198682785,0.03533689305186272
1782969667201267200,9.04126708984375,-0.021595608443021774,-0.04386425018310547,0.04262889176607132
1782969667211193300,9.051193359375,-0.048413246870040894,-0.03632160276174545,0.0627572312951088
1782969667221119500,9.061119384765625,-0.07103440165519714,-0.01663072407245636,0.07920118421316147
1782969667231046100,9.071046142578124,-0.06506852805614471,0.03222820162773132,0.09351904690265656
1782969667240972300,9.08097216796875,-0.04751510173082352,0.010943153873085976,0.07576854526996613
1782969667250898400,9.0908984375,0.01425422728061676,0.059299763292074203,0.06087956950068474
1782969667260824300,9.10082421875,0.049599699676036835,0.0019776164554059505,0.01798323355615139
1782969667270751200,9.110751220703126,0.05827824026346207,-0.01634170114994049,-0.010980378836393356
1782969667280677400,9.120677490234375,0.04308011382818222,-0.03449513763189316,-0.023265542462468147
1782969667290603500,9.130603515625,0.008514204062521458,-0.06179279834032059,-0.023931512609124184
1782969667300530200,9.1405302734375,-0.026319410651922226,-0.07128243893384933,-0.010619967244565487
1782969667310456300,9.150456298828125,-0.06888220459222794,-0.059306513518095016,0.013287547044456005
1782969667320382500,9.160382568359376,-0.0808509811758995,-0.014310009777545929,0.050818946212530136
1782969667330309400,9.170309326171875,-0.08104296773672104,0.012524804100394249,0.08918394893407822
1782969667340235300,9.1802353515625,-0.06089216098189354,0.017378415912389755,0.1140940934419632
1782969667350161400,9.190161376953125,-0.0017558281542733312,0.09058863669633865,0.12979179620742798
1782969667360088300,9.20008837890625,0.031856995075941086,0.04314575716853142,0.09608843177556992
1782969667370014200,9.21001416015625,0.05367569625377655,-0.0018842285498976707,0.055380452424287796
1782969667379940400,9.2199404296875,0.05289725586771965,-0.03206396847963333,0.01688685268163681
1782969667389867300,9.2298671875,0.03748657926917076,-0.058628737926483154,-0.021212903782725334
1782969667399793400,9.23979345703125,0.020943554118275642,-0.06835327297449112,-0.0473819226026535
1782969667409719300,9.24971923828125,0.01070594321936369,-0.05763046443462372,-0.06871306896209717
1782969667419645200,9.259645263671874,0.020017685368657112,-0.03790976107120514,-0.0834302306175232
1782969667429572400,9.269572265625,0.03429005667567253,-0.006401025224477053,-0.07752197235822678
1782969667439498200,9.279498291015624,0.033720407634973526,0.015006528235971928,-0.05418176203966141
1782969667449424400,9.28942431640625,0.021532392129302025,0.025098301470279694,-0.01946248486638069
1782969667459351300,9.299351318359374,-0.0022163460962474346,0.04554019123315811,0.02151850424706936
1782969667469277400,9.30927734375,-0.03835181146860123,0.07351054251194,0.07426627725362778
1782969667479203300,9.319203369140626,-0.07956475764513016,0.08234132081270218,0.12218800187110901
1782969667489130200,9.329130126953125,-0.1277119666337967,0.058889638632535934,0.15622977912425995
1782969667499056400,9.339056396484375,-0.15381041169166565,0.0658564642071724,0.18691818416118622
1782969667508982300,9.348982177734374,-0.1446753591299057,0.09508922696113586,0.21450981497764587
1782969667518909200,9.3589091796875,-0.11751189827919006,0.10101795941591263,0.20788893103599548
1782969667528835300,9.36883544921875,-0.08736555278301239,0.017161905765533447,0.16237299144268036
1782969667538761500,9.378761474609375,-0.06450684368610382,-0.02573549374938011,0.11644970625638962
1782969667548688100,9.388688232421876,-0.02111523225903511,0.0023743435740470886,0.0982918068766594
1782969667558614300,9.3986142578125,0.04948357120156288,0.03780104219913483,0.088075652718544
1782969667568540400,9.40854052734375,0.10183192789554596,-0.01262524351477623,0.05848005414009094
1782969667578467300,9.41846728515625,0.13386975228786469,-0.016997355967760086,0.03294006735086441
1782969667588393200,9.428393310546875,0.14209537208080292,-0.01438979059457779,0.007603232748806477
1782969667598319400,9.4383193359375,0.129577174782753,-0.019070828333497047,-0.015732448548078537
1782969667608245200,9.448245361328125,0.11482131481170654,-0.0249011367559433,-0.03131640702486038
1782969667618172200,9.458172119140626,0.09648944437503815,-0.024500064551830292,-0.044804248958826065
1782969667628098300,9.468098388671875,0.07151668518781662,-0.044095609337091446,-0.0543874129652977
1782969667638024400,9.4780244140625,0.04114626348018646,-0.03550824522972107,-0.04380720853805542
1782969667647951400,9.487951416015624,0.023602314293384552,0.00895247608423233,-0.0033610323444008827
1782969667657877200,9.497877197265625,0.021168984472751617,0.009617201052606106,0.04487094655632973
1782969667667803400,9.507803466796876,0.015503053553402424,0.01564648747444153,0.08727096766233444
1782969667677730300,9.517730224609375,0.021152416244149208,0.03196420893073082,0.1157875657081604
1782969667687656400,9.527656494140626,0.04309066757559776,0.04459059238433838,0.12404601275920868
1782969667697582300,9.537582275390625,0.05788745731115341,0.030464651063084602,0.10520441830158234
1782969667707509200,9.54750927734375,0.11160025745630264,0.08642318099737167,0.09883543848991394
1782969667717435400,9.557435302734374,0.13352526724338531,0.010848531499505043,0.0573926605284214
1782969667727361300,9.567361328125,0.1239745020866394,0.0007256288081407547,0.03390241786837578
1782969667737288200,9.5772880859375,0.09773597121238708,0.015785004943609238,0.04817776009440422
1782969667747214300,9.58721435546875,0.033855218440294266,-0.010347718372941017,0.07614603638648987
1782969667757140500,9.597140380859376,-0.01515892893075943,0.05662146210670471,0.11355466395616531
1782969667767066400,9.60706640625,-0.025654083117842674,0.09957721829414368,0.12134134024381638
1782969667776993300,9.6169931640625,-0.02461225353181362,0.07022997736930847,0.1123553067445755
1782969667786919400,9.62691943359375,-0.022013219073414803,0.022149281576275826,0.08247818797826767
1782969667796845300,9.63684521484375,-0.019982825964689255,0.0021036695688962936,0.056271083652973175
1782969667806772200,9.646772216796874,-0.029423968866467476,-0.014481326565146446,0.0381246879696846
1782969667816698400,9.656698486328125,-0.046426922082901,-0.020119238644838333,0.029504835605621338
1782969667826624500,9.66662451171875,-0.06049919128417969,0.0000391518697142601,0.02867208793759346
1782969667836551200,9.67655126953125,-0.06528888642787933,0.005522600375115871,0.03071553073823452
1782969667846477300,9.686477294921875,-0.05560290068387985,-0.00007613282650709152,0.030469005927443504
1782969667856403500,9.696403564453124,-0.03486353158950806,0.026905417442321777,0.03269274905323982
1782969667866330400,9.706330322265625,-0.003939550835639238,0.008801294490695,0.03505465015769005
1782969667876256300,9.71625634765625,0.01958974450826645,-0.0272483192384243,0.038453109562397
1782969667886182400,9.726182373046875,0.03480060026049614,0.014003502205014229,0.06179190054535866
1782969667896109300,9.736109375,0.04483618959784508,0.04281597584486008,0.09912408888339996
1782969667906035200,9.74603515625,0.08562018722295761,0.1844043731689453,0.13793374598026276
1782969667915961300,9.75596142578125,0.10497923940420151,0.2032393217086792,0.17401450872421265
1782969667925887200,9.76588720703125,0.132323756814003,0.1396641582250595,0.14625220000743866
1782969667935814400,9.775814453125,0.1334524005651474,0.07470273226499557,0.11553583294153214
1782969667945740300,9.785740234375,0.13058750331401825,0.09311516582965851,0.09279108792543411
1782969667955666200,9.795666259765625,0.11776252090930939,0.10773912072181702,0.06807908415794373
1782969667965593300,9.80559326171875,0.08980181068181992,0.09178370237350464,0.04343492537736893
1782969667975519200,9.815519287109375,0.05034308508038521,0.05209008976817131,0.0021165136713534594
1782969667985445400,9.8254453125,0.013635154813528061,0.015486355870962143,-0.04854574427008629
1782969667995372300,9.835372314453124,-0.010933305136859417,0.03874906897544861,-0.07930073142051697
1782969668005298400,9.84529833984375,-0.012996399775147438,0.06226622313261032,-0.09875043481588364
1782969668015224300,9.855224365234376,-0.01517060399055481,0.04857597500085831,-0.10113076865673065
1782969668025151200,9.865151123046875,-0.02508227340877056,0.018773186951875687,-0.10591600090265274
1782969668035077400,9.875077392578126,-0.037856925278902054,0.04684263840317726,-0.10373886674642563
1782969668045003300,9.885003173828125,-0.05803351104259491,0.09525156021118164,-0.10818805545568466
1782969668054930200,9.89493017578125,-0.06326955556869507,0.09996268898248672,-0.119119793176651
1782969668064856300,9.904856201171874,-0.05349355190992355,0.05471205711364746,-0.1481783390045166
1782969668074781400,9.914781494140625,-0.026653146371245384,0.002986009232699871,-0.17899616062641144
1782969668084708400,9.924708251953126,-0.013384969905018806,-0.04996196925640106,-0.18460801243782043
1782969668094634500,9.934634521484375,-0.021620530635118484,-0.05356203019618988,-0.17198409140110016
1782969668104560400,9.944560302734375,-0.04198088496923447,-0.02444043941795826,-0.1383494734764099
1782969668114486500,9.954486572265624,-0.07001172006130219,0.006656493991613388,-0.1051584929227829
1782969668124413400,9.964413330078125,-0.09472877532243729,0.016236603260040283,-0.08786426484584808
1782969668134339600,9.974339599609374,-0.10449085384607315,0.029114319011569023,-0.06860881298780441
1782969668144265500,9.984265380859375,-0.09794031828641891,0.03469318524003029,-0.05954230949282646
1782969668154192400,9.9941923828125,-0.08646023273468018,0.041952162981033325,-0.05696330592036247
1782969668164118500,10.004118408203125,-0.06452450901269913,0.05071655660867691,-0.05341516435146332
1782969668174044700,10.014044677734375,-0.0441659651696682,0.0546090304851532,-0.04760681092739105
1782969668183971300,10.023971435546875,-0.01507595181465149,0.030235540121793747,-0.03856320679187775
1782969668193897500,10.0338974609375,-0.001849096268415451,0.017158888280391693,-0.017605729401111603
1782969668203823600,10.04382373046875,0.00853447150439024,0.03902606666088104,-0.003515869379043579
1782969668213750500,10.05375048828125,0.003775668563321233,0.039392516016960144,-0.00541363749653101
1782969668223676400,10.063676513671876,-0.023279819637537003,-0.007976395078003407,-0.036630626767873764
1782969668233602600,10.0736025390625,-0.03974480926990509,0.030156875029206276,-0.05699848383665085
1782969668243529500,10.083529541015626,0.03133830800652504,0.18852880597114563,-0.08049420267343521
1782969668253455400,10.093455322265624,0.10881472378969193,0.30171555280685425,-0.12505075335502625
1782969668263381500,10.103381591796875,0.13125061988830566,0.23908372223377228,-0.16687415540218353
1782969668273307600,10.1133076171875,0.13347887992858887,-0.03217654675245285,-0.23300550878047943
1782969668283234600,10.123234619140625,0.11287810653448105,-0.060695581138134,-0.2167372703552246
1782969668293160400,10.133160400390626,0.08558975905179977,0.05486457049846649,-0.1640455722808838
1782969668303086600,10.143086669921875,0.0765380933880806,0.0988059714436531,-0.10348986089229584
1782969668313013500,10.153013427734376,0.0779210701584816,0.055102698504924774,-0.06016475334763527
1782969668322939400,10.162939453125,0.07104404270648956,0.15397639572620392,-0.01567968726158142
1782969668332865500,10.172865478515625,0.06132936850190163,0.0653141662478447,-0.02596028707921505
1782969668342792400,10.18279248046875,0.0374307818710804,-0.005905566271394491,-0.01902175135910511
1782969668352718600,10.192718505859375,0.0361495316028595,0.013266796246170998,-0.010707627981901169
1782969668362644500,10.20264453125,0.04378259554505348,-0.024647574871778488,-0.014542708173394203
1782969668372571400,10.2125712890625,0.01800745725631714,-0.0685521811246872,-0.040189217776060104
1782969668382497500,10.22249755859375,-0.01007041335105896,-0.08532457053661346,-0.058353520929813385
1782969668392423400,10.23242333984375,-0.00204817415215075,-0.0833575576543808,-0.05951119586825371
1782969668402350300,10.242350341796875,0.0042112222872674465,-0.07758226990699768,-0.03589734062552452
1782969668412276500,10.2522763671875,-0.00444857869297266,-0.05243536829948425,-0.004654466174542904
1782969668422202600,10.26220263671875,-0.007742587476968765,-0.02625904604792595,0.024267354980111122
1782969668432128500,10.27212841796875,-0.005201665684580803,-0.017152367159724236,0.03695811703801155
1782969668442055400,10.282055419921875,-0.007972418330609798,-0.01831536926329136,0.039213549345731735
1782969668451981600,10.291981689453126,-0.005038147326558828,-0.02018384262919426,0.032404642552137375
1782969668461907500,10.301907470703124,0.0024542631581425667,-0.03539186343550682,0.029751433059573174
1782969668471834400,10.31183447265625,0.011664006859064102,-0.029932916164398193,0.03284842148423195
1782969668481760500,10.321760498046874,0.027938559651374817,-0.013563370332121849,0.056003961712121964
1782969668491686700,10.331686767578125,0.03302253037691116,0.011235453188419342,0.0883677527308464
1782969668501613300,10.34161328125,0.02838236652314663,0.09567979723215103,0.12988075613975525
1782969668511539500,10.35153955078125,0.04669426381587982,0.049203649163246155,0.12109125405550003
1782969668521465600,10.361465576171875,0.04643215239048004,-0.07995285093784332,0.08165100961923599
1782969668531392500,10.371392578125,0.0493168868124485,-0.020638395100831985,0.05413496121764183
1782969668541318400,10.381318359375,0.0467919297516346,0.09386812150478363,0.05559958517551422
1782969668551244500,10.39124462890625,0.04732935503125191,0.0022476608864963055,0.04096205160021782
1782969668561171500,10.40117138671875,0.03415876254439354,0.05271129682660103,0.07328138500452042
1782969668571097600,10.41109765625,0.02663959376513958,0.09999758005142212,0.09439918398857117
1782969668581023500,10.4210234375,0.034766677767038345,0.06669624149799347,0.1120794415473938
1782969668590949600,10.43094970703125,0.037465259432792664,0.08195242285728455,0.1312536746263504
1782969668600876500,10.44087646484375,0.045784033834934235,0.09804487973451614,0.13984893262386322
1782969668610802400,10.450802490234375,0.044099319726228714,0.08479778468608856,0.14395925402641296
1782969668620728600,10.460728515625,0.036965254694223404,0.06470778584480286,0.14133243262767792
1782969668630655500,10.470655517578125,0.021998025476932526,0.04368212819099426,0.12772367894649506
1782969668640581600,10.48058154296875,-0.001976646250113845,0.014090210199356079,0.1021687239408493
1782969668650507500,10.490507568359375,-0.017729509621858597,0.008249365724623203,0.06579287350177765
1782969668660434400,10.500434326171876,-0.0337868295609951,-0.03924183174967766,0.01912880875170231
1782969668670360600,10.510360595703125,-0.04447995498776436,-0.03926872834563255,-0.017480600625276566
1782969668680286500,10.520286376953125,-0.051305998116731644,-0.014575567096471786,-0.030069684609770775
1782969668690213400,10.53021337890625,-0.055524446070194244,-0.0131534393876791,-0.02341471053659916
1782969668700139500,10.540139404296875,-0.0626416876912117,0.08501814305782318,0.017531743273139
1782969668710065700,10.550065673828126,-0.0388367585837841,0.02573910728096962,0.019264396280050278
1782969668719992300,10.559992431640625,-0.03288678079843521,-0.017653649672865868,0.0067306747660040855
1782969668729918500,10.56991845703125,-0.039897818118333817,0.06334826350212097,0.026393592357635498
1782969668739844600,10.5798447265625,-0.034052614122629166,0.11815667897462845,0.053823743015527725
1782969668749770500,10.5897705078125,-0.027008553966879845,-0.013690030202269554,0.031681958585977554
1782969668759697400,10.599697509765624,-0.039276305586099625,0.030727967619895935,0.04359513148665428
1782969668769623600,10.60962353515625,-0.030564308166503906,0.10215767472982407,0.055232614278793335
1782969668779549700,10.6195498046875,-0.01726493053138256,-0.004700215067714453,0.024450134485960007
1782969668789476400,10.629476318359375,-0.0038007856346666813,-0.03172890469431877,0.0062295859679579735
1782969668799402500,10.639402587890626,0.0031208819709718227,0.002077751327306032,0.011641980148851871
1782969668809328600,10.64932861328125,0.008746011182665825,0.007131099235266447,0.021621111780405045
1782969668819255600,10.659255615234375,0.00978388637304306,0.016026249155402184,0.029839862138032913
1782969668829181400,10.669181396484374,0.009744205512106419,0.025104697793722153,0.026357246562838554
1782969668839107600,10.679107666015625,0.00704643689095974,0.02031412348151207,0.01227490697056055
1782969668849034500,10.689034423828126,0.005183555651456118,0.009004211984574795,-0.0060343253426253796
1782969668858960400,10.69896044921875,0.007411221042275429,-0.008497048169374466,-0.0323760025203228
1782969668868886500,10.708886474609375,0.012850726954638958,-0.020938005298376083,-0.0518258661031723
1782969668878813400,10.7188134765625,0.012409370392560959,-0.019046291708946228,-0.05447519198060036
1782969668888739600,10.728739501953125,0.0023623290471732616,-0.01508350856602192,-0.06086757406592369
1782969668898665500,10.73866552734375,-0.006546364165842533,-0.004148181527853012,-0.07381269335746765
1782969668908592400,10.74859228515625,-0.011670553125441074,-0.003386517520993948,-0.08828164637088776
1782969668918518500,10.7585185546875,-0.017704756930470467,-0.00019810069352388382,-0.0888562798500061
1782969668928444400,10.7684443359375,-0.024922722950577736,0.005783891770988703,-0.08034641295671463
1782969668938370600,10.77837060546875,-0.031030474230647087,0.01119505800306797,-0.06663262844085693
1782969668948297500,10.78829736328125,-0.03899146243929863,0.005535308737307787,-0.05263292044401169
1782969668958223600,10.7982236328125,-0.04225614294409752,0.002226813230663538,-0.04713374748826027
1782969668968149500,10.8081494140625,-0.03270365297794342,-0.013414730317890644,-0.048008862882852554
1782969668978076400,10.818076416015625,-0.0293005108833313,-0.01835964247584343,-0.060472507029771805
1782969668988002600,10.82800244140625,-0.021647650748491287,-0.046433623880147934,-0.07751381397247314
1782969668997928400,10.837928466796875,-0.013858157210052013,-0.051638051867485046,-0.08086548000574112
1782969669007855400,10.84785546875,0.016550615429878235,-0.02795535884797573,-0.07803346961736679
1782969669017781500,10.857781494140625,0.022342458367347717,-0.05406312644481659,-0.08941236138343811
1782969669027707600,10.867707763671875,0.04123252257704735,-0.07416386157274246,-0.09885113686323166
1782969669037634600,10.877634521484374,0.04443920776247978,-0.052603185176849365,-0.10110580176115036
1782969669047560400,10.887560546875,0.04814286530017853,-0.01924576237797737,-0.10695836693048477
1782969669057486600,10.897486572265626,0.056203946471214294,-0.019367126747965813,-0.12003365904092789
1782969669067413500,10.90741357421875,0.07400238513946533,-0.02344788797199726,-0.1316586285829544
1782969669077339600,10.917339599609376,0.025938648730516434,-0.031670961529016495,-0.16113458573818207
1782969669087265800,10.927265869140625,-0.01544713880866766,-0.02586633712053299,-0.18006938695907593
1782969669097191700,10.937191650390625,-0.03262109309434891,0.003223367966711521,-0.18698379397392273
1782969669107118600,10.94711865234375,-0.04078421741724014,-0.00812942162156105,-0.19128960371017456
1782969669117044700,10.957044677734375,-0.05818825215101242,-0.00997304730117321,-0.17573292553424835
1782969669126971000,10.966970947265626,-0.058153364807367325,-0.015005622990429401,-0.157453253865242
1782969669136897500,10.9768974609375,-0.05249791964888573,-0.01898830384016037,-0.14778995513916016
1782969669146823700,10.98682373046875,-0.04441016539931297,-0.017097461968660355,-0.15136045217514038
1782969669156749800,10.996749755859375,-0.02462582103908062,-0.018752001225948334,-0.14430272579193115
1782969669166676700,11.0066767578125,-0.006927252281457186,-0.035248950123786926,-0.13773830235004425
1782969669176602600,11.0166025390625,-0.0038403549697250128,-0.03947208821773529,-0.12635716795921326
1782969669186528800,11.02652880859375,-0.01728239469230175,-0.04013334959745407,-0.11209647357463837
1782969669196455700,11.03645556640625,-0.013303784653544426,-0.02412550337612629,-0.09843767434358597
1782969669206381600,11.046381591796875,-0.044106174260377884,-0.04154311120510101,-0.10633128136396408
1782969669216307700,11.0563076171875,-0.057280465960502625,-0.015546991489827633,-0.09818115830421448
1782969669226234600,11.066234619140625,-0.05105426162481308,-0.0023640780709683895,-0.08642010390758514
1782969669236160800,11.076160888671875,-0.04627509042620659,-0.011854114010930061,-0.07923225313425064
1782969669246086700,11.086086669921874,-0.034760914742946625,0.004249222576618195,-0.06932183355093002
1782969669256012800,11.0960126953125,-0.03117567114531994,0.013251274824142456,-0.06138814613223076
1782969669265939700,11.105939697265624,-0.014718400314450264,0.014457419514656067,-0.06688384711742401
1782969669275865600,11.115865478515625,0.0006474922993220389,0.025362610816955566,-0.06651812046766281
1782969669285791700,11.125791748046876,0.0206006933003664,0.023715179413557053,-0.07398749142885208
1782969669295718700,11.13571875,0.023797916248440742,0.024660639464855194,-0.08093555271625519
1782969669305644800,11.145644775390625,0.011168141849339008,0.05604279413819313,-0.0476127453148365
1782969669315570700,11.15557080078125,-0.0013244523433968425,0.04726449027657509,-0.018521128222346306
1782969669325497600,11.16549755859375,-0.0031713545322418213,0.06267353892326355,0.029011502861976624
1782969669335423700,11.175423828125,-0.009828486479818821,0.06437396258115768,0.06794500350952148
1782969669345349600,11.185349609375,-0.016736991703510284,0.04035544395446777,0.08891952782869339
1782969669355276500,11.195276611328126,-0.01628132537007332,0.02842714637517929,0.09528794884681702
1782969669365202700,11.20520263671875,-0.009584806859493256,0.014633304439485073,0.10013756155967712
1782969669375128800,11.21512890625,0.005619585979729891,-0.007047263439744711,0.10519792884588242
1782969669385055500,11.225055419921874,0.014545169658958912,-0.02138412557542324,0.10628823190927505
1782969669394981600,11.234981689453125,0.013784038834273815,-0.024293893948197365,0.11031120270490646
