time,seconds_elapsed,z,y,x
1782952667672334300,0.061334228515625,-0.0005587312043644488,0.005506617948412895,-0.000025300030756625347
1782952667682261500,0.071261474609375,-0.002246642718091607,0.006302370689809322,0.0006524744676426053
1782952667692189400,0.081189453125,-0.001764077926054597,0.007850999012589455,0.00013022858183830976
1782952667702116600,0.09111669921875,-0.0013992248568683863,0.0062485747039318085,0.0011946940794587135
1782952667712044500,0.10104443359375,-0.001440237509086728,0.005524993874132633,0.000999484327621758
1782952667721971500,0.110971435546875,-0.0014945659786462784,0.0070861391723155975,-0.00016431703988928348
1782952667731899400,0.1208994140625,0.0020820593927055597,0.005170793738216162,0.003605920122936368
1782952667741826600,0.13082666015625,-0.0005829659639857709,0.003061303636059165,-0.0005344964447431266
1782952667751754500,0.14075439453125,-0.00039308256236836314,0.005603024736046791,-0.0008018778171390295
1782952667761681700,0.150681640625,-0.0013395700370892882,0.005080512259155512,0.003290601773187518
1782952667771609600,0.160609619140625,-0.001418665866367519,0.005727127660065889,-0.0025779400020837784
1782952667781536500,0.17053662109375,-0.0020682108588516712,0.00717562111094594,-0.002636263146996498
1782952667791464400,0.18046435546875,0.0005613943794742227,0.004582767374813557,0.00025726135936565697
1782952667801392600,0.190392578125,0.00020932445477228612,0.002674612682312727,0.0023782027419656515
1782952667811319600,0.200319580078125,-0.00242187874391675,0.004169711377471685,-0.0006514092092402279
1782952667821247500,0.21024755859375,0.0003296993381809443,0.00330285239033401,0.0001882854849100113
1782952667831174400,0.22017431640625,-0.003614708548411727,0.004216316621750593,0.0010436928132548928
1782952667841102600,0.2301025390625,-0.0028610338922590017,0.00520727876573801,0.0006593986763618886
1782952667851029500,0.240029541015625,-0.0017699368763715029,0.007072823122143745,-0.0021291973534971476
1782952667860957400,0.24995751953125,0.000963797967415303,0.0007837683078832924,0.0005555353709496558
1782952667870884400,0.25988427734375,0.00038642468280158937,0.004460262134671211,-0.000547279603779316
1782952667880812300,0.269812255859375,0.00034674355993047357,0.003005377249792218,-0.0004825647920370102
1782952667890739500,0.279739501953125,-0.002576342085376382,0.003242664970457554,-0.0001525991247035563
1782952667900667400,0.28966748046875,-0.0023220102302730083,0.007947138510644436,0.00002609897819638718
1782952667910595300,0.29959521484375,-0.0011281149927526712,0.003706587478518486,0.0004215783847030252
1782952667920522500,0.3095224609375,-0.001121723442338407,0.00378994457423687,-0.00003435477628954686
1782952667930450400,0.319450439453125,0.0007105313707143068,0.0024557008873671293,0.003192064817994833
1782952667940377600,0.329377685546875,-0.00004021373388241045,0.003978496417403221,-0.00038056570338085294
1782952667950305500,0.339305419921875,-0.001044758129864931,0.004065847955644131,0.0017129451734945178
1782952667960232400,0.349232421875,-0.0007837683078832924,0.00538304727524519,0.000922519015148282
1782952667970160400,0.359160400390625,-0.00047351003740914166,0.003493002150207758,0.0002564624010119587
1782952667980087600,0.369087646484375,-0.0017725999932736158,0.003877029987052083,0.0026546388398855925
1782952667990015500,0.379015380859375,-0.0006327670416794717,0.0027771443128585815,-0.0013132047606632113
1782952667999942700,0.388942626953125,-0.00043276368523947895,0.00424374733120203,0.0003352919884491712
1782952668009870600,0.39887060546875,-0.0037092508282512426,0.006336192600429058,0.0022471752017736435
1782952668019797500,0.408797607421875,-0.0008111988427117467,0.005428054835647345,-0.001582716591656208
1782952668029725400,0.418725341796875,-0.0009614011505618691,0.0049409628845751286,0.0009198558400385082
1782952668039652600,0.428652587890625,-0.0006918892613612115,0.0057340520434081554,0.0006463492172770202
1782952668049580500,0.43858056640625,0.001344896387308836,0.00478436890989542,0.00019627496658358723
1782952668059508500,0.448508544921875,-0.0014365090755745769,0.0038772961124777794,0.000984836951829493
1782952668069435600,0.458435546875,-0.0005659217131324112,0.0046243127435445786,-0.0007978830835781991
1782952668079362800,0.46836279296875,-0.0009305084822699428,0.0038924762047827244,-0.002011485630646348
1782952668089290000,0.4782900390625,-0.0016327840276062489,0.005152151454240084,-0.000016245283404714428
1782952668099218000,0.488218017578125,-0.0035960664972662926,0.006524212192744017,-0.0016263924771919847
1782952668109144800,0.498144775390625,-0.001145159243606031,0.005397428758442402,0.0013920343481004238
1782952668119073000,0.508072998046875,-0.0014410364674404263,0.005934854503720999,0.00358834327198565
1782952668129000000,0.518,0.0009323726990260184,0.005090099759399891,0.0012215919559821486
1782952668138927900,0.527927978515625,0.00039867521263659,0.003632551757618785,-0.00041278995922766626
1782952668148855000,0.53785498046875,0.000943025341257453,0.001374723738990724,0.001335841603577137
1782952668158783000,0.547782958984375,0.0010639328975230455,0.004733768757432699,0.002528138691559434
1782952668168710000,0.5577099609375,-0.004769721534103155,0.005641906522214413,0.0020991035271435976
1782952668178638000,0.56763818359375,-0.001885784324258566,0.00504056503996253,0.0005022721597924829
1782952668188566000,0.57756591796875,-0.0003177151083946228,0.005288239102810621,0.0003384877636563033
1782952668198493000,0.587492919921875,0.00036511936923488975,0.006780141964554787,-0.0004655205411836505
1782952668208420900,0.5974208984375,0.0018189389957115054,0.004679440520703793,0.0002745719102676958
1782952668218348000,0.60734814453125,-0.00022370553051587194,0.006037386134266853,-0.00205223192460835
1782952668228276000,0.61727587890625,0.0006048039067536592,0.003439472522586584,0.001130511867813766
1782952668238203100,0.627203125,-0.0005691175465472043,0.004741491749882698,0.0010910971323028207
1782952668248131000,0.637131103515625,-0.00005326322207110934,0.003465571440756321,0.0005933523061685264
1782952668258058000,0.64705810546875,0.0014258564915508032,0.002576075727120042,0.0017190704820677638
1782952668267986200,0.656986083984375,0.0015390408225357533,0.0046299053356051445,0.003073820611461997
1782952668277913000,0.6669130859375,-0.002674612682312727,0.004344680812209845,-0.0005209143273532391
1782952668287841000,0.676841064453125,-0.0003201119543518871,0.005556419026106596,0.0009100021561607718
1782952668297768000,0.686767822265625,-0.00043649208964779973,0.005991047248244286,0.0002993392990902066
1782952668307696000,0.696696044921875,-0.002369148191064596,0.006656837183982134,-0.0011584750609472394
1782952668317624000,0.7066240234375,0.00010040117194876075,0.005784652195870876,0.002061286708340049
1782952668327551000,0.716551025390625,-0.0008998821140266955,0.007243798114359379,0.001942776027135551
1782952668337479000,0.72647900390625,-0.0021845910232514143,0.005714344792068005,-0.00038456046604551375
1782952668347405800,0.73640576171875,-0.0024802018888294697,0.004534298088401556,0.0009574064170010388
1782952668357334000,0.746333984375,-0.002170742489397526,0.004347876645624638,0.0028069717809557915
1782952668367261000,0.756260986328125,0.0006415555253624916,0.0049247173592448235,-0.0002623213513288647
1782952668377188900,0.76618896484375,-0.0009366337326355278,0.0043654534965753555,-0.00040559942135587335
1782952668387116000,0.776115966796875,-0.0032746228389441967,0.0044080642983317375,0.000059388490626588464
1782952668397044000,0.7860439453125,-0.0037462685722857714,0.004712729714810848,-0.00008309062832267955
1782952668406971000,0.795970947265625,-0.000990429543890059,0.005705290008336306,-0.000441818410763517
1782952668416899000,0.805899169921875,-0.000050866376113845035,0.005265069659799337,0.0017486315919086337
1782952668426826000,0.815825927734375,-0.0011108045000582933,0.0046578687615692616,0.0017600831342861056
1782952668436754000,0.82575390625,-0.0011092065833508968,0.004011785611510277,0.0020415792241692543
1782952668446681900,0.835681884765625,-0.0007387608638964593,0.005409678909927607,0.001121989800594747
1782952668456609000,0.845609130859375,-0.0004881574132014066,0.005884254351258278,0.0020149475894868374
1782952668466537000,0.855536865234375,-0.0015369103057309985,0.003710848744958639,0.0020567593164741993
1782952668476464000,0.865464111328125,-0.002159557305276394,0.004161987919360399,0.00185036426410079
1782952668486392000,0.87539208984375,0.0004777711001224816,0.005055478774011135,0.0015939018921926618
1782952668496319000,0.885319091796875,-0.003742540255188942,0.003615241264924407,0.000045540054998127744
1782952668506247200,0.8952470703125,-0.0036493295338004827,0.006268548313528299,-0.0008314388687722385
1782952668516174000,0.905174072265625,0.0014759238110855222,0.004759068600833416,-0.0009012137306854129
1782952668526102000,0.91510205078125,-0.0014516890514642,0.005891711451113224,-0.00034408041392453015
1782952668536029200,0.925029296875,-0.0016176040517166257,0.005789712071418762,0.002502838848158717
1782952668545957000,0.93495703125,0.0003067961661145091,0.004990497604012489,0.0014096111990511417
1782952668555883800,0.9448837890625,-0.0009121326729655266,0.003947070799767971,-0.000024234765078290366
1782952668565812000,0.95481201171875,-0.00115394766908139,0.0067878649570047855,0.0032170985359698534
1782952668575739000,0.96473876953125,-0.0026770094409585,0.007139668334275484,0.0020511667244136333
1782952668585666800,0.974666748046875,-0.002395513467490673,0.006200638134032488,0.0027827369049191475
1782952668595595000,0.984594970703125,-0.00039601203752681613,0.006075469311326742,0.0010793792316690087
1782952668605522000,0.99452197265625,0.00019201391842216253,0.004618453793227673,-0.0006703176186420023
1782952668615449900,1.004449951171875,-0.000853809411637485,0.007837682962417603,-0.001288171042688191
1782952668625377000,1.014376953125,-0.004090881906449795,0.004425374791026115,0.00037497308221645653
1782952668635305000,1.024304931640625,-0.0005155879771336913,0.005744970869272947,-0.002046905690804124
1782952668645231900,1.03423193359375,-0.0006468818173743784,0.003964381758123636,0.0031169636640697718
1782952668655160000,1.04416015625,0.0002561961009632796,0.00649784691631794,0.0009353021741844714
1782952668665087000,1.0540869140625,0.001404018490575254,0.0027276095934212208,0.003534547286108136
1782952668675015000,1.064014892578125,-0.0008364989189431071,0.0011448930017650127,0.0012724583502858877
1782952668684942000,1.073942138671875,-0.0018250643042847514,0.00498144282028079,0.0007107976707629859
1782952668694870000,1.0838701171875,0.0011235876008868217,0.00609224708750844,0.0002258360618725419
1782952668704797000,1.093796875,-0.0006788397440686822,0.0044165863655507565,0.0018775284988805652
1782952668714725000,1.10372509765625,0.00029774141148664057,0.0027928571216762066,0.0009843043517321348
1782952668724652000,1.113652099609375,-0.001856489572674036,0.0033329459838569164,-7.989483492565341e-7
1782952668734580000,1.123580078125,-0.00006364954606397077,0.002788063371554017,0.0008314388687722385
1782952668744508000,1.1335078125,0.00009241169027518481,0.003841343568637967,0.0007068029372021556
1782952668754435000,1.14343505859375,-0.0036160401068627834,0.004954012110829353,0.000857005245052278
1782952668764363000,1.153363037109375,-0.003573163179680705,0.00016165387933142483,-0.00008122641156660393
1782952668774290200,1.163290283203125,-0.0011731224367395043,-0.0005310343112796545,0.00029880666988901794
1782952668784218000,1.173218017578125,-0.0009078715811483562,0.003463441040366888,-0.0017057546647265553
1782952668794144800,1.183144775390625,0.00010599380766507238,0.0018074874533340335,0.0030975225381553173
1782952668804073200,1.1930732421875,-0.0011142665753141046,0.003078880487009883,-0.0004924184759147465
1782952668813999900,1.202999755859375,0.0034589136485010386,0.0021313277538865805,-0.0006285060080699623
1782952668823927800,1.212927734375,0.0005371595616452396,0.0005898901727050543,-0.0018690064316615462
1782952668833855000,1.22285498046875,-0.00024288028362207115,0.00711676524952054,0.0016309198690578341
1782952668843783000,1.232782958984375,0.0010149306617677212,0.0065135592594742775,0.0005763080553151667
1782952668853709800,1.242709716796875,-0.0018495653057470918,0.004914064891636372,-0.0013784521725028753
1782952668863638000,1.252637939453125,-0.0005856291390955448,0.0036011263728141785,0.0007472829893231392
1782952668873565000,1.26256494140625,-0.0016359798610210419,0.0017094830982387066,0.0036693033762276173
1782952668883492900,1.272492919921875,-0.0012807141756638885,0.0017499631503596902,-0.0015512913232669234
1782952668893420000,1.282419921875,0.0010013486025854945,0.0025217472575604916,0.00017736652807798237
1782952668903348000,1.292347900390625,-0.0013552826130762696,0.0037768951151520014,0.00017177389236167073
1782952668913276000,1.30227587890625,-0.0005960154230706394,0.0059870523400604725,0.0015899071004241705
1782952668923203000,1.312203125,-0.0010863033821806312,0.003855191869661212,0.00015659387281630188
1782952668933131000,1.322131103515625,0.0015757924411445856,0.003945739474147558,0.001038366463035345
1782952668943058000,1.332057861328125,-0.0008990831556729972,0.0062403189949691296,0.0019267969764769077
1782952668952986000,1.341986083984375,0.0011416971683502197,0.004818190820515156,0.0007600661483593285
1782952668962913000,1.3519130859375,-0.000898550555575639,0.0031531827989965677,-0.0012596751330420375
1782952668972841000,1.361841064453125,-0.004578772932291031,0.0076150428503751755,0.0005869606975466013
1782952668982768000,1.37176806640625,-0.0025683525018393993,0.007517837453633547,0.0006029396899975836
1782952668992696000,1.381696044921875,-0.002502572489902377,0.004324174486100674,-0.0021728731226176023
1782952669002623000,1.391623046875,-0.0013560815714299679,0.001975266495719552,0.0003944141499232501
1782952669012551200,1.40155126953125,-0.000291616132017225,0.004867991898208857,0.0017638115677982569
1782952669022478000,1.41147802734375,-0.0006178533658385277,0.004950284026563168,0.0028511802665889263
1782952669032406000,1.421406005859375,-0.000931041082367301,0.005685582756996155,0.002261822810396552
1782952669042333000,1.4313330078125,-0.00022796659322921187,0.00634950865060091,-0.0003534014686010778
1782952669052260900,1.4412607421875,-0.001070857048034668,0.005405418109148741,0.0009808422764763236
1782952669062189000,1.45118896484375,-0.0029909962322562933,0.007878695614635944,0.0009374326909892261
1782952669072116000,1.461115966796875,0.0013195963110774755,0.0049494849517941475,0.0006378270918503404
1782952669082044200,1.471044189453125,-0.002168612089008093,0.004018177278339863,-0.00014913702034391463
1782952669091971000,1.48097119140625,0.0018008295446634293,0.005471464246511459,0.0007784419576637447
1782952669101899300,1.490899169921875,0.00016405072528868914,0.005567604675889015,0.0020727382507175207
1782952669111826200,1.500826171875,-0.002968625631183386,0.0068211546167731285,0.0019094864837825298
1782952669121754000,1.510754150390625,0.0003259709046687931,0.0018687400734052062,0.0026021746452897787
1782952669131681300,1.520681396484375,-0.003689809702336788,0.005587311927229166,0.004316717851907015
1782952669141609200,1.530609130859375,-0.0016077503096312284,0.006923153530806303,0.00020479709201026708
1782952669151536000,1.5405361328125,-0.001558748190291226,0.0032120386604219675,0.0012120045721530914
1782952669161464300,1.55046435546875,-0.001406947965733707,0.005775064695626497,0.0011515507940202951
1782952669171391200,1.56039111328125,0.001820803270675242,0.0048829056322574615,0.00047883635852485895
1782952669181319200,1.570319091796875,0.0005715143634006381,0.0042733084410429,-0.0005113269435241818
1782952669191246300,1.580246337890625,-0.00006338323146337643,0.002971555106341839,0.0013520868960767984
1782952669201174300,1.59017431640625,-0.001067661214619875,0.004002464935183525,-0.0013161342358216643
1782952669211101200,1.60010107421875,-0.00023276027059182525,0.003737214021384716,0.0008016114588826895
1782952669221029400,1.610029296875,-0.002528937766328454,0.004288754425942898,0.0022538332268595695
1782952669230957300,1.619957275390625,0.0016844493802636862,0.002715625334531069,-0.000355532014509663
1782952669240884200,1.62988427734375,0.0024469124618917704,0.005360144190490246,0.0028613002505153418
1782952669250812400,1.6398125,-0.0014674017438665032,0.008941562846302986,-0.00030892668291926384
1782952669260739300,1.6497392578125,0.0022628880105912685,0.004611796233803034,-0.0004996090428903699
1782952669270667300,1.659667236328125,0.0009084042394533753,0.004857339430600405,0.0012306467397138476
1782952669280594400,1.669594482421875,-0.0023587618488818407,0.00401737866923213,0.00003728425508597866
1782952669290522400,1.6795224609375,-0.0011893677292391658,0.0037886130157858133,0.00031904669594950974
1782952669300449000,1.689448974609375,-0.0018431737553328276,0.0034647725988179445,0.0010237190872430801
1782952669310377200,1.699377197265625,-0.000666322885081172,0.007469101343303919,0.0010269149206578732
1782952669320304000,1.70930419921875,0.00037230990710668266,0.006113286130130291,-0.0005568669876083732
1782952669330232000,1.719232177734375,0.00038775624125264585,0.004998753312975168,-0.0005222458858042955
1782952669340159200,1.7291591796875,-0.00014940333494450897,0.003718838095664978,-0.00016937704640440643
1782952669350087200,1.739087158203125,0.00030067088664509356,0.004328169394284487,0.0011297129094600677
1782952669360014000,1.74901416015625,-0.00042823629337362945,0.005048554390668869,-0.0009041432058438659
1782952669369942300,1.7589423828125,-0.003316700691357255,0.005466138012707233,0.00009081379539566115
1782952669379869200,1.768869140625,0.00006311691686278209,0.004023237619549036,0.00017789915727917105
1782952669389797000,1.778797119140625,-0.002441585995256901,0.0046911584213376045,0.0015422365395352244
1782952669399725300,1.788725341796875,0.002623746171593666,0.004986769054085016,-0.00046871634549461305
1782952669409652200,1.79865234375,-0.00020160128769930452,0.004203266929835081,0.0007411577389575541
1782952669419580200,1.808580078125,-0.00007057376933516935,0.00404587434604764,0.0015595471486449242
1782952669429507300,1.81850732421875,0.0007909588166512549,0.006536195985972881,-0.00185063062235713
1782952669439435300,1.828435302734375,-0.0015361113473773003,0.002804841147735715,0.0026519757229834795
1782952669449362200,1.838362060546875,-0.00036724991514347494,0.003808586625382304,-0.0014226606581360102
1782952669459290400,1.848290283203125,-0.0027632960118353367,0.003610979998484254,0.0013941648649051785
1782952669469217300,1.85821728515625,-0.001145159243606031,0.0054578823037445545,0.0008620652370154858
1782952669479145200,1.868145263671875,-0.0035633095540106297,0.004279167391359806,-0.0007930893916636705
1782952669489072400,1.878072265625,0.0017749968683347106,0.004030694253742695,0.00021598236344289035
1782952669499000300,1.888000244140625,-0.000978711643256247,0.004850149154663086,0.0007984156836755574
1782952669508927200,1.89792724609375,-0.00148151651956141,0.004280232358723879,0.000278300343779847
1782952669518855400,1.90785546875,0.0008556736283935606,0.004778509959578514,0.0019033611752092838
1782952669528782000,1.917781982421875,0.0013944311067461967,0.00788695178925991,0.0009683253592811525
1782952669538710300,1.927710205078125,-0.0029912625905126333,0.005269863177090883,0.0009321063989773393
1782952669548637200,1.93763720703125,0.00020346550445538014,0.0023228090722113848,0.0008886968716979027
1782952669558565000,1.947565185546875,0.000287088769255206,0.0041342913173139095,0.0018612833227962255
1782952669568493000,1.9574931640625,-0.000070307454734575,0.005031243897974491,0.0007331682136282325
1782952669578420200,1.967420166015625,-0.0002002697146963328,0.0054972972720861435,0.0025097629986703396
1782952669588348200,1.97734814453125,-0.0028818065766245127,0.006851247977465391,0.0010218549286946654
1782952669598275000,1.987275146484375,-0.0024828650057315826,0.0057532270438969135,-0.0013379721203818917
1782952669608203300,1.997203369140625,-0.0006868292111903429,0.0029875340405851603,0.0029915287159383297
1782952669618130200,2.007130126953125,0.00047590688336640596,0.0033065807074308395,0.0027534421533346176
1782952669628058000,2.01705810546875,-0.0030128341168165207,0.005037102848291397,-0.001877262257039547
1782952669637985300,2.0269853515625,-0.00026498452643863857,0.003948668949306011,0.0033595776185393333
1782952669647913200,2.036913330078125,0.0008346347021870315,0.005036303773522377,0.0008290420519188046
1782952669657840000,2.046840087890625,-0.002261023735627532,0.005566272884607315,0.0015307849971577525
1782952669667768300,2.056768310546875,-0.00213665422052145,0.005182777531445026,-0.0006998787284828722
1782952669677695200,2.0666953125,-0.0013132047606632113,0.004805674310773611,0.0016580841038376093
1782952669687623200,2.076623046875,-0.0026642263401299715,0.00866246409714222,0.0009832390351220965
1782952669697550300,2.08655029296875,-0.0013201289111748338,0.004572381265461445,0.00044661210267804563
1782952669707478300,2.096478271484375,-0.0019920445047318935,0.006892793346196413,0.0010727213229984045
1782952669717405400,2.106405517578125,-0.003299656556919217,0.00538357999175787,-0.0015022892039269209
1782952669727333400,2.11633349609375,-0.0017480988753959537,0.006776147056370974,0.0019110844004899263
1782952669737261300,2.12626123046875,-0.0010950918076559901,0.0067966533824801445,0.002192314248532057
1782952669747188200,2.136188232421875,0.0006897587445564568,0.0054299188777804375,-0.0001661812566453591
1782952669757116400,2.146116455078125,-0.00267674308270216,0.004201402887701988,-0.0012250541476532817
1782952669767043300,2.156043212890625,-0.001973136095330119,0.0021883193403482437,0.002585130510851741
1782952669776971300,2.16597119140625,-0.0008594020619057119,0.00848270021378994,-0.0027212179265916348
1782952669786898200,2.175898193359375,0.0007941546500660479,0.005087170284241438,0.0009555422002449632
1782952669796826000,2.185826171875,-0.00045540055725723505,0.0060059609822928905,0.002469815546646714
1782952669806753300,2.195753173828125,-0.0022711437195539474,0.004351871553808451,-0.0013515542959794402
1782952669816681200,2.20568115234375,-0.00041332258842885494,0.004687163513153791,0.0018738001817837358
1782952669826608000,2.215608154296875,0.0008263788768090308,0.0025920546613633633,0.0021672805305570364
1782952669836536000,2.2255361328125,-0.003201119601726532,0.003983023576438427,-0.00003435477628954686
1782952669846463200,2.235463134765625,-0.0031989889685064554,0.004268248099833727,0.0009214537567459047
1782952669856391200,2.24539111328125,-0.000990695902146399,0.0038035267498344183,0.00032197617110796273
1782952669866318300,2.255318359375,-0.00350445369258523,0.00615110294893384,0.0017869811272248626
1782952669876246300,2.265246337890625,-0.00008255799184553325,0.002743588527664542,-0.0005352954030968249
1782952669886173200,2.275173095703125,-0.0009028115891851485,0.0035230957437306643,0.0012748552253469825
1782952669896101000,2.28510107421875,-0.00010279801790602505,0.005257612559944391,0.0026791400741785765
1782952669906029300,2.295029296875,-0.0005930859479121864,0.003965446725487709,0.001916410750709474
1782952669915956200,2.304956298828125,-0.0000697748182574287,0.0033955303952097893,0.00041305628838017583
1782952669925884200,2.31488427734375,0.0008298410102725029,0.003034672001376748,0.003994741477072239
1782952669935811300,2.324811279296875,0.0005701828049495816,0.0037020600866526365,-0.001064731739461422
1782952669945739300,2.3347392578125,-0.0015134743880480528,0.005583849735558033,0.001555552356876433
1782952669955666200,2.344666259765625,0.00030839405371807516,0.005244030617177486,-0.0024048343766480684
1782952669965594400,2.354594482421875,0.0004703142330981791,0.005003813188523054,-0.0015952334506437182
1782952669975521300,2.364521240234375,-0.0031244205310940742,0.0030423952266573906,0.002439455594867468
1782952669985449200,2.37444921875,0.0012434299569576979,0.0028655612841248512,0.0018040252616629004
1782952669995376400,2.38437646484375,-0.0006474144756793976,0.005399559158831835,0.0032378712203353643
1782952670005304300,2.39430419921875,0.00031851406674832106,0.006462959107011557,0.0019350528018549085
1782952670015231200,2.404231201171875,0.0017329188995063305,0.0035087147261947393,0.00046046054922044277
1782952670025159200,2.4141591796875,-0.00038402783684432507,0.00691915862262249,0.0014839133946225047
1782952670035086000,2.424086181640625,-0.0005930859479121864,0.005197425372898579,0.00008069378236541525
1782952670045014000,2.434013916015625,0.00008149272616719827,0.005212871357798576,-0.0021920478902757168
1782952670054941200,2.443941162109375,0.0023457121569663286,0.005860552191734314,0.00387276872061193
1782952670064869000,2.453869140625,0.00012783173588104546,0.003924434073269367,0.0008247809601016343
1782952670074796300,2.46379638671875,0.0009483516332693398,0.005899700801819563,-0.0005352954030968249
1782952670084724500,2.473724365234375,0.000517718493938446,0.003142263740301132,0.0008133294177241623
1782952670094651400,2.4836513671875,-0.0007337008719332516,0.0073074474930763245,-0.0004721784498542547
1782952670104579300,2.493579345703125,0.00014940333494450897,0.004251736681908369,0.0017816547770053148
1782952670114507500,2.503507568359375,0.0005416869535110891,0.0065282066352665424,0.0017526262672618032
1782952670124434400,2.513434326171875,-0.0026756778825074434,0.005758020561188459,-0.001615473534911871
1782952670134362400,2.5233623046875,-0.0008487494196742773,0.008028632029891014,0.00086872314568609
1782952670144289300,2.533289306640625,0.0012599414912983775,0.005634716246277094,0.0012351741315796971
1782952670154217500,2.543217529296875,-0.0014583469601348042,0.003210440743714571,-0.0002388855500612408
1782952670164144400,2.553144287109375,0.0002844255941454321,0.003162503708153963,0.0000066579027588886674
1782952670174072300,2.563072265625,-0.002626675646752119,0.003251187037676573,-0.002511360915377736
1782952670183999200,2.572999267578125,0.0012998889433220029,0.004805674310773611,0.0014114753575995564
1782952670193927200,2.58292724609375,-0.001901230658404529,0.005148156546056271,0.002073803450912237
1782952670203854300,2.592854248046875,-0.002103897277265787,0.0049470881931483746,0.0011965582380071282
1782952670213782300,2.6027822265625,0.0022972426377236843,0.004597414750605822,0.0017638115677982569
1782952670223709400,2.61270947265625,-0.0010191916953772306,0.005055212415754795,0.0014788532862439752
1782952670233637400,2.622637451171875,-0.0023734092246741056,0.004927114117890596,0.002032258315011859
1782952670243564300,2.632564208984375,-0.0024658208712935448,0.006120743229985237,-0.00036938043194822967
1782952670253492500,2.642492431640625,-0.000773381965700537,0.005106078926473856,0.001891909632831812
1782952670263419400,2.65241943359375,-0.0002697782183531672,0.0051865060813724995,-0.0010362359462305903
1782952670273347300,2.662347412109375,-0.0018373148050159216,0.005916478578001261,-0.0019262643763795495
1782952670283275300,2.672275146484375,-0.002909769769757986,0.005373193882405758,0.002767024328932166
1782952670293202400,2.682202392578125,-0.0025361282750964165,0.004269047174602747,0.0023853934835642576
1782952670303130400,2.69213037109375,-0.0016349145444110036,0.003868241561576724,0.00033182985498569906
1782952670313057500,2.7020576171875,0.0005169195355847478,0.005916478578001261,0.002162486780434847
1782952670322985500,2.7119853515625,-0.0014799186028540134,0.005588111001998186,-0.0006255765329115093
1782952670332912400,2.721912353515625,-0.001743571599945426,0.005335110705345869,0.0015273229219019413
1782952670342840300,2.73184033203125,-0.0002031991898547858,0.0051718587055802345,0.0012072109384462237
1782952670352767500,2.741767578125,-0.0003861583536490798,0.004629106726497412,0.0017148094484582543
1782952670362695400,2.7516953125,-0.0013206616276875138,0.0073074474930763245,-0.00010759170982055366
1782952670372622300,2.761622314453125,-0.002070607617497444,0.006629406940191984,0.0028399948496371508
1782952670382550500,2.771550537109375,-0.0013137373607605696,0.004187820944935083,0.0007864314829930663
1782952670392477200,2.781477294921875,-0.0010242518037557602,0.004454669542610645,0.00005672533006872982
1782952670402405400,2.7914052734375,-0.0026229473296552896,0.004773183725774288,0.00019041601626668125
1782952670412332300,2.801332275390625,0.0019861855544149876,0.003946804907172918,-0.00006471481174230576
1782952670422260200,2.81126025390625,-0.0015672702575102448,0.003034938359633088,0.0032117723021656275
1782952670432187400,2.8211875,0.0010135991033166647,0.005032309330999851,-0.0012889700010418892
1782952670442115300,2.831115234375,0.0001877528557088226,0.0057351174764335155,-0.0003480751474853605
1782952670452042200,2.841042236328125,-0.00020053602929692715,0.0018285263795405626,-0.00018429075134918094
1782952670461970400,2.850970458984375,0.0004950816510245204,0.006226737052202225,0.0005803027888759971
1782952670471897300,2.8608974609375,-0.0017917747609317303,0.005834719631820917,0.0016607472207397223
1782952670481825300,2.8708251953125,-0.001017593895085156,0.004598746541887522,0.0026647590566426516
1782952670491753200,2.880753173828125,0.001621066126972437,0.003795803524553776,0.003605920122936368
1782952670501680400,2.890680419921875,-0.0015395734226331115,0.004434163216501474,0.0018367822049185634
1782952670511608300,2.9006083984375,-0.0012476909905672073,0.006843791343271732,0.0009986853692680597
1782952670521535500,2.910535400390625,0.0010807107901200652,0.007449394091963768,0.00036938043194822967
1782952670531463400,2.92046337890625,0.0009369000908918679,0.00487305223941803,0.0030208237003535032
1782952670541390300,2.930390380859375,-0.001175519311800599,0.00571860559284687,0.0008916263468563557
1782952670551318500,2.940318603515625,-0.0013869742397218943,0.005461610853672028,0.0007725830073468387
1782952670561245400,2.950245361328125,-0.0015028218040242791,0.00367170013487339,-0.0003158508916385472
1782952670571173400,2.96017333984375,-0.0009544769418425858,0.004798749927431345,0.0008697884040884674
1782952670581100500,2.9701005859375,0.00018642126815393567,0.0032200280111283064,0.0006386260502040386
1782952670591028500,2.980028564453125,0.0002836266648955643,0.005526325665414333,-0.001549693406559527
1782952670600955100,2.989955078125,-0.0006346312584355474,0.0019744676537811756,0.002112152986228466
1782952670610883600,2.999883544921875,-0.0008620652370154858,0.004585164599120617,-0.0013129384024068713
1782952670620810200,3.009810302734375,0.00039867521263659,0.007321029901504517,-0.001157143502496183
1782952670630738200,3.01973828125,-0.00025353292585350573,0.0051806471310555935,0.003210174385458231
1782952670640665300,3.029665283203125,-0.001475391210988164,0.004163053352385759,0.0013246563030406833
1782952670650593300,3.03959326171875,-0.0013171994360163808,0.004168113227933645,-0.001630120910704136
1782952670660520200,3.049520263671875,0.0023185480386018753,0.0025893915444612503,0.0028692898340523243
1782952670670448400,3.059448486328125,-0.0007997472421266139,0.004767591133713722,0.0021196098532527685
1782952670680375300,3.069375244140625,-0.002487392397597432,0.0070978570729494095,0.000029827404432580806
1782952670690303200,3.07930322265625,-0.0024557008873671293,0.004029628820717335,-0.0011448930017650127
1782952670700231400,3.0892314453125,0.0030248183757066727,0.006163886282593012,0.0018809906905516982
1782952670710158300,3.099158447265625,-0.004779575392603874,0.005600893869996071,-0.001457814360037446
1782952670720086300,3.109086181640625,-0.003421096596866846,0.006304501090198755,0.0010069411946460605
1782952670730013400,3.119013427734375,-0.0021462414879351854,0.005496498197317123,0.0018375811632722616
1782952670739941400,3.12894140625,-0.00043010051012970507,0.004145476501435041,0.0016282566357403994
1782952670749868300,3.138868408203125,0.00005512743518920615,0.0049678608775138855,0.000978711643256247
1782952670759796500,3.14879638671875,-0.0013693973887711763,0.004947620443999767,0.0008194546680897474
1782952670769723400,3.158723388671875,0.0012687299167737365,0.0036693033762276173,0.0023963123094290495
1782952670779651300,3.1686513671875,-0.00018455706594977528,0.005564408842474222,-0.0000857537888805382
1782952670789578500,3.17857861328125,0.001782453735359013,0.0032032502349466085,0.0011528824688866735
1782952670799506400,3.18850634765625,-0.0002748382103163749,0.003567836945876479,0.0023089605383574963
1782952670809433300,3.198433349609375,-0.0009568737586960196,0.004974784795194864,-0.0007432882557623088
1782952670819361500,3.208361572265625,-0.002156361471861601,0.003909253980964422,0.0024746092967689037
1782952670829288200,3.2182880859375,-0.0008844357798807323,0.0065194182097911835,-0.0005486111622303724
1782952670839216400,3.22821630859375,-0.0005451490869745612,0.004737763665616512,0.00019228023302275687
1782952670849143300,3.238143310546875,-0.0005009406013414264,0.0028306739404797554,-0.001427987008355558
1782952670859071200,3.2480712890625,0.001321194227784872,0.00373082235455513,0.0010378338629379869
1782952670868998400,3.257998291015625,-0.0028274781070649624,0.004559065215289593,0.0007012102869339287
1782952670878926300,3.26792626953125,-0.00038722361205145717,0.006393717136234045,-0.0013046825770288706
1782952670888853200,3.277853271484375,-0.0041673146188259125,0.00535508431494236,0.0013795174891129136
1782952670898781200,3.28778125,-0.0012144014472141862,0.004400340840220451,0.0038903458043932915
1782952670908709400,3.29770947265625,-0.0026788737159222364,0.004836566746234894,0.00006151902198325843
1782952670918636300,3.30763623046875,0.0004956142511218786,0.0034016557037830353,0.0024567660875618458
1782952670928564200,3.317564208984375,-0.00040080572944134474,0.0054696002043783665,0.0007568703731521964
1782952670938491400,3.327491455078125,-0.0037286917213350534,0.006478139199316502,-0.0010468886466696858
1782952670948419300,3.33741943359375,-0.003733219113200903,0.0019113506423309445,0.0015062838792800903
1782952670958346200,3.34734619140625,-0.0008069378091022372,0.004349741153419018,0.002718821167945862
1782952670968274400,3.3572744140625,-0.0017454357584938407,0.006421413738280535,0.000755805114749819
1782952670978201300,3.367201416015625,-0.0036581179592758417,0.004762530792504549,-0.00005752427750849165
1782952670988129300,3.37712939453125,-0.0009049421059899032,0.005950567312538624,-0.0014290522085502744
1782952670998056400,3.387056396484375,-0.0006378270918503404,0.004597947467118502,-0.0014895059866830707
1782952671007984400,3.396984375,-0.00007243797881528735,0.0016884441720321774,0.0011584750609472394
1782952671017911600,3.40691162109375,-0.0026226809713989496,0.006272010505199432,-0.0022122878581285477
1782952671027839500,3.416839599609375,0.0010269149206578732,0.004142014309763908,0.000040746363083599135
1782952671037766400,3.426766357421875,-0.00236328924074769,0.00507065886631608,0.001163002452813089
1782952671047694300,3.4366943359375,-0.001341966912150383,0.0037321539130061865,0.001591505017131567
1782952671057621500,3.44662158203125,-0.0011582087026908994,0.0035028557758778334,0.0016796556301414967
1782952671067549400,3.456549560546875,-0.0036195022985339165,0.006730606779456139,0.001184041379019618
1782952671077475600,3.4664755859375,-0.0018812569323927164,0.005789712071418762,0.001751827308908105
1782952671087403500,3.476403564453125,-0.0026354643050581217,0.0033627734519541264,0.0011848403373733163
1782952671097330700,3.48633056640625,-0.0014381069922819734,0.006232862360775471,0.00006205165118444711
1782952671107258600,3.496258544921875,0.001957689644768834,0.002097239252179861,0.0025393241085112095
1782952671117186600,3.5061865234375,-0.001546763931401074,0.0049675945192575455,0.001847701147198677
1782952671127113500,3.516113525390625,0.00023329291434492916,0.004239752423018217,0.002058889716863632
1782952671137041700,3.526041748046875,-0.004280498716980219,0.00407543545588851,0.0005552690709009767
1782952671146968600,3.535968505859375,0.0018405106384307146,0.0062818643637001514,0.0020777983590960503
1782952671156896500,3.545896484375,0.0006639260682277381,0.0028876655269414186,0.0031427964568138123
1782952671166823700,3.55582373046875,-0.0015446334145963192,0.004510595928877592,0.0003350256592966616
1782952671176751600,3.565751708984375,-0.00027270769351162016,0.0016341155860573053,0.0013169331941753626
1782952671186678500,3.575678466796875,-0.0011504855938255787,0.0036762275267392397,0.0024977787397801876
1782952671196606700,3.585606689453125,-0.0001073253879440017,0.006231796927750111,0.0024517059791833162
1782952671206533600,3.59553369140625,0.0019771307706832886,0.005841909907758236,-0.0002713761059567332
1782952671216461600,3.605461669921875,-0.004637895151972771,0.0046821036376059055,0.0008005462004803121
1782952671226388700,3.615388671875,0.00016218650853261352,0.004478638060390949,0.0036690370179712772
1782952671236316700,3.625316650390625,-0.0014002900570631027,0.004421646241098642,0.0018261295044794679
1782952671246243800,3.635243896484375,-0.0024794030468910933,0.0037563887890428305,-0.0014969628537073731
1782952671256171800,3.645171875,-0.0009076052810996771,0.006090915761888027,0.001208009896799922
1782952671266098400,3.655098388671875,-7.989483492565341e-7,0.006645918358117342,0.00035180358099751174
1782952671276026600,3.665026611328125,-0.0012575446162372828,0.00446825148537755,-0.001142496126703918
1782952671285953500,3.67495361328125,-0.0012652678415179253,0.006082127336412668,0.0010351707460358739
1782952671295881500,3.684881591796875,-0.0003818972909357399,0.006392651703208685,0.0032778186723589897
1782952671305808600,3.69480859375,0.0013076120521873236,0.0015459649730473757,0.0013068130938336253
1782952671315736600,3.704736572265625,-0.0025150892324745655,0.005348159931600094,0.0008215851848945022
1782952671325664500,3.71466455078125,-0.0036493295338004827,0.0076243639923632145,-0.0004551342281047255
1782952671335591700,3.724591796875,-0.0011374361347407103,0.004801945760846138,0.003194994293153286
1782952671345519600,3.73451953125,0.0002561961009632796,0.00618146313354373,0.0024410535115748644
1782952671355446500,3.744446533203125,-0.0007978830835781991,0.0033252229914069176,0.0019459717441350222
1782952671365374500,3.75437451171875,0.0015219965716823936,0.004199006129056215,-0.0015933692920953035
1782952671375301600,3.764301513671875,0.0002764361270237714,0.0057502975687384605,0.0009827064350247383
1782952671385229600,3.7742294921875,0.00031638352083973587,0.0030945930629968643,0.0009528790251351893
1782952671395156700,3.78415673828125,-0.00017257283616345376,0.004399542231112719,0.0005502090789377689
1782952671405084700,3.794084716796875,-0.0013041499769315124,0.004454136826097965,0.0009361011325381696
1782952671415011600,3.804011474609375,-0.0021758025977760553,0.00637747161090374,-0.00038216362008824944
1782952671424939500,3.813939453125,-0.002284992253407836,0.006402239203453064,0.0010311759542673826
1782952671434866700,3.82386669921875,-0.0006823018775321543,0.0052024852484464645,0.0020754013676196337
1782952671444794600,3.833794677734375,0.000693220819812268,0.002799514913931489,0.0006916229031048715
1782952671454721800,3.8437216796875,-0.0024176177103072405,0.0037947380915284157,0.002172074280679226
1782952671464649700,3.853649658203125,-0.0006532734259963036,0.0036013927310705185,0.001148088718764484
1782952671474576600,3.86357666015625,0.0005464806454256177,0.005599029827862978,0.0022027005907148123
1782952671484504600,3.873504638671875,-0.002071140334010124,0.004448011517524719,0.0025308020412921906
1782952671494431500,3.883431396484375,0.0004290352517273277,0.005041630007326603,0.0025483788922429085
1782952671504359700,3.893359619140625,-0.0018708707066252828,0.005565207917243242,0.0014743260107934475
1782952671514286600,3.90328662109375,-0.0006860303110443056,0.0041100564412772655,0.0018351842882111669
1782952671524214500,3.913214599609375,0.0003685815026983619,0.004262655507773161,0.0014226606581360102
1782952671534141400,3.923141357421875,-0.0017558221006765962,0.004739894066005945,0.0010607370641082525
1782952671544069600,3.933069580078125,0.0017363809747621417,0.0058080879971385,-0.0010817759903147817
1782952671553996500,3.94299658203125,-0.0015725966077297926,0.005048021674156189,-0.002517752582207322
1782952671563924500,3.952924560546875,-0.0020748688839375973,0.00555082643404603,-0.0013222594279795885
1782952671573852400,3.962852294921875,0.0013526194961741567,0.005339637864381075,0.0013020194601267576
1782952671583779600,3.972779541015625,-0.0007699198904447258,0.003929493948817253,-0.003305781865492463
1782952671593707500,3.98270751953125,-0.0002383529208600521,0.005310076754540205,0.0006713828770443797
1782952671603634700,3.992634765625,-0.001954493811354041,0.004890629090368748,-0.00013635384675581008
1782952671613562600,4.002562744140625,-0.0014436995843425393,0.0034581145737320185,0.0012977584265172482
1782952671623489500,4.012489501953125,-0.0029766152147203684,0.004463457968086004,0.0007273092633113265
1782952671633417700,4.022417724609375,-0.0024748756550252438,0.006650445982813835,0.0009584716754034162
1782952671643344600,4.0323447265625,-0.0007835020078346133,0.004269047174602747,0.00028069718973711133
1782952671653272600,4.0422724609375,-0.0005992112564854324,0.003946272190660238,0.0020868529099971056
1782952671663199700,4.05219970703125,-0.0007627293234691024,0.0017363809747621417,0.0011768508702516556
1782952671673127700,4.062127685546875,-0.0004945489927195013,0.00538411270827055,-0.0015582155901938677
1782952671683054600,4.0720546875,-0.000464188982732594,0.0035537220537662506,0.0018381137633696198
1782952671692982800,4.081982666015625,-0.0007515440811403096,0.0018346516881138086,0.00105301383882761
1782952671702909700,4.09190966796875,0.000031691615731688216,0.002061553066596389,0.0008703210623934865
1782952671712837600,4.101837646484375,-0.0008562062866985798,0.0049345712177455425,0.001977929612621665
1782952671722764800,4.111764892578125,-0.000358461489668116,0.0027806065045297146,0.002826679265126586
1782952671732692700,4.121692626953125,0.00011824435205198824,0.004727643448859453,0.0029648973140865564
1782952671742619400,4.131619384765625,-0.0034618431236594915,0.005270129535347223,0.0007853662245906889
1782952671752547600,4.141547607421875,-0.0015899071004241705,0.005665875039994717,0.002581668319180608
1782952671762474500,4.151474609375,0.0006623281515203416,0.004048537462949753,-0.0010729875648394227
1782952671772402400,4.16140234375,-0.0005446164286695421,0.0036277580074965954,-0.002385659608989954
1782952671782330600,4.17133056640625,-0.0005331648280844092,0.0030631679110229015,0.0012365056900307536
1782952671792257500,4.181257568359375,0.0005768407136201859,0.0038570561446249485,-0.00015952334797475487
1782952671802185500,4.191185546875,-0.0004543352697510272,0.003875698195770383,0.0009502158500254154
1782952671812112600,4.201112548828125,0.0007004113867878914,0.0028613002505153418,0.000618918624240905
1782952671822040600,4.21104052734375,-0.0014394385507330298,0.0054602790623903275,-0.0009150621481239796
1782952671831967500,4.220967529296875,0.001258343574590981,0.002807770622894168,0.001886050682514906
1782952671841895700,4.230895751953125,0.001972869737073779,0.004594485275447369,0.0021635519806295633
1782952671851822600,4.240822509765625,-0.004751079250127077,0.0038836877793073654,0.0005941512063145638
1782952671861750500,4.25075048828125,-0.0021321268286556005,0.004338023252785206,0.001279382617212832
1782952671871677700,4.260677734375,-0.00019281286222394556,0.004658135119825602,-0.0009390306076966226
1782952671881605600,4.270605712890625,-0.0009475527331233025,0.00538437906652689,0.00015872440417297184
1782952671891532500,4.280532470703125,0.0004540689697023481,0.005708219483494759,0.0008250473183579743
1782952671901460700,4.290460693359375,-0.0006226470577530563,0.004076766781508923,0.0009488842915743589
1782952671911387600,4.3003876953125,-0.0008623315370641649,0.0054389736615121365,-0.00003408846168895252
1782952671921315600,4.310315673828125,-0.0012277172645553946,0.005196892656385899,0.0016309198690578341
1782952671931242800,4.32024267578125,0.00047164582065306604,0.002823749789968133,-0.0009811085183173418
1782952671941170700,4.330170654296875,0.0011704593198373914,0.003680754918605089,0.0008815063047222793
1782952671951097600,4.34009765625,0.00022157499915920198,0.00344479875639081,0.0009187905816361308
1782952671961025800,4.35002587890625,-0.0036184368655085564,0.004448810592293739,0.0020330571569502354
1782952671970952400,4.359952392578125,-0.00008415588672505692,0.004092479590326548,0.001395230065099895
1782952671980880400,4.36988037109375,-0.00279019377194345,0.005534847732633352,0.000031425301131093875
1782952671990807600,4.3798076171875,0.0001411475386703387,0.0028040423057973385,0.0018738001817837358
1782952672000735500,4.389735595703125,0.00014088122406974435,0.005373460240662098,0.0005986785981804132
1782952672010662700,4.39966259765625,-0.001514806062914431,0.007202519103884697,0.0026522420812398195
1782952672020590600,4.409590576171875,-0.0014080132823437452,0.005799033213406801,0.002569684060290456
1782952672030517500,4.419517578125,0.0013134710025042295,0.0037497307639569044,0.0032003207597881556
1782952672040445400,4.429445556640625,-0.0008191883680410683,0.003734284546226263,0.0008056062506511807
1782952672050373600,4.43937353515625,-0.0006332996999844909,0.004043743945658207,0.0003270361921750009
1782952672060300500,4.449300537109375,0.000925182132050395,0.005054946057498455,-0.0005432848702184856
1782952672070228500,4.459228515625,-0.002460494404658675,0.005435245577245951,-0.00031664984999224544
1782952672080156200,4.46915625,-0.001576857641339302,0.005224322900176048,0.0010295780375599861
1782952672090084000,4.479083984375,0.0003038666909560561,0.0026586337480694056,-0.00015419702685903758
1782952672100011000,4.489010986328125,-0.0012988236267119646,0.0017960357945412397,0.0016708672046661377
1782952672109939200,4.498939208984375,-0.0008823052630759776,0.002028529765084386,0.00166607357095927
1782952672119866000,4.5088662109375,0.00037816885742358863,0.003483681008219719,0.000907338981050998
1782952672129794000,4.5187939453125,-0.0017233315156772733,0.005603024736046791,0.0003102582704741508
1782952672139721200,4.52872119140625,-0.0010641991393640637,0.005820871330797672,0.00207673292607069
1782952672149649200,4.538649169921875,-0.0025899240281432867,0.0038602519780397415,0.0031254857312887907
1782952672159576000,4.548576171875,0.0013025520602241158,0.003421629313379526,0.0008159925346262753
1782952672169504300,4.558504150390625,-0.0005161206354387105,0.0029108349699527025,0.002127865795046091
1782952672179431200,4.56843115234375,-0.0018929748330265284,0.006563626695424318,-0.000014913702216290403
1782952672189359000,4.578359130859375,0.0009542105835862458,0.0049673281610012054,-0.0005089300684630871
1782952672199286300,4.588286376953125,-0.0022365227341651917,0.0057279267348349094,0.0007547398563474417
1782952672209214200,4.598214111328125,-0.0015747271245345473,0.004835235420614481,-0.0005214469274505973
1782952672219141000,4.60814111328125,-0.000740625080652535,0.005013933405280113,0.00301736150868237
1782952672229069000,4.618069091796875,-0.00045593318645842373,0.005361475981771946,0.0031039142049849033
1782952672238996000,4.627995849609375,-0.0001603222917765379,0.003537476761266589,-0.0005834985640831292
1782952672248924000,4.637923828125,0.0011669971281662583,0.0046815709210932255,0.0015273229219019413
1782952672258851000,4.64785107421875,-0.0027201527263969183,0.0036709012929350138,0.002112419344484806
1782952672268779000,4.657779052734375,0.00019893812714144588,0.003952397499233484,-0.0005882922559976578
1782952672278706200,4.6677060546875,-0.00006498113361885771,0.006566289812326431,-0.0005909554311074317
1782952672288634000,4.677634033203125,-0.0017747305100783706,0.006651777308434248,0.0015395734226331115
1782952672298562000,4.68756201171875,-0.0017219999572262168,0.00771730812266469,0.0005313006113283336
1782952672308489000,4.697489013671875,-0.0005368932615965605,0.005632585845887661,0.0005739112384617329
1782952672318417200,4.707417236328125,0.0011954930378124118,0.005332447588443756,0.0004719121498055756
1782952672328344000,4.717343994140625,-0.0014106763992458582,0.005329518113285303,0.001359543763101101
1782952672338272000,4.72727197265625,-0.0013739247806370258,0.004606203176081181,0.0002585929469205439
1782952672348199200,4.73719921875,0.00039228363311849535,0.004296211525797844,-0.0006649913266301155
1782952672358127000,4.747127197265625,0.0017885789275169373,0.006463225465267897,0.001142229768447578
1782952672368054300,4.75705419921875,-0.0002772350562736392,0.004732437431812286,0.0029406624380499125
1782952672377982200,4.766982177734375,-0.0030535804107785225,0.0046719834208488464,0.002133724745362997
1782952672387909000,4.7769091796875,-0.0025121597573161125,0.005109807010740042,0.0004828310920856893
1782952672397837000,4.786837158203125,-0.00039787625428289175,0.006648048758506775,-0.00042823629337362945
1782952672407764200,4.79676416015625,-0.00010279801790602505,0.003906058380380273,-0.0011646003695204854
1782952672417692200,4.806692138671875,-0.0003632551815826446,0.004216849338263273,0.0011046791914850473
1782952672427619300,4.816619384765625,-0.0017070862231776118,0.004578240215778351,0.0009046758059412241
1782952672437547300,4.82654736328125,-0.0021262678783386946,0.0037824877072125673,0.0022711437195539474
1782952672447474000,4.836473876953125,-0.0012005530297756195,0.003029079409316182,0.0020066918805241585
1782952672457402000,4.846402099609375,-0.00324825756251812,0.006352704484015703,0.0017544905422255397
1782952672467329000,4.8563291015625,-0.001079645473510027,0.0051476238295435905,0.0018064221367239952
1782952672477257000,4.866257080078125,0.00022077605535741895,0.00384453940205276,-0.0012769857421517372
1782952672487184100,4.87618408203125,0.0024895230308175087,0.004834436345845461,0.0009089368977583945
1782952672497112000,4.886112060546875,-0.00006178533658385277,0.00501020485535264,-0.002040247665718198
1782952672507039000,4.8960390625,0.0012950951931998134,0.0032477248460054398,-0.0007731156656518579
1782952672516967200,4.90596728515625,-0.0018253305461257696,0.005020058713853359,0.0020695424173027277
1782952672526894000,4.91589404296875,-0.00030546457855962217,0.005553755909204483,0.0019747340120375156
1782952672536822000,4.925822021484375,0.0011885687708854675,0.0030503845773637295,0.002208026824519038
1782952672546749200,4.935749267578125,-0.0013171994360163808,0.0017576862592250109,0.0008311725687235594
1782952672556677000,4.945677001953125,-0.0009134642314165831,0.002697515767067671,0.002551840851083398
1782952672566605000,4.95560498046875,-0.0017680726014077663,0.0049036783166229725,0.000333161442540586
1782952672576532200,4.9655322265625,-0.0015510249650105834,0.005953230429440737,0.0011286477092653513
1782952672586460200,4.975460205078125,-0.0031166973058134317,0.005371329374611378,0.001044225413352251
1782952672596387000,4.985386962890625,-0.00017257283616345376,0.003537210635840893,-0.001871403306722641
1782952672606315000,4.99531494140625,-0.0005233111442066729,0.005819006823003292,0.0011832424206659198
1782952672616242200,5.0052421875,0.0024434502702206373,0.0065018413588404655,0.0028988507110625505
1782952672626170000,5.015170166015625,-0.002305498579517007,0.0067692226730287075,-0.00041199102997779846
1782952672636097300,5.02509716796875,-0.0018929748330265284,0.005785717628896236,0.0024293356109410524
1782952672646025200,5.035025146484375,-0.0009195895399898291,0.006957508157938719,-0.00014034859486855567
1782952672655952100,5.0449521484375,-0.002296976512297988,0.0065588331781327724,0.00019467707898002118
1782952672665880300,5.05488037109375,-0.001919340225867927,0.004424842074513435,0.000857005245052278
1782952672675807000,5.064806884765625,0.0002378202771069482,0.006087453570216894,0.0023491743486374617
1782952672685735200,5.074735107421875,0.0009808422764763236,0.003049319377169013,0.0009243832319043577
1782952672695662000,5.084662109375,-0.001612544059753418,0.0076246303506195545,0.0007752461824566126
1782952672705590000,5.094590087890625,-0.002041046740487218,0.003226952161639929,0.00015286543930415064
1782952672715517000,5.104516845703125,-0.0018636800814419985,0.006482400465756655,-0.0004391552647575736
1782952672725445000,5.114445068359375,-0.0016405072528868914,0.0049462891183793545,0.0011094729416072369
1782952672735372000,5.1243720703125,-0.000005858954409632133,0.005254949443042278,0.0026530411560088396
1782952672745300000,5.134300048828125,-0.001270594191737473,0.004805674310773611,0.0015387744642794132
1782952672755227100,5.14422705078125,0.00007217166421469301,0.006137254647910595,0.0007579356315545738
1782952672765155000,5.154155029296875,-0.0025627599097788334,0.004189684987068176,0.002663161139935255
1782952672775082000,5.16408203125,-0.0036906085442751646,0.00660410663112998,-0.0015156050212681293
1782952672785010200,5.17401025390625,-0.0009981527691707015,0.0027715517207980156,-0.00036751621519215405
1782952672794937000,5.18393701171875,-0.002438922878354788,0.0058669438585639,0.0009081379394046962
1782952672804865000,5.193864990234375,-0.002365685999393463,0.0049004824832081795,0.000761664065066725
1782952672814792200,5.203792236328125,0.0013635384384542704,0.003418966196477413,0.0034730283077806234
1782952672824720100,5.21372021484375,-0.0006029396899975836,0.006731139495968819,0.0008620652370154858
1782952672834647300,5.223647216796875,0.00028868665685877204,0.006622216198593378,0.001472461735829711
1782952672844575200,5.2335751953125,-0.0010836402652785182,0.003385410411283374,0.002329200739040971
1782952672854503200,5.243503173828125,-0.000303334032651037,0.006346579175442457,0.003225354477763176
1782952672864430000,5.25343017578125,-0.0009078715811483562,0.0065713501535356045,0.0035382758360356092
1782952672874358300,5.263358154296875,-0.0023851271253079176,0.0054943677969276905,0.003448260948061943
1782952672884285200,5.27328515625,-0.001076982356607914,0.007216101046651602,-0.00007616640505148098
1782952672894213000,5.283213134765625,-0.0015488944482058287,0.004834436345845461,-0.0008663262706249952
1782952672904140000,5.29314013671875,-0.0014144048327580094,0.005282646510750055,-0.0009584716754034162
1782952672914068200,5.303068115234375,-0.00047590688336640596,0.004858671221882105,-0.00020932445477228612
1782952672923995100,5.3129951171875,-0.0026756778825074434,0.006299174856394529,0.00039654469583183527
1782952672933920300,5.322920166015625,-0.0011709919199347496,0.005351355765014887,0.002487126039341092
1782952672943847200,5.33284716796875,0.002182993106544018,0.005882123950868845,0.0037446708884090185
1782952672953775000,5.342775146484375,0.0007893609581515193,0.005629656370729208,0.0005307680112309754
1782952672963702300,5.352702392578125,-0.001505751279182732,0.00440966198220849,0.0009712548344396055
1782952672973630200,5.362630126953125,-0.00010892329009948298,0.003906857222318649,0.0016247945604845881
1782952672983557000,5.37255712890625,0.0001323590986430645,0.0032831449061632156,0.0015486282063648105
1782952672993485300,5.3824853515625,-0.0002689792599994689,0.004827511962503195,0.0018373148050159216
1782952673003412000,5.392411865234375,-0.00014460964302998036,0.0054972972720861435,0.0010572749888524413
1782952673013340000,5.40233984375,-0.0013068130938336253,0.003945206757634878,-0.002237321576103568
1782952673023267000,5.41226708984375,0.0011163970921188593,0.00347462622448802,0.0011827098205685616
1782952673033195000,5.422195068359375,-0.0007161240209825337,0.00433029979467392,-0.00042104575550183654
1782952673043122200,5.4321220703125,-0.0012519520241767168,0.005532184615731239,-0.0010359697043895721
1782952673053050000,5.442050048828125,-0.0007062703371047974,0.0027081684675067663,0.001184041379019618
1782952673062978000,5.45197802734375,-0.0009832390351220965,0.0017148094484582543,0.0025947177782654762
1782952673072905000,5.461905029296875,0.0010080065112560987,0.004114849958568811,-0.0018469021888449788
1782952673082833200,5.471833251953125,-0.0030772825703024864,0.0054424358531832695,0.001207477180287242
1782952673092760300,5.48176025390625,-0.0008575378451496363,0.004896488040685654,0.0009733853512443602
1782952673102688300,5.491688232421875,0.00022397184511646628,0.0030131004750728607,0.0006761765689589083
1782952673112615400,5.501615478515625,-0.0033097765408456326,0.0026578346733003855,0.0000399474156438373
1782952673122543400,5.51154345703125,-0.001253017340786755,0.0067995828576385975,-0.0008697884040884674
1782952673132470300,5.52147021484375,0.0008034756756387651,0.0051689292304217815,0.0005960154230706394
1782952673142398500,5.5313984375,0.00012250541476532817,0.002424541860818863,0.002416286151856184
1782952673152325400,5.541325439453125,-0.0006119944155216217,0.005374791566282511,0.0009374326909892261
1782952673162253300,5.55125341796875,-0.0022652847692370415,0.004817392211407423,0.0014761901693418622
1782952673172180500,5.561180419921875,0.00007696535612922162,0.0027923244051635265,-0.0006916229031048715
1782952673182108400,5.5711083984375,0.00015100123709999025,0.005061071366071701,-0.0013036173768341541
1782952673192035300,5.581035400390625,-0.0013246563030406833,0.004258661065250635,0.0007563377148471773
1782952673201963500,5.590963623046875,-0.003469299990683794,0.003127083647996187,0.00042104575550183654
1782952673211890400,5.600890380859375,-0.0006095975404605269,0.005243497900664806,-0.0012532835826277733
1782952673221818400,5.610818359375,0.0004665858286898583,0.004297276493161917,0.00096113485051319
1782952673231745500,5.62074560546875,-0.0007840346079319715,0.005567871034145355,0.0013582120882347226
1782952673241673500,5.630673583984375,-0.0036605149507522583,0.0035233621019870043,0.0018455706303939223
1782952673251600400,5.640600341796875,-0.0015124091878533363,0.0065069012343883514,-0.000031957933970261365
1782952673261528300,5.6505283203125,-0.0018975022248923779,0.004620584659278393,0.003709783311933279
1782952673271455200,5.660455322265625,-0.002977414056658745,0.0057218014262616634,0.0016295883106067777
1782952673281383200,5.670383056640625,-0.0012245214311406016,0.005226986017078161,-0.000049801110435510054
1782952673291310300,5.680310302734375,-0.0020881847012788057,0.007794273551553488,-0.00021358551748562604
1782952673301238300,5.69023828125,-0.002514024032279849,0.0057383133098483086,-0.0025531724095344543
1782952673311165400,5.70016552734375,-0.001332912128418684,0.00367116741836071,0.0011544802691787481
1782952673321093400,5.71009326171875,-0.000645550258923322,0.0044256411492824554,0.002526008291170001
1782952673331020300,5.720020263671875,-0.0005989448982290924,0.004189684987068176,0.0006058691651560366
1782952673340948200,5.7299482421875,-0.0013659353135153651,0.006029130425304174,0.0013736584223806858
1782952673350875400,5.73987548828125,0.002588326344266534,0.0022596921771764755,0.0035715652629733086
1782952673360803300,5.74980322265625,-0.0018112158868461847,0.00634817685931921,0.00015686018741689622
1782952673370731300,5.759731201171875,-0.000313986703986302,0.005573197267949581,-0.0010468886466696858
1782952673380658400,5.769658447265625,-0.00001997370782191865,0.0051652006804943085,0.0025188177824020386
1782952673390586400,5.77958642578125,-0.00014327807002700865,0.003796602366492152,0.002423742786049843
1782952673400513500,5.789513427734375,-0.0010096043115481734,0.003079146845266223,0.0021110877860337496
1782952673410441500,5.79944140625,0.0008524778531864285,0.0018607506062835455,0.0006111954571679235
1782952673420368400,5.809368408203125,-0.0014149374328553677,0.006461361423134804,-0.0007089334540069103
1782952673430296300,5.81929638671875,-0.0029814087320119143,0.004453071393072605,0.0007962851668708026
1782952673440223500,5.829223388671875,-0.0009486179915256798,0.002657035831362009,0.00115421402733773
1782952673450151400,5.8391513671875,0.0003880225704051554,0.005720470100641251,0.0005001416429877281
1782952673460078600,5.84907861328125,-0.00006338323146337643,0.004198473412543535,0.0026059031952172518
1782952673470006500,5.859006591796875,-0.0019244002178311348,0.005216333549469709,0.0008069378091022372
1782952673479933200,5.86893310546875,-0.0001752359967213124,0.00259418529458344,-0.0005994775565341115
1782952673489861400,5.878861328125,-0.0017265273490920663,0.0054424358531832695,-0.0004801679460797459
1782952673499788300,5.888788330078125,-0.0010381002211943269,0.003940146882086992,0.0026519757229834795
1782952673509716200,5.89871630859375,-0.0010042780777439475,0.00381471193395555,0.0029491845052689314
1782952673519643400,5.908643310546875,-0.0024828650057315826,0.00490314606577158,-0.0012215919559821486
1782952673529571300,5.9185712890625,0.0004420847399160266,0.004524177871644497,-0.00014567491598427296
1782952673539498200,5.928498291015625,0.000642620783764869,0.0034669029992073774,-0.0005382248782552779
1782952673549426400,5.938426513671875,-0.0009219863568432629,0.004012584686279297,0.0021486382465809584
1782952673559353300,5.948353271484375,-0.0002463423879817128,0.006432333029806614,0.0017052220646291971
1782952673569281300,5.95828125,-0.00037151097785681486,0.004437359049916267,0.00030306773260235786
1782952673579208400,5.96820849609375,0.0012090750969946384,0.0067724185064435005,0.0006807039608247578
1782952673589136400,5.978136474609375,-0.0007432882557623088,0.005988384131342173,-0.001056209672242403
1782952673599063300,5.988063232421875,-0.0021875204984098673,0.004277569241821766,0.0009041432058438659
1782952673608991500,5.997991455078125,0.000005592638444795739,0.004735632799565792,0.0010034791193902493
1782952673618918400,6.00791845703125,-0.0009920274605974555,0.005333512555807829,0.0024778051301836967
1782952673628846300,6.017846435546875,-0.0019531622529029846,0.003929493948817253,0.001845038030296564
1782952673638773500,6.0277734375,-0.00021891183860134333,0.004598746541887522,-0.0015576828736811876
1782952673648701400,6.037701416015625,-0.00025592977181077003,0.0065258098766207695,0.0005350290448404849
1782952673658628400,6.04762841796875,0.001163268811069429,0.005648031830787659,0.003069825703278184
1782952673668556500,6.057556640625,-0.0020754013676196337,0.007664577569812536,-0.0005526058957912028
1782952673678484500,6.067484375,-0.00021278657368384302,0.004742557182908058,0.0024985778145492077
1782952673688411400,6.077411376953125,0.000150202278746292,0.003931092098355293,-0.0016021577175706625
1782952673698339600,6.087339599609375,0.0013145363191142678,0.0057676080614328384,0.0005358280031941831
1782952673708266200,6.097266357421875,-0.0009960222523659468,0.007174023427069187,-0.0006905576447024941
1782952673718194200,6.107194091796875,0.001401089015416801,0.004821919370442629,-0.0004990763845853508
1782952673728121300,6.117121337890625,-0.0023758059833198786,0.004218447022140026,-0.0019265307346358895
1782952673738049300,6.12704931640625,-0.001856755930930376,-0.00038163099088706076,0.0010524812387302518
1782952673747976200,6.13697607421875,0.0025963156949728727,0.006583600305020809,0.002511360915377736
1782952673757904400,6.146904296875,0.0006647250265814364,0.004548945464193821,0.0016311861108988523
1782952673767831300,6.156831298828125,-0.0016998957144096494,0.002689792774617672,-0.00006444849714171141
1782952673777759200,6.16675927734375,0.00042583944741636515,0.004221376497298479,-0.00022530343267135322
1782952673787686400,6.176686279296875,0.0004474110610317439,0.0020367854740470648,0.0035358788445591927
1782952673797614300,6.1866142578125,0.00030652983696199954,0.0034759577829390764,0.00034115093876607716
1782952673807541200,6.196541259765625,-0.000696150294970721,0.0041095237247645855,-0.0008982842555269599
1782952673817469400,6.206469482421875,-0.002558498876169324,0.005167331546545029,0.0037550569977611303
1782952673827396400,6.216396240234375,0.0026754115242511034,0.005161738954484463,0.0015459649730473757
1782952673837324300,6.22632421875,0.00043782367720268667,0.004028830211609602,-0.00011478224041638896
1782952673847251500,6.23625146484375,-0.003168629016727209,0.005008340813219547,0.0012924320762977004
1782952673857179400,6.246179443359375,0.000030892668291926384,0.007141532842069864,0.00040799626731313765
1782952673867106600,6.2561064453125,0.0002335592289455235,0.004683434963226318,0.00046072687837295234
1782952673877034500,6.266034423828125,-0.000355532014509663,0.003931358456611633,0.0012948289513587952
1782952673886961400,6.27596142578125,-0.0005416869535110891,0.0043295007199049,-0.0009052084642462432
1782952673896889300,6.285889404296875,-0.0023526365403085947,0.006898385938256979,0.001175519311800599
1782952673906816300,6.295816162109375,0.00006684534309897572,0.0039007319137454033,-0.0005009406013414264
1782952673916744400,6.305744384765625,-0.0009888317435979843,0.005105812568217516,-0.0004724447790067643
1782952673926671400,6.31567138671875,0.0010452907299622893,0.005918608978390694,0.0001555285998620093
1782952673936599300,6.325599365234375,-0.00046312372433021665,0.0054397727362811565,0.002031991956755519
1782952673946526200,6.335526123046875,0.00033582461765035987,0.0051865060813724995,0.0013438310706987977
1782952673956454400,6.345454345703125,0.0012548814993351698,0.004653075244277716,0.0006756439688615501
1782952673966381300,6.35538134765625,-0.0020690099336206913,0.004269846249371767,-0.0015036207623779774
1782952673976309200,6.365309326171875,-0.0008862999966368079,0.004051733296364546,0.0005438174703158438
1782952673986236400,6.375236328125,0.002638926263898611,0.00509862182661891,0.0028365328907966614
1782952673996164400,6.385164306640625,-0.00018189390539191663,0.005764412228018045,-0.0010759170399978757
1782952674006091300,6.39509130859375,-0.0009488842915743589,0.00771784083917737,0.0017800568602979183
1782952674016019500,6.40501953125,-0.0007470166892744601,0.0052179316990077496,-0.00018429075134918094
1782952674025947400,6.414947509765625,0.0014751249691471457,0.006639526691287756,0.0006636597099713981
1782952674035874300,6.424874267578125,-0.000532365869730711,0.005805158521980047,0.000007723167072981596
1782952674045802200,6.43480224609375,-0.0021398498211055994,0.004071706905961037,0.002514823107048869
1782952674055729400,6.4447294921875,-0.0009182579233311117,0.005805691238492727,-0.0002665824140422046
1782952674065657300,6.4546572265625,-0.00005672533006872982,0.005540173966437578,-0.000984836951829493
1782952674075584500,6.46458447265625,-0.0035635759122669697,0.006409962195903063,-0.000051399008953012526
1782952674085512700,6.4745126953125,-0.0012506204657256603,0.004305532667785883,0.0012096078135073185
1782952674095439600,6.484439697265625,-0.0044996771030128,0.004275438841432333,-0.0009571401169523597
1782952674105367600,6.494367431640625,-0.002310824813321233,0.0019864519126713276,-0.0006237123161554337
1782952674115294700,6.504294677734375,0.00044821001938544214,0.0016831178218126297,0.0013587448047474027
1782952674125222700,6.51422265625,-0.0013070794520899653,0.0005925533478148282,0.00013076121103949845
1782952674135149800,6.52414990234375,-0.002189384773373604,0.007534881588071585,0.00023196132679004222
1782952674145077800,6.534077880859375,0.00012863067968282849,0.006596117280423641,0.001216265605762601
1782952674155004700,6.544004638671875,-0.0013784521725028753,0.0060344566591084,0.002130528911948204
1782952674164932600,6.5539326171875,-0.0011880361707881093,0.009818541817367077,-0.00006950850365683436
1782952674174859800,6.56385986328125,-0.0007046724203974009,0.005595034919679165,0.0035201662685722113
1782952674184787700,6.57378759765625,-0.00020719393796753138,0.0074030552059412,0.0037473340053111315
1782952674194714600,6.583714599609375,-0.00005193164179218002,0.004519650712609291,0.0035366779193282127
1782952674204642800,6.593642822265625,0.0005187837523408234,0.004488225560635328,0.000850879936479032
1782952674214569500,6.603569580078125,-0.0007206514128483832,0.006463758181780577,0.0017478326335549355
1782952674224497700,6.61349755859375,-0.00058323226403445,0.005078381858766079,-0.00012623383372556418
1782952674234424600,6.623424560546875,-0.00033103092573583126,0.005407548509538174,0.0010154632618650794
1782952674244352500,6.6333525390625,-0.0014319816837087274,0.006417152937501669,0.00015339808305725455
1782952674254279700,6.64327978515625,0.000029294771593413316,0.003733485471457243,0.002177666872739792
1782952674264207600,6.65320751953125,-0.002386725042015314,0.006112753413617611,0.00112465291749686
1782952674274134500,6.663134521484375,-0.0003981425834354013,0.004479969386011362,0.0021819279063493013
1782952674284062700,6.673062744140625,-0.0009145294898189604,0.007907191291451454,0.0019534286111593246
1782952674293989600,6.68298974609375,-0.0028099012561142445,0.006612629164010286,0.0017528926255181432
1782952674303917600,6.69291748046875,-0.0019097528420388699,0.005379319190979004,0.0012090750969946384
1782952674313844700,6.7028447265625,-0.00009241169027518481,0.007232346571981907,0.002868490759283304
1782952674323772700,6.712772705078125,-0.0016972325975075364,0.006460562348365784,0.0008476841612718999
1782952674333699600,6.722699462890625,-0.002370745874941349,0.005981726106256247,0.0012266519479453564
1782952674343627800,6.732627685546875,0.0014002900570631027,0.0036035231314599514,0.002502838848158717
1782952674353554700,6.7425546875,-0.0022679478861391544,0.0030250847339630127,0.0015246596885845065
1782952674363482600,6.752482666015625,-0.0008066715090535581,0.005003280472010374,0.0012570120161399245
1782952674373409800,6.762409912109375,-0.0012207929976284504,0.00686030276119709,-0.0017965685110539198
1782952674383337700,6.772337646484375,-0.0012996225850656629,0.004427771549671888,0.0014359764754772186
1782952674393265700,6.782265625,-0.0026964505668729544,0.004776379559189081,0.0007784419576637447
1782952674403192800,6.79219287109375,-0.0011867046123370528,0.0041465419344604015,0.0017872473690658808
1782952674413120800,6.802120849609375,-0.0008769789128564298,0.00481419637799263,0.00036139096482656896
1782952674423047400,6.81204736328125,0.0014514228096231818,0.0030035129748284817,-0.0010346380295231938
1782952674432976000,6.821975830078125,-0.0007755124825052917,0.0031529164407402277,0.0018290589796379209
1782952674442902500,6.831902587890625,-0.0006237123161554337,0.007017429452389479,-0.0006655239267274737
1782952674452830500,6.84183056640625,0.00039707732503302395,0.007787881884723902,-0.0002764361270237714
1782952674462757600,6.851757568359375,-0.00010226538870483637,0.0031065773218870163,0.0005701828049495816
1782952674472685600,6.861685546875,-0.002472212305292487,0.005343366414308548,0.00008175904804375023
1782952674482612700,6.87161279296875,-0.0009456885163672268,0.0019036275334656239,-0.00011105381418019533
1782952674492540700,6.881540771484375,-0.0014301175251603127,0.005046423990279436,0.0015808524331077933
1782952674502467600,6.891467529296875,-0.000958205375354737,0.004035754129290581,-0.0003456783015280962
1782952674512395500,6.9013955078125,-0.0008860336965881288,0.0057529606856405735,-0.002091913018375635
1782952674522322700,6.91132275390625,-0.0003968109958805144,0.006738063879311085,-0.003052515210583806
1782952674532250600,6.921250732421875,0.0005440838285721838,0.004811533261090517,0.0008572715451009572
1782952674542177800,6.931177734375,-0.00013635384675581008,0.005350290797650814,0.00007936220208648592
1782952674552105700,6.941105712890625,-0.0005733785801567137,0.0031214910559356213,-0.0007243797881528735
1782952674562032600,6.95103271484375,0.000627973407972604,0.0034378746058791876,0.001672198879532516
1782952674571960600,6.960960693359375,-0.0015712650492787361,0.0030466562602669,0.0027771443128585815
1782952674581887700,6.9708876953125,-0.0022362563759088516,0.007123156916350126,0.0008519452530890703
1782952674591815700,6.980815673828125,0.0015299860388040543,0.005106877535581589,-0.0019323896849527955
1782952674601742800,6.990742919921875,-0.0010791128734126687,0.0049766493029892445,0.0012783173006027937
1782952674611670800,7.0006708984375,-0.0031790153589099646,0.005637912079691887,-0.0013598100049421191
1782952674621597700,7.01059765625,-0.003073287894949317,0.006388657260686159,-0.00026365293888375163
1782952674631525600,7.020525634765625,-0.0006508765509352088,0.0038402783684432507,0.0006330333999358118
1782952674641452500,7.03045263671875,-0.0005270395777188241,0.004283428192138672,0.00279046013019979
1782952674651380500,7.04038037109375,-0.00207726564258337,0.0051628039218485355,0.0006175870657898486
1782952674661307600,7.0503076171875,0.00043542683124542236,0.005432049743831158,0.0008812400046736002
1782952674671235600,7.060235595703125,0.0004394215648062527,0.0046573360450565815,0.0014018879737704992
1782952674681162500,7.07016259765625,-0.0019648801535367966,0.0037473340053111315,0.0017526262672618032
1782952674691090700,7.080090576171875,0.0019646140281111,0.005289570428431034,0.0006330333999358118
1782952674701017600,7.090017578125,-0.0009379653492942452,0.0044115264900028706,-0.00009480853623244911
1782952674710945500,7.099945556640625,-0.0007014766451902688,0.006746585946530104,0.0009645969257690012
1782952674720872700,7.109872802734375,-0.0014024205738678575,0.004494883120059967,0.0031377363484352827
1782952674730800600,7.119800537109375,-0.0037585191894322634,0.00675244489684701,0.000035686356568476185
1782952674740727600,7.1297275390625,0.00012783173588104546,0.006277869455516338,-0.0007254450465552509
1782952674750655700,7.13965576171875,0.001258609932847321,0.006731405854225159,-0.0005358280031941831
1782952674760582700,7.149582763671875,0.00032437301706522703,0.005243497900664806,0.0024146882351487875
1782952674770510600,7.159510498046875,0.00199364242143929,0.0040794298984110355,0.004237355664372444
1782952674780437800,7.169437744140625,0.00025486451340839267,0.004008590243756771,0.0010641991393640637
1782952674790365700,7.17936572265625,-0.0007462177309207618,0.005721002817153931,0.0012471582740545273
1782952674800292600,7.189292724609375,0.000916393706575036,0.005733252968639135,-0.0007470166892744601
1782952674810220800,7.199220703125,-0.0009382316493429244,0.005805158521980047,0.0003022687742486596
1782952674820148700,7.209148681640625,-0.00007456851017195731,0.0059721386060118675,-0.0005331648280844092
1782952674830075600,7.21907568359375,-0.000055926382628967986,0.005195028148591518,-0.00006338323146337643
1782952674840003800,7.22900390625,-0.001603222917765379,0.004965730011463165,-0.00005246427463134751
1782952674849930800,7.2389306640625,0.0013073458103463054,0.005106877535581589,-0.001892175991088152
1782952674859858700,7.248858642578125,-0.001984587637707591,0.005599296186119318,0.0022945795208215714
1782952674869785600,7.25878564453125,-0.000055393749789800495,0.0059692091308534145,0.0019081549253314734
1782952674879713800,7.2687138671875,0.0007757788407616317,0.003948136232793331,-0.0001257012045243755
1782952674889640400,7.278640380859375,-0.0010154632618650794,0.006733536254614592,0.0021433120127767324
1782952674899568600,7.288568603515625,0.0004830974212381989,0.00421232171356678,-0.00013528858835343271
1782952674909495600,7.29849560546875,-0.002689260058104992,0.0049707903526723385,0.0012639362830668688
1782952674919423500,7.308423583984375,-0.001913214917294681,0.005550294183194637,0.0010929612908512354
1782952674929350700,7.3183505859375,0.0011720572365447879,0.0029643645975738764,0.00019121496006846428
1782952674939278600,7.328278564453125,0.0012359730899333954,0.006103964988142252,-0.00006817692337790504
1782952674949205800,7.338205810546875,-0.0006844323943369091,0.0037499971222132444,0.002968891989439726
1782952674959133700,7.3481337890625,-0.0023126890882849693,0.006502906791865826,-0.002591255819424987
1782952674969060600,7.358060546875,-0.0018975022248923779,0.004384894855320454,0.0008154599345289171
1782952674978988500,7.367988525390625,-0.0006870955694466829,0.004474376793950796,0.000841825210954994
1782952674988915700,7.377915771484375,-0.0023526365403085947,0.004547347314655781,-0.0009981527691707015
1782952674998843600,7.38784375,-0.001743571599945426,0.0049159289337694645,-0.00031185615807771683
1782952675008770800,7.397770751953125,-0.0008455536444671452,0.00583631731569767,0.0013430321123450994
1782952675018698800,7.40769873046875,-0.0022333269007503986,0.002975017298012972,0.00018961707246489823
1782952675028625700,7.417625732421875,0.0034735610242933035,0.003817108692601323,0.0018722022650763392
1782952675038553600,7.4275537109375,-0.0037438718136399984,0.005826197564601898,-0.0015630092239007354
1782952675048480800,7.437480712890625,-0.0025960493367165327,0.005651227664202452,0.00032091091270558536
1782952675058408700,7.44740869140625,-0.00007297061529243365,0.0007637945818714797,-0.0013052152935415506
1782952675068335900,7.4573359375,0.0002407497668173164,0.00273133791051805,0.00006711165769957006
1782952675078263800,7.467263916015625,-0.0014831144362688065,0.002275138394907117,0.0013432984706014395
1782952675088190200,7.477190185546875,-0.001359543763101101,0.0071010529063642025,0.0010042780777439475
1782952675098118400,7.487118408203125,-0.0023899206425994635,0.005466138012707233,-0.0011789813870564103
1782952675108045300,7.49704541015625,-0.001841575838625431,0.005991579964756966,-0.00008016114588826895
1782952675117973200,7.50697314453125,-0.0010125337867066264,0.0027744811959564686,0.0003616572648752481
1782952675127900400,7.516900390625,0.0028093685396015644,0.003849599277600646,0.0006114617572166026
1782952675137828400,7.526828369140625,-0.0017238641157746315,0.00652660895138979,-0.0016234630020335317
1782952675147755300,7.53675537109375,-0.0005062668933533132,0.004315652418881655,0.001421861699782312
1782952675157683500,7.546683349609375,-0.0007241134881041944,0.004058923572301865,-0.0022034994326531887
1782952675167610400,7.5566103515625,0.00040266994619742036,0.00279046013019979,0.0032615733798593283
1782952675177538300,7.566538330078125,-0.0005667206714861095,0.006813431158661842,-0.0006823018775321543
1782952675187465500,7.576465576171875,0.0019712718203663826,0.0054243262857198715,0.0015339808305725455
1782952675197393400,7.586393310546875,-0.0004093278548680246,0.00595615990459919,-0.000054328484111465514
1782952675207320600,7.596320556640625,-0.0021046961192041636,0.002694852650165558,-0.0026530411560088396
1782952675217248500,7.60624853515625,-0.0033907366450875998,0.00580862071365118,0.0007744472241029143
1782952675227176400,7.616176513671875,0.0005528722540475428,0.004643221385776997,0.0020663465838879347
1782952675237103400,7.626103271484375,0.00017443705291952938,0.003910585772246122,0.0033755565527826548
1782952675247031600,7.636031494140625,0.0012942962348461151,0.003439738880842924,0.0019531622529029846
1782952675256958200,7.645958251953125,-0.0014056164072826505,0.0035385421942919493,-0.0004881574132014066
1782952675266886400,7.655886474609375,0.0016636766958981752,0.0036791570018976927,0.002409894485026598
1782952675276813300,7.665813232421875,-0.002380866091698408,0.006195577792823315,-0.0014112089993432164
1782952675286741200,7.6757412109375,-0.002628007438033819,0.003206712193787098,0.0005968143814243376
1782952675296668400,7.68566845703125,0.00041571943438611925,0.003963049966841936,0.00166607357095927
1782952675306596400,7.695596435546875,-0.0021017666440457106,0.0029294772539287806,0.0018559569725766778
1782952675316523300,7.705523193359375,-0.0012543488992378116,0.0035111114848405123,0.003197657410055399
1782952675326451200,7.715451171875,-0.0031041805632412434,0.004767058417201042,-0.0012895026011392474
1782952675336378400,7.72537841796875,-0.0012420982820913196,0.003078347770497203,-0.0010673949727788568
1782952675346306300,7.735306396484375,0.0015089471125975251,0.00387330143712461,-0.0009139968897216022
1782952675356233500,7.7452333984375,-0.0010181264951825142,0.004396879114210606,-0.00021305288828443736
1782952675366161400,7.755161376953125,-0.0019049590919166803,0.005142563953995705,-0.0004673847579397261
1782952675376088300,7.76508837890625,-0.0011012171162292361,0.004685565363615751,0.0011669971281662583
1782952675386016300,7.775016357421875,-0.0032631712965667248,0.006568686570972204,-0.0001680454588495195
1782952675395943400,7.784943359375,0.0005153216770850122,0.005688512232154608,0.00042743736412376165
1782952675405871400,7.794871337890625,-0.0027688886038959026,0.005096757784485817,0.0005193164106458426
1782952675415798500,7.804798583984375,-0.0007843009079806507,0.004649613052606583,0.0015611450653523207
1782952675425726500,7.8147265625,-0.0008426241693086922,0.00481286458671093,-0.00044474788592197
1782952675435653400,7.8246533203125,0.0013038836186751723,0.00567093538120389,0.0020785972010344267
1782952675445581300,7.834581298828125,-0.0006103964988142252,0.005914880894124508,0.0007209177128970623
1782952675455508500,7.844508544921875,-0.0034791536163538694,0.005791310220956802,0.0015805860748514533
1782952675465436400,7.8544365234375,0.00014807176194153726,0.004834702704101801,0.0011835087789222598
1782952675475363300,7.86436328125,-0.0005089300684630871,0.003495931625366211,-0.0004495415778364986
1782952675485291500,7.87429150390625,-0.0030868700705468655,0.005708485841751099,0.0034498588647693396
1782952675495218200,7.88421826171875,-0.002323075430467725,0.003571032779291272,-0.002430667169392109
1782952675505146400,7.894146484375,-0.00022796659322921187,0.006107160821557045,0.00003062635369133204
1782952675515073300,7.9040732421875,-0.001121723442338407,0.006080795545130968,0.0019481023773550987
1782952675525001200,7.914001220703125,0.0014855111949145794,0.003945206757634878,0.0013401026371866465
1782952675534928400,7.923928466796875,-0.002418416552245617,0.005036303773522377,0.00043516053119674325
1782952675544856300,7.933856201171875,-0.0006205165409483016,0.0051276502199471,0.0020208065398037434
1782952675554783200,7.943783203125,0.00028043086058460176,0.0034639735240489244,0.0008617989369668067
1782952675564711400,7.95371142578125,-0.0009446232579648495,0.004917527083307505,0.0010237190872430801
1782952675574638300,7.963638427734375,-0.0006737797521054745,0.0060325926169753075,-0.0021939121652394533
1782952675584566300,7.973566162109375,0.0008221178431995213,0.003849865635856986,0.0023209447972476482
1782952675594493400,7.983493408203125,-0.0013462279457598925,0.006112487055361271,0.0001382180635118857
1782952675604421400,7.99342138671875,-0.0014112089993432164,0.00404587434604764,0.0010373012628406286
1782952675614348300,8.003348388671874,-0.0005302353529259562,0.0037670412566512823,-0.0015539544401690364
1782952675624276500,8.0132763671875,-0.0007038734620437026,0.00580755528062582,0.0015795208746567369
1782952675634203400,8.023203369140624,-0.003403786104172468,0.007753260899335146,0.0016399745363742113
1782952675644131300,8.03313134765625,0.0002402171230642125,0.004532167688012123,0.0012665993999689817
1782952675654058500,8.04305859375,-0.0015933692920953035,0.004162520635873079,0.002441585995256901
1782952675663986400,8.052986328125,-0.0023369237314909697,0.006101834587752819,0.00003941478280466981
1782952675673913600,8.06291357421875,-0.0008404936525039375,0.0057622818276286125,0.002089249901473522
1782952675683841500,8.072841552734374,-0.0005880259559489787,0.004442152567207813,-0.00015952334797475487
1782952675693768200,8.082768310546875,-0.002260491019114852,0.005856557283550501,-0.0005009406013414264
1782952675703696100,8.092696044921874,-0.00045566685730591416,0.0033840788528323174,0.0015129417879506946
1782952675713623300,8.102623291015625,-0.0029891319572925568,0.004600876942276955,0.0006471481174230576
1782952675723551200,8.11255126953125,-0.0019022959750145674,0.005647233221679926,0.0011606055777519941
1782952675733479200,8.122479248046876,0.00019973708549514413,0.005643504671752453,-0.0016375777777284384
1782952675743406300,8.13240625,-0.0011169298086315393,0.0044408212415874004,0.0016841830220073462
1782952675753334300,8.142334228515624,-0.0025300029665231705,0.005086104851216078,0.000003462109361862531
1782952675763261400,8.152261474609375,-0.002695651724934578,0.0036541232839226723,0.0003296993381809443
1782952675773189400,8.162189453125,-0.003498062025755644,0.00415399856865406,0.001243962557055056
1782952675783116300,8.1721162109375,0.0012769857421517372,0.005512743256986141,-0.0012522183824330568
1782952675793044200,8.182044189453125,-0.0007613977650180459,0.007762848399579525,-0.00044661210267804563
1782952675802971400,8.191971435546876,-0.002686064224690199,0.005379052832722664,-0.0013379721203818917
1782952675812899300,8.2018994140625,0.00042317630141042173,0.00392683083191514,0.0018160095205530524
1782952675822826500,8.211826416015626,-0.0007816377910785377,0.0037345506716519594,0.0007251787465065718
1782952675832754400,8.22175439453125,-0.0007419566973112524,0.006346046458929777,0.003463441040366888
1782952675842681300,8.231681396484374,-0.00043116576853208244,0.003933755215257406,0.0013371731620281935
1782952675852609300,8.241609375,0.00112465291749686,0.0027888622134923935,-0.00018722022650763392
1782952675862536400,8.251536376953124,0.0003507383225951344,0.005083441734313965,0.002186455298215151
1782952675872464400,8.26146435546875,-0.0005342300864867866,0.006399043370038271,0.00041518680518493056
1782952675882391600,8.2713916015625,-0.0023180153220891953,0.006725014187395573,0.0014655375853180885
1782952675892319500,8.281319580078126,-0.0016045545926317573,0.007892278023064137,-0.0012511530658230186
1782952675902246400,8.291246337890625,-0.0035782232880592346,0.004792358260601759,0.003099653171375394
1782952675912174300,8.30117431640625,-0.003433879930526018,0.003905792022123933,0.00012863067968282849
1782952675922101200,8.311101318359375,-0.0015606123488396406,0.005791043862700462,0.003686081152409315
1782952675932029200,8.321029296875,0.002034122357144952,0.006690126843750477,0.0012740562669932842
1782952675941956400,8.330956298828125,-0.0005842975224368274,0.006595318205654621,0.002261822810396552
1782952675951884300,8.34088427734375,-0.002498843939974904,0.005242432467639446,0.0014141384745016694
1782952675961811200,8.350811279296876,-0.0008961536805145442,0.005662412848323584,0.0013265205780044198
1782952675971739400,8.360739501953125,-0.0023177489638328552,0.006578806787729263,-0.0018580874893814325
1782952675981666300,8.370666259765626,-0.003079413203522563,0.001936650718562305,0.0029265477787703276
1782952675991594200,8.38059423828125,-0.002728142309933901,0.004536162130534649,-0.0006101301987655461
1782952676001521400,8.390521484375,-0.0031963258516043425,0.005210474599152803,0.00001304948909819359
1782952676011449300,8.400449462890625,-0.003231213428080082,0.005646167788654566,-0.00010173275222769007
1782952676021376300,8.410376220703125,-0.0021486382465809584,0.007918110117316246,0.0003304982965346426
1782952676031304400,8.420304443359376,0.00012303804396651685,0.0043657198548316956,0.0018759306985884905
1782952676041231400,8.4302314453125,-0.0035489285364747047,0.007850732654333115,0.00036618465674109757
1782952676051159300,8.4401591796875,-0.0012956279097124934,0.0037699707318097353,0.00003462109452812001
1782952676061086500,8.45008642578125,-0.0016607472207397223,0.005261074751615524,0.00029081720276735723
1782952676071014400,8.460014404296874,-0.000589091214351356,0.005537510849535465,0.0023936491925269365
1782952676080941300,8.46994140625,-0.0022498385515064,0.004357197787612677,0.0021140172611922026
1782952676090869200,8.479869140625,-0.001517735538072884,0.004228034522384405,0.000767523015383631
1782952676100796200,8.489796142578125,0.00016325176693499088,0.005019259639084339,0.00036432043998502195
1782952676110724000,8.49972412109375,-0.0017451694002375007,0.0063063655979931355,0.0008346347021870315
1782952676120651300,8.5096513671875,-0.0026612968649715185,0.005911152344197035,-0.00034967303508892655
1782952676130579200,8.5195791015625,-0.0004801679460797459,0.005160673521459103,-0.0002942793071269989
1782952676140506400,8.52950634765625,-0.0017097494564950466,0.005528456065803766,0.001499359728768468
1782952676150434300,8.539434326171875,-0.0027265443932265043,0.004156128969043493,0.0026879284996539354
1782952676160361000,8.54936083984375,-0.0023582291323691607,0.0057708038948476315,0.000859934720210731
1782952676170289200,8.5592890625,-0.0025092302821576595,0.0062341936863958836,-0.002287655370309949
1782952676180216000,8.569216064453125,-0.0024895230308175087,0.0033981935121119022,0.0010242518037557602
1782952676190144000,8.57914404296875,-0.0009736517095007002,0.005788912996649742,0.00008708536915946752
1782952676200071200,8.5890712890625,0.0004117247008252889,0.005515406373888254,-0.0004588626616168767
1782952676209999000,8.5989990234375,-0.00115394766908139,0.00561021501198411,-0.0010048106778413057
1782952676219926000,8.608926025390625,-0.00199364242143929,0.005786782596260309,0.0034357442054897547
1782952676229854200,8.618854248046874,-0.0006319681415334344,0.0046666571870446205,0.0025542378425598145
1782952676239781000,8.628781005859375,-0.0010466222884133458,0.004591822158545256,0.0007115966291166842
1782952676249709000,8.638708984375,0.0025542378425598145,0.006777478381991386,0.00003808320252574049
1782952676259636200,8.64863623046875,-0.0021728731226176023,0.006511961575597525,-0.0002436792419757694
1782952676269564200,8.658564208984375,0.001976065570488572,0.005458947736769915,0.0006255765329115093
1782952676279491000,8.668490966796876,0.0014972290955483913,0.005113535560667515,0.0001483380765421316
1782952676289419300,8.678419189453125,-0.0006215817993506789,0.0035201662685722113,-0.0024058998096734285
1782952676299346200,8.68834619140625,-0.0015611450653523207,0.005151086021214724,0.001443166984245181
1782952676309274000,8.698274169921875,-0.0014780544443055987,0.0038312235847115517,0.00008788431296125054
1782952676319202300,8.708202392578125,-0.00023089606838766485,0.004600344225764275,0.0012343751732259989
1782952676329129200,8.718129150390626,-0.00036511936923488975,0.0038693067617714405,0.0007656587986275554
1782952676339057200,8.72805712890625,-0.0007068029372021556,0.0049348375760018826,0.0024256070610135794
1782952676348984300,8.737984375,-0.0009560748003423214,0.005063201766461134,-0.0014434333425015211
1782952676358912300,8.747912353515625,0.0006623281515203416,0.006094910204410553,0.001205080421641469
1782952676368839200,8.757839111328124,0.00013555490295402706,0.005262672435492277,-0.0003438140847720206
1782952676378767400,8.767767333984375,0.0026783409994095564,0.0017992316279560328,0.002660498023033142
1782952676388694000,8.777694091796874,-0.0016847157385200262,0.004530835896730423,0.0020695424173027277
1782952676398622000,8.7876220703125,-0.00065460498444736,0.0028573055751621723,0.0018706043483689427
1782952676408549000,8.797549072265625,0.00017097493400797248,0.004844556096941233,0.0018897791160270572
1782952676418477000,8.80747705078125,0.00045140579459257424,0.0043955473229289055,0.0024655545130372047
1782952676428404000,8.817404052734375,0.0009100021561607718,0.004138285759836435,0.0006303702248260379
1782952676438332200,8.827332275390624,-0.000004793690095539205,0.005172924138605595,0.00012436961696948856
1782952676448259000,8.837259033203125,-0.001398159540258348,0.005088235717266798,0.001204814063385129
1782952676458187000,8.84718701171875,-0.0013086773687973619,0.0067718857899308205,0.002588059986010194
1782952676468114200,8.8571142578125,0.0005454153870232403,0.006266417913138866,0.0018341189716011286
1782952676478042000,8.8670419921875,0.0003094593121204525,0.006316218990832567,0.0012580773327499628
1782952676487969300,8.87696923828125,-0.0011584750609472394,0.00615323381498456,-0.00023675501870457083
1782952676497897200,8.886897216796875,-0.0005313006113283336,0.003983289934694767,-0.0003217098710592836
1782952676507824000,8.89682421875,0.0011531487107276917,0.0037121803034096956,0.0013382384786382318
1782952676517752000,8.906751953125,-0.0018996327416971326,0.004107659682631493,-0.0018343853298574686
1782952676527679200,8.91667919921875,-0.0004617921367753297,0.0030029804911464453,-0.0027830032631754875
1782952676537607200,8.926607177734375,-0.0007952199084684253,0.005079979542642832,0.0021528995130211115
1782952676547534300,8.936534423828125,-0.0002263686910737306,0.004326038993895054,0.0017438378417864442
1782952676557462300,8.946462158203126,0.001255680457688868,0.00461579067632556,0.0008729841792955995
1782952676567389200,8.95638916015625,-0.0002324939559912309,0.0049404301680624485,-0.0024855281226336956
1782952676577317000,8.966317138671876,-0.00105354655534029,0.006608634255826473,0.0006953513366170228
1782952676587244300,8.976244384765625,-0.0020269318483769894,0.005764412228018045,0.00010226538870483637
1782952676597172200,8.986172119140624,-0.003094060579314828,0.0067963870242238045,0.00002609897819638718
1782952676607099100,8.99609912109375,0.001184041379019618,0.00478436890989542,-0.0015936355339363217
1782952676617027000,9.006027099609375,-0.00038695731200277805,0.006105030421167612,-0.0009885653853416443
1782952676626954000,9.0159541015625,-0.0006934871198609471,0.0038509308360517025,0.00003408846168895252
1782952676636882200,9.025882080078125,0.000010120012120751198,0.0057348511181771755,0.00041731735109351575
1782952676646809000,9.03580908203125,-0.0013568805297836661,0.004309260752052069,0.0009326389990746975
1782952676656737000,9.045737060546875,-0.002552639925852418,0.004326571244746447,-0.0009424926829524338
1782952676666664200,9.055664306640624,0.001062068622559309,0.004877845756709576,0.0006170544074848294
1782952676676592000,9.065592041015625,-0.0005491438205353916,0.0032794165890663862,-0.0015909724170342088
1782952676686519000,9.07551904296875,-0.0037468012887984514,0.005115665961056948,0.0005006743012927473
1782952676696447200,9.085447265625,0.0023667511995881796,0.0059718722477555275,-0.0006641923682764173
1782952676706374100,9.0953740234375,-0.0006474144756793976,0.0038192393258213997,0.0007424892974086106
1782952676716302000,9.105302001953126,-0.0014034858904778957,0.006046174559742212,0.0006370281334966421
1782952676726229200,9.115229248046875,-0.0016000272007659078,0.005543369799852371,-0.0015462313313037157
1782952676736157200,9.1251572265625,-0.0009195895399898291,0.007918376475572586,0.0015835155500099063
1782952676746084000,9.135083984375,0.00039175100391730666,0.003641606541350484,0.0032921996898949146
1782952676756012300,9.14501220703125,-0.00370179396122694,0.004338555503636599,-0.0024652881547808647
1782952676765939200,9.154939208984375,0.0003478088474366814,0.0028602350503206253,0.0025869945529848337
1782952676775867100,9.1648671875,0.0013677994720637798,0.003704723436385393,-0.0010002832859754562
1782952676785794300,9.174794189453126,-0.0013156015193089843,0.0060238041914999485,0.002329467097297311
1782952676795722200,9.18472216796875,0.0005025385180488229,0.003955326974391937,0.002299639629200101
1782952676805649200,9.194649169921876,-0.00025353292585350573,0.004168113227933645,0.001374457380734384
1782952676815577300,9.204577392578125,-0.00166607357095927,0.004476241301745176,0.0009177253232337534
1782952676825504000,9.21450390625,-0.001445830101147294,0.005393167492002249,0.002341717481613159
1782952676835432000,9.224431884765625,-0.001502555445767939,0.003704190719872713,-0.001038632821291685
1782952676845359000,9.234359130859374,0.0006034722900949419,0.004791293293237686,0.0022309301421046257
1782952676855287000,9.244287109375,0.0007667240570299327,0.004593420308083296,-0.001582716591656208
1782952676865214200,9.254214111328125,-0.0014048174489289522,0.003973170183598995,-0.0006878945278003812
1782952676875142100,9.26414208984375,-0.002770220162346959,0.0033840788528323174,0.002142246812582016
1782952676885069000,9.274069091796875,-0.001383245806209743,0.0067828050814569,0.00005672533006872982
1782952676894997000,9.2839970703125,0.0009150621481239796,0.006414223462343216,-0.0001358212175546214
1782952676904924200,9.293924072265625,0.0020572920329868793,0.006265086587518454,0.0006213154993019998
1782952676914852000,9.30385205078125,-0.002492984989657998,0.001975799212232232,0.0017038905061781406
1782952676924779300,9.313779296875,0.00004474110755836591,0.00401711231097579,0.0033601103350520134
1782952676934707200,9.323707275390625,-0.0013145363191142678,0.0057068876922130585,0.001278849900700152
1782952676944634000,9.333634033203126,-0.0014442323008552194,0.004833104554563761,0.002865294925868511
1782952676954562300,9.343562255859375,-0.0018314558546990156,0.00538491178303957,-0.001210939371958375
1782952676964489200,9.3534892578125,-0.0014508900931105018,0.0065322015434503555,0.0016618125373497605
1782952676974417200,9.363417236328125,0.0004623247659765184,0.0015896408585831523,0.0001757686259225011
1782952676984344300,9.37334423828125,0.001570998691022396,0.0005459480453282595,0.0007267766632139683
1782952676994272300,9.383272216796875,-0.00024048343766480684,0.004944957327097654,0.00012516857532318681
1782952677004199200,9.39319921875,0.0002378202771069482,0.004032026045024395,-0.0006743124104104936
1782952677014127400,9.40312744140625,-0.002597380895167589,0.005079979542642832,0.001026115962304175
1782952677024054000,9.413053955078125,-0.00038935415796004236,0.006217415910214186,0.0008937568636611104
1782952677033982000,9.42298193359375,-0.00130894361063838,0.005914880894124508,0.0011707255616784096
1782952677043909000,9.4329091796875,0.00018615495355334133,0.005936452187597752,0.0013350426452234387
1782952677053837000,9.442837158203124,-0.0002069276088150218,0.006078398786485195,0.004538825247436762
1782952677063764000,9.452763916015625,0.00003808320252574049,0.002374208066612482,0.0013321131700649858
1782952677073692200,9.462692138671875,-0.0014940333785489202,0.005101551301777363,0.0018551580142229795
1782952677083619000,9.472619140625,0.0020839234348386526,0.00395639194175601,0.003129480639472604
1782952677093547300,9.48254736328125,0.0006162554491311312,0.006464290898293257,-0.0012532835826277733
1782952677103475500,9.492475341796874,-0.0017438378417864442,0.0033401367254555225,-0.0005158542771823704
1782952677113402400,9.50240234375,0.0009712548344396055,0.004625378176569939,0.0002817624481394887
1782952677123329300,9.512329345703124,0.0014804512029513717,0.0032642364967614412,0.0021888520568609238
1782952677133257500,9.522257568359375,-0.0009108011145144701,0.006581469904631376,0.00043063313933089375
1782952677143185400,9.532185302734375,-0.0032381375785917044,0.00446851784363389,0.001463939668610692
1782952677153112300,9.5421123046875,-0.0006679208017885685,0.004151335451751947,0.0036698358599096537
1782952677163040500,9.55204052734375,-0.0017781927017495036,0.005819006823003292,0.0014692660188302398
1782952677172967400,9.561967529296876,-0.0009970874525606632,0.006057359743863344,-0.0014719291357323527
1782952677182895400,9.571895263671875,-0.0012008192716166377,0.005842708982527256,0.0013510215794667602
1782952677192822500,9.581822509765624,-0.003251453395932913,0.0032551817130297422,-0.000477504770969972
1782952677202750500,9.59175048828125,-0.0018644790397956967,0.004206729121506214,-0.00016644757124595344
1782952677212677400,9.601677490234374,-0.0010636665392667055,0.0033694314770400524,-0.0022501046769320965
1782952677222605600,9.61160546875,0.001686579897068441,0.00475400872528553,0.00036511936923488975
1782952677232532200,9.6215322265625,0.0005233111442066729,0.0046426886692643166,0.0034615767654031515
1782952677242460200,9.631460205078126,-0.0005422196118161082,0.005066397599875927,-0.00014700648898724467
1782952677252387300,9.64138720703125,-0.0011036139912903309,0.0015749934827908874,-0.00008841694943839684
1782952677262315300,9.651315185546874,0.00024394555657636374,0.005021656397730112,0.0024463797453790903
1782952677272242400,9.661242431640625,0.00005885586142539978,0.00478543434292078,0.001546763931401074
1782952677282170400,9.67117041015625,-0.0022157500497996807,0.004284493625164032,0.0017891116440296173
1782952677292097300,9.68109716796875,-0.0013337110867723823,0.006440855097025633,0.0015358449891209602
1782952677302025200,9.691025146484375,-0.00041678472189232707,0.003549461020156741,0.0030535804107785225
1782952677311952400,9.700952392578126,-0.0005462143453769386,0.007780158892273903,0.00028389296494424343
1782952677321880300,9.71088037109375,-0.0033422671258449554,0.005437109619379044,0.0015717976493760943
1782952677331807500,9.720807373046876,-0.000675111310556531,0.0041217743419110775,-0.00045140579459257424
1782952677341735400,9.7307353515625,-0.002567287301644683,0.0038392129354178905,0.0007984156836755574
1782952677351662300,9.740662353515624,0.00010572749306447804,0.003638144349679351,0.001648496720008552
1782952677361590300,9.75059033203125,0.0007073355955071747,0.004875182639807463,0.00040613205055706203
1782952677371517400,9.760517333984374,-0.002403236459940672,0.005684250965714455,-0.0014183996245265007
1782952677381445400,9.7704453125,-0.0006788397440686822,0.002906840294599533,0.0007339671719819307
1782952677391372500,9.78037255859375,-0.0011685950448736548,0.007239270955324173,0.0007771103992126882
1782952677401300500,9.790300537109376,-0.0010207896120846272,0.0029917950741946697,0.0035422705113887787
1782952677411227400,9.800227294921875,-0.000015446334145963192,0.007111439015716314,0.004600078333169222
1782952677421155300,9.8101552734375,0.0008173241512849927,0.002662628423422575,0.00006817692337790504
1782952677431082200,9.820082275390625,-0.0015251922886818647,0.005105013493448496,0.0011733887949958444
1782952677441010400,9.830010498046875,-0.0025063008069992065,0.004285824950784445,-0.0024767396971583366
1782952677450937300,9.839937255859375,-0.0008769789128564298,0.003798999357968569,0.0000428768944402691
1782952677460865300,9.849865234375,-0.0002700445184018463,0.004266117699444294,0.002323075430467725
1782952677470792200,9.859792236328126,-0.00013741910515818745,0.004566522315144539,-0.0021904499735683203
1782952677480720400,9.869720458984375,-0.0006135923322290182,0.0037470676470547915,0.001674595638178289
1782952677490647300,9.879647216796876,-0.0020125508308410645,0.00526666734367609,0.00236275652423501
1782952677500575200,9.8895751953125,-0.0008333030855283141,0.0057500312104821205,-0.00003462109452812001
1782952677510502400,9.89950244140625,-0.00031079089967533946,0.004540689755231142,0.0012386362068355083
1782952677520430300,9.909430419921875,-0.00008069378236541525,0.006030195392668247,0.0011313108261674643
1782952677530357200,9.919357177734375,0.0005406216951087117,0.00375985074788332,0.001975266495719552
1782952677540285400,9.929285400390626,-0.0018226674292236567,0.005170527379959822,0.0007627293234691024
1782952677550212400,9.93921240234375,-0.0006226470577530563,0.004095142707228661,0.00015100123709999025
1782952677560140300,9.949140380859374,-0.001032507512718439,0.0065077003091573715,0.0015028218040242791
1782952677570067500,9.9590673828125,0.0011267834343016148,0.0052200620993971825,0.0007864314829930663
1782952677579995400,9.968995361328124,-0.001597896683961153,0.005323925521224737,0.0016349145444110036
1782952677589922300,9.97892236328125,-0.0006149238906800747,0.0020117517560720444,0.0015486282063648105
1782952677599850500,9.9888505859375,-0.002377936616539955,0.003913781605660915,-0.0004367584188003093
1782952677609777400,9.99877734375,-0.0008780442294664681,0.0027803401462733746,0.0021228056866675615
1782952677619705300,10.008705322265625,-0.0004950816510245204,0.003938282374292612,-0.0015595471486449242
1782952677629632500,10.018632568359376,-0.0008761800127103925,0.005514075048267841,0.0018154769204556942
1782952677639560400,10.028560546875,0.000014647385796706658,0.005584915168583393,-0.0015161376213654876
1782952677649487400,10.0384873046875,-0.0013065468519926071,0.004483165219426155,-0.0004293015517760068
1782952677659415300,10.048415283203125,-0.0004796353168785572,0.004693022463470697,0.004151601810008287
1782952677669342200,10.05834228515625,-0.00021544973424170166,0.0046821036376059055,0.0025515747256577015
1782952677679270100,10.068270263671875,-0.0009600695921108127,0.005754025653004646,0.00018375810759607702
1782952677689197300,10.078197265625,-0.0007707187905907631,0.0035451999865472317,0.0023928501177579165
1782952677699125200,10.088125244140626,-0.002302302746102214,0.006564159411936998,0.00020879182557109743
1782952677709052400,10.098052490234375,-0.000107858024421148,0.0032591766212135553,0.0019502328941598535
1782952677718980400,10.10798046875,-0.0004881574132014066,0.00618146313354373,0.0010929612908512354
1782952677728907300,10.1179072265625,-0.00023276027059182525,0.007404919248074293,-0.0013859090395271778
1782952677738835500,10.12783544921875,-0.0013374395202845335,0.0067543089389801025,0.000316916179144755
1782952677748762400,10.137762451171875,-0.002353435382246971,0.00558198569342494,0.00008309062832267955
1782952677758690300,10.147690185546875,-0.0014056164072826505,0.005927930120378733,0.0011265170760452747
1782952677768617500,10.157617431640626,-0.0028823392931371927,0.005997705273330212,-0.0011544802691787481
1782952677778545400,10.16754541015625,0.002403236459940672,0.003884752979502082,0.0020879183430224657
1782952677788472300,10.177472412109376,-0.0017102820565924048,0.0065324679017066956,-0.00007456851017195731
1782952677798400500,10.187400390625,-0.0003020024741999805,0.004173705819994211,-0.00054142065346241
1782952677808327400,10.197327392578124,0.001243962557055056,0.003810983384028077,0.0025979136116802692
1782952677818255400,10.20725537109375,-0.002269812161102891,0.005656553898006678,0.00373082235455513
1782952677828182500,10.2171826171875,0.0005302353529259562,0.007203318178653717,0.0010498181218281388
1782952677838110500,10.2271103515625,-0.0004588626616168767,0.0035358788445591927,-0.000027696874894900247
1782952677848037400,10.237037353515625,0.0011203918838873506,0.0051995557732880116,-0.0007334345718845725
1782952677857965600,10.246965576171876,-0.0006378270918503404,0.005657086614519358,0.00022130868455860764
1782952677867892200,10.256892333984375,0.0000977380113909021,0.003961452282965183,0.0012572783743962646
1782952677877820200,10.266820068359374,-0.000636495475191623,0.007556186988949776,0.0015049523208290339
1782952677887747300,10.276747314453125,-0.0024434502702206373,0.005373992491513491,0.000678307143971324
1782952677897675300,10.28667529296875,-0.002032258315011859,0.006736998446285725,0.0007278419216163456
1782952677907602400,10.2966025390625,0.00046818371629342437,0.00681263254955411,0.0008277104352600873
1782952677917530400,10.3065302734375,-0.0015659386990591884,0.005450691562145948,0.0005526058957912028
1782952677927457300,10.316457275390626,-0.0027928571216762066,0.00615163566544652,0.0010045443195849657
1782952677937385200,10.32638525390625,-0.0008735168376006186,0.006637396290898323,0.0010162622202187777
1782952677947312400,10.3363125,0.00022210762836039066,0.0041010016575455666,-0.00006311691686278209
1782952677957240300,10.346240234375,-0.0021065603941679,0.005150287412106991,0.0007046724203974009
1782952677967167500,10.35616748046875,0.00040480049210600555,0.002724946476519108,0.0009233179152943194
1782952677977095400,10.366095458984375,0.0013054815353825688,0.0038637141697108746,0.002909237053245306
1782952677987022300,10.376022216796875,0.0003177151083946228,0.004339088220149279,0.0016879114555194974
1782952677996950300,10.3859501953125,-0.0026668894570320845,0.005440039094537497,0.002922286745160818
1782952678006877400,10.39587744140625,-0.0007872303831391037,0.003709783311933279,0.002407231368124485
1782952678016805400,10.405805419921874,0.0005640574963763356,0.004549211822450161,0.0006953513366170228
1782952678026732500,10.415732666015625,0.0004822984628845006,0.005123655777424574,-0.00010279801790602505
1782952678036660500,10.425660400390624,-0.00006498113361885771,0.0034794199746102095,0.0007352987886406481
1782952678046587400,10.43558740234375,-0.00036938043194822967,0.005148422904312611,-0.0010793792316690087
1782952678056515300,10.445515380859375,-0.0008857673965394497,0.0027981833554804325,0.0031931300181895494
1782952678066442200,10.455442138671875,0.00008096009696600959,0.0041611893102526665,0.003478088416159153
1782952678076370400,10.465370361328125,-0.0015315839555114508,0.005784385837614536,0.0032533176708966494
1782952678086297300,10.47529736328125,-0.0023307986557483673,0.005732720717787743,0.0007624630234204233
1782952678096225300,10.485225341796875,-0.0030652983114123344,0.005871205125004053,-0.0008519452530890703
1782952678106152000,10.49515185546875,-0.0009076052810996771,0.004945490043610334,0.002499643014743924
1782952678116080000,10.505080078125,0.00009347695595351979,0.006178000941872597,0.0013254552613943815
1782952678126007000,10.515007080078124,-0.003040264593437314,0.004342816770076752,0.00038242992013692856
1782952678135935000,10.52493505859375,-0.002752376953139901,0.0046725161373615265,0.0005049353349022567
1782952678145862100,10.534862060546875,-0.002603239845484495,0.00407437002286315,0.002255164785310626
1782952678155790000,10.5447900390625,-0.002049568807706237,0.008292284794151783,0.00014194648247212172
1782952678165717200,10.55471728515625,-0.0009190568816848099,0.004059989005327225,0.0016503608785569668
1782952678175645200,10.564645263671874,0.0013334447285160422,0.00392842898145318,0.0009046758059412241
1782952678185572000,10.574572021484375,-0.0008082693675532937,0.0037033918779343367,-0.0009574064170010388
1782952678195500000,10.5845,-0.0032647692132741213,0.005877596326172352,-0.0008929579053074121
1782952678205427200,10.59442724609375,0.0014476943761110306,0.005776130128651857,0.0007395598222501576
1782952678215355100,10.604355224609375,-0.002543851500377059,0.005810484755784273,-0.000060453756304923445
1782952678225282300,10.6142822265625,-0.0021172130946069956,0.002802977105602622,0.0010759170399978757
1782952678235210200,10.624210205078125,-0.00185063062235713,0.002779008587822318,-0.0001102548703784123
1782952678245137200,10.63413720703125,0.000502804818097502,0.0056741307489573956,0.001853293739259243
1782952678255065000,10.644065185546875,-0.0020695424173027277,0.005518335849046707,0.0003611246356740594
1782952678264992300,10.6539921875,-0.001537975505925715,0.005969741847366095,0.00046312372433021665
1782952678274920200,10.663920166015625,0.0001294296234846115,0.0054730623960494995,-0.00007297061529243365
1782952678284847400,10.673847412109374,-0.00020133497309871018,0.004765460267663002,0.004546815063804388
1782952678294775300,10.683775390625,-0.001115864492021501,0.007015565410256386,0.0023723437916487455
1782952678304702000,10.693701904296875,-0.0009323726990260184,0.006454703398048878,0.004187820944935083
1782952678314630100,10.703630126953126,-0.0013848437229171395,0.00552259711548686,-0.0011635350529104471
1782952678324557000,10.71355712890625,-0.001413339632563293,0.0008729841792955995,-0.0014207963831722736
1782952678334485000,10.723485107421874,0.00006844323797849938,0.0013701963471248746,0.0003270361921750009
1782952678344412200,10.733412109375,-0.00020932445477228612,0.002832271857187152,0.0008753810543566942
1782952678354340000,10.743340087890624,0.0002969424531329423,0.006941795814782381,0.0005840312223881483
1782952678364267000,10.75326708984375,-0.00045806370326317847,0.003923901356756687,-0.00006338323146337643
1782952678374195200,10.7631953125,0.00005326322207110934,0.007879228331148624,0.0015454323729500175
