time,seconds_elapsed,z,y,x
1782969960076791300,0.070791259765625,-0.0021778279915452003,-0.0007560360245406628,0.00015355006325989962
1782969960086718200,0.08071826171875,0.00019748964405152947,0.0008001714013516903,-0.00004788651131093502
1782969960096644400,0.090644287109375,0.002189534017816186,0.0005522309802472591,-0.0007427051896229386
1782969960106570200,0.1005703125,0.00036038595135323703,0.001556397881358862,-0.0017975172959268093
1782969960116497200,0.1104970703125,-0.0004468181577976793,0.0012951414100825787,-0.0006315854261629283
1782969960126423300,0.12042333984375,-0.0009473589016124606,-0.0014100642874836922,-0.0030333225149661303
1782969960136350500,0.1303505859375,-0.0036416789516806602,-0.0006372150965034962,-0.0000753495842218399
1782969960146276400,0.1402763671875,-0.0014397347113117576,0.00007550371810793877,0.0013191781472414732
1782969960156202200,0.1502021484375,-0.0002759333874564618,-0.001723727909848094,0.0006302183028310537
1782969960166129400,0.16012939453125,-0.0023861764930188656,0.0003833528608083725,-0.0008153102826327085
1782969960176055300,0.17005517578125,-0.0026034903712570667,0.0009708465076982975,-0.0020845727995038033
1782969960185982200,0.179982177734375,0.00031608910649083555,0.0005206502974033356,-0.0004178653471171856
1782969960195908400,0.189908447265625,-0.002417912008240819,0.00023675709962844849,0.000019159400835633278
1782969960205834500,0.19983447265625,0.001179837970994413,-0.002889081370085478,0.002746498677879572
1782969960215761200,0.20976123046875,-0.002411701250821352,-0.0023106427397578955,-0.0026906109414994717
1782969960225687300,0.219687255859375,0.0013580952072516084,-0.0009825490415096283,0.0025710659101605415
1782969960235614200,0.2296142578125,-0.00006616330210817978,-0.0014467376749962568,0.0029223370365798473
1782969960245540400,0.239540283203125,-0.002536200685426593,0.0013236706145107746,-0.0005179669242352247
1782969960255466200,0.24946630859375,0.002100895158946514,0.0027596470899879932,-0.0008125125314109027
1782969960265393200,0.25939306640625,0.0012520569143816829,0.0021933484822511673,-0.0022252537310123444
1782969960275319300,0.2693193359375,0.000225674724788405,0.000015148892998695374,0.0018858681432902813
1782969960285246500,0.27924658203125,0.0004611849435605109,0.0006345789879560471,-0.0008661785977892578
1782969960295172000,0.289172119140625,-0.00045201301691122353,0.0018649594858288765,0.00017564999870955944
1782969960305098200,0.29909814453125,-0.0020804894156754017,0.002104233019053936,0.0018133994890376925
1782969960315025400,0.309025390625,0.002198144793510437,0.00037264591082930565,0.000038935337215662
1782969960324951300,0.318951416015625,0.0004797847068402916,-0.0009029204957187176,-0.0016055693849921227
1782969960334877200,0.328877197265625,-0.0025421041063964367,0.00027419673278927803,-0.0025336809922009706
1782969960344804400,0.338804443359375,-0.0005125533207319677,-0.000639389269053936,0.0005016253562644124
1782969960354730200,0.348730224609375,-0.0003192078147549182,-0.0006827991455793381,-0.001882969168946147
1782969960364657000,0.358656982421875,-0.0006280901143327355,-0.0019777051638811827,0.00014685909263789654
1782969960374583000,0.3685830078125,0.0011050950270146132,-0.0007214918732643127,-0.000553818594198674
1782969960384509200,0.37850927734375,0.0004571479803416878,0.0002015596255660057,-0.001657166169025004
1782969960394436000,0.38843603515625,-0.00011463269765954465,-0.0005640992894768715,0.0009719064692035317
1782969960404362000,0.398362060546875,-0.0015147468075156212,0.0009778928942978382,-0.00004069798160344362
1782969960414289000,0.408288818359375,0.0003686407289933413,-0.0001829788088798523,-0.0003903710749000311
1782969960424215000,0.418215087890625,0.0012401608983054757,0.0018037729896605015,0.0013949129497632384
1782969960434141200,0.42814111328125,-0.0013063537189736962,0.0009686052799224854,-0.00140859663952142
1782969960444067800,0.43806787109375,-0.001448610913939774,0.0028001386672258377,-0.0016956522595137358
1782969960453994000,0.447993896484375,-0.0017072039190679789,-0.00036689266562461853,0.00005830556619912386
1782969960463921200,0.457921142578125,0.0007284338353201747,0.0025928341783583164,-0.0016258114483207464
1782969960473847000,0.467846923828125,-0.00240903627127409,0.0009288908913731575,0.0011646487982943654
1782969960483773000,0.47777294921875,-0.00006682953971903771,0.00003075040876865387,-0.004809519276022911
1782969960493700000,0.4877001953125,0.0023380049970000982,-0.0013450384140014648,0.0005977629916742444
1782969960503626000,0.4976259765625,-0.0004649727197829634,-0.0007807784713804722,0.0022728312760591507
1782969960513553200,0.50755322265625,-0.002090566325932741,0.0007316302508115768,0.0038771191611886024
1782969960523479000,0.51747900390625,-0.00386067945510149,0.0009893332608044147,-0.00010111636947840452
1782969960533405200,0.5274052734375,-0.0009684867691248655,0.001980561763048172,-0.00088781415252015
1782969960543332000,0.53733203125,0.0002735224552452564,-0.0023349355906248093,0.000828659045509994
1782969960553258000,0.547258056640625,-0.0014348954427987337,-0.0004688585177063942,-0.00048374675679951906
1782969960563184000,0.55718408203125,0.0000070713394961785525,0.002369706053286791,0.00021536427084356546
1782969960573111000,0.567111083984375,0.0011005653068423271,-0.0013027929235249758,0.00032561912667006254
1782969960583037200,0.577037109375,-0.003006825689226389,0.0018888716585934162,-0.0010231360793113708
1782969960592963800,0.5869638671875,-0.0034638242796063423,0.001633740495890379,-0.0020753510762006044
1782969960602890000,0.596889892578125,0.0010882678907364607,0.0006413282826542854,0.0001540768425911665
1782969960612816100,0.606816162109375,-0.0014742258936166763,-0.0006484407931566238,-0.0002387393033131957
1782969960622743000,0.616742919921875,-0.0005376313347369432,0.00117057329043746,0.001976517029106617
1782969960632669000,0.6266689453125,0.00005944935401203111,-0.0010217409580945969,0.001971723511815071
1782969960642596000,0.63659619140625,-0.0023722846526652575,-0.0012066978961229324,-0.001041513867676258
1782969960652522000,0.64652197265625,-0.0007706595351919532,-0.00017046183347702026,-0.0004002247005701065
1782969960662447900,0.65644775390625,-0.0010864647338166833,-0.0011446576099842787,-0.0027048890478909016
1782969960672375000,0.666375,0.0005814729956910014,0.000653774943202734,0.0015889257192611694
1782969960682301000,0.676301025390625,-0.0013908640248700976,-0.00022959522902965546,0.0017995818052440882
1782969960692228000,0.68622802734375,-0.00005342456279322505,-0.002264250535517931,0.002364171901717782
1782969960702154200,0.696154296875,-0.00002279913314851001,0.0016891462728381157,0.0009137457236647606
1782969960712080100,0.706080078125,-0.0003940437745768577,-0.0007321997545659542,-0.0005616455455310643
1782969960722007000,0.716007080078125,-0.0001603504060767591,-0.0002540634013712406,0.0025001601316034794
1782969960731933200,0.72593310546875,0.0010894711595028639,0.0029995208606123924,-0.00004102801904082298
1782969960741860000,0.735860107421875,-0.001194633194245398,-0.0025440040044486523,-0.00033297622576355934
1782969960751786000,0.745785888671875,0.0002328211412532255,-0.001671818783506751,-0.0006674692267552018
1782969960761712000,0.755712158203125,0.00011564205487957224,-0.0005841837264597416,0.0008127156179398298
1782969960771639000,0.76563916015625,0.0015707933343946934,-0.001278203446418047,0.000441737356595695
1782969960781565000,0.77556494140625,-0.0006020846776664257,0.001266219187527895,-0.00035044748801738024
1782969960791492000,0.7854921875,-0.0019467145903035998,-0.0008195685222744942,0.0012261437950655818
1782969960801418000,0.79541796875,-0.00027033648802898824,-0.0015944228507578373,0.0016517853364348412
1782969960811344100,0.80534423828125,-0.0010647574672475457,0.0008514244109392166,0.0005673461128026247
1782969960821271000,0.81527099609375,0.0023782411590218544,0.0018944176845252514,0.0007375447312369943
1782969960831197000,0.825197021484375,0.0024301728699356318,0.001668847631663084,-0.00041640305425971746
1782969960841123000,0.835123046875,-0.004552672151476145,-0.002072790637612343,0.0002984899329021573
1782969960851050200,0.84505029296875,-0.0012876368127763271,-0.0014181856531649828,0.0008372473530471325
1782969960860975900,0.854975830078125,-0.0008640683954581618,0.0002561500295996666,-0.0001677270047366619
1782969960870903000,0.864903076171875,0.001976991770789027,0.000165602657943964,0.00011643231846392155
1782969960880829200,0.8748291015625,0.0007091781008057296,-0.00040156207978725433,-0.00004718126729130745
1782969960890754800,0.8847548828125,0.0008508582832291722,-0.0005762651562690735,0.0013802729081362486
1782969960900682000,0.894681884765625,0.0014845454134047031,0.0018050828948616982,-0.00022564479149878025
1782969960910608100,0.904608154296875,-0.0019530629506334662,-0.0012740641832351685,-0.000504477764479816
1782969960920535000,0.91453515625,0.0019549159333109856,-0.00007022218778729439,-0.0017344349762424827
1782969960930461000,0.9244609375,0.003530974732711911,0.0017367321997880936,0.0010403124615550041
1782969960940387000,0.934386962890625,-0.0020715256687253714,0.0012849667109549046,-0.003906385973095894
1782969960950314000,0.94431396484375,0.002677156822755933,-0.0006942944601178169,-0.0012722535757347941
1782969960960240000,0.954240234375,-0.001159813953563571,-0.0003685927949845791,-0.0011262143962085247
1782969960970167000,0.9641669921875,-0.00026818763581104577,-0.0022304083686321974,-0.0006471117376349866
1782969960980093000,0.974093017578125,0.0017467172583565116,0.0005027451552450657,-0.0029327089432626963
1782969960990019000,0.98401904296875,0.0008502971613779664,0.0004643956199288368,0.002051396993920207
1782969960999946200,0.9939462890625,-0.0015185782685875893,-0.0009680730290710926,0.00041097146458923817
1782969961009872000,1.003871826171875,0.004935060162097216,-0.0010812575928866863,0.0013161799870431423
1782969961019799000,1.013799072265625,0.0004495567991398275,-0.0010582990944385529,0.00041502236854285
1782969961029725200,1.02372509765625,-0.0012175820302218199,-0.002189609920606017,-0.004077996592968702
1782969961039651000,1.033651123046875,-0.000140712276333943,-0.0006769881583750248,-0.0013241595588624477
1782969961049578000,1.043577880859375,-0.0012661642394959927,0.0016234503127634525,0.0016585809644311666
1782969961059504000,1.053504150390625,-0.0007661005947738886,0.0014914358034729958,0.0017464675474911928
1782969961069430000,1.063429931640625,0.0028717773966491222,-0.0043478114530444145,0.0005823997780680656
1782969961079357200,1.073357177734375,0.0015126268845051527,-0.0005910373292863369,-0.0006413748487830162
1782969961089283000,1.083282958984375,0.00003830103378277272,-0.00000594044104218483,0.0017799711786210537
1782969961099210000,1.0932099609375,-0.002401521662250161,-0.0017596753314137459,0.0022193817421793938
1782969961109136100,1.10313623046875,0.001269113039597869,0.0019192155450582504,0.0011858090292662382
1782969961119062000,1.11306201171875,0.0004960502265021205,-0.0007436955347657204,0.0008465322898700833
1782969961128989000,1.122989013671875,0.0015599830076098442,-0.00021292734891176224,0.0013376191491261125
1782969961138915000,1.1329150390625,0.0015475406544283032,0.0016509294509887695,0.00040270830504596233
1782969961148842000,1.142842041015625,-0.0005374482134357095,0.0003076312132179737,0.0019012689590454102
1782969961158767900,1.152767822265625,-0.0003600275085773319,0.0019850735552608967,-0.0002244932111352682
1782969961168694000,1.162694091796875,0.0025904886424541473,-0.00028899963945150375,0.0009395744418725371
1782969961178621000,1.172620849609375,-0.000012464006431400776,0.0007342430762946606,-0.0007124223047867417
1782969961188547000,1.182547119140625,0.00033694272860884666,0.002726287581026554,0.00038639793638139963
1782969961198474000,1.192473876953125,-0.003170507261529565,0.0029145125299692154,0.001157025690190494
1782969961208400100,1.202400146484375,0.0007850858382880688,0.0010175430215895176,0.0012843249132856727
1782969961218326000,1.212325927734375,-0.0006858934066258371,0.00003304099664092064,-0.00021027668844908476
1782969961228253200,1.222253173828125,-0.0012888330966234207,-0.0005017220973968506,0.00034286186564713717
1782969961238179000,1.232178955078125,0.0005447083385661244,-0.0001476714387536049,0.0005005365237593651
1782969961248105000,1.24210498046875,-0.0022841012105345726,0.0004712468944489956,-0.0011708633974194527
1782969961258032000,1.2520322265625,0.00015724865079391748,0.0007660561241209507,-0.001377776963636279
1782969961267958000,1.2619580078125,-0.0008984283776953816,-0.0006275763735175133,-0.0011324998922646046
1782969961277885000,1.271885009765625,0.001226883614435792,-0.0008408250287175179,-0.0008684259955771267
1782969961287811000,1.28181103515625,0.0004702795995399356,-0.001985185081139207,-0.0011584442108869553
1782969961297737200,1.2917373046875,-0.001447644317522645,0.00023099500685930252,-0.0012197658652439713
1782969961307664100,1.3016640625,0.001277302042581141,0.00023658759891986847,-0.0026160613633692265
1782969961317590000,1.311590087890625,-0.0011962788412347436,0.0005301260389387608,-0.000442047487013042
1782969961327517000,1.321516845703125,0.00021413130161818117,0.0003298562951385975,0.0005811391165480018
1782969961337443000,1.331443115234375,0.00204729987308383,-0.0029759688768535852,-0.0006472972454503179
1782969961347369000,1.341368896484375,-0.0013628778979182243,0.00013939710333943367,0.002078448189422488
1782969961357296000,1.351296142578125,0.0007156634237617254,0.00020443135872483253,-0.0001340577146038413
1782969961367222300,1.36122216796875,0.0004983495455235243,-0.0000443081371486187,-0.0017359491903334856
1782969961377149400,1.3711494140625,0.0017238949658349156,-0.0006451006047427654,-0.0029096161015331745
1782969961387075300,1.381075439453125,0.0004639535036403686,-0.0006682700477540493,0.0012584973592311144
1782969961397001200,1.391001220703125,0.0016331899678334594,0.0005868133157491684,-0.004646430257707834
1782969961406928400,1.400928466796875,0.0016931110294535756,0.0010637850500643253,0.003967031370848417
1782969961416854300,1.410854248046875,-0.0008951856289058924,0.0008601592853665352,-0.0009230037103407085
1782969961426780200,1.4207802734375,0.00038046849658712745,0.0013118311762809753,0.000494596897624433
1782969961436707300,1.430707275390625,0.001126350020058453,-0.0018622330389916897,-0.0022751600481569767
1782969961446633200,1.44063330078125,0.0012427301844581962,0.0014829635620117188,0.0006774866487830877
1782969961456560400,1.450560302734375,0.002107328036800027,-0.0017511765472590923,-0.0009249193244613707
1782969961466486300,1.460486328125,0.0006234147003851831,-0.0010680756531655788,-0.00038216705434024334
1782969961476412400,1.470412353515625,-0.0011987527832388878,-0.0005236128345131874,0.0005975548410788178
1782969961486339300,1.48033935546875,-0.0015580131439492106,0.0025344952009618282,0.0034492677077651024
1782969961496265500,1.490265380859375,-0.0002183135220548138,0.002634123433381319,-0.0011755215236917138
1782969961506192400,1.5001923828125,-0.00018742085376288742,0.0011046701110899448,-0.0008535453816875815
1782969961516118300,1.5101181640625,0.0005777947371825576,0.0003570159897208214,0.0004031441640108824
1782969961526044400,1.52004443359375,-0.0012467369670048356,0.0007809912785887718,0.002136862138286233
1782969961535971300,1.529971435546875,0.0003440067230258137,-0.000980305951088667,0.00006946106441318989
1782969961545897200,1.539897216796875,0.0017722600605338812,-0.00023568607866764069,0.00022339180577546358
1782969961555824400,1.549824462890625,0.0007944383542053401,-0.00031082751229405403,-0.00038612831849604845
1782969961565750300,1.559750244140625,-0.0006391412462107837,0.000050030648708343506,-0.0020676483400166035
1782969961575676400,1.569676513671875,-0.0035285581834614277,0.0011997059918940067,0.0007678291294723749
1782969961585603300,1.579603271484375,-0.0010938963387161493,0.0023691002279520035,-0.0024583241902291775
1782969961595529200,1.589529296875,0.0013439612230286002,0.0006227078847587109,-0.0011125232558697462
1782969961605455400,1.599455322265625,0.000810796394944191,0.0010554715991020203,-0.001769791473634541
1782969961615382500,1.609382568359375,-0.0009804952424019575,-0.0005328347906470299,-0.001974701415747404
1782969961625308200,1.61930810546875,-0.001261725090444088,0.0010863668285310268,0.00045277003664523363
1782969961635235300,1.6292353515625,-0.0003430758079048246,-0.0010527530685067177,-0.001797104487195611
1782969961645161500,1.639161376953125,0.0001922195660881698,-0.0015259967185556889,0.001365399220958352
1782969961655087400,1.64908740234375,-0.0025201288517564535,-0.0003993576392531395,-0.0004615909419953823
1782969961665014300,1.65901416015625,-0.0014202434103935957,-0.00011360039934515953,-0.00008501997217535973
1782969961674940400,1.6689404296875,-0.000362326274625957,-0.00105314701795578,-0.0005789496353827417
1782969961684867300,1.678867431640625,-0.0024379941169172525,-0.0003881556913256645,-0.00032435148023068905
1782969961694793200,1.688793212890625,-0.0021461695432662964,-0.00010461965575814247,-0.000572141376323998
1782969961704719400,1.69871923828125,0.002737268805503845,-0.0009749410673975945,-0.0008384574903175235
1782969961714646300,1.708646240234375,-0.0010766474297270179,-0.0006231986917555332,0.0018623946234583855
1782969961724572400,1.718572509765625,0.001573730492964387,-0.0009358534589409828,0.001961996778845787
1782969961734498300,1.728498291015625,-0.00012854217493440956,0.0007211128249764442,-0.0007162376423366368
1782969961744425200,1.73842529296875,-0.00008886106661520898,0.001031903550028801,0.002359979785978794
1782969961754351400,1.748351318359375,0.00014527273015119135,-0.0022657890804111958,-0.0006433393573388457
1782969961764278500,1.758278564453125,-0.002093646675348282,0.001533476635813713,-0.0023038203362375498
1782969961774204200,1.7682041015625,-0.0008581210859119892,-0.0006055179983377457,-0.00400419719517231
1782969961784130300,1.77813037109375,0.0006593480939045548,-0.0012614543084055185,0.004274771548807621
1782969961794057500,1.788057373046875,-0.001734012272208929,0.001676502637565136,0.003120223293080926
1782969961803983400,1.7979833984375,0.0012343470007181168,0.0018173842690885067,0.00033535563852638006
1782969961813910300,1.80791015625,-0.003250874811783433,-0.00013276049867272377,0.0003956441069021821
1782969961823836400,1.81783642578125,0.0007696993416175246,-0.0006241137161850929,-0.0008336710743606091
1782969961833762300,1.82776220703125,0.0013922740472480655,-0.0007224371656775475,0.0008639427833259106
1782969961843689500,1.837689453125,0.0006913300603628159,-0.0023288559168577194,-0.0019752532243728638
1782969961853615400,1.847615478515625,0.000290749070700258,0.003991045989096165,-0.0006406712345778942
1782969961863542300,1.857542236328125,-0.0005643919575959444,-0.0016274251975119114,-0.000857452570926398
1782969961873468400,1.867468505859375,0.0013939953641965985,-0.0004272870719432831,0.0003152337158098817
1782969961883394300,1.877394287109375,-0.0006608996773138642,-0.00019985344260931015,-0.00038251455407589674
1782969961893321200,1.8873212890625,0.0009575855801813304,-0.002220804337412119,0.002617314923554659
1782969961903247400,1.897247314453125,0.0004369376110844314,0.001022926066070795,-0.0027960927691310644
1782969961913173500,1.907173583984375,0.0009686598787084222,0.0018927855417132378,-0.0037215277552604675
1782969961923100200,1.91710009765625,-0.0008880960522219539,0.0014072912745177746,0.0004031761782243848
1782969961933026300,1.9270263671875,-0.0005232878029346466,0.00039723142981529236,-0.0009358726092614233
1782969961942953500,1.936953369140625,-0.00015204315423034132,0.0016838046722114086,-0.000664230203256011
1782969961952879400,1.94687939453125,-0.0007469063857570291,0.0011506066657602787,0.0009742989204823971
1782969961962805200,1.95680517578125,-0.0011293364223092794,0.0009641852229833603,-0.00134345015976578
1782969961972732400,1.966732421875,0.0018585717771202326,-0.0001402534544467926,0.000803327071480453
1782969961982658300,1.976658203125,-0.0010072558652609587,-0.0010345429182052612,0.0011023998958989978
1782969961992585500,1.98658544921875,-0.0012534124543890357,-0.0020651412196457386,0.0006832240615040064
1782969962002511400,1.996511474609375,0.0011277198791503906,0.0005737850442528725,0.0006856208201497793
1782969962012437200,2.006437255859375,0.0002917824313044548,-0.0012832763604819775,-0.0005420197267085314
1782969962022364400,2.016364501953125,-0.0020472719334065914,0.0013399370945990086,0.0006643921369686723
1782969962032290300,2.026290283203125,-0.0002589613141026348,-0.0019485927186906338,-0.0007966674165800214
1782969962042217200,2.03621728515625,-0.001966047566384077,-0.0031621952075511217,0.00042785401456058025
1782969962052143400,2.046143310546875,-0.00034090838744305074,0.0021875351667404175,-0.00003880145959556103
1782969962062069500,2.056069580078125,-0.0026437437627464533,0.0014911182224750519,-0.0019533480517566204
1782969962071996400,2.065996337890625,-0.0024459934793412685,0.0015114787966012955,-0.00036329939030110836
1782969962081922300,2.07592236328125,-0.0006800513947382569,-0.0016981628723442554,0.0021376751828938723
1782969962091848400,2.085848388671875,0.0018898092675954103,0.0009867842309176922,-0.0008407615241594613
1782969962101775400,2.095775390625,-0.0014663063921034336,0.0008712029084563255,0.00027563562616705894
1782969962111701200,2.105701171875,-0.000548882526345551,0.0001253611408174038,-0.00016501103527843952
1782969962121628200,2.115628173828125,-0.001943579874932766,-0.0009409687481820583,0.00013858929742127657
1782969962131554300,2.12555419921875,-0.0029571126215159893,-0.002335409866645932,0.0010215472429990768
1782969962141480400,2.13548046875,0.0019992964807897806,0.0015328316949307919,0.002157917944714427
1782969962151407400,2.145407470703125,-0.00047139034722931683,0.000646570697426796,-0.00012982322368770838
1782969962161333200,2.155333251953125,-0.0003827070468105376,0.00038478197529911995,-0.001851024222560227
1782969962171260400,2.165260498046875,-0.0011513628996908665,0.002314857207238674,0.0001333324471488595
1782969962181186600,2.1751865234375,-0.001491448492743075,-0.001235402887687087,0.0021051368676126003
1782969962191112200,2.1851123046875,0.00006127437518443912,-0.001333687687292695,-0.0025144380051642656
1782969962201039400,2.195039306640625,0.000777132052462548,-0.001592546934261918,0.0006198363844305277
1782969962210965500,2.204965576171875,0.00006705497798975557,0.0004886314272880554,-0.002033613622188568
1782969962220891100,2.21489111328125,0.0009727960568852723,-0.0002743639051914215,-0.001804848201572895
1782969962230818300,2.224818359375,-0.0022165989503264427,0.00006793113425374031,-0.003322149394080043
1782969962240744400,2.234744384765625,0.0011272663250565529,-0.000945401843637228,0.002937877085059881
1782969962250671400,2.24467138671875,0.0006315541686490178,-0.00014456920325756073,-0.00010904064401984215
1782969962260597200,2.25459716796875,0.000222226299229078,-0.001692398451268673,-0.0012275682529434562
1782969962270523400,2.2645234375,-0.0019067947287112474,0.00009267404675483704,-0.0019073460716754198
1782969962280450300,2.2744501953125,-0.0008551124483346939,0.0006601936183869839,-0.0018559470772743225
1782969962290376400,2.28437646484375,-0.0017928099259734154,-0.0012558186426758766,0.0006960300961509347
1782969962300303000,2.29430322265625,-0.0033630095422267914,0.002285386435687542,-0.00034792907536029816
1782969962310229200,2.304229248046875,0.0002752679865807295,0.0007399879395961761,0.0008972662035375834
1782969962320155400,2.3141552734375,0.00008325405360665172,-0.0009034485556185246,0.0005720942281186581
1782969962330082300,2.324082275390625,-0.00005457934457808733,0.0025567421689629555,0.0010371915996074677
1782969962340008200,2.33400830078125,0.00112173892557621,0.0007473905570805073,-0.0007692306535318494
1782969962349934300,2.343934326171875,-0.00042639250750653446,0.00030389009043574333,-0.0007186704315245152
1782969962359861200,2.353861328125,0.0013802959583699703,-0.00020743673667311668,0.00042142882011830807
1782969962369787000,2.363786865234375,0.0000979667529463768,0.0017134668305516243,-0.0001661247806623578
1782969962379714000,2.373714111328125,0.0002883827546611428,0.0011914875358343124,0.0001939345384016633
1782969962389640200,2.38364013671875,0.0006001306464895606,-0.0016602000687271357,0.000007063266821205616
1782969962399565800,2.39356591796875,0.00007415634900098667,-0.00007774960249662399,0.00010107283014804125
1782969962409493000,2.403492919921875,-0.0012601603521034122,0.0002762526273727417,-0.0020213185343891382
1782969962419419100,2.413419189453125,0.0019582698587328196,0.0006381762214004993,-0.00016562792006880045
1782969962429346000,2.423345947265625,-0.0005146543844603002,-0.0003030584193766117,-0.0014474972849711776
1782969962439272000,2.43327197265625,-0.0013120047515258193,0.0007536839693784714,-0.0011729253455996513
1782969962449198000,2.443197998046875,0.0013725957833230495,0.0006644600071012974,0.00307833100669086
1782969962459125000,2.453125,-0.0016623425763100386,0.0011630039662122726,-0.0019537117332220078
1782969962469051100,2.463051025390625,0.0014018018264323473,0.00030908314511179924,0.0011273655109107494
1782969962478978000,2.47297802734375,0.0006678347126580775,-0.0009726961143314838,0.0005731617566198111
1782969962488904000,2.482904052734375,-0.0003713314072228968,0.0012586358934640884,0.00310516613535583
1782969962498830000,2.492830078125,0.001421774853952229,0.0008756732568144798,-0.0004541486268863082
1782969962508757000,2.502757080078125,-0.0008051525219343603,-0.0006302990950644016,0.0012416245881468058
1782969962518683000,2.512682861328125,-0.0011721361661329865,0.0024938550777733326,-0.0016210072208195925
1782969962528609000,2.522609130859375,0.00028951041167601943,-0.0010187276639044285,0.0013975320616737008
1782969962538536200,2.5325361328125,0.0010008406825363636,-0.0005433536134660244,0.00007420731708407402
1782969962548462000,2.542462158203125,-0.000760472088586539,0.0007610432803630829,-0.000013077864423394203
1782969962558389000,2.552388916015625,0.0005165136535651982,0.000509907491505146,0.00015709816943854094
1782969962568315100,2.562315185546875,0.0006945662316866219,0.0009962529875338078,0.000907573034055531
1782969962578241000,2.572240966796875,-0.001661532325670123,-0.002130298176780343,0.002047139685600996
1782969962588168200,2.582168212890625,0.0008977308752946556,-0.001544116996228695,-0.0006605710368603468
1782969962598094000,2.592093994140625,-0.0020003211684525013,0.002243697177618742,-0.0006152972928248346
1782969962608021000,2.60202099609375,-0.004333626478910446,0.001832472626119852,-0.0019924885127693415
1782969962617947100,2.611947021484375,0.004421249032020569,-0.0009313561022281647,0.001335131237283349
1782969962627873000,2.621873046875,0.0013035222655162215,-0.0005389130674302578,-0.0012606327654793859
1782969962637800000,2.631800048828125,0.00012241025979164988,-0.0005074874497950077,0.00007574143819510937
1782969962647726000,2.64172607421875,0.0012108776718378067,-0.0010358602739870548,-0.0027572568506002426
1782969962657652200,2.65165234375,0.000316588266286999,0.0007852092385292053,-0.0005108803743496537
1782969962667579000,2.661578857421875,-0.0024532624520361423,-0.0008338019251823425,0.00018380198162049055
1782969962677505000,2.671505126953125,-0.0020854799076914787,0.0008045751601457596,0.0006559804314747453
1782969962687432000,2.681431884765625,-0.0014299487229436636,-0.0005904561839997768,0.0022843978367745876
1782969962697358000,2.691358154296875,-0.002139947609975934,0.0016724318265914917,-0.0020131454803049564
1782969962707284000,2.701283935546875,0.0016769880894571543,-0.002456928137689829,-0.00012612552382051945
1782969962717211100,2.711211181640625,0.00026098539819940925,-0.0004632859490811825,0.0015455406391993165
1782969962727137000,2.721136962890625,-0.000973873189650476,0.00039971619844436646,0.00037629553116858006
1782969962737064200,2.731064208984375,0.0011939399410039186,-0.0034261811524629593,0.0013803072506561875
1782969962746990000,2.740989990234375,-0.001127020106650889,-0.00003343448042869568,-0.0019711717031896114
1782969962756916000,2.750916015625,0.0013443933567032218,-0.0009208000265061855,0.0005718807224184275
1782969962766843100,2.760843017578125,-0.0006920930463820696,0.001951572485268116,-0.00020930881146341562
1782969962776769000,2.77076904296875,-0.0022758750710636377,0.0007219910621643066,-0.0006724325940012932
1782969962786695000,2.78069482421875,-0.0010399665916338563,-0.00017520040273666382,-0.00032573076896369457
1782969962796622000,2.7906220703125,-0.0005707177333533764,-0.0010441900230944157,0.0014330206904560328
1782969962806548200,2.80054833984375,0.0003730056923814118,0.003216254524886608,0.0008352571167051792
1782969962816475100,2.81047509765625,0.0004321278538554907,-0.001029889564961195,0.0032582010608166456
1782969962826401000,2.820401123046875,0.0006142901256680489,-0.0007341359741985798,-0.0013890722766518593
1782969962836327200,2.8303271484375,0.000475006818305701,-0.0015591832343488932,-0.0005898576346226037
1782969962846254000,2.840254150390625,0.0003767715534195304,-0.00038970960304141045,-0.0019919676706194878
1782969962856180000,2.850179931640625,0.001143229310400784,-0.000004083849489688873,0.0002741161733865738
1782969962866107000,2.86010693359375,-0.0014368760166689754,-0.0013418898452073336,-0.0005381546216085553
1782969962876033000,2.870032958984375,-0.0030323758255690336,0.00008822791278362274,0.0002727779792621732
1782969962885959200,2.879959228515625,0.0006242985255084932,0.001999029889702797,-0.0004101814702153206
1782969962895885800,2.8898857421875,0.0002730275737121701,0.0014000851660966873,-0.0013958173803985119
1782969962905812000,2.89981201171875,-0.0006477058632299304,-0.0031484554056078196,-0.0011792134027928114
1782969962915738000,2.909738037109375,0.0005672282422892749,0.0014710640534758568,0.0020069926977157593
1782969962925665000,2.9196650390625,0.0015148086240515113,-0.00033181486651301384,-0.0011404280085116625
1782969962935591000,2.9295908203125,-0.0013294473756104708,-0.0003366083838045597,0.0005600004224106669
1782969962945518000,2.93951806640625,0.00015013327356427908,-0.0007322253659367561,0.0010959523497149348
1782969962955444200,2.9494443359375,-0.0023713475093245506,-0.0015847033355385065,-0.0014108811737969518
1782969962965369900,2.959369873046875,0.0016023523639887571,0.0002724844962358475,-0.0008549510384909809
1782969962975297000,2.969297119140625,-0.001745241112075746,-0.00032938970252871513,-0.00008369958959519863
1782969962985223200,2.97922314453125,0.0013728577177971601,-0.0008472795598208904,-0.0008990418282337487
1782969962995150000,2.989150146484375,0.0014919009990990162,-0.0007799016311764717,-0.0013331370428204536
1782969963005076000,2.999075927734375,-0.0008006392745301127,-0.0006452915258705616,0.00141328782774508
1782969963015002000,3.009002197265625,-0.0011889281449839473,0.002395505551248789,-0.0018442908767610788
1782969963024929000,3.018928955078125,0.0015392116038128734,0.0011608186177909374,-0.0008245377102866769
1782969963034855200,3.028855224609375,-0.0004501696676015854,-0.0023103454150259495,0.0022101341746747494
1782969963044781800,3.03878173828125,0.0021044949535280466,-0.00010785926133394241,0.0015995866851881146
1782969963054708000,3.0487080078125,-0.0007006125524640083,-0.00026285508647561073,-0.0035728048533201218
1782969963064634000,3.058634033203125,-0.000583728076890111,-0.0002638110890984535,-0.00296064093708992
1782969963074561000,3.06856103515625,-0.00013525172835215926,0.001433687750250101,-0.0012080147862434387
1782969963084487000,3.07848681640625,-0.0006663608364760876,0.000572883989661932,-0.0011084852740168571
1782969963094413000,3.0884130859375,0.0012881329748779535,-0.0017555179074406624,0.002104884944856167
1782969963104340000,3.098340087890625,-0.0004909699782729149,-0.0010838955640792847,0.002238023793324828
1782969963114266000,3.10826611328125,0.00019585929112508893,0.0017345277592539787,-0.000552968995179981
1782969963124193000,3.118193115234375,-0.0008844906697049737,0.0025861840695142746,-0.0015105610946193337
1782969963134119000,3.128118896484375,-0.00003920329618267715,0.0015278439968824387,-0.0003635376924648881
1782969963144045000,3.138045166015625,-0.0007034213049337268,-0.0012993051204830408,-0.0013758325949311256
1782969963153972200,3.14797216796875,0.0007293593371286988,0.0003641052171587944,0.00035202631261199713
1782969963163898000,3.157898193359375,0.000563506968319416,-0.0030116497073322535,-0.00002071226481348276
1782969963173825000,3.167824951171875,0.0025989608839154243,-0.000369527842849493,-0.0009301818208768964
1782969963183751200,3.177751220703125,-0.0020766262896358967,0.0007995548658072948,-0.00032032025046646595
1782969963193677000,3.187677001953125,-0.0011716842418536544,-0.0009999433532357216,-0.0012550897663459182
1782969963203604000,3.19760400390625,0.0016363989561796188,-0.003529964480549097,0.000665025319904089
1782969963213530000,3.207530029296875,0.00040948064997792244,-0.003249533474445343,0.0032610748894512653
1782969963223456300,3.217456298828125,-0.002365299267694354,0.0005811559967696667,0.003744682762771845
1782969963233383000,3.2273828125,0.001569787273183465,0.0015449542552232742,-0.0002758916234597564
1782969963243309000,3.23730908203125,0.000023854110622778535,0.00006124656647443771,0.0021273386664688587
1782969963253236000,3.247236083984375,-0.0016044025542214513,-0.0001283707097172737,0.000015185796655714512
1782969963263162000,3.257162109375,-0.0000192778097698465,-0.002153011504560709,0.0014248667284846306
1782969963273088000,3.267087890625,-0.0004997120704501867,-0.0019335669931024313,0.0019814674742519855
1782969963283015000,3.277014892578125,-0.0003049977240152657,-0.001386811025440693,-0.0026593413203954697
1782969963292941000,3.286941162109375,-0.00033509143395349383,-0.0003063664771616459,0.0010517736664041877
1782969963302868200,3.2968681640625,0.0006081796018406749,-0.0010807779617607594,0.0023055823985487223
1782969963312793900,3.3067939453125,-0.00229866080917418,0.00034907320514321327,-0.0013884883373975754
1782969963322720000,3.316719970703125,0.0010136525379493833,-0.0014678665902465582,-0.00033136841375380754
1782969963332647200,3.326647216796875,-0.00039569230284541845,-0.0006936858408153057,-0.0005241812323220074
1782969963342572800,3.33657275390625,-0.0032017379999160767,-0.0005401931703090668,-0.00041128258453682065
1782969963352499000,3.3464990234375,0.0018846334423869848,-0.0018579254392534494,0.0010563854593783617
1782969963362426400,3.35642626953125,-0.00027069865609519184,-0.0012836228124797344,0.00014952011406421661
1782969963372352300,3.366352294921875,0.0004153316549491137,-0.0004394007846713066,0.0002866728464141488
1782969963382279400,3.376279541015625,0.0015102149918675423,-0.0010200999677181244,-0.0002184646436944604
1782969963392205300,3.386205322265625,0.00004494367749430239,-0.001403328962624073,-0.0011183468159288168
1782969963402131200,3.396131103515625,0.0020568794570863247,-0.0007748403586447239,0.0016529157292097807
1782969963412058400,3.406058349609375,-0.0008928378811106086,0.0004376969300210476,-0.000010228483006358147
1782969963421984300,3.415984375,0.0010244068689644337,-0.002834082581102848,0.00012911052908748388
1782969963431911200,3.4259111328125,0.00004010254633612931,0.0010080598294734955,0.00048038153909146786
1782969963441837300,3.43583740234375,-0.00038589289761148393,-0.00047244736924767494,0.0006599492626264691
1782969963451763500,3.445763427734375,0.002093510003760457,-0.0034418716095387936,0.000798433437012136
1782969963461690000,3.455690185546875,0.0008826497360132635,-0.0018612497951835394,-0.0011528042377904058
1782969963471616300,3.4656162109375,-0.0011125904275104403,-0.0015949336811900139,0.0005689294775947928
1782969963481542400,3.47554248046875,0.0006109286332502961,0.001593475230038166,-0.0007038112380541861
1782969963491469300,3.48546923828125,-0.0016285235760733485,-0.0015578435268253088,-0.00041645619785413146
1782969963501395200,3.495395263671875,-0.0018159953178837895,-0.00022242125123739243,-0.0009547222871333361
1782969963511322400,3.505322265625,0.0003723241970874369,0.001826082356274128,0.00007698626723140478
1782969963521248300,3.515248291015625,0.00023339036852121353,-0.0005464809946715832,0.001125237438827753
1782969963531174100,3.525174072265625,0.0008653585100546479,-0.00032517220824956894,-0.0002177947899326682
1782969963541101300,3.535101318359375,0.002318107057362795,-0.0002862634137272835,0.0006471028318628669
1782969963551027200,3.545027099609375,-0.0009181661298498511,0.0007449123077094555,0.0004668068140745163
1782969963560954400,3.554954345703125,-0.0006872480153106153,0.00007315492257475853,0.00034962675999850035
1782969963570880300,3.56488037109375,-0.0011535674566403031,0.0010862215422093868,-0.0013521331129595637
1782969963580806100,3.57480615234375,0.0009956613648682833,0.0011278162710368633,-0.0008998638950288296
1782969963590733300,3.5847333984375,0.001774369738996029,-0.0012775505892932415,0.001262090285308659
1782969963600659500,3.594659423828125,-0.0009870667709037662,0.0005330368876457214,0.00003531831316649914
1782969963610585000,3.604585205078125,0.0015008582267910242,-0.00010345876216888428,0.0016246929299086332
1782969963620512300,3.61451220703125,-0.0006436481489799917,0.002558068372309208,-0.002700373064726591
1782969963630438400,3.6244384765625,-0.0020404760725796223,-0.0007495777681469917,0.004242754075676203
1782969963640365300,3.634365234375,-0.0018216208554804325,-0.0022212285548448563,-0.0006626417161896825
1782969963650291200,3.644291259765625,0.0018902929732576013,0.00047708628699183464,0.00010035396553575993
1782969963660217300,3.65421728515625,0.0013155394699424505,-0.0006622467190027237,-0.0004165613790974021
1782969963670144300,3.664144287109375,0.00024388350720982999,-0.0004047187976539135,-0.0015537311555817723
1782969963680070400,3.6740703125,0.002084100153297186,-0.0002843705005943775,-0.0003982711932621896
1782969963689997300,3.683997314453125,0.0013224361464381218,-0.0016686816234141588,0.004293153528124094
1782969963699923200,3.693923095703125,-0.0011053798953071237,0.0009851218201220036,0.0020689330995082855
1782969963709849300,3.703849365234375,-0.001871038693934679,-0.001991759752854705,0.0003181711072102189
1782969963719776500,3.713776611328125,-0.0033182480838149786,-0.001178643200546503,0.000905529479496181
1782969963729702100,3.7237021484375,0.0015012744115665555,-0.00012376531958580017,0.0023598819971084595
1782969963739628300,3.733628173828125,-0.0011973802465945482,-0.0012000533752143383,-0.0016533108428120613
1782969963749555500,3.743555419921875,-0.00010867996024899185,0.0018849526531994343,-0.00014995643869042397
1782969963759481000,3.753481201171875,-0.00014376171748153865,-0.0004570898599922657,0.0014267978258430958
1782969963769408300,3.763408203125,0.00040804524905979633,0.0017251046374440193,-0.0016006836667656898
1782969963779334400,3.77333447265625,-0.00029108996386639774,0.000918947160243988,0.0018889494240283966
1782969963789260300,3.78326025390625,0.000138744231662713,0.0008984408341348171,-0.0004514364409260452
1782969963799187200,3.793187255859375,0.00030434917425736785,0.0003812410868704319,0.002026583533734083
1782969963809113300,3.80311328125,0.0002564122842159122,0.0013469033874571323,0.00023720553144812584
1782969963819040300,3.813040283203125,-0.000008091272320598364,-0.0007989606820046902,-0.0006288420991040766
1782969963828966400,3.82296630859375,-0.0023607276380062103,-0.002702321857213974,-0.000502075650729239
1782969963838892300,3.832892333984375,-0.000778969086240977,-0.0012946734204888344,-0.0007131932070478797
1782969963848819200,3.842819091796875,0.0011419691145420074,0.0011005736887454987,0.0010253184009343386
1782969963858745300,3.852745361328125,-0.0008822674280963838,-0.001413341611623764,0.00017462996765971184
1782969963868671200,3.862671142578125,-0.0011427246499806643,0.0005478104576468468,0.0012231164146214724
1782969963878598100,3.87259814453125,0.001409632503055036,-0.0011667944490909576,0.0004949326394125819
1782969963888524300,3.882524169921875,-0.0009962671902030706,-0.0021468380000442266,-0.0005152043304406106
1782969963898451500,3.892451416015625,-0.0024105447810143232,-0.0020766411907970905,-0.0003056593704968691
1782969963908377300,3.90237744140625,-0.0005215646233409643,-0.0006593069992959499,0.0020541674457490444
1782969963918303200,3.91230322265625,-0.0008795527974143624,0.001091750804334879,-0.00099942518863827
1782969963928230400,3.92223046875,0.0016485860105603933,0.001269649714231491,0.0010602637194097042
1782969963938156300,3.93215625,0.0006349668838083744,-0.002720378339290619,-0.0014103547437116504
1782969963948082200,3.942082275390625,-0.0009570707916282117,-0.0007022349163889885,0.0005278938915580511
1782969963958009300,3.95200927734375,0.0005743351066485047,-0.001223463099449873,-0.0008978686528280377
1782969963967935200,3.961935302734375,0.0017181627918034792,0.00008388236165046692,-0.0006145082879811525
1782969963977862400,3.9718623046875,-0.0007479168125428259,-0.0020477743819355965,-0.00005052413325756788
1782969963987786200,3.9817861328125,0.0006744775455445051,-0.0018613531719893217,-0.000794877705629915
1782969963997713400,3.99171337890625,-0.0022337352856993675,0.0001858077012002468,-0.0007566302083432674
1782969964007639300,4.001639404296875,-0.0005884342826902866,0.002033775206655264,0.001452461932785809
1782969964017566200,4.011566162109375,-0.0011329397093504667,0.00014101900160312653,-0.0014892930630594492
1782969964027492400,4.021492431640625,0.0038594219367951155,-0.002549039898440242,0.001784264575690031
1782969964037418200,4.031418212890625,0.0019775403197854757,-0.0019445333164185286,-0.0002645929343998432
1782969964047345400,4.041345458984375,0.0005902997218072414,0.00008186604827642441,-0.0007729903445579112
1782969964057271300,4.051271240234375,-0.0014471817994490266,-0.0013580999802798033,0.0024450330529361963
1782969964067198200,4.0611982421875,-0.00014329822442959994,-0.00028617773205041885,-0.0004828462842851877
1782969964077124400,4.071124267578125,-0.0022632114123553038,0.0007783779874444008,0.0009684013202786446
1782969964087050200,4.08105029296875,0.0011158074485138059,-0.0034057144075632095,-0.0011642579920589924
1782969964096977200,4.09097705078125,0.0003423956222832203,0.0017664157785475254,0.001215549767948687
1782969964106903300,4.1009033203125,-0.0014022411778569221,0.0004478846676647663,-0.0038628322072327137
1782969964116829400,4.110829345703125,0.002570932498201728,-0.0012855080422013998,0.0019030619878321886
1782969964126756000,4.120756103515625,-0.0004371079267002642,-0.002419748343527317,0.0011818779166787863
1782969964136682200,4.13068212890625,-0.0023175834212452173,-0.0007829265668988228,0.00037952233105897903
1782969964146609400,4.140609375,-0.0006275415071286261,0.0006519844755530357,0.0003880445146933198
1782969964156535300,4.150535400390625,-0.0010661018313840032,0.000511685386300087,-0.000397898955270648
1782969964166461200,4.160461181640625,0.0038301197346299887,-0.0013272273354232311,0.0023403633385896683
1782969964176388400,4.170388427734375,-0.001263415557332337,0.0006650350987911224,0.0017223719041794538
1782969964186314200,4.180314208984375,0.0004316865233704448,-0.0009941142052412033,-0.0018955324776470661
1782969964196241400,4.190241455078125,0.0011368567356839776,-0.0015244141686707735,-0.00041938730282709
1782969964206167300,4.200167236328125,-0.00007594683847855777,0.00015151314437389374,-0.0018220742931589484
1782969964216093200,4.21009326171875,-0.0011291659902781248,0.0011273627169430256,0.0008730982663109899
1782969964226020400,4.220020263671875,-0.001067380653694272,-0.0013509748969227076,0.0021037450060248375
1782969964235946200,4.2299462890625,-0.0003491450916044414,-0.00034985365346074104,0.0007349491352215409
1782969964245872400,4.239872314453125,-0.0011462292168289423,-0.0005155024118721485,0.0015618606703355908
1782969964255799300,4.24979931640625,-0.0011005972046405077,0.0006217802874743938,0.0004931458970531821
1782969964265725400,4.259725341796875,-0.0012899478897452354,0.0010401629842817783,0.00317628076300025
1782969964275652400,4.26965234375,-0.002449661260470748,0.00272458977997303,-0.0003110365942120552
1782969964285578200,4.279578125,0.0006888741045258939,-0.0014752147253602743,-0.0013968073762953281
1782969964295504400,4.28950439453125,-0.0020062699913978577,0.0002993927337229252,0.0008721573976799846
1782969964305431300,4.299431396484375,-0.0013197067892178893,-0.0016460465267300606,0.002591228112578392
1782969964315357200,4.309357177734375,0.0003046459169127047,-0.000610746443271637,-0.0007827449589967728
1782969964325284400,4.319284423828125,-0.0005286572268232703,0.001020706258714199,-0.002222982468083501
1782969964335210200,4.329210205078125,0.00009437440894544125,0.0016667740419507027,0.0010830680839717388
1782969964345136400,4.339136474609375,-0.0002984418533742428,-0.000332727562636137,0.00043112633284181356
1782969964355063300,4.349063232421875,0.0015081020537763834,-0.0014821006916463375,-0.0017839536303654313
1782969964364989200,4.3589892578125,-0.0007318826974369586,-0.00030018994584679604,0.0011553772492334247
1782969964374915300,4.368915283203125,0.000856537080835551,-0.000037701334804296494,-0.0006206128164194524
1782969964384842500,4.378842529296875,0.0008315033628605306,-0.002175687113776803,0.0012566494988277555
1782969964394770400,4.3887705078125,0.00039047564496286213,0.0015132981352508068,0.002716988790780306
1782969964404696300,4.3986962890625,-0.0015613550785928965,-0.00029472215101122856,-0.00006574811413884163
1782969964414623200,4.408623291015625,-0.0017822004156187177,-0.0013555269688367844,0.0014364896342158318
1782969964424549400,4.41854931640625,-0.0011936418013647199,-0.0011829542927443981,0.0014921496622264385
1782969964434475500,4.4284755859375,0.0007155271014198661,-0.0004904181696474552,0.002137781586498022
1782969964444402200,4.438402099609375,0.0015882449224591255,-0.0009255786426365376,0.002030456205829978
1782969964454328300,4.448328369140625,-0.0006759957177564502,-0.0020973701030015945,0.0017524500144645572
1782969964464255200,4.458255126953125,0.0005804836982861161,-0.00024514133110642433,-0.0006987234810367227
1782969964474181400,4.468181396484375,0.000654415343888104,-0.0010799653828144073,-0.0004394171410240233
1782969964484107300,4.478107177734375,0.00025707166059874,0.0003296458162367344,0.001137973042204976
1782969964494034200,4.4880341796875,-0.0006244484102353454,0.000183038879185915,0.0032771900296211243
1782969964503960300,4.497960205078125,-0.0035430067218840122,0.0015684152022004128,-0.0005060967523604631
1782969964513886500,4.507886474609375,-0.0006389939226210117,-0.0020662229508161545,0.0027486360631883144
1782969964523813000,4.517813232421875,-0.0009298111544921994,-0.0012025600299239159,0.0007509993156418204
1782969964533739300,4.5277392578125,0.0011702438350766897,-0.00026314752176404,-0.001902151620015502
1782969964543666400,4.53766650390625,0.0004988610744476318,-0.0012256139889359474,-0.0005732342251576483
1782969964553592300,4.54759228515625,-0.0010938092600554228,0.002391904592514038,-0.00020687736105173826
1782969964563518200,4.557518310546875,-0.00002428381412755698,0.001146078109741211,-0.0005757252220064402
1782969964573445400,4.5674453125,-0.0015607330715283751,-0.0015662789810448885,0.002304036868736148
1782969964583371500,4.57737158203125,0.0015333275077864528,-0.0011561522260308266,0.003176222089678049
1782969964593298400,4.58729833984375,0.0006255322368815541,0.00006332062184810638,0.0005724808434024453
1782969964603224300,4.597224365234375,-0.004353779833763838,0.0015456359833478928,-0.0003979750326834619
1782969964613150500,4.607150390625,-0.0034594107419252396,0.00021430477499961853,0.001901051844470203
1782969964623077400,4.617077392578125,0.0018109851516783237,-0.00021446449682116508,0.0002688004169613123
1782969964633003300,4.627003173828125,-0.0008897867519408464,-0.0011565061286091805,0.000525878625921905
1782969964642929400,4.636929443359375,0.002487634075805545,0.0025530108250677586,0.00014424766413867474
1782969964652856300,4.646856201171875,-0.0030968706123530865,-0.0017886103596538305,0.0017945084255188704
1782969964662782500,4.656782470703125,-0.0020105671137571335,0.00038745859637856483,0.000007261056452989578
1782969964672709000,4.666709228515625,-0.00004697081749327481,0.0014062453992664814,0.001723799156025052
1782969964682635300,4.67663525390625,0.00041881605284288526,0.0007271389476954937,-0.00010446098167449236
1782969964692561400,4.6865615234375,0.0007079608039930463,0.00032871728762984276,-0.00038258166750892997
1782969964702488300,4.69648828125,-0.002092353068292141,-0.000028146430850028992,-0.0008547601173631847
1782969964712414200,4.706414306640625,0.001757041784003377,-0.00016663456335663795,0.0007457999745383859
1782969964722341400,4.71634130859375,0.0001631398918107152,0.0020275437273085117,0.0012840247945860028
1782969964732267300,4.726267333984375,0.0014572414802387357,-0.0012737782672047615,0.0017804719973355532
1782969964742193200,4.736193115234375,-0.0003603659279178828,-0.00022236257791519165,-0.000314636854454875
1782969964752120300,4.746120361328125,-0.0005767972907051444,-0.0020351929124444723,0.00209910050034523
1782969964762046500,4.75604638671875,0.00029512165929190814,-0.00016352348029613495,0.000025829533115029335
1782969964771972400,4.765972412109375,-0.002694446127861738,0.0000903615728020668,-0.00025530927814543247
1782969964781899300,4.775899169921875,-0.0013636646326631308,-0.0006569214165210724,0.0008243361953645945
1782969964791825400,4.785825439453125,-0.0005495712975971401,0.00003089103847742081,0.00223745871335268
1782969964801752300,4.79575244140625,-0.001480346079915762,0.0005318312905728817,-0.00014154298696666956
1782969964811678500,4.805678466796875,-0.001532678259536624,0.00274265231564641,-0.00034612498711794615
1782969964821604400,4.815604248046875,-0.0003158799954690039,-0.001697370084002614,0.0005239297170192003
1782969964831531300,4.82553125,-0.00138679682277143,0.002235447522252798,0.0012778688687831163
1782969964841457400,4.83545751953125,0.0010103144450113177,-0.0003688577562570572,0.0012879888527095318
1782969964851384300,4.84538427734375,0.00040678586810827255,-0.000750324223190546,0.00110722950194031
1782969964861310200,4.855310302734375,-0.0006771206972189248,-0.0006107743829488754,-0.0005215598503127694
1782969964871236400,4.865236328125,-0.0006056185811758041,-0.0003149113617837429,0.0018414398655295372
1782969964881163300,4.875163330078125,0.00037176156183704734,-0.001073912251740694,-0.0004752440145239234
1782969964891089400,4.88508935546875,-0.0013349258806556463,0.0006709028966724873,-0.00035793858114629984
1782969964901015300,4.895015380859375,-0.0005125417374074459,-0.0007746610790491104,0.00027536111883819103
1782969964910942200,4.904942138671875,-0.0006506642093881965,-0.00008445093408226967,0.0007662670686841011
1782969964920868400,4.914868408203125,0.00022764632012695074,0.0004505780525505543,0.00037424976471811533
1782969964930795500,4.92479541015625,-0.0016921637579798698,0.0006775176152586937,0.002222551265731454
1782969964940721200,4.93472119140625,-0.000004252307917340659,0.0005377014167606831,-0.000788152392487973
1782969964950647300,4.944647216796875,0.00045034405775368214,0.0014871396124362946,-0.00008807855192571878
1782969964960574500,4.954574462890625,0.0006841695867478848,-0.0003983783535659313,0.00036599033046513796
1782969964970500400,4.964500244140625,0.0003677628992591053,-0.000818226020783186,0.003102516755461693
1782969964980427300,4.97442724609375,-0.0015529087977483869,0.0006811339408159256,-0.0008956868550740182
1782969964990353400,4.984353515625,-0.0005514590884558856,-0.0014919140376150608,0.0015091495588421822
1782969965000279600,4.994279541015625,-0.0014438843354582787,0.00011849915608763695,0.0005839674267917871
1782969965010206200,5.004206298828125,-0.0028662793338298798,0.0014168438501656055,0.0010053705191239715
1782969965020132400,5.01413232421875,-0.002575462218374014,-0.0022857491858303547,0.0009252094896510243
1782969965030058500,5.02405859375,-0.00044328649528324604,-0.0004857196472585201,0.0031557867769151926
1782969965039985400,5.0339853515625,-0.0017959061078727245,-0.00042473338544368744,-0.000247200601734221
1782969965049911300,5.043911376953125,-0.00014449928130488843,0.0007808920927345753,0.002363733481615782
1782969965059838200,5.053838134765625,-0.002430556807667017,0.00008926913142204285,0.00028353824745863676
1782969965069764400,5.063764404296875,-0.0003363168507348746,-0.0018396112136542797,0.0004947003908455372
1782969965079690200,5.073690185546875,0.0013057882897555828,-0.0021871537901461124,0.0018582388292998075
1782969965089617200,5.0836171875,-0.0019903734792023897,-0.0020822484511882067,-0.00017970532644540071
1782969965099543300,5.093543212890625,-0.0007536016637459397,-0.0014209854416549206,-0.0011557538527995348
1782969965109469400,5.103469482421875,-0.0023266368079930544,0.00007315864786505699,0.0017159093404188752
1782969965119396400,5.113396240234375,0.00020283366029616445,0.0026508327573537827,-0.002354199765250087
1782969965129322200,5.123322265625,0.000012896790394734126,0.0015049371868371964,-0.0025153839960694313
1782969965139249400,5.13324951171875,0.0024222584906965494,-0.0007081497460603714,0.0012463309103623033
1782969965149175300,5.14317529296875,0.0003108046657871455,0.002518464345484972,-0.00021334714256227016
1782969965159101200,5.15310107421875,0.00019309294293634593,-0.0018741537351161242,0.0006625666283071041
1782969965169028400,5.1630283203125,-0.0010094940662384033,-0.000621517188847065,0.0008690524846315384
1782969965178954200,5.172954345703125,0.00012581152259372175,-0.0033709644339978695,0.002552969381213188
1782969965188881400,5.18288134765625,-0.0013497802428901196,0.001497302670031786,0.0012635255698114634
1782969965198807300,5.192807373046875,0.00047155554057098925,-0.0022170082665979862,0.00028374872636049986
1782969965208733400,5.2027333984375,0.0006082537584006786,0.0000887066125869751,-0.00209610047750175
1782969965218660400,5.212660400390625,0.001314524095505476,0.0016208235174417496,0.00019475072622299194
1782969965228586500,5.22258642578125,-0.0007605042774230242,0.004689465276896954,0.00025392533279955387
1782969965238512400,5.232512451171875,-0.00005450028402265161,0.0007304097525775433,-0.0017793981824070215
1782969965248439300,5.242439208984375,0.001583753153681755,-0.0003995397128164768,0.0003727618604898453
1782969965258365400,5.252365478515625,0.0004228813049849123,-0.0007785074412822723,-0.00041580013930797577
1782969965268292400,5.262292236328125,0.0008485327125526965,-0.001481793588027358,0.0009128473466262221
1782969965278218200,5.27221826171875,-0.0020069086458534002,-0.0007574139162898064,0.000850529526360333
1782969965288144400,5.282144287109375,-0.0007985212723724544,-0.0002764863893389702,0.0007383424090221524
1782969965298071300,5.2920712890625,-0.0005082366988062859,0.00019223010167479515,-0.0014121601125225425
1782969965307997200,5.3019970703125,0.0010394201381132007,-0.0005168439820408821,0.00020273483823984861
1782969965317924400,5.31192431640625,0.0009784337598830462,0.000050675589591264725,-0.002863628789782524
1782969965327850200,5.321850341796875,0.0007411413826048374,-0.0025478824973106384,0.0011275880970060825
1782969965337776400,5.3317763671875,-0.0027095163241028786,-0.002379037905484438,0.0007795128040015697
1782969965347703300,5.341703369140625,-0.0011413365136831999,-0.0009963070042431355,0.0011743534123525023
1782969965357629200,5.351629150390625,0.00046454963739961386,0.0017073340713977814,-0.00045177264837548137
1782969965367555000,5.36155517578125,-0.002495440421625972,-0.0014195435214787722,-0.00033048761542886496
1782969965377482200,5.371482177734375,0.00026625770260579884,0.0004100482910871506,0.002401915844529867
1782969965387408400,5.381408447265625,0.0004044732777401805,-0.0016472931019961834,0.002860437147319317
1782969965397335300,5.391335205078125,0.003150724805891514,0.0005972189828753471,0.0005192522658035159
1782969965407261200,5.40126123046875,-0.000923813902772963,-0.0022125844843685627,0.001327898702584207
1782969965417187300,5.411187255859375,-0.0008439191151410341,-0.0006908541545271873,0.0005923337303102016
1782969965427114200,5.4211142578125,-0.001470381859689951,0.0003288392908871174,-0.0013786316849291325
1782969965437040000,5.4310400390625,-0.0005236280849203467,-0.00016863923519849777,-0.00020098185632377863
1782969965446967000,5.440967041015625,0.0012928192736580968,0.000296854879707098,0.00006149138789623976
1782969965456893200,5.45089306640625,0.002057945355772972,-0.0013580333907157183,0.0012383421417325735
1782969965466819300,5.4608193359375,0.00041455391328781843,-0.0006134598515927792,0.001623767428100109
1782969965476746200,5.470746337890625,0.000978877767920494,-0.000005193985998630524,0.0018373529892414808
1782969965486672100,5.480672119140625,0.0011859619989991188,-0.0007944521494209766,0.002065140288323164
1782969965496598300,5.490598388671875,-0.0007855761796236038,-0.0013899349141865969,0.0007809639209881425
1782969965506525200,5.500525146484375,-0.00005167946801520884,-0.0026529652532190084,0.0009888648055493832
1782969965516451000,5.510451171875,0.003643456380814314,-0.0032537742517888546,0.001164100831374526
1782969965526378200,5.520378173828125,-0.00006348430906655267,0.0006536557339131832,0.0007778954459354281
1782969965536304000,5.53030419921875,0.0005849954322911799,-0.0009514316916465759,0.00214649410918355
1782969965546230300,5.540230224609375,-0.0020276291761547327,-0.00019426178187131882,0.00004167261067777872
1782969965556157200,5.5501572265625,-0.00241831480525434,-0.000919706653803587,-0.0009234569733962417
1782969965566083000,5.5600830078125,-0.002077239565551281,0.0012853452935814857,-0.00143266876693815
1782969965576010200,5.57001025390625,0.0024195080623030663,0.0011018533259630203,-0.0027197743766009808
1782969965585936400,5.579936279296875,0.00047750715748406947,-0.00003907550126314163,0.001182254869490862
1782969965595862300,5.5898623046875,-0.0026248092763125896,-0.0008412199094891548,-0.0012265742989256978
1782969965605789200,5.5997890625,0.00040486498619429767,0.002067969646304846,0.00047231686767190695
1782969965615715300,5.60971533203125,0.0002722395583987236,0.00021094735711812973,-0.0015005528694018722
1782969965625641200,5.61964111328125,-0.0025547754485160112,0.0025764075107872486,0.0006673086900264025
1782969965635568000,5.629568115234375,-0.00020347055396996439,-0.0008388301357626915,0.0005490642506629229
1782969965645494300,5.639494384765625,-0.0008341274806298316,0.0015638507902622223,0.0006730752065777779
1782969965655421200,5.649421142578125,-0.00002798864443320781,-0.000056416261941194534,-0.001486748456954956
1782969965665347000,5.65934716796875,0.0008607595227658749,-0.0010108784772455692,-0.0036813560873270035
1782969965675273200,5.669273193359375,-0.0016106539405882359,-0.000058531761169433594,0.0004188466118648648
1782969965685200100,5.6792001953125,0.0006603319197893143,-0.00018121208995580673,-0.0014055693754926324
1782969965695126300,5.689126220703125,0.0007729836506769061,-0.0011378196068108082,0.0012418790720403194
1782969965705052200,5.69905224609375,0.0015982803888618946,0.00014890171587467194,0.001275250455364585
1782969965714979000,5.70897900390625,-0.0019413270056247711,-0.0008617676794528961,-0.0004049378330819309
1782969965724905200,5.7189052734375,-0.0014267530059441924,0.00027590757235884666,-0.0000670433510094881
1782969965734832400,5.728832275390625,-0.002677639713510871,0.00038376543670892715,0.0014275226276367903
1782969965744758000,5.738758056640625,0.000056126151321223006,0.0008712224662303925,-0.0016553335590288043
1782969965754684200,5.74868408203125,-0.0012629375560209155,-0.0008933884091675282,0.00017212750390172005
1782969965764611300,5.758611328125,0.00026782957138493657,0.0015507908537983894,0.00124443753156811
1782969965774537200,5.768537109375,-0.0011811964213848114,-0.0011251531541347504,-0.0016363038448616862
1782969965784464100,5.778464111328125,-0.0002676935982890427,0.002217958215624094,0.00022007094230502844
1782969965794390300,5.788390380859375,-0.0026171342469751835,-0.0018399003893136978,0.001412101904861629
1782969965804316200,5.798316162109375,-0.0014771157875657082,-0.002365745371207595,0.0001480405917391181
1782969965814243300,5.808243408203125,-0.0006914833793416619,-0.0023234011605381966,0.001162705011665821
1782969965824169200,5.818169189453125,0.0015033975942060351,-0.0011803866364061832,0.0011061764089390635
1782969965834095400,5.828095458984375,-0.0022979984059929848,-0.0005729193799197674,0.0022808965295553207
1782969965844022300,5.838022216796875,-0.0029735646676272154,-0.0020314392168074846,0.001927252160385251
1782969965853948200,5.8479482421875,0.0014693870907649398,0.0013366607017815113,0.0011754417791962624
1782969965863875000,5.857875,0.0016001631738618016,0.0013910369016230106,-0.0018383727874606848
1782969965873801200,5.86780126953125,0.0006366315064951777,-0.0013674653600901365,0.00014488317538052797
1782969965883727400,5.877727294921875,-0.0007247035391628742,0.0004676305688917637,-0.0018418827094137669
1782969965893654000,5.887654052734375,-0.00014280284813139588,-0.00020268699154257774,0.00041807570960372686
1782969965903580200,5.897580078125,0.001380164292640984,0.0013981601223349571,0.00006160489283502102
1782969965913507300,5.90750732421875,0.0005761559586971998,0.000349939800798893,0.00011193857062608004
1782969965923433200,5.91743310546875,0.0004031657299492508,-0.0004374333657324314,-0.0007729565259069204
1782969965933359000,5.927359130859375,0.0006833302322775126,-0.0001410236582159996,0.0008451801259070635
1782969965943286300,5.937286376953125,0.0011294574942439795,0.003150330390781164,-0.00006757816299796104
1782969965953212200,5.947212158203125,-0.0004402095219120383,-0.0017717238515615463,0.0009460209403187037
1782969965963138000,5.957137939453125,-0.0004564585688058287,-0.0018639673944562674,0.0010076311882585287
1782969965973065200,5.967065185546875,0.0004969531437382102,0.0011318223550915718,-0.002293090568855405
1782969965982991000,5.9769912109375,0.0007740824366919696,-0.0013695210218429565,0.003363130148500204
1782969965992918300,5.986918212890625,-0.003056075656786561,0.0022989832796156406,-0.001164776156656444
1782969966002844200,5.99684423828125,-0.0016696439124643803,0.001219439785927534,-0.0003278630319982767
1782969966012770000,6.00677001953125,0.0006837915279902518,-0.0002551525831222534,0.00029265356715768576
1782969966022697200,6.016697265625,-0.0006319992826320231,0.001451760996133089,0.0003620064817368984
1782969966032623400,6.026623291015625,-0.0006565003423020244,0.0014954372309148312,-0.0015299031510949135
1782969966042550300,6.03655029296875,-0.0009727803408168256,0.001489965245127678,-0.001113913836888969
1782969966052476200,6.04647607421875,0.00041472658631391823,0.0010697180405259132,0.0019543140660971403
1782969966062402300,6.05640234375,0.000349754118360579,-0.000919001642614603,0.002547287615016103
1782969966072329200,6.0663291015625,-0.000228950782911852,0.0013534738682210445,-0.0007973763858899474
1782969966082255000,6.076255126953125,-0.0012590046972036362,0.0016750097274780273,0.0006049838848412037
1782969966092181200,6.08618115234375,-0.0007277039694599807,0.0010582217946648598,0.0023054121993482113
1782969966102108200,6.096108154296875,-0.00008050372707657516,0.0004944414831697941,-0.0003312468761578202
1782969966112034300,6.106034423828125,-0.00027624607901088893,-0.0019580635707825422,0.0002549148630350828
1782969966121961200,6.115961181640625,0.0000486338249174878,0.001701821107417345,0.001313305227085948
1782969966131887000,6.12588720703125,-0.0012595108710229397,0.0014927629381418228,-0.0003287999425083399
1782969966141813200,6.135813232421875,-0.001811570138670504,0.0015415800735354424,-0.0003363802097737789
1782969966151740400,6.145740478515625,-0.0008991711074486375,-0.00003154948353767395,0.0006535168504342437
1782969966161666000,6.155666015625,-0.0023228898644447327,0.0010129190050065517,-0.00002678262535482645
1782969966171592200,6.16559228515625,0.0005402746610343456,-0.002598593942821026,0.00010850594844669104
1782969966181519400,6.175519287109375,-0.003581543453037739,-0.00019925972446799278,0.0015040115686133504
1782969966191445000,6.185445068359375,0.0004890982527285814,-0.0008027316071093082,-0.0011439693626016378
1782969966201372200,6.1953720703125,-0.0025143991224467754,-0.0011250232346355915,-0.00042414222843945026
1782969966211298300,6.20529833984375,-0.0007186294533312321,0.001699525397270918,-0.0028942241333425045
1782969966221224200,6.21522412109375,-0.0007304009632207453,-0.0009559961035847664,0.005537722259759903
1782969966231151000,6.225151123046875,0.0008400651277042925,0.00040754256770014763,-0.0006903463508933783
1782969966241077200,6.2350771484375,0.001512567512691021,0.0021919221617281437,0.0006880766013637185
1782969966251004200,6.245004150390625,-0.00023553139180876315,-0.00043661752715706825,0.000436940579675138
1782969966260930300,6.254930419921875,-0.0008388649439439178,-0.0008713984861969948,-0.0007254963857121766
1782969966270856200,6.264856201171875,0.001019755145534873,0.001359531655907631,-0.0014269730309024453
1782969966280783000,6.274783203125,-0.0016804561018943787,-0.0004833699204027653,-0.0011808956041932106
1782969966290709200,6.284709228515625,-0.0013235924998298287,-0.00031212856993079185,0.003460195381194353
1782969966300635100,6.29463525390625,-0.00018440393614582717,-0.0027484188321977854,0.0022947839461266994
1782969966310562000,6.30456201171875,-0.0011210376396775246,0.0006686830893158913,-0.0011814403114840388
1782969966320488200,6.31448828125,-0.0007665798766538501,-0.001737386453896761,-0.0018233777955174446
1782969966330415400,6.324415283203125,0.0013160121161490679,-0.00005187187343835831,0.0004349827067926526
1782969966340341000,6.334341064453125,0.001299217576161027,-0.0012209489941596985,-0.0023109386675059795
1782969966350267100,6.34426708984375,-0.00018789165187627077,-0.0020249574445188046,-0.0000834708334878087
1782969966360194300,6.3541943359375,-0.0014124107547104359,-0.0018140031024813652,0.0015086480416357517
1782969966370120200,6.3641201171875,-0.0009205249953083694,0.0016771350055932999,-0.001486609224230051
1782969966380047400,6.37404736328125,0.0003600164200179279,-0.001906507182866335,0.0029523863922804594
1782969966389973200,6.38397314453125,-0.002375050215050578,-0.0010721390135586262,0.0019742075819522142
1782969966399899100,6.393899169921875,-0.0017557168612256646,-0.0013347547501325607,-0.000995204783976078
1782969966409826300,6.403826416015625,0.002428908133879304,0.0010847272351384163,0.002943610306829214
1782969966419752200,6.413752197265625,-0.0022327182814478874,0.0003718598745763302,-0.0009472246165387332
1782969966429678000,6.423677978515625,-0.0009863588493317366,0.00013457238674163818,0.0012189906556159258
1782969966439605200,6.433605224609375,-0.0017980944830924273,0.00013250159099698067,-0.0012530358508229256
1782969966449531400,6.443531494140625,-0.0007349606603384018,0.0006512850522994995,-0.0006522267358377576
1782969966459458000,6.4534580078125,-0.00002475062501616776,-0.000512661412358284,0.0008040906395763159
1782969966469384200,6.46338427734375,0.00034649402368813753,0.0011219866573810577,-0.0016569365980103612
1782969966479310300,6.473310302734375,0.0012664970709010959,-0.0030212493147701025,-0.0005887440638616681
1782969966489237200,6.4832373046875,-0.00026641838485375047,0.00011701975017786026,-0.0003008563071489334
1782969966499163100,6.4931630859375,0.00040273129707202315,-0.001019870862364769,-0.000795620318967849
1782969966509089300,6.50308935546875,0.0002392132009845227,0.002632121555507183,-0.0007330360822379589
1782969966519016200,6.51301611328125,0.0007012118585407734,-0.0006894227117300034,0.0007773202378302813
1782969966528942000,6.522942138671875,0.00041119364323094487,0.0013835816644132137,0.0002340355422347784
1782969966538869200,6.532869140625,0.002086218912154436,0.00003250269219279289,-0.001070402329787612
1782969966548795100,6.542795166015625,0.00262124789878726,-0.00045751919969916344,0.0008771673310548067
1782969966558721300,6.55272119140625,0.00018363594426773489,-0.0015344922430813313,0.0014914581552147865
1782969966568648200,6.562648193359375,-0.0003181035863235593,0.0013028397224843502,-0.0005277505260892212
1782969966578574000,6.572573974609375,0.0015951375244185328,0.00046488409861922264,-0.00020360900089144707
1782969966588500200,6.582500244140625,-0.0017053179908543825,0.0012848712503910065,-0.0017447802238166332
1782969966598427400,6.592427490234375,-0.0015193501021713018,-0.0007625464349985123,0.0008787069236859679
1782969966608353000,6.60235302734375,-0.00025781066506169736,0.0009519965387880802,0.0006952151888981462
1782969966618280200,6.6122802734375,0.0008116821991279721,-0.002414351562038064,-0.0019271577475592494
1782969966628206300,6.622206298828125,0.001944857183843851,0.0002978118136525154,0.0005514462245628238
1782969966638132000,6.632132080078125,-0.0015575464349240065,-0.001472853822633624,-0.0005894246278330684
1782969966648059100,6.64205908203125,0.0015516941202804446,-0.002176460810005665,0.0004188481252640486
1782969966657985300,6.6519853515625,0.0005151303485035896,0.00027515459805727005,0.0009343513520434499
1782969966667912200,6.661912109375,0.0009689329890534282,-0.003248207736760378,0.0022510183043777943
1782969966677838300,6.67183837890625,-0.0013391243992373347,0.0005584429018199444,0.0010255173547193408
1782969966687764200,6.68176416015625,-0.00025894626742228866,-0.002344136592000723,0.00033815554343163967
1782969966697691100,6.691691162109375,-0.0007796171121299267,0.0014030160382390022,0.0010156057542189956
1782969966707617300,6.7016171875,-0.0004230198683217168,0.003565502353012562,0.00039535551331937313
1782969966717544200,6.711544189453125,0.0005598929128609598,-0.0020732160191982985,-0.0010704750893637538
1782969966727470000,6.721469970703125,0.0024360897950828075,0.0007089884020388126,-0.0013296006945893168
1782969966737396200,6.731396240234375,-0.00026271131355315447,0.00042617181316018105,0.0018246864201501012
1782969966747323400,6.741323486328125,0.00034821784356608987,0.0024062320590019226,-0.0006760217365808785
1782969966757249000,6.7512490234375,0.0009016434196382761,0.0015206895768642426,0.00022677797824144363
1782969966767175200,6.761175048828125,0.0023392178118228912,-0.0011901422403752804,-0.00022489414550364017
1782969966777102300,6.771102294921875,-0.0003155925660394132,0.0014596465043723583,0.0034575951285660267
1782969966787028200,6.7810283203125,0.000958197342697531,-0.0004128222353756428,-0.0018026807811111212
1782969966796955100,6.790955078125,-0.0007043270161375403,-0.0009107040241360664,-0.0005511571653187275
1782969966806881300,6.80088134765625,0.000400618533603847,-0.0013961982913315296,0.0019000162137672305
1782969966816807200,6.81080712890625,0.000021886269678361714,0.0007551759481430054,-0.002604821464046836
1782969966826734300,6.820734375,-0.0013427174417302012,-0.0005652196705341339,0.0009832553332671523
1782969966836660200,6.83066015625,-0.0012853601947426796,-0.0006352891214191914,-0.0000782535644248128
1782969966846586000,6.840586181640625,0.0009069541119970381,-0.002130387583747506,0.0007262874860316515
1782969966856513300,6.85051318359375,-0.002913767471909523,0.0013236040249466896,-0.0014817854389548302
1782969966866439200,6.860439208984375,-0.000870324089191854,-0.0010724416933953762,-0.0007861676858738065
1782969966876366000,6.870365966796875,0.0014661644818261266,-0.0012605665251612663,0.0024032772053033113
1782969966886292200,6.880292236328125,-0.0021197819150984287,-0.000813155435025692,-0.0013384642079472542
1782969966896218400,6.89021826171875,-0.0009812713833525777,-0.0005902927368879318,0.00012858037371188402
1782969966906145000,6.90014501953125,-0.0010334693361073732,-0.0016049572732299566,-0.0018722526729106903
1782969966916071200,6.9100712890625,-0.0016757999546825886,-0.001884110039100051,0.0007549896836280823
1782969966925998300,6.919998291015625,0.0003745678113773465,0.00043150829151272774,-0.0006793889333494008
1782969966935924200,6.92992431640625,-0.0012929326621815562,0.0014852569438517094,0.0005646045319736004
1782969966945850000,6.93985009765625,-0.0004612274933606386,0.0020541083067655563,0.00009988294914364815
1782969966955777300,6.94977734375,-0.05964206904172897,0.00700620049610734,0.01349102333188057
1782969966965703200,6.959703125,0.06292751431465149,-0.0067000240087509155,-0.01511585433036089
1782969966975629000,6.969629150390625,-0.05411991849541664,0.0029699942097067833,0.014418164268136024
1782969966985556200,6.97955615234375,0.05155590921640396,-0.0007816008292138577,-0.009725786745548248
1782969966995482000,6.989482177734375,-0.0507584773004055,-0.0012466777116060257,0.010778777301311493
1782969967005409300,6.9994091796875,0.04624077305197716,-0.0012703801039606333,-0.008429272100329399
1782969967015335400,7.00933544921875,-0.042354516685009,0.0012065214104950428,0.0075641656294465065
1782969967025261000,7.019260986328125,0.0360577329993248,0.0013386146165430546,-0.006529282778501511
1782969967035188200,7.029188232421875,-0.0303968358784914,-0.0019395684357732534,0.010401787236332893
1782969967045114400,7.0391142578125,0.03123456984758377,-0.0000865408219397068,-0.006594239734113216
1782969967055041300,7.049041259765625,-0.026667345315217972,-0.00017772940918803215,0.005454812198877335
1782969967064967200,7.05896728515625,0.018931565806269646,0.0023357621394097805,-0.005009280517697334
1782969967074893300,7.068893310546875,-0.014872339554131031,0.0015292027965188026,0.006709449924528599
1782969967084820200,7.0788203125,0.011475644074380398,0.0027715670876204967,-0.0046896785497665405
1782969967094746000,7.08874609375,-0.003736729035153985,-0.002186190104112029,0.006885544862598181
1782969967104672300,7.09867236328125,0.0006854499224573374,-0.0018181412015110254,-0.0045167794451117516
1782969967114599200,7.10859912109375,0.0031528696417808533,0.0010400167666375637,-0.0014401656808331609
1782969967124525300,7.118525390625,-0.007858769036829472,-0.0005797180347144604,-0.003900393843650818
1782969967134452200,7.1284521484375,0.011189001612365246,0.0016107326373457909,-0.00024484365712851286
1782969967144378000,7.138378173828125,-0.01595473475754261,-0.0010284599848091602,-0.0004935829201713204
1782969967154304300,7.14830419921875,0.023248860612511635,-0.0014784920495003462,0.00025027093943208456
1782969967164231400,7.1582314453125,-0.027298469096422195,-0.0011738264001905918,-0.0014014216139912605
1782969967174157000,7.168156982421875,0.03089754842221737,-0.0005365414544939995,-0.0018556255381554365
1782969967184084200,7.178084228515625,-0.03420475497841835,0.0003185998648405075,-0.0003746416186913848
1782969967194010400,7.18801025390625,0.03813233599066734,0.0007622637785971165,-0.0036922432482242584
1782969967203936000,7.19793603515625,-0.04680119454860687,0.001376654952764511,0.0014878713991492987
1782969967213863200,7.20786328125,0.05043858289718628,-0.0020757715683430433,-0.0009717879584059119
1782969967223789300,7.217789306640625,-0.0522097647190094,-0.0022422191686928272,0.004431499168276787
1782969967233715200,7.227715087890625,0.05468432605266571,-0.002136065624654293,-0.003451092168688774
1782969967243642000,7.23764208984375,-0.057878702878952026,0.0008701104670763016,0.003157009370625019
1782969967253568300,7.247568359375,0.06266648322343826,-0.0007495875470340252,-0.0027201531920582056
1782969967263495200,7.2574951171875,-0.061448805034160614,0.003666199743747711,0.001669535180553794
1782969967273421300,7.26742138671875,0.06607884168624878,-0.0031078800093382597,-0.002461593598127365
1782969967283347200,7.27734716796875,-0.06340911239385605,0.00010335957631468773,0.005482349544763565
1782969967293274000,7.287274169921875,0.06802138686180115,-0.0009565176442265511,-0.004517714027315378
1782969967303200300,7.2972001953125,-0.072799913585186,-0.001272102352231741,0.003173228818923235
1782969967313127200,7.307127197265625,0.07143662869930267,-0.002391498303040862,-0.009515205398201942
1782969967323053000,7.317052978515625,-0.07139269262552261,0.0023321504704654217,0.00686909444630146
1782969967332979200,7.326979248046875,0.01340768113732338,0.0014404552057385445,-0.002499709138646722
1782969967342906000,7.336906005859375,0.004438154399394989,-0.004768970888108015,-0.0000075231073424220085
1782969967352832300,7.346832275390625,0.0005217965226620436,-0.0012896368280053139,0.0021222103387117386
1782969967362758000,7.3567578125,0.0006533566629514098,0.000023301690816879272,-0.0017271224642172456
1782969967372685000,7.36668505859375,0.00040248860022984445,0.0005428153090178967,0.0015096142888069153
1782969967382611000,7.37661083984375,-0.0002342732041142881,-0.0009022154845297337,-0.001790841226466
1782969967392538000,7.3865380859375,-0.0008080522529780865,0.0016339467838406563,-0.0012415297096595168
1782969967402464000,7.396464111328125,0.0007696044631302357,-0.0012230922002345324,-0.0006383237196132541
1782969967412390000,7.406389892578125,0.0002648913359735161,0.00003745872527360916,-0.0019775950349867344
1782969967422317000,7.416317138671875,0.00010536798072280362,-0.0007809307426214218,0.00010286655742675066
1782969967432243000,7.426242919921875,-0.00014106149319559336,-0.0000053318217396736145,0.001831787289120257
1782969967442169900,7.436169921875,0.00013830410898663104,-0.0018330593593418598,0.0014578794362023473
1782969967452096000,7.446095947265625,0.0006180719938129187,-0.0009573777206242085,0.001686546136625111
1782969967462022100,7.456022216796875,0.0003629411803558469,0.0004666144959628582,0.0019805594347417355
1782969967471948800,7.46594873046875,0.0020825001411139965,-0.00210565491579473,0.0033696971368044615
1782969967481875000,7.475875,-0.0014336714521050453,-0.0016611733008176088,-0.002465821336954832
1782969967491801000,7.485801025390625,-0.001340948510915041,0.000577067956328392,-0.0009694930631667376
1782969967501728000,7.49572802734375,0.0012654871679842472,-0.0018615885637700558,-0.001794806681573391
1782969967511654000,7.50565380859375,0.0011833696626126766,0.00017955247312784195,-0.001407309784553945
1782969967521581000,7.5155810546875,0.00027762859826907516,-0.0010079513303935528,-0.0012557759182527661
1782969967531507000,7.5255068359375,0.00045198024599812925,-0.0003024628385901451,-0.0015772921033203602
1782969967541432800,7.535432861328125,-0.0005634830449707806,-0.000328828115016222,0.00129679124802351
1782969967551360000,7.545360107421875,0.0007064889650791883,-0.0013487273827195168,0.0004761394811794162
1782969967561286000,7.555285888671875,-0.00005197932478040457,-0.0013894736766815186,0.0002894519129768014
1782969967571213000,7.565213134765625,-0.0018959519220516086,0.0007429639808833599,0.0032125376164913177
1782969967581139000,7.575138916015625,0.0013978455681353807,-0.00026078149676322937,-0.00018565601203590631
1782969967591064800,7.58506494140625,-0.0021901444997638464,0.0015112604014575481,0.0009326088475063443
1782969967600992000,7.594991943359375,0.0007270821370184422,0.001995689235627651,-0.0022035297006368637
1782969967610918100,7.604918212890625,-0.00017856902559287846,0.0004204520955681801,-0.000006289919838309288
1782969967620843800,7.61484375,-0.00048137042904272676,0.000477710273116827,0.0016637783264741302
1782969967630771000,7.62477099609375,0.00027128291549161077,0.001671230886131525,-0.0006915544508956373
1782969967640697000,7.634697021484375,0.0004270778445061296,-0.0013586475979536772,0.0020365878008306026
1782969967650624000,7.6446240234375,-0.0011337553150951862,-0.000388268381357193,0.002388821914792061
1782969967660550000,7.6545498046875,-0.00043361031566746533,-0.00011769123375415802,0.000918756821192801
1782969967670476000,7.66447607421875,0.001156073180027306,0.0008665509521961212,0.0020258696749806404
1782969967680403000,7.67440283203125,0.0013970892177894711,0.00039730221033096313,-0.0010820393217727542
1782969967690329000,7.6843291015625,-0.0008287364616990089,-0.001358329551294446,0.00043646199628710747
1782969967700255000,7.6942548828125,0.00039791548624634743,-0.001592953922227025,-0.001855987124145031
1782969967710182000,7.704181884765625,-0.00337840523570776,-0.0009163101203739643,-0.0013896303717046976
1782969967720108000,7.71410791015625,0.00032764964271336794,0.001336191315203905,0.0015257321065291762
1782969967730035000,7.724034912109375,-0.0014008277794346213,0.00008140271529555321,0.0010775179835036397
1782969967739960800,7.7339609375,0.0015659336932003498,0.00008300086483359337,0.0007528787245973945
1782969967749887000,7.743886962890625,-0.000049892987590283155,0.0010390919633209705,-0.0008167919586412609
1782969967759814100,7.753814208984375,-0.0021790903992950916,0.000915521290153265,-0.0010466227540746331
1782969967769739800,7.76373974609375,-0.0005825693951919675,-0.0013730558566749096,0.001896203146316111
1782969967779667000,7.7736669921875,0.0006406204774975777,-0.0016018212772905827,-0.0006756114307790995
1782969967789593000,7.783593017578125,0.0012450253125280142,-0.0013484300579875708,0.0008573337690904737
1782969967799519000,7.79351904296875,-0.0024900580756366253,0.0021621487103402615,0.0004373532719910145
1782969967809446000,7.80344580078125,-0.0012935891281813383,-0.00283838901668787,0.0008847017306834459
1782969967819372000,7.8133720703125,0.0016340237343683839,-0.0005105198360979557,0.002167546423152089
1782969967829298000,7.8232978515625,0.00028708629542961717,0.0007820012979209423,0.0032877344638109207
1782969967839225000,7.83322509765625,-0.0015478316927328706,-0.00099219661206007,0.00005918450187891722
1782969967849151000,7.84315087890625,0.0001350172096863389,-0.0023248419165611267,0.0019638179801404476
1782969967859078000,7.853077880859375,0.0006492736283689737,-0.0016755631659179926,-0.0012490195222198963
1782969967869004000,7.863004150390625,-0.0009518188890069723,-0.0012967062648385763,0.0015837849350646138
1782969967878930000,7.872929931640625,-0.0009065450867637992,0.001690561417490244,0.0028599719516932964
1782969967888856800,7.88285693359375,0.0012872329680249095,-0.0021434337832033634,0.0033397746738046408
1782969967898783000,7.892782958984375,0.0016768533969298005,-0.0017010828014463186,-0.000431527616456151
1782969967908710000,7.9027099609375,-0.0005289072869345546,0.0011105840094387531,-0.0011638675350695848
1782969967918635800,7.9126357421875,-0.001169930212199688,0.0001502479426562786,-0.000053862109780311584
1782969967928562000,7.92256201171875,0.00045797182247042656,-0.0017592664808034897,0.0008799862116575241
1782969967938489000,7.932489013671875,-0.0030560693703591824,-0.0007408736273646355,-0.0018699939828366041
1782969967948415000,7.9424150390625,0.0009992144769057631,-0.0000208243727684021,0.0014864207478240132
1782969967958340900,7.9523408203125,-0.001417071558535099,0.0006793206557631493,0.0016360903391614556
1782969967968268000,7.96226806640625,-0.00160449359100312,-0.0009249364957213402,0.0010514380410313606
1782969967978194000,7.97219384765625,0.0006056638085283339,-0.0010682144202291965,0.00036673934664577246
1782969967988118800,7.982118896484375,-0.001087772659957409,-0.0009398930706083775,-0.0012394421501085162
1782969967998045000,7.992044921875,0.0016675337683409452,0.0017927763983607292,0.0011339670745655894
1782969968007972000,8.00197216796875,-0.0008446681895293295,0.00039075175300240517,0.000007903552614152431
1782969968017897700,8.011897705078125,-0.0008260260219685733,0.0007255114614963531,0.000792204518802464
1782969968027825000,8.021824951171874,0.00008334997983183712,-0.0008107908070087433,-0.0006553537677973509
1782969968037751000,8.0317509765625,-0.00033130418159998953,0.0005671288818120956,0.0014352276921272278
1782969968047677000,8.041677001953126,-0.0000664670515106991,0.0001097898930311203,-0.0019383258186280727
1782969968057604000,8.05160400390625,-0.0005303896614350379,0.00005466258153319359,0.001774120726622641
1782969968067530000,8.061530029296875,0.002026453847065568,-0.0009331097826361656,0.0008204766782000661
1782969968077456000,8.071455810546874,-0.0012561585754156113,-0.0038548638112843037,0.0014495152281597257
1782969968087383000,8.081383056640625,-0.001142085180617869,-0.0020694704726338387,0.0028266161680221558
1782969968097309000,8.091308837890624,-0.0015519455773755908,-0.00031924108043313026,-0.0015665341634303331
1782969968107235800,8.10123583984375,-0.0014228317886590958,-0.0002758377231657505,-0.001357687171548605
1782969968117162000,8.111161865234376,-0.004258299712091684,-0.0014068821910768747,-0.001191505929455161
1782969968127088000,8.121088134765625,-0.0002500767295714468,0.00046977680176496506,-0.0002136641414836049
1782969968137014800,8.131014892578126,0.0017270540120080113,-0.00005566468462347984,0.0015296409837901592
1782969968146941000,8.14094091796875,-0.0009347513550892472,-0.000002728775143623352,0.00043828878551721573
1782969968156867000,8.1508671875,-0.0016564680263400078,-0.00125334900803864,0.0002947443863376975
1782969968166794000,8.1607939453125,0.001536174095235765,0.0002897651866078377,0.0014029496815055609
1782969968176720000,8.170719970703125,-0.0004577346262522042,-0.0007171761244535446,-0.000055131036788225174
1782969968186647000,8.18064697265625,-0.00024204590590670705,0.002429746091365814,-0.00025440275203436613
1782969968196573000,8.190572998046875,-0.0024005379527807236,0.0018001748248934746,0.0034242216497659683
1782969968206498800,8.200498779296876,-0.0005836699856445193,-0.0018098389264196157,-0.0007252846844494343
1782969968216426000,8.210426025390625,-0.00003425982140470296,-0.0015792092308402061,-0.00002780277281999588
1782969968226351900,8.220351806640625,-0.00023176686954684556,-0.0018438748084008694,-0.0007660145638510585
1782969968236278000,8.230278076171874,0.0018518903525546193,-0.0035256610717624426,0.0033435095101594925
1782969968246205000,8.240204833984375,-0.0021595440339297056,-0.00030014244839549065,0.0002608377253636718
1782969968256130800,8.250130859375,-0.00232146424241364,0.00013661617413163185,0.0020568734034895897
1782969968266058000,8.26005810546875,0.0015356403309851885,-0.00045478250831365585,-0.002046650042757392
1782969968275984100,8.269984130859376,-0.0017629509093239903,0.0011303308419883251,-0.0025987233966588974
1782969968285910000,8.279909912109375,-0.0022314174566417933,0.0016876277513802052,-0.00025719404220581055
1782969968295837000,8.2898369140625,-0.00047479651402682066,0.0009416760876774788,0.002041646745055914
1782969968305763000,8.29976318359375,-0.0015222388319671154,0.002436064649373293,-0.0019705856684595346
1782969968315690000,8.30968994140625,-0.0007392694824375212,0.0005207192152738571,-0.0023684620391577482
1782969968325615900,8.319615966796874,0.0009695561602711678,0.0005016052164137363,-0.0008828869904391468
1782969968335542000,8.3295419921875,0.00046062603360041976,0.0007825684733688831,0.001023403718136251
1782969968345469000,8.339468994140624,0.0008299297769553959,-0.0008712150156497955,0.0008177420822903514
1782969968355394800,8.349394775390625,0.0028222405817359686,-0.0010680225677788258,-0.0013085257960483432
1782969968365321700,8.35932177734375,0.0010163220576941967,-0.00016125105321407318,0.003087010234594345
1782969968375248600,8.36924853515625,0.0012501477031037211,-0.0011349027045071125,0.00021532364189624786
1782969968385174800,8.3791748046875,-0.0020143899600952864,0.0010439036414027214,-0.002350041177123785
1782969968395103700,8.389103759765625,0.0034658629447221756,0.0010412400588393211,0.0009687902638688684
1782969968405030000,8.39902978515625,-0.0010977485217154026,0.0037727225571870804,0.0004199468530714512
1782969968414956500,8.40895654296875,-0.0008378239581361413,-0.001050529070198536,0.00001914112363010645
1782969968424882700,8.418882568359376,0.0009156513260677457,0.000382755883038044,0.0011673875851556659
1782969968434808800,8.428808837890625,0.001511134090833366,-0.0021616281010210514,0.0005343541270121932
1782969968444735700,8.43873583984375,-0.002527565462514758,0.002889680676162243,-0.001404185313731432
1782969968454661600,8.44866162109375,-0.0007190127507783473,-0.0021697930060327053,-0.0011376028414815664
1782969968464588500,8.458588623046875,0.0018692704616114497,0.0004472872242331505,-0.00042476074304431677
1782969968474514700,8.4685146484375,-0.00009534339187666774,0.00007124897092580795,-0.0020783175714313984
1782969968484440600,8.478440673828125,-0.0008945157751441002,0.00046068476513028145,0.003368230303749442
1782969968494367500,8.488367431640626,0.0010716960532590747,0.002503862138837576,-0.00047684169840067625
1782969968504293600,8.498293701171875,-0.003328494494780898,0.0010059364140033722,-0.0013851774856448174
1782969968514219800,8.5082197265625,-0.0003409603959880769,0.0014693262055516243,0.0002766350517049432
1782969968524146400,8.518146484375,0.00046635069884359837,0.0008113174699246883,0.002617384074255824
1782969968534072600,8.528072509765625,0.0004991075838916004,0.0025343825109302998,0.0016775547992438078
1782969968543999700,8.537999755859374,-0.0001583178382134065,0.000657311175018549,-0.0017251817043870687
1782969968553925600,8.547925537109375,-0.0006097236182540655,0.00026502786204218864,0.0008937708334997296
1782969968563851500,8.5578515625,0.00011712240666383877,0.002316394355148077,-0.0012331035686656833
1782969968573778700,8.56777880859375,0.0015951767563819885,0.0008575147949159145,-0.00031404674518853426
1782969968583704800,8.577704833984376,-0.0004412381094880402,0.0006579789333045483,-0.0017273703124374151
1782969968593631700,8.5876318359375,-0.004568338859826326,-0.0010467101819813251,0.00029822997748851776
1782969968603557600,8.5975576171875,0.0010792914545163512,0.00020557502284646034,0.0021804284770041704
1782969968613483800,8.60748388671875,-0.001200374448671937,-0.0006722030229866505,0.0003412493970245123
1782969968623410700,8.61741064453125,0.001782394596375525,0.00039717182517051697,0.0006391748320311308
1782969968633336800,8.6273369140625,-0.0008072631899267435,0.0013961237855255604,0.0005347789265215397
1782969968643262700,8.6372626953125,-0.0013822499895468354,0.0011494378559291363,-0.0004622193519026041
1782969968653189600,8.647189697265626,-0.0007747828494757414,0.001979012507945299,-0.0012851360952481627
1782969968663115800,8.65711572265625,0.0011717480374500155,-0.0009099813178181648,0.0009639043128117919
1782969968673042700,8.667042724609376,-0.002518860623240471,0.00003970181569457054,0.0006232858868315816
1782969968682968600,8.676968505859374,0.00045535335084423423,0.0015395968221127987,-0.0006962565239518881
1782969968692894700,8.686894775390625,0.00005907499871682376,-0.0001352652907371521,0.00020602240692824125
1782969968702821600,8.696821533203124,-0.0006926193600520492,0.001114911399781704,-0.0021806019358336926
1782969968712747500,8.70674755859375,0.0007966203265823424,-0.0006225351244211197,0.0011273104464635253
1782969968722673700,8.716673583984376,-0.0019283065339550376,0.001425350084900856,0.0007043356308713555
1782969968732600600,8.7266005859375,0.0012381920823827386,0.0018037855625152588,0.0003125846851617098
1782969968742526700,8.736526611328125,-0.0005648122169077396,-0.00015382654964923859,0.0004433791618794203
1782969968752453600,8.74645361328125,0.001775840064510703,0.0008986545726656914,-0.0010394689161330462
1782969968762379500,8.756379638671875,0.0017723983619362116,0.0027671316638588905,0.000701994402334094
1782969968772305700,8.7663056640625,-0.0012928999494761229,-0.0027376224752515554,0.0018543440382927656
1782969968782232800,8.77623291015625,-0.0004007307579740882,0.0017883172258734703,0.0004511827137321234
1782969968792158700,8.78615869140625,0.0010259245755150914,-0.001071917824447155,0.00029964884743094444
1782969968802084600,8.796084716796875,-0.00029335779254324734,-0.0004472155123949051,0.0008911071345210075
1782969968812011800,8.80601171875,-0.0012116157449781895,0.00011071702465415001,-0.000018362421542406082
1782969968821937700,8.815937744140625,-0.0006832079961895943,0.0001537255011498928,-0.00034575501922518015
1782969968831864600,8.825864501953125,-0.00009171990677714348,0.0018525561317801476,0.001968531869351864
1782969968841790700,8.835790771484374,0.0017427441198378801,-0.0008977875113487244,0.00044793158303946257
1782969968851716900,8.845716796875,-0.001360637485049665,0.001168825663626194,0.0004143757978454232
1782969968861643500,8.8556435546875,0.0024978958535939455,-0.0015244006644934416,-0.0017035275232046843
1782969968871569700,8.865569580078125,0.002187105128541589,-0.001555293332785368,0.001132472651079297
1782969968881495800,8.875495849609376,-0.0003194161399733275,-0.0011526469606906176,-0.002274580067023635
1782969968891422700,8.885422607421875,-0.0004951847949996591,-0.0012479880824685097,0.0006639519706368446
1782969968901348600,8.8953486328125,-0.0013628053711727262,-0.000022967346012592316,0.00021430570632219315
1782969968911275500,8.905275634765625,-0.0021606883965432644,0.0021528350189328194,-0.002671229187399149
1782969968921201700,8.91520166015625,-0.000042837607907131314,-0.004080870654433966,0.0033559605944901705
1782969968931127600,8.92512744140625,-0.0006023677415214479,0.002179156057536602,-0.0008664810447953641
1782969968941054500,8.935054443359375,0.0003944559721276164,0.00002486119046807289,0.0032006767578423023
1782969968950980600,8.944980712890626,-0.00021381000988185406,0.0014477884396910667,0.000426994520239532
1782969968960907800,8.95490771484375,0.0016610686434432864,-0.0002032616175711155,-0.003479351056739688
1782969968970833700,8.964833740234376,0.0007057928014546633,0.0015877140685915947,0.00006052269600331783
1782969968980759600,8.974759521484375,-0.000531816272996366,-0.0009903982281684875,-0.0006963491323404014
1782969968990686700,8.984686767578125,-0.0007999966037459671,0.0026805028319358826,0.0016661409754306078
1782969969000612600,8.994612548828124,-0.00009964924538508058,-0.0000060051679611206055,-0.0007952360901981592
1782969969010538500,9.00453857421875,-0.00004212497151456773,-0.002307775430381298,0.0010130502050742507
1782969969020465700,9.014465576171874,-0.001454713987186551,0.0006301486864686012,-0.00009531690739095211
1782969969030391800,9.024391845703125,-0.003420925932005048,-0.0003190017305314541,0.0003217341145500541
1782969969040318700,9.034318603515626,0.0028653545305132866,0.0007136054337024689,-0.0002264631912112236
1782969969050244600,9.04424462890625,-0.0013706692261621356,-0.00013461150228977203,0.0013349481159821153
1782969969060170800,9.054170654296875,0.0034564801026135683,0.0012586717493832111,-0.001894662738777697
1782969969070097700,9.06409765625,0.0016119747888296843,-0.0007919622585177422,-0.0010206132428720593
1782969969080023800,9.07402392578125,-0.0012227665865793824,0.0011695991270244122,-0.00223144399933517
1782969969089949700,9.08394970703125,-0.0030353141482919455,0.0021456475369632244,-0.00017068989109247923
1782969969099876600,9.093876708984375,0.0020183951128274202,-0.0017065892461687326,0.0013842890039086342
1782969969109802800,9.103802734375,-0.0010386474896222353,-0.002100737066939473,-0.000012272619642317295
1782969969119729700,9.113729736328125,-0.003100740257650614,0.0015906309708952904,0.0006336712976917624
1782969969129655600,9.123655517578126,-0.0001792527036741376,0.0013253800570964813,-0.0008654219564050436
1782969969139581700,9.133581787109375,-0.001262427307665348,0.0001612035557627678,0.0009170232806354761
1782969969149508600,9.143508544921875,0.0011077860835939646,0.0008578863926231861,-0.0025738482363522053
1782969969159434500,9.1534345703125,0.0020006292033940554,0.0006613065488636494,-0.00048470922047272325
1782969969169360600,9.163360595703125,0.001474921009503305,-0.0010103597305715084,0.0013081306824460626
1782969969179287600,9.17328759765625,-0.0013053732691332698,-0.000024409964680671692,-0.0018580944743007421
1782969969189213700,9.183213623046875,-0.00019723185687325895,0.0003705369308590889,0.000355524942278862
1782969969199140600,9.193140625,0.00013048836262896657,-0.0005283164791762829,0.00037143228109925985
1782969969209066800,9.203066650390625,-0.0009217265178449452,-0.0005805143155157566,0.002623667474836111
1782969969218992600,9.21299267578125,-0.0007748818024992943,0.0007862355560064316,0.0007581672398373485
1782969969228919800,9.222919921875,-0.0010435947915539145,-0.0010691885836422443,0.0010979865910485387
1782969969238845700,9.232845703125,0.003953049425035715,0.0008173156529664993,0.0008833247702568769
1782969969248771600,9.242771484375,-0.0013682127464562654,-0.0017411832232028246,-0.001609127619303763
1782969969258698800,9.25269873046875,-0.0009369461913593113,-0.003004108089953661,0.0003877930575981736
1782969969268625000,9.262625,-0.002429381711408496,0.0008145985193550587,-0.0011123655131086707
1782969969278551600,9.272551513671875,0.0008338874322362244,0.0008101137354969978,0.003284810110926628
1782969969288477700,9.282477783203126,0.0021172647830098867,0.0002681603655219078,-0.00002390146255493164
1782969969298403800,9.29240380859375,-0.00031798574491403997,-0.00016075745224952698,-0.0018096216954290867
1782969969308330800,9.302330810546875,0.00024021283024922013,0.0009942557662725449,0.00037097453605383635
1782969969318256600,9.312256591796874,-0.001311762141995132,0.0026467381976544857,-0.002237684326246381
1782969969328182800,9.322182861328125,0.001118638669140637,0.0016800104640424252,-0.0009367300663143396
1782969969338109700,9.332109619140626,0.00004606909351423383,-0.0006738416850566864,-0.0026063830591738224
1782969969348035600,9.34203564453125,0.0037473305128514767,0.00022151274606585503,0.0010450768750160933
1782969969357962500,9.35196240234375,0.0017188466154038906,0.0012658517807722092,0.001797339296899736
1782969969367888000,9.361887939453124,0.0005702252965420485,0.0008794274181127548,0.0008178286952897906
1782969969377814000,9.37181396484375,-0.0021772480104118586,0.002636635210365057,-0.00037547957617789507
1782969969387741200,9.3817412109375,0.0002241244656033814,-0.0006997729651629925,-0.00039545330218970776
1782969969397666800,9.391666748046875,0.0013890290865674615,-0.0007685283198952675,0.0013351461384445429
1782969969407593000,9.401593017578126,-0.00014175591059029102,0.0016488227993249893,0.001079749083146453
1782969969417520000,9.41152001953125,0.0004246940079610795,-0.0004102555103600025,0.0004992024041712284
1782969969427446000,9.421446044921876,0.002686783205717802,0.0016228016465902328,-0.0024079042486846447
1782969969437373000,9.431373046875,-0.0004382096813060343,-0.00028022006154060364,0.001312263309955597
1782969969447299000,9.441299072265625,0.0009069530060514808,-0.0001995260827243328,-0.0014174769166857004
1782969969457225000,9.451224853515624,0.0005180356092751026,-0.0014093697536736727,-0.00017918518278747797
1782969969467152100,9.461152099609375,-0.0007008931715972722,-0.006631828378885984,-0.00552867678925395
1782969969477078000,9.471078125,0.001180923660285771,-0.07097426056861877,-0.0402085967361927
1782969969487004200,9.481004150390625,0.0021079699508845806,-0.012288304977118969,-0.010411816649138927
1782969969496931000,9.49093115234375,0.002574860118329525,-0.024767372757196426,-0.010997382923960686
1782969969506857200,9.500857177734375,0.001433163066394627,-0.013964524492621422,-0.008337683975696564
1782969969516783900,9.510783935546876,0.003079375484958291,-0.004714807495474815,-0.004535018932074308
1782969969526710000,9.5207099609375,0.0006764051504433155,-0.01503588818013668,-0.005499349441379309
1782969969536636200,9.53063623046875,-0.0026972198393195868,-0.009293013252317905,-0.005250708200037479
1782969969546563000,9.54056298828125,-0.0011616412084549665,-0.005990160629153252,-0.002448530402034521
1782969969556489000,9.550489013671875,-0.0021056465338915586,-0.005323803052306175,-0.004117898177355528
1782969969566415000,9.5604150390625,-0.00006140410550870001,-0.00035487720742821693,0.00030561245512217283
1782969969576342000,9.570342041015625,0.003080993890762329,0.0014336667954921722,0.0005097090033814311
1782969969586268000,9.580267822265625,0.000697464682161808,0.0007263314910233021,0.0012969394447281957
1782969969596195000,9.590195068359375,0.002106589265167713,0.000006332527846097946,0.001368476077914238
1782969969606121000,9.600120849609375,-0.00036562312743626535,-0.0003808913752436638,-0.0022358461283147335
1782969969616047000,9.610047119140624,0.0022512003779411316,-0.001512270886451006,0.0004141959361732006
1782969969625974000,9.61997412109375,-0.0021350260358303785,0.004099542275071144,0.0035250340588390827
1782969969635900000,9.62989990234375,-0.0012652388541027904,0.007404593750834465,0.0018795367795974016
1782969969645826000,9.639825927734375,-0.0012274220352992415,-0.00004613213241100311,-0.00013834040146321058
1782969969655753200,9.649753173828126,-0.0011034951312467456,0.02902098000049591,0.015305995009839535
1782969969665679000,9.65967919921875,-0.0018635612213984132,0.01620052382349968,0.0069833495654165745
1782969969675606000,9.66960595703125,-0.0022505666129291058,0.07787502557039261,0.0424637496471405
1782969969685532200,9.6795322265625,-0.0005749057163484395,0.000444148201495409,-0.0007423089700751007
1782969969695458000,9.6894580078125,0.003787976922467351,-0.0007359250448644161,0.0014476706273853779
1782969969705385000,9.699385009765624,-0.0012568490346893668,0.01071486808359623,0.0034538297913968563
1782969969715311000,9.70931103515625,0.0008172222878783941,-0.005397788714617491,-0.001693794154562056
1782969969725237200,9.7192373046875,0.002059586811810732,0.006376845762133598,0.004734544083476067
1782969969735164000,9.729163818359375,0.00037251890171319246,-0.0017501346301287413,-0.0014655942795798182
1782969969745090000,9.739090087890625,0.0026362058706581593,0.002303196582943201,0.00431373156607151
1782969969755017000,9.749016845703125,0.0011386681580916047,0.0003524399362504482,-0.002851806115359068
1782969969764943000,9.758943115234375,0.0003357251116540283,0.001222760882228613,0.0029248567298054695
1782969969774869000,9.768868896484374,-0.0025252224877476692,-0.0003094417043030262,-0.0011638911673799157
1782969969784796000,9.7787958984375,-0.0010322544258087873,0.000008806120604276657,0.0003402621950954199
1782969969794722000,9.78872216796875,0.003905859775841236,0.0004884847439825535,-0.0018460614373907447
1782969969804648000,9.79864794921875,-0.000022835418349131942,0.002209952101111412,0.0008442639373242855
1782969969814574800,9.808574951171876,-0.0007741761510260403,-0.0013107974082231522,-0.00037076487205922604
1782969969824501000,9.8185009765625,0.0003499441663734615,0.001813623122870922,-0.0006895452970638871
1782969969834428200,9.82842822265625,0.0009719599038362503,0.0013559102080762386,0.0005898334784433246
1782969969844354000,9.83835400390625,-0.0015370040200650692,-0.0006758151575922966,-0.0017548134783282876
1782969969854280000,9.848280029296875,0.0016009457176551223,-0.0012543736957013607,-0.0019179631490260363
1782969969864207000,9.85820703125,0.0010949451243504882,0.0001802709884941578,0.000608844100497663
1782969969874133000,9.868133056640625,-0.0008149459026753902,-0.0009654550813138485,0.0030278919730335474
1782969969884059000,9.878058837890626,-0.0002186640922445804,-0.0017380381468683481,-0.0017839076463133097
1782969969893986000,9.887986083984375,0.0022428070660680532,-0.0004296693950891495,-0.0018953592516481876
1782969969903912200,9.897912109375,0.0021906092297285795,0.000192178413271904,0.0006988260429352522
1782969969913839000,9.907839111328125,0.0002702962083276361,-0.000014903023838996887,0.0016045017400756478
1782969969923765000,9.917764892578125,0.0007842862978577614,0.001284186728298664,-0.0005816872580908239
1782969969933691100,9.927691162109374,0.0011827900307253003,0.0017090728506445885,0.00019668927416205406
1782969969943618000,9.9376181640625,0.0024232903961092234,0.0001567159779369831,0.0014627560740336776
1782969969953544200,9.947544189453126,0.0003878854331560433,-0.0005933074280619621,-0.002710450440645218
1782969969963470000,9.957469970703125,0.00012369986507110298,0.0008176355622708797,-0.0004968307912349701
1782969969973397000,9.96739697265625,-0.0023842824157327414,0.001660807989537716,-0.0009834636002779007
1782969969983323100,9.9773232421875,-0.0001624072901904583,0.0009995452128350735,-0.002496405504643917
1782969969993250000,9.98725,-0.0011467147851362824,-0.0005468833260238171,-0.001219883095473051
1782969970003176000,9.997176025390624,0.0004586386785376817,-0.001252621179446578,-0.0005745991365984082
1782969970013102000,10.00710205078125,0.000536131439730525,0.0007248451001942158,0.0010036594467237592
1782969970023029000,10.017029052734374,0.00047807450755499303,-0.00013082846999168396,-0.0003739937674254179
1782969970032955000,10.026954833984375,0.0009497161954641342,-0.0013787858188152313,0.002632981166243553
1782969970042881000,10.036881103515626,-0.003570200875401497,-0.0006469492800533772,0.0015291011659428477
1782969970052808000,10.046807861328125,-0.00023863092064857483,0.0004054713062942028,0.000772391096688807
1782969970062734000,10.056734130859375,-0.0005608734209090471,0.00019694585353136063,-0.0009469457436352968
1782969970072661000,10.066660888671874,-0.0015110902022570372,-0.002103956416249275,0.0009953672997653484
1782969970082587000,10.0765869140625,0.0018367695156484842,-0.003460570704191923,0.0022491835989058018
1782969970092513000,10.086512939453126,-0.0007556377677246928,0.0005171541124582291,-0.0011171135120093822
1782969970102440200,10.096440185546875,0.001100851921364665,-0.0012660985812544823,0.0021252851001918316
1782969970112366000,10.106365966796876,0.0009006817126646638,-0.00011670589447021484,-0.001356203923933208
1782969970122292000,10.1162919921875,0.001011469285003841,0.001516610849648714,0.002282206667587161
1782969970132219100,10.12621923828125,-0.0007727065240032971,-0.0013894648291170597,-0.00017099862452596426
1782969970142145300,10.136145263671875,-0.001617461210116744,-0.0006749387830495834,0.00028520089108496904
1782969970152072000,10.146072021484375,0.004827709402889013,0.0005880524404346943,-0.0005282306228764355
1782969970161998000,10.155998046875,-0.0024435194209218025,0.002810460515320301,0.0003892283421009779
1782969970171924200,10.16592431640625,-0.0016686166636645794,-0.0007405029609799385,-0.001915730070322752
1782969970181851100,10.17585107421875,-0.002376485150307417,-0.002047049580141902,0.00230751046910882
1782969970191777000,10.185777099609375,-0.0019840486347675323,0.0015874598175287247,-0.000025192508473992348
1782969970201703200,10.195703125,-0.00030172988772392273,0.0011898502707481384,-0.001380475121550262
1782969970211630000,10.205630126953125,-0.0022579398937523365,0.0008693705312907696,0.00003369350451976061
1782969970221556000,10.215555908203125,-0.000331675517372787,-0.00020707910880446434,0.00006511877290904522
1782969970231483000,10.22548291015625,0.002635357668623328,-0.0013520338106900454,0.0011002296814695
1782969970241409000,10.235408935546875,-0.0005678926827386022,0.0015273760072886944,0.002810778096318245
1782969970251335200,10.245335205078124,-0.0017487350851297379,0.0022180620580911636,0.0019009041134268045
1782969970261261800,10.25526171875,0.0017727628583088517,0.0017362963408231735,-0.0004948754794895649
1782969970271188000,10.26518798828125,-0.0015996471047401428,0.00196960661560297,-0.0015601657796651125
1782969970281114000,10.275114013671875,0.00041849634726531804,-0.00064854696393013,0.00020870589651167393
1782969970291041000,10.285041015625,-0.0020610354840755463,-0.00042368238791823387,0.00371972331777215
1782969970300967000,10.294966796875,0.00008360814535990357,-0.0030325150582939386,0.002187606878578663
1782969970310894000,10.30489404296875,0.00014069487224332988,0.00025034183636307716,-0.00026042701210826635
1782969970320820000,10.314820068359374,0.0009284579427912831,-0.0013643328566104174,0.0009457186097279191
1782969970330745900,10.324745849609375,-0.0016511159483343363,-0.00013580918312072754,-0.0007473404402844608
1782969970340673000,10.334673095703126,-0.00030142601463012397,-0.0009826943278312683,-0.00018381548579782248
1782969970350599200,10.34459912109375,-0.002275016624480486,-0.0009145052172243595,-0.001644084695726633
1782969970360525000,10.354525146484375,0.0003143750363960862,0.0004492993466556072,0.00025927647948265076
1782969970370452500,10.364452392578125,-0.0013681257842108607,0.00005062110722064972,-0.00023188977502286434
1782969970380378400,10.37437841796875,-0.0000634432362858206,-0.00012647919356822968,-0.0003935436252504587
1782969970390305300,10.38430517578125,0.0010731914080679417,-0.00008647982031106949,0.0014163482701405883
1782969970400231400,10.3942314453125,0.0003679863875731826,0.0014789262786507607,0.0003705249400809407
1782969970410157300,10.4041572265625,-0.004095075186342001,-0.0012470183428376913,-0.0004624557914212346
1782969970420084200,10.414084228515625,-0.0008103328291326761,-0.00034793512895703316,-0.00012476695701479912
1782969970430010400,10.42401025390625,-0.000657502212561667,0.0010813851840794086,0.0010817652801051736
1782969970439936500,10.4339365234375,-0.0007549739675596356,-0.0009596617892384529,0.0011550021590664983
1782969970449863200,10.44386328125,-0.0020001763477921486,0.0018153833225369453,-0.0005268531967885792
1782969970459789300,10.453789306640624,-0.000885377055965364,0.0020209793001413345,0.0010156497592106462
1782969970469716200,10.46371630859375,-0.0010638944804668427,-0.0008777626790106297,0.0005555155221372843
1782969970479642400,10.473642333984374,0.0008386677363887429,0.000847699586302042,0.0018729811999946833
1782969970489568300,10.483568359375,-0.002457287162542343,-0.00022385874763131142,-0.0023108310997486115
1782969970499495200,10.4934951171875,-0.00042236584704369307,0.0009085172787308693,-0.0007379682501778007
1782969970509421300,10.50342138671875,0.00008988908666651696,0.000017662066966295242,0.000929530244320631
1782969970519347200,10.51334716796875,-0.00118070503231138,0.0004797205328941345,-0.0002635660348460078
1782969970529274000,10.523274169921875,-0.001678377389907837,-0.00026518478989601135,0.0005067670717835426
1782969970539200300,10.5332001953125,0.0005102083086967468,-0.0020915805362164974,0.0006889272481203079
1782969970549127400,10.54312744140625,0.000743730051908642,-0.0005780388601124287,0.0005195034900680184
1782969970559053000,10.553052978515625,0.0012127126101404428,-0.0010598045773804188,-0.00241556647233665
1782969970568979200,10.562979248046876,0.0013898051111027598,-0.0005031637847423553,-0.002933645620942116
1782969970578906400,10.57290625,-0.001162302098236978,0.0003019100986421108,0.001718364073894918
1782969970588832300,10.582832275390626,0.0016556697664782405,-0.0006636674515902996,-0.002615586156025529
1782969970598758100,10.592758056640625,0.001467118039727211,0.0006442111916840076,-0.00013565062545239925
1782969970608685300,10.602685302734375,0.00007730846118647605,0.000666582491248846,-0.0012675134930759668
1782969970618611500,10.612611572265624,-0.0013315037358552217,-0.00021758675575256348,0.0027125803753733635
1782969970628538400,10.622538330078125,0.00009944209887180477,0.00149881886318326,-0.0028375552501529455
1782969970638464300,10.63246435546875,-0.0009772739140316844,-0.002443725010380149,-0.001386398682370782
1782969970648390400,10.642390380859375,-0.0017388418782502413,-0.00034021586179733276,0.000254411599598825
1782969970658317300,10.6523173828125,-0.0006850290228612721,-0.000281626358628273,-0.00029313424602150917
1782969970668243500,10.662243408203125,0.0011193054961040616,-0.0025812683161348104,0.0030933483503758907
1782969970678169300,10.67216943359375,0.000014892561011947691,-0.000019307248294353485,-0.0003325419966131449
1782969970688096300,10.68209619140625,0.00023504636192228645,-0.00043235626071691513,0.0009861321887001395
1782969970698022400,10.6920224609375,0.0006489015650004148,0.0012984317727386951,0.0008812035666778684
1782969970707949300,10.70194921875,-0.00038323114858940244,0.00018899748101830482,-0.0014636442065238953
1782969970717875200,10.711875244140625,0.0014157341793179512,0.00023693405091762543,-0.0008066423470154405
1782969970727801300,10.72180126953125,-0.0008513034554198384,-0.0021190254483371973,0.001668264507316053
1782969970737728300,10.731728271484375,-0.001986076356843114,-0.0005008885636925697,-0.00046412856318056583
1782969970747654100,10.741654052734376,-0.0010327919153496623,-0.0003341040574014187,0.0012293835170567036
1782969970757580300,10.751580322265625,0.0006236942717805505,-0.0019296035170555115,0.00234205205924809
1782969970767507200,10.761507080078125,0.003097220789641142,-0.00037013646215200424,-0.0017753022257238626
1782969970777433300,10.771433349609374,0.0009749478776939213,0.0003949897363781929,-0.001044530887156725
1782969970787360300,10.7813603515625,0.0014029769226908684,0.000653271097689867,0.0012401975691318512
1782969970797286400,10.791286376953124,0.0008501047268509865,0.000007721129804849625,0.0005983756855130196
1782969970807212300,10.80121240234375,-0.00006651037256233394,-0.00013365736231207848,0.0005712114507332444
1782969970817139500,10.811139404296876,-0.00016744417371228337,-0.000466818455606699,0.000820483430288732
1782969970827065300,10.8210654296875,0.0005176304839551449,-0.0012193750590085983,-0.0030836965888738632
1782969970836992300,10.8309921875,0.0013027302920818329,0.0003313836641609669,0.0006777520757168531
1782969970846918400,10.84091845703125,0.0006502181058749557,0.0005103605799376965,0.0016510479617863894
1782969970856844300,10.85084423828125,0.001951704965904355,0.0009990506805479527,-0.00038227566983550787
1782969970866771200,10.860771240234374,-0.000547438976354897,0.00007732724770903587,-0.0006114111165516078
1782969970876697300,10.870697265625,0.0004890633281320333,-0.0003676866181194782,-0.0013040993362665176
1782969970886623500,10.88062353515625,0.0008079917170107365,0.00012443028390407562,-0.0002809126162901521
1782969970896550100,10.890550048828125,-0.0024131014943122864,-0.0011205975897610188,0.0006663738749921322
1782969970906476300,10.900476318359376,-0.0003816516837105155,0.00025201495736837387,-0.0008977280813269317
1782969970916403200,10.9104033203125,0.002780586015433073,-0.0015400259289890528,0.0019268204923719168
1782969970926329300,10.920329345703125,0.0013450580881908536,-0.0032849404960870743,-0.001060116570442915
1782969970936255200,10.930255126953124,0.0012145631480962038,-0.00229690782725811,0.0003862461308017373
1782969970946182100,10.94018212890625,0.0002867219736799598,-0.001114626880735159,0.000056372606195509434
1782969970956108300,10.9501083984375,0.0005237433360889554,0.00008779019117355347,0.000846266164444387
1782969970966034200,10.9600341796875,0.0000990930711850524,0.0016930941492319107,0.0019385719206184149
1782969970975961000,10.969961181640626,0.0003377122920937836,0.0009926827624440193,-0.0015823933063074946
1782969970985887200,10.97988720703125,-0.0023827950935810804,-0.0004551699385046959,0.002842539921402931
1782969970995814400,10.989814453125,0.0015078169526532292,-0.0002794009633362293,0.0007591490866616368
1782969971005740300,10.999740234375,-0.00033109699143096805,-0.00032135238870978355,-0.0003004962345585227
1782969971015666200,11.009666259765625,-0.0009569398243911564,0.0005771978758275509,0.00016182847321033478
1782969971025593300,11.01959326171875,0.0022367879282683134,-0.0011331993155181408,0.0001678881235420704
1782969971035519500,11.02951953125,0.0007454176666215062,-0.0010421192273497581,-0.002132816705852747
1782969971045445000,11.039445068359376,0.0007506230031140149,-0.0004321127198636532,-0.00047495518811047077
1782969971055372300,11.049372314453125,-0.0004400762845762074,-0.000764741562306881,-0.0035088283475488424
1782969971065298400,11.05929833984375,0.002584011759608984,0.00023087440058588982,0.0013868650421500206
1782969971075225300,11.069225341796875,-0.00023547685123048723,0.0006897374987602234,-0.001375099178403616
1782969971085151200,11.079151123046875,-0.002116494346410036,-0.0007958956994116306,-0.001527912332676351
1782969971095077400,11.089077392578124,-0.00003496755380183458,0.0010147877037525177,0.00317656178958714
1782969971105004300,11.09900439453125,-0.0006777284434065223,-0.0002149292267858982,-0.000589534523896873
1782969971114930400,11.108930419921874,0.002268526703119278,0.00030412059277296066,-0.0006920662126503885
1782969971124856300,11.118856201171875,-0.0017580356216058135,0.0005838912911713123,0.0022628293372690678
1782969971134783200,11.128783203125,-0.0023354089353233576,0.0003308909945189953,-0.00003015215042978525
1782969971144709400,11.13870947265625,0.0008745569502934813,-0.0012765692081302404,-0.0010215641232207417
1782969971154636300,11.14863623046875,0.0017765696393325925,-0.0008065211586654186,-0.0008119734120555222
1782969971164562200,11.158562255859374,0.0005375839537009597,0.0010319906286895275,-0.00015970307867974043
1782969971174488300,11.16848828125,-0.0019793694373220205,0.001371543388813734,0.00014256569556891918
1782969971184415200,11.178415283203124,0.002835736609995365,-0.002329119946807623,-0.0013164948904886842
1782969971194341000,11.188341064453125,0.0014285221695899963,0.00005440926179289818,-0.00015615555457770824
1782969971204267300,11.198267333984376,-0.0011330648558214307,-0.00030205585062503815,0.0009199632331728935
1782969971214194200,11.208194091796875,-0.004277192987501621,-0.00011643348261713982,0.0001857298193499446
1782969971224120300,11.218120361328126,0.000307239533867687,-0.0013580091763287783,0.0005873108748346567
1782969971234047200,11.228047119140625,-0.0017625691834837198,-0.0013774503022432327,0.002501857466995716
1782969971243973400,11.237973388671875,0.0012394959339872003,-0.0007208725437521935,0.001129444339312613
1782969971253899300,11.247899169921874,-0.0008646677015349269,0.0008834158070385456,0.0009781765984371305
1782969971263826400,11.257826416015625,-0.00006148306420072913,-0.0006951447576284409,-0.0005196590209379792
1782969971273752300,11.26775244140625,0.0016935400199145079,0.0001322994939982891,-0.0017345930682495236
1782969971283678200,11.27767822265625,-0.0017778804758563638,-0.0002380935475230217,0.0006888987263664603
1782969971293605400,11.28760546875,-0.0011818649945780635,0.002483124379068613,-0.0002533276565372944
1782969971303531500,11.297531494140625,-0.000838851323351264,-0.000027188565582036972,0.00037643162067979574
1782969971313457200,11.30745703125,0.001092206803150475,-0.0030360280070453882,0.0011026756837964058
1782969971323384300,11.31738427734375,0.00021471890795510262,0.00030875904485583305,-0.0001671425998210907
1782969971333310500,11.327310546875,0.002357764635235071,-0.00013998337090015411,-0.0003413133090361953
1782969971343237400,11.3372373046875,0.0005529636982828379,-0.00044588977470993996,-0.00025483674835413694
1782969971353163300,11.347163330078125,0.0011971823405474424,-0.0020341991912573576,0.0007284021703526378
1782969971363090000,11.35708984375,-0.0015315526397898793,-0.0013462402857840061,0.0016088143456727266
1782969971373016800,11.367016845703125,-0.0018351529724895954,0.003668225836008787,-0.000046872999519109726
1782969971382943000,11.37694287109375,0.0007073807064443827,-0.00031869392842054367,-0.0007813046686351299
1782969971392870000,11.386869873046875,0.0010101820807904005,0.0023330156691372395,0.0031492547132074833
1782969971402796000,11.396796142578125,0.0007873473223298788,0.000928130466490984,0.0014657203573733568
1782969971412722000,11.406721923828124,0.0014877587091177702,0.00017871707677841187,0.0002768853446468711
1782969971422648800,11.41664892578125,-0.001020269002765417,0.0105800935998559,0.00537439389154315
1782969971432575000,11.426574951171874,-0.0013081567594781518,-0.00263397884555161,0.00028855539858341217
1782969971442500900,11.4365009765625,-0.001279896474443376,-0.0005743298679590225,0.0025310777127742767
1782969971452427800,11.446427734375,-0.0006889411015436053,-0.004880927968770266,-0.0067678820341825485
