time,seconds_elapsed,z,y,x
1782969960055699500,0.049699462890625,0.00001704423084447626,0.004936701618134975,0.0030043120495975018
1782969960065625000,0.059625,-0.001564873498864472,0.004351338837295771,0.004489024169743061
1782969960075551200,0.06955126953125,-0.0004572647449094802,0.007483216468244791,0.0020959076937288046
1782969960085478400,0.079478515625,0.00108257494866848,0.006138320080935955,0.00126739835832268
1782969960095404300,0.089404296875,-0.0023997745011001825,0.0054429685696959496,0.0015310513554140925
1782969960105330200,0.099330078125,0.00013635384675581008,0.005155880004167557,0.00004474110755836591
1782969960115257300,0.10925732421875,-0.005137504078447819,0.0049161952920258045,0.0006727144937030971
1782969960125183200,0.119183349609375,-0.001630120910704136,0.005489573813974857,0.0019150790758430958
1782969960135110400,0.1291103515625,-0.0005347627447918057,0.004110855516046286,0.0009898969437927008
1782969960145036300,0.139036376953125,0.00009933590627042577,0.002552906284108758,0.002226402750238776
1782969960154962200,0.148962158203125,0.0007400924805551767,0.0049007488414645195,0.0021313277538865805
1782969960164889300,0.158889404296875,-0.002478603972122073,0.002636795863509178,0.0024746092967689037
1782969960174815200,0.168815185546875,0.0014354437589645386,0.0075663067400455475,0.0011848403373733163
1782969960184742100,0.1787421875,-0.0007787083159200847,0.005281847435981035,0.0004953479510731995
1782969960194668300,0.188668212890625,0.0003616572648752481,0.0049255164340138435,0.0006716492353007197
1782969960204594400,0.198594482421875,-0.0018181400373578072,0.005154281854629517,0.0029675604309886694
1782969960214521300,0.208521240234375,0.000003462109361862531,0.004370247479528189,-0.0005078648100607097
1782969960224447200,0.218447265625,-0.0012261193478479981,0.005148156546056271,0.001329716295003891
1782969960234374400,0.22837451171875,0.0020397149492055178,0.005307946354150772,0.0007307713967747986
1782969960244300300,0.23830029296875,-0.0006274407496675849,0.006954578682780266,0.001264202524907887
1782969960254226200,0.24822607421875,0.0003121224872302264,0.004400340840220451,0.0017635452095419168
1782969960264153300,0.2581533203125,-0.0014953649369999766,0.0018868496408686042,0.00017896443023346364
1782969960274079200,0.268079345703125,-0.00024527712957933545,0.003849865635856986,0.001925199176184833
1782969960284006400,0.27800634765625,0.00028389296494424343,0.003291134489700198,0.00004846953015658073
1782969960293932300,0.287932373046875,0.0001637844106880948,0.004992095287889242,0.0035145736765116453
1782969960303858200,0.297858154296875,-0.0028786107432097197,0.00523710623383522,0.0034000577870756388
1782969960313785300,0.307785400390625,0.0006178533658385277,0.005997705273330212,0.0006143912323750556
1782969960323711500,0.31771142578125,-0.0015180017799139023,0.007821704261004925,0.002041046740487218
1782969960333637000,0.32763720703125,0.00004820321555598639,0.00443975580856204,-0.0012290488230064511
1782969960343564300,0.337564208984375,0.0014950985787436366,0.004824049770832062,0.0016724651213735342
1782969960353490200,0.347490234375,0.0004993426846340299,0.0033097765408456326,0.002941993996500969
1782969960363417000,0.3574169921875,-0.0004876247840002179,0.0028551749419420958,0.0028908613603562117
1782969960373343000,0.367343017578125,0.00041971419705078006,0.004126035608351231,0.003992344718426466
1782969960383269000,0.37726904296875,-0.0007949535502120852,0.0062728095799684525,0.0010226538870483637
1782969960393196000,0.387196044921875,0.00007376955909421667,0.004599545616656542,0.0013323795283213258
1782969960403122000,0.397121826171875,-0.001484712352976203,0.005782788153737783,0.002459961920976639
1782969960413049000,0.407049072265625,-0.0025220136158168316,0.006084257736802101,-0.000023435817638528533
1782969960422975000,0.41697509765625,0.0009587379754520953,0.007505586836487055,0.005391569808125496
1782969960432901000,0.426901123046875,-0.0020604876335710287,0.007214769721031189,0.0016796556301414967
1782969960442828000,0.436828125,-0.001985120354220271,0.005697567015886307,0.001942509668879211
1782969960452754000,0.44675390625,0.001579787116497755,0.004776911810040474,0.0024527714122086763
1782969960462681000,0.45668115234375,-0.0008442220860160887,0.0036727653350681067,-0.001157143502496183
1782969960472607200,0.466607177734375,-0.002817358123138547,0.006053631659597158,0.0013086773687973619
1782969960482532900,0.476532958984375,-0.0032890038564801216,0.005111937876790762,0.00033662354690022767
1782969960492460000,0.4864599609375,0.0025153555907309055,0.005107143893837929,0.0013757890556007624
1782969960502386200,0.49638623046875,-0.0019331886433064938,0.002808569697663188,0.0016535567119717598
1782969960512313000,0.50631298828125,-0.002528405049815774,0.0032522522378712893,0.002496979897841811
1782969960522239000,0.516239013671875,-0.0034581145737320185,0.003775030840188265,0.0008354336023330688
1782969960532165000,0.5261650390625,-0.0011981561547145247,0.0038988678716123104,0.002419215627014637
1782969960542092000,0.536092041015625,-0.00009241169027518481,0.0065042381174862385,0.00373028963804245
1782969960552018000,0.546017822265625,-0.0006090649403631687,0.004838697146624327,-0.00003834952076431364
1782969960561944000,0.555944091796875,-0.0011406318517401814,0.0038037928752601147,0.0002793656021822244
1782969960571871000,0.56587109375,-0.0013978932984173298,0.003826163476333022,0.001207743538543582
1782969960581797000,0.575797119140625,-0.00022556974727194756,0.004566788673400879,0.0012825783342123032
1782969960591724000,0.58572412109375,-0.0006490123341791332,0.005545500200241804,0.002862099092453718
1782969960601650000,0.59564990234375,-0.000984836951829493,0.0049406965263187885,-0.0004796353168785572
1782969960611576000,0.605576171875,-0.0035449336282908916,0.005390504375100136,0.0009502158500254154
1782969960621503200,0.615503173828125,-0.006079730577766895,0.005592371802777052,-0.0007392935222014785
1782969960631428900,0.625428955078125,0.0001257012045243755,0.0037438718136399984,0.0012183962389826775
1782969960641356000,0.63535595703125,-0.0034586472902446985,0.006688795518130064,-0.0002798982313834131
1782969960651282200,0.6452822265625,-0.0009084042394533753,0.0029968551825731993,0.002659432590007782
1782969960661208000,0.6552080078125,-0.0002969424531329423,0.0065345983020961285,-0.0021901836153119802
1782969960671135000,0.665135009765625,0.0006064017652533948,0.003754258155822754,0.0005536712124012411
1782969960681061000,0.67506103515625,-0.00141041015740484,0.002754773711785674,0.002353701740503311
1782969960690988000,0.684988037109375,-0.0033212280832231045,0.006039516534656286,0.001056209672242403
1782969960700914200,0.6949140625,0.0010660634143278003,0.005234443116933107,-0.0014879080699756742
1782969960710840000,0.704840087890625,0.00041731735109351575,0.004966262727975845,-0.0023608922492712736
1782969960720767000,0.71476708984375,0.0011435613268986344,0.006639526691287756,0.004039749037474394
1782969960730693000,0.724693115234375,0.0011118697002530098,0.004778243601322174,0.0015494271647185087
1782969960740620000,0.7346201171875,0.0007976167253218591,0.005022988189011812,0.0011486213188618422
1782969960750546000,0.7445458984375,-0.0002085255109705031,0.004707936197519302,0.0034671693574637175
1782969960760472000,0.75447216796875,0.000023968450477696024,0.005673598498106003,0.0007728493656031787
1782969960770399000,0.76439892578125,0.0008937568636611104,0.0062634884379804134,0.0002687129599507898
1782969960780324900,0.774324951171875,0.00013422331539914012,0.0065324679017066956,0.0014799186028540134
1782969960790252000,0.784251953125,0.00010412959818495438,0.003375822911038995,-0.00016458335448987782
1782969960800178200,0.79417822265625,-0.0017486315919086337,0.003555586328729987,-0.000794420950114727
1782969960810104000,0.80410400390625,-0.0005459480453282595,0.0037523938808590174,-0.0001637844106880948
1782969960820031000,0.814031005859375,-0.00004926848123432137,0.007837949320673943,0.0010351707460358739
1782969960829957000,0.82395703125,0.0026019082870334387,0.0052173989824950695,0.0012351741315796971
1782969960839883000,0.833883056640625,-0.0019411781104281545,0.006718888878822327,0.0007036071619950235
1782969960849810200,0.84381005859375,-0.0014343785587698221,0.004614192992448807,0.0038330876268446445
1782969960859736000,0.853736083984375,0.00039521310827694833,0.006016080733388662,0.00373002327978611
1782969960869663000,0.8636630859375,0.001136637176387012,0.004787298385053873,0.0008617989369668067
1782969960879589000,0.873589111328125,-0.000021837920940015465,0.0015656723408028483,0.0026101642288267612
1782969960889515000,0.883514892578125,-0.0000015978966985130683,0.005020058713853359,0.004570783115923405
1782969960899442000,0.89344189453125,-0.00013315805699676275,0.005164668429642916,0.0019353191601112485
1782969960909368000,0.9033681640625,-0.0008676578872837126,0.006432865746319294,0.0001400822657160461
1782969960919295000,0.913294921875,-0.0010455570882186294,0.006616090890020132,0.0003603257064241916
1782969960929221000,0.92322119140625,0.00049082055920735,0.007287740241736174,0.0004316983977332711
1782969960939147000,0.93314697265625,0.00025060345069505274,0.005884520709514618,0.0014066817238926888
1782969960949074000,0.943073974609375,0.0006226470577530563,0.0044293696992099285,0.0003438140847720206
1782969960959000000,0.953,0.00230789533816278,0.0049825082533061504,0.0017009610310196877
1782969960968927200,0.96292724609375,0.0008500810363329947,0.004422445315867662,0.0030000510159879923
1782969960978852900,0.972852783203125,-0.0003741741238627583,0.005622998345643282,0.00293400464579463
1782969960988779000,0.982779052734375,0.0005542038124985993,0.002019474981352687,0.003233610186725855
1782969960998706200,0.9927060546875,0.00026045716367661953,0.003073287894949317,0.00155262288171798
1782969961008632000,1.002632080078125,0.0004700479330495,0.0068182251416146755,0.00004953479583491571
1782969961018559000,1.01255908203125,-0.0009121326729655266,0.00461765518411994,0.001900964416563511
1782969961028485000,1.022485107421875,-0.00022184131375979632,0.002662628423422575,-0.0018184063956141472
1782969961038411300,1.032411376953125,0.0014860439114272594,0.0068123661912977695,0.004592088516801596
1782969961048338000,1.042337890625,-0.0000250337143370416,0.00535428524017334,0.0020546286832541227
1782969961058264000,1.05226416015625,-0.0032003207597881556,0.006923153530806303,0.0021856562234461308
1782969961068190200,1.062190185546875,-0.00022290658671408892,0.00361817074008286,0.0005052016349509358
1782969961078117000,1.0721171875,-0.003507649526000023,0.005409146659076214,0.003082076320424676
1782969961088043000,1.08204296875,-0.0008463526028208435,0.003242398612201214,0.00236302288249135
1782969961097970000,1.091969970703125,-0.0015989618841558695,0.005645102355629206,0.00336170825175941
1782969961107896000,1.10189599609375,-0.00020666129421442747,0.0065108961425721645,0.0024889903143048286
1782969961117822000,1.111822021484375,0.0004410194815136492,0.005052549298852682,0.0006093312404118478
1782969961127748900,1.121748779296875,-0.0017219999572262168,0.005776662845164537,0.0015632755821570754
1782969961137675000,1.131675048828125,-0.000041012681322172284,0.007932491600513458,-0.0008266451768577099
1782969961147602200,1.141602294921875,0.00016964336100500077,0.005514075048267841,0.00475374236702919
1782969961157527800,1.15152783203125,-0.0005251753609627485,0.005367867648601532,0.001127316034398973
1782969961167454000,1.161453857421875,-0.0002814961189869791,0.005960953421890736,0.004268248099833727
1782969961177381000,1.171381103515625,-0.0005805690889246762,0.0067998492158949375,0.0046725161373615265
1782969961187307000,1.18130712890625,-0.00021278657368384302,0.005930859595537186,0.0010929612908512354
1782969961197234200,1.191234130859375,-0.001145425601862371,0.005119128152728081,0.003498062025755644
1782969961207160000,1.20116015625,-0.001603489276021719,0.005393700208514929,0.00004474110755836591
1782969961217086000,1.2110859375,0.0003992078418377787,0.00407516909763217,0.001982190879061818
1782969961227013000,1.22101318359375,0.0003094593121204525,0.007494401652365923,0.0005608617211692035
1782969961236939000,1.23093896484375,0.0009494169498793781,0.003013632958754897,0.0023238742724061012
1782969961246865200,1.240865234375,-0.0010892328573390841,0.0019893813878297806,0.000824248360004276
1782969961256792000,1.2507919921875,-0.0004338289436418563,0.0054509579204022884,-0.00003888214996550232
1782969961266718200,1.26071826171875,-0.002388589084148407,0.005137504078447819,0.001912948559038341
1782969961276644900,1.270644775390625,-0.0006434197421185672,0.004114849958568811,-0.00037044569035060704
1782969961286571000,1.280571044921875,0.0005526058957912028,0.003573962254449725,0.0034402713645249605
1782969961296497200,1.2904970703125,-0.0012090750969946384,0.003959587775170803,0.00019441076437942684
1782969961306424000,1.300424072265625,-0.0014881744282320142,0.004324174486100674,-0.0008668589289300144
1782969961316350000,1.310349853515625,0.0026077672373503447,0.0026964505668729544,0.004477306269109249
1782969961326277000,1.320277099609375,0.002359560690820217,0.005261341109871864,0.0023816649336367846
1782969961336203000,1.330203125,-0.0004266384057700634,0.003939347807317972,-0.0015707324491813779
1782969961346129000,1.34012890625,-0.002531334524974227,0.003760383464396,0.003456783015280962
1782969961356056600,1.350056640625,-0.0005400890368036926,0.003573429537937045,0.001794171635992825
1782969961365982200,1.359982177734375,-0.0011688614031299949,0.002573678968474269,0.0006639260682277381
1782969961375909400,1.369909423828125,-0.0007574030314572155,0.006406500469893217,0.0007917577750049531
1782969961385835500,1.37983544921875,0.0009408948244526982,0.00484349112957716,0.004731371998786926
1782969961395761200,1.38976123046875,0.0010831075487658381,0.004202734678983688,-0.001321194227784872
1782969961405688300,1.399688232421875,0.0013496900210157037,0.0063037024810910225,0.0023758059833198786
1782969961415614500,1.409614501953125,0.0003483414766378701,0.0062219430692493916,0.0027092336677014828
1782969961425540400,1.419540283203125,-0.0015965650090947747,0.005635781679302454,0.002319879597052932
1782969961435467300,1.42946728515625,0.002032258315011859,0.004318581894040108,0.0012173309223726392
1782969961445393400,1.439393310546875,0.0005094627267681062,0.003882888937368989,0.005527390632778406
1782969961455320300,1.4493203125,-0.0014096111990511417,0.005692773032933474,-0.0005334311863407493
1782969961465246500,1.45924658203125,0.0020096213556826115,0.0046610645949840546,0.0013560815714299679
1782969961475172400,1.46917236328125,0.0005070658517070115,0.005588111001998186,0.0022767363116145134
1782969961485099300,1.479099365234375,-0.0005608617211692035,0.0070608388632535934,0.0031465247739106417
1782969961495025400,1.489025390625,0.000532365869730711,0.00375958438962698,0.0010157296201214194
1782969961504952300,1.498952392578125,-0.0006135923322290182,0.00455613574013114,0.0032418658956885338
1782969961514878200,1.508878173828125,-0.00009374327055411413,0.005820072256028652,0.0012697952333837748
1782969961524804400,1.518804443359375,-0.002061286708340049,0.0057135457172989845,0.0005480785621330142
1782969961534731300,1.528731201171875,0.00003914846820407547,0.0054482948035001755,0.0009779128013178706
1782969961544657200,1.5386572265625,-0.0007028082036413252,0.007166566327214241,0.0011835087789222598
1782969961554584300,1.548584228515625,0.001032507512718439,0.007766310125589371,0.002615490462630987
1782969961564510500,1.558510498046875,-0.0008886968716979027,0.004791293293237686,0.0018466358305886388
1782969961574436400,1.568436279296875,-0.000526773277670145,0.0046570696868002415,0.00242107966914773
1782969961584363300,1.57836328125,-0.0007355650886893272,0.005080778617411852,0.003576359013095498
1782969961594289400,1.588289306640625,-0.0007089334540069103,0.007734618615359068,0.003044259501621127
1782969961604215300,1.59821533203125,0.0006657902849838138,0.004354268312454224,-0.0006705839768983424
1782969961614142500,1.608142578125,-0.0014612764352932572,0.005224056541919708,-0.0006487460341304541
1782969961624068400,1.618068359375,-0.0010420948965474963,0.002865028567612171,0.002490055514499545
1782969961633995300,1.627995361328125,0.0003632551815826446,0.0030890004709362984,-0.00019893812714144588
1782969961643921400,1.63792138671875,-0.00010812433902174234,0.004906075540930033,0.0018421085551381111
1782969961653847300,1.647847412109375,-0.00012783173588104546,0.003314570290967822,0.0027350664604455233
1782969961663774200,1.657774169921875,-0.0009992180857807398,0.004649879410862923,0.0032296155113726854
1782969961673700400,1.667700439453125,-0.000630902883131057,0.004003529902547598,0.0007976167253218591
1782969961683627300,1.677627197265625,-0.002406432293355465,0.006046707276254892,0.0007805725326761603
1782969961693553400,1.687553466796875,-0.0009118663729168475,0.007542338687926531,0.002701244316995144
1782969961703479300,1.697479248046875,0.0014729943359270692,0.005572398193180561,0.0008612662786617875
1782969961713406200,1.70740625,0.0010820423485711217,0.0052352421917021275,0.000782436749432236
1782969961723332400,1.717332275390625,-0.001186970854178071,0.005620068870484829,0.0029981867410242558
1782969961733258200,1.72725830078125,-0.0019355855183675885,0.003582217963412404,0.00038456046604551375
1782969961743185400,1.737185302734375,-0.0025007082149386406,0.005446697119623423,-0.0005376922199502587
1782969961753111300,1.747111328125,0.0004165183927398175,0.004576376173645258,0.00018961707246489823
1782969961763038500,1.75703857421875,-0.00447038235142827,0.006272010505199432,0.0017054883064702153
1782969961772964400,1.76696435546875,0.0010934938909485936,0.004162520635873079,0.00038402783684432507
1782969961782890200,1.77689013671875,0.0010194580536335707,0.005548429675400257,0.003907389938831329
1782969961792817400,1.7868173828125,-0.0002777676854748279,0.005705556366592646,0.003352653468027711
1782969961802743600,1.79674365234375,0.003240001853555441,0.004240817856043577,0.0010897654574364424
1782969961812670200,1.806670166015625,-0.001967543503269553,0.00535428524017334,0.0037438718136399984
1782969961822596400,1.816596435546875,0.0010732539230957627,0.0029230855870991945,0.0016476977616548538
1782969961832522500,1.8265224609375,-0.00001651159800530877,0.005834719631820917,0.004163586068898439
1782969961842449400,1.836449462890625,-0.000007190534688561456,0.005185441114008427,0.0007464840309694409
1782969961852375300,1.846375244140625,-0.0012178635224699974,0.006536995060741901,0.0011459582019597292
1782969961862302200,1.85630224609375,-0.0014117417158558965,0.005021656397730112,0.0011768508702516556
1782969961872228400,1.866228271484375,0.00008681904728291556,0.00390286254696548,0.00036458674003370106
1782969961882154200,1.876154296875,-0.0005451490869745612,0.0028823392931371927,0.001187237212434411
1782969961892081200,1.8860810546875,0.00032570460462011397,0.004086886998265982,0.005736981518566608
1782969961902007300,1.89600732421875,-0.0011145329335704446,0.004211256746202707,0.0011134676169604063
1782969961911933400,1.905933349609375,0.0008351673022843897,0.003994208760559559,-0.0014082795241847634
1782969961921860000,1.915860107421875,0.0008279767935164273,0.004535629414021969,0.0025680861435830593
1782969961931786200,1.9257861328125,-0.0015757924411445856,0.004188087303191423,0.00035926041891798377
1782969961941713400,1.93571337890625,0.00013768543431069702,0.0036823528353124857,0.0024375913199037313
1782969961951639300,1.945639404296875,0.001627191435545683,0.0039044604636728764,0.001832521171309054
1782969961961565200,1.955565185546875,-0.001710548298433423,0.006566023454070091,0.0022058964241296053
1782969961971492400,1.965492431640625,0.0011321097845211625,0.00549356872215867,0.001933454885147512
1782969961981418500,1.97541845703125,-0.000833036785479635,0.007413707673549652,-0.0006021407316438854
1782969961991345400,1.985345458984375,0.00033103092573583126,0.0031590417493134737,0.0002921487612184137
1782969962001271300,1.995271240234375,0.0006301039247773588,0.0036756948102265596,0.0019654128700494766
1782969962011197400,2.005197509765625,-0.002665824256837368,0.006394782569259405,0.0011169298086315393
1782969962021124400,2.015124267578125,-0.0009353021741844714,0.007269097957760096,0.0012029499048367143
1782969962031050500,2.025050537109375,-0.0013254552613943815,0.003581951605156064,-0.0007054713787510991
1782969962040977200,2.03497705078125,0.0006892260862514377,0.006703709252178669,0.004351338837295771
1782969962050903300,2.0449033203125,-0.0004308994684834033,0.005905027035623789,0.001880191732198
1782969962060829400,2.054829345703125,-0.00020825919636990875,0.003136138431727886,0.0035712989047169685
1782969962070756400,2.06475634765625,-0.0007451524725183845,0.005191565956920385,0.0011550129856914282
1782969962080682200,2.07468212890625,-0.0016980315558612347,0.006717557553201914,-0.002641589380800724
1782969962090608400,2.0846083984375,0.0008740494376979768,0.005650162696838379,0.0006801713607273996
1782969962100535300,2.094535400390625,-0.0037441381718963385,0.006165750324726105,0.0026288062799721956
1782969962110461200,2.104461181640625,-0.0003051982494071126,0.004305532667785883,0.0008596684201620519
1782969962120388400,2.114388427734375,-0.0026469158474355936,0.004101268015801907,0.0030184267088770866
1782969962130314200,2.124314208984375,-0.0023044333793222904,0.004825381562113762,0.005674663465470076
1782969962140240400,2.134240478515625,-0.000031425301131093875,0.0048861014656722546,0.00330205331556499
1782969962150167300,2.144167236328125,-0.0024711471050977707,0.005142031237483025,0.0005749764968641102
1782969962160093200,2.15409326171875,-0.0014532869681715965,0.0034991272259503603,0.000014381069377122913
1782969962170020400,2.164020263671875,0.0006777744856663048,0.0037228327710181475,-0.0016178702935576439
1782969962179946500,2.173946533203125,-0.0005720470217056572,0.004037884995341301,0.005502623505890369
1782969962189872400,2.183872314453125,-0.0006114617572166026,0.004020041786134243,0.0013467605458572507
1782969962199799300,2.19379931640625,0.0014330470003187656,0.00666269613429904,0.002151035238057375
1782969962209725400,2.203725341796875,-0.0004652542411349714,0.005884787067770958,0.0012306467397138476
1782969962219651300,2.2136513671875,-0.0008623315370641649,0.0031577101908624172,0.002180862706154585
1782969962229578200,2.223578125,-0.0023180153220891953,0.005868275184184313,0.001847967505455017
1782969962239504400,2.23350439453125,-0.00039175100391730666,0.003375822911038995,0.0008378304773941636
1782969962249431300,2.243431396484375,-0.002005093963816762,0.006174272391945124,0.0002948119363281876
1782969962259357200,2.253357177734375,-0.0013997574569657445,0.004590224474668503,0.0004876247840002179
1782969962269283300,2.263283447265625,-0.00042264367220923305,0.006961236707866192,-0.00048629322554916143
1782969962279210200,2.273210205078125,0.0004324973560869694,0.0030099046416580677,0.0008809737046249211
1782969962289136400,2.283136474609375,0.0003579288604669273,0.007816111668944359,0.00024181502521969378
1782969962299063600,2.2930634765625,-0.0017398431664332747,0.006091448478400707,0.0005403553950600326
1782969962308989200,2.3029892578125,-0.001535312389023602,0.005938316695392132,0.0010548781137913465
1782969962318915300,2.312915283203125,0.0000697748182574287,0.004403536673635244,0.0027481159195303917
1782969962328842500,2.322842529296875,-0.000600809114985168,0.006117547396570444,0.0024895230308175087
1782969962338768100,2.33276806640625,-0.0021792647894471884,0.00629012007266283,0.001651426195167005
1782969962348694300,2.3426943359375,-0.0021310613956302404,0.0035414716694504023,0.002692722249776125
1782969962358621200,2.35262109375,-0.0012269183062016964,0.00566933723166585,0.003067961661145091
1782969962368547000,2.362547119140625,-0.00046818371629342437,0.006372145377099514,-0.0004767058417201042
1782969962378474000,2.372473876953125,-0.0015811186749488115,0.004889830015599728,0.0036043222062289715
1782969962388400000,2.382400146484375,0.001916410750709474,0.00387330143712461,0.0026200178544968367
1782969962398326300,2.392326171875,-0.0012663330417126417,0.003853061469271779,0.0020511667244136333
1782969962408253000,2.4022529296875,-0.0023995081428438425,0.006018743850290775,0.001856223214417696
1782969962418179000,2.412178955078125,-0.00021971078240312636,0.005190767347812653,0.0006865629111416638
1782969962428106000,2.42210595703125,-0.0015683355741202831,0.004521514754742384,0.0006372944335453212
1782969962438032100,2.4320322265625,-0.0000900148443179205,0.0059753344394266605,0.00236249016597867
1782969962447958000,2.4419580078125,0.000401604687795043,0.004191815387457609,0.0026762105990201235
1782969962457885000,2.451885009765625,-0.00040613205055706203,0.0038101845420897007,0.002433863002806902
1782969962467811000,2.46181103515625,-0.00014141385327093303,0.002953711897134781,0.002025333931669593
1782969962477738200,2.47173828125,0.000966993800830096,0.003340935567393899,0.0011555455857887864
1782969962487663900,2.481663818359375,0.0013968279818072915,0.004260791465640068,-0.0004964132094755769
1782969962497590000,2.491590087890625,0.0008511462947353721,0.003993676509708166,0.0015065502375364304
1782969962507517200,2.50151708984375,-0.0001150485550169833,0.004740426782518625,0.0012775183422490954
1782969962517442800,2.51144287109375,-0.0032631712965667248,0.006112753413617611,-0.0011065434664487839
1782969962527369000,2.521368896484375,-0.0014881744282320142,0.0029459886718541384,0.0012532835826277733
1782969962537296100,2.531296142578125,0.002968625631183386,0.005291967187076807,0.001291100517846644
1782969962547222000,2.541221923828125,-0.003522030543535948,0.004796885885298252,-0.0009768474847078323
1782969962557149000,2.55114892578125,-0.0019244002178311348,0.005459479987621307,-0.0013054815353825688
1782969962567075000,2.561074951171875,-0.00004394215648062527,0.0054509579204022884,0.0017425062833353877
1782969962577001200,2.571001220703125,0.00038775624125264585,0.006461095064878464,0.002101234160363674
1782969962586928000,2.58092822265625,0.0005573995877057314,0.004234958905726671,0.0009523464250378311
1782969962596854000,2.59085400390625,0.00008362325752386823,0.004566522315144539,-0.00046578687033616006
1782969962606781000,2.600781005859375,0.00034674355993047357,0.0051897019147872925,0.002112419344484806
1782969962616707000,2.61070703125,0.0025952504947781563,0.0041159153915941715,0.0012239888310432434
1782969962626633000,2.620633056640625,-0.0012639362830668688,0.0036519928835332394,0.0015195996966212988
1782969962636560000,2.630559814453125,-0.00025273399660363793,0.003469299990683794,0.0005787048721686006
1782969962646486000,2.640486083984375,0.0014655375853180885,0.003923901356756687,0.0009398295660503209
1782969962656412200,2.650412109375,-0.001219727797433734,0.008110657334327698,0.0022983080707490444
1782969962666339000,2.660339111328125,-0.001674861996434629,0.005679723806679249,-0.0008961536805145442
1782969962676265000,2.670264892578125,-0.0008125304593704641,0.007859786972403526,0.001163268811069429
1782969962686192000,2.680192138671875,-0.0011134676169604063,0.004710066597908735,0.000565389113035053
1782969962696118000,2.690117919921875,0.00008548746700398624,0.004969192203134298,0.0012362393317744136
1782969962706044000,2.7000439453125,-0.001335841603577137,0.0031971249263733625,0.0015313175972551107
1782969962715971000,2.70997119140625,-0.0026841999497264624,0.00509995361790061,0.0005422196118161082
1782969962725897000,2.71989697265625,-0.0014266553334891796,0.005604356061667204,0.0012668657582253218
1782969962735824100,2.72982421875,-0.00019414443522691727,0.0027148264925926924,0.003870371961966157
1782969962745750000,2.73975,0.00007004113285802305,0.005828061606734991,0.0025859293527901173
1782969962755676000,2.749676025390625,-0.003043194068595767,0.00418276060372591,0.002671150490641594
1782969962765603000,2.75960302734375,0.00027616979787126184,0.007843275554478168,0.002844256116077304
1782969962775529200,2.769529296875,-0.0009185242815874517,0.0032661007717251778,0.002207494108006358
1782969962785455000,2.779455078125,0.0006964165950194001,0.004920190200209618,0.0025004418566823006
1782969962795382000,2.789382080078125,-0.0032445292454212904,0.004573446698486805,0.0015326491557061672
1782969962805308200,2.79930810546875,0.00019361180602572858,0.005774265620857477,0.0007909588166512549
1782969962815235000,2.809235107421875,-0.000023968450477696024,0.004898352082818747,0.000601075473241508
1782969962825161000,2.819160888671875,0.0005523395957425237,0.00520647969096899,0.0015795208746567369
1782969962835087000,2.829087158203125,-0.0003424825263209641,0.0037526602391153574,0.0010801780736073852
1782969962845014000,2.839013916015625,-0.0007792409160174429,0.0052197957411408424,-0.001047687605023384
1782969962854940000,2.84893994140625,-0.0011145329335704446,0.0059756007976830006,0.0004689826746471226
1782969962864867000,2.8588671875,-0.00034594463068060577,0.0026700852904468775,0.0006340986583381891
1782969962874793000,2.86879296875,-0.0022892532870173454,0.0030184267088770866,0.0001531317684566602
1782969962884719000,2.878718994140625,-0.0005097290268167853,0.005015264730900526,0.001669269404374063
1782969962894646000,2.88864599609375,-0.0005036037764512002,0.006613427773118019,0.0006548712844960392
1782969962904572000,2.898572021484375,-0.001567802974022925,0.004500742070376873,0.00019467707898002118
1782969962914498000,2.908498046875,0.0007835020078346133,0.00563977612182498,0.001112935016863048
1782969962924425200,2.91842529296875,0.001278849900700152,0.00395772373303771,0.0010823087068274617
1782969962934350800,2.928350830078125,-0.00017550231132190675,0.0033095101825892925,0.003427221905440092
1782969962944278000,2.938278076171875,-0.00007190534961409867,0.006359362509101629,0.0010937602492049336
1782969962954204200,2.9482041015625,-0.00005965480886516161,0.005095425993204117,-0.00038269624928943813
1782969962964130000,2.958130126953125,-0.0009952232940122485,0.00495054991915822,0.0007302387384697795
1782969962974057000,2.968056884765625,-0.0021193434949964285,0.006595318205654621,-0.0019507654942572117
1782969962983983000,2.977983154296875,-0.002097771968692541,0.003938815090805292,0.001323857344686985
1782969962993910000,2.987909912109375,-0.00036698358599096537,0.005796370096504688,0.0001917476038215682
1782969963003836200,2.997836181640625,-0.000657534459605813,0.005197691265493631,0.004160123877227306
1782969963013762000,3.007761962890625,-0.0020937772933393717,0.006798517424613237,0.001702026231214404
1782969963023689000,3.01768896484375,0.0004034689045511186,0.0057524279691278934,-0.0010705908061936498
1782969963033615000,3.027614990234375,0.0004468784318305552,0.005437642335891724,0.0016474314033985138
1782969963043542300,3.037542236328125,0.002841326640918851,0.003713778220117092,0.0046538738533854485
1782969963053468000,3.047468017578125,0.0024519723374396563,0.004098604898899794,0.000474575295811519
1782969963063394000,3.05739404296875,-0.0018572885310277343,0.005468801129609346,-0.00025832661776803434
1782969963073321200,3.0673212890625,-0.0012623383663594723,0.006952714640647173,-0.001169394003227353
1782969963083246800,3.077246826171875,-0.0021020330023020506,0.003549194661900401,0.002064482541754842
1782969963093173000,3.087173095703125,0.0010586065473034978,0.00515854312106967,0.002368082758039236
1782969963103100200,3.09710009765625,-0.002108957152813673,0.002757969545200467,0.000830107310321182
1782969963113026000,3.107026123046875,-0.00230842805467546,0.005423261318355799,0.001085770782083273
1782969963122953000,3.116952880859375,-0.0013177321525290608,0.00851705577224493,0.001740642124786973
1782969963132879000,3.126879150390625,0.0002639192680362612,0.006511428859084845,0.00008149272616719827
1782969963142805000,3.136804931640625,-0.00036378781078383327,0.0037502634804695845,0.0013486248208209872
1782969963152732200,3.146732177734375,-0.0026554379146546125,0.007367901504039764,0.0034107104875147343
1782969963162658000,3.156657958984375,-0.0018157431622967124,0.0065077003091573715,-0.0005360943032428622
1782969963172585000,3.1665849609375,0.0017688715597614646,0.0041193775832653046,0.002266882685944438
1782969963182511000,3.176510986328125,-0.0007219829712994397,0.004559065215289593,0.0012903015594929457
1782969963192437000,3.18643701171875,-0.00031558459158986807,0.0054938350804150105,0.0022535668686032295
1782969963202364000,3.196364013671875,-0.0009153284481726587,0.0038954056799411774,0.0015853798249736428
1782969963212290000,3.2062900390625,0.0009382316493429244,0.003834685543552041,0.0033747577108442783
1782969963222216200,3.21621630859375,-0.0017190704820677638,0.00347462622448802,0.004172108136117458
1782969963232142800,3.226142822265625,-0.000594950164668262,0.006617689039558172,0.0011954930378124118
1782969963242069000,3.236069091796875,-0.00014034859486855567,0.005422728601843119,0.0032714270055294037
1782969963251996200,3.24599609375,0.0005211806274019182,0.004800347611308098,0.0010772485984489322
1782969963261922000,3.255922119140625,-0.0011520835105329752,0.00657534459605813,0.002531867241486907
1782969963271848000,3.265847900390625,-0.0005613943794742227,0.005573729984462261,0.001288171042688191
1782969963281775000,3.275775146484375,-0.0012929646763950586,0.0062973108142614365,0.002528671408072114
1782969963291701000,3.285700927734375,0.0001448759576305747,0.005531385540962219,0.0032804817892611027
1782969963301628200,3.295628173828125,0.0016042882343754172,0.004264785908162594,0.0023153522051870823
1782969963311554000,3.305553955078125,0.002067678142338991,0.005446164403110743,0.002409894485026598
1782969963321480000,3.31547998046875,0.0008945558220148087,0.0009536779834888875,0.0025515747256577015
1782969963331407000,3.325406982421875,0.00006285060226218775,0.00392709719017148,0.0030024477746337652
1782969963341333200,3.335333251953125,-0.0012897689593955874,0.00532499048858881,0.0008008125587366521
1782969963351259000,3.3452587890625,0.0025984463281929493,0.004477838985621929,0.0023193468805402517
1782969963361186300,3.355186279296875,0.0005451490869745612,0.004473844077438116,0.00261788722127676
1782969963371112400,3.365112548828125,-0.0017467673169448972,0.004805674310773611,0.0018290589796379209
1782969963381039400,3.375039306640625,0.002561161993071437,0.004442685283720493,0.0029087045695632696
1782969963390965200,3.38496533203125,-0.0031193606555461884,0.004355333745479584,-0.0007017429452389479
1782969963400891400,3.394891357421875,-0.0010189254535362124,0.004096208140254021,0.0006572681595571339
1782969963410818300,3.404818359375,0.0016764599131420255,0.003034672001376748,-0.0014474280178546906
1782969963420744200,3.414744140625,-0.0004394215648062527,0.003996872343122959,-0.0005075985100120306
1782969963430671000,3.424671142578125,0.0001651159836910665,0.005308212712407112,0.001960885478183627
1782969963440597200,3.43459716796875,-0.0001882854849100113,0.005017129238694906,0.002171275205910206
1782969963450523400,3.4445234375,0.0011622034944593906,0.003853061469271779,0.002014415105804801
1782969963460450000,3.454449951171875,0.0012373046483844519,0.0032735576387494802,0.00029401297797448933
1782969963470376200,3.464376220703125,-0.0005209143273532391,0.005828594323247671,0.0027502465527504683
1782969963480302300,3.47430224609375,0.00006631271389778703,0.0044107274152338505,0.0006564692012034357
1782969963490229200,3.484229248046875,-0.0010801780736073852,0.004878378473222256,0.0034445326309651136
1782969963500155100,3.494155029296875,-0.0011715245200321078,0.006313289515674114,0.001285241567529738
1782969963510082300,3.504082275390625,0.002100435085594654,0.006469350773841143,0.003242931328713894
1782969963520008400,3.514008544921875,-0.0008101335843093693,0.0019627497531473637,0.00395585922524333
1782969963529934300,3.523934326171875,0.002004561247304082,0.0051897019147872925,0.0007648598402738571
1782969963539861200,3.533861328125,0.0023315974976867437,0.005215002223849297,0.0017749968683347106
1782969963549787400,3.543787353515625,-0.001487641828134656,0.007511445786803961,-0.0006570018595084548
1782969963559714300,3.55371435546875,0.0001531317684566602,0.00195156445261091,0.001555552356876433
1782969963569640400,3.563640380859375,-0.00046845004544593394,0.004740693140774965,-0.0000250337143370416
1782969963579566300,3.57356640625,-0.00021198761533014476,0.005449360236525536,0.0014207963831722736
1782969963589493200,3.5834931640625,0.003564108395949006,0.00535508431494236,0.002873817225918174
1782969963599419400,3.59341943359375,-0.002484462922438979,0.005861084908246994,0.0046421559527516365
1782969963609345300,3.60334521484375,0.0017757958266884089,0.007722101639956236,0.0011917646043002605
1782969963619272200,3.613272216796875,0.0009912285022437572,0.006089583970606327,0.0013941648649051785
1782969963629198300,3.6231982421875,-0.0021020330023020506,0.0049007488414645195,0.002101234160363674
1782969963639125200,3.633125244140625,-0.002037051832303405,0.004948153160512447,0.0018309232546016574
1782969963649051100,3.643051025390625,0.0014921691035851836,0.005430984310805798,0.0029795446898788214
1782969963658977300,3.652977294921875,-0.0009499495499767363,0.005221393425017595,0.0010013486025854945
1782969963668904200,3.662904296875,-0.0008713863207958639,0.006078931502997875,0.0033249566331505775
1782969963678830300,3.672830322265625,-0.0024256070610135794,0.006200904026627541,0.001303351018577814
1782969963688757200,3.68275732421875,0.001776594785042107,0.0039113848470151424,0.0033995250705629587
1782969963698683100,3.69268310546875,-0.0015811186749488115,0.005550294183194637,0.00007084008393576369
1782969963708609300,3.702609375,-0.004536694847047329,0.0065202172845602036,0.002828276949003339
1782969963718536400,3.712536376953125,0.0002258360618725419,0.002837864449247718,0.0033542513847351074
1782969963728462300,3.72246240234375,-0.0023734092246741056,0.004905010107904673,0.0002564624010119587
1782969963738388200,3.73238818359375,-0.001862614881247282,0.005152684170752764,0.004026965703815222
1782969963748315400,3.7423154296875,-0.00290391081944108,0.008973521180450916,-0.0010460896883159876
1782969963758241300,3.7522412109375,-0.00009161273919744417,0.004320712294429541,0.0036858150269836187
1782969963768168200,3.762168212890625,-0.0002306297537870705,0.005116731394082308,0.0006274407496675849
1782969963778094300,3.77209423828125,-0.00028096348978579044,0.002579537918791175,0.0028394623659551144
1782969963788020500,3.7820205078125,0.0004415521107148379,0.006472812965512276,0.0014937670202925801
1782969963797947400,3.791947509765625,-0.00015393071225844324,0.005381183233112097,0.002356631215661764
1782969963807873300,3.801873291015625,0.00045327001134864986,0.0027169568929821253,0.003919107839465141
1782969963817800200,3.81180029296875,-0.0008165251929312944,0.0026999127585440874,0.0024522386956959963
1782969963827726300,3.821726318359375,-0.000743554555810988,0.005026716738939285,0.0006117281154729426
1782969963837652200,3.83165234375,-0.0010831075487658381,0.004542820155620575,-0.0006293049664236605
1782969963847579100,3.8415791015625,0.0015694007743149996,0.005622199270874262,0.002867691917344928
1782969963857505300,3.85150537109375,-0.0012857741676270962,0.00487225316464901,0.0020964404102414846
1782969963867431400,3.861431396484375,-0.0008689894457347691,0.004485296085476875,0.000004261057711119065
1782969963877358000,3.871358154296875,-0.0025829998776316643,0.006636863574385643,0.0024956483393907547
1782969963887284200,3.8812841796875,0.0024977787397801876,0.005712480284273624,0.0017787253018468618
1782969963897211400,3.89121142578125,0.0010109359864145517,0.0052964948117733,0.002037850907072425
1782969963907137300,3.90113720703125,-0.001151018193922937,0.005922870244830847,0.0022863238118588924
1782969963917063200,3.911063232421875,-0.0028154938481748104,0.005514341406524181,-0.00026551715563982725
1782969963926990300,3.920990234375,0.002115082461386919,0.005310875829309225,-0.0005150553770363331
1782969963936916200,3.930916259765625,0.0004889564006589353,0.004718055948615074,0.000675111310556531
1782969963946842000,3.940842041015625,0.0012178635224699974,0.0062738750129938126,0.0015544871566817164
1782969963956769300,3.950769287109375,0.00003888214996550232,0.003436809405684471,0.003739610780030489
1782969963966695400,3.9606953125,0.0000066579027588886674,0.006976683158427477,0.0011233213590458035
1782969963976622300,3.970622314453125,-0.0002532666258048266,0.0041345576755702496,0.0009531453251838684
1782969963986546200,3.980546142578125,0.0014322480419650674,0.004504736978560686,0.0018130800453945994
1782969963996472300,3.990472412109375,0.0003861583536490798,0.004219512455165386,0.0003075950953643769
1782969964006398200,4.000398193359375,0.0010042780777439475,0.006010754499584436,0.0034290861804038286
1782969964016325000,4.0103251953125,-0.00008628641808172688,0.005850432440638542,0.0018319884547963738
1782969964026251300,4.020251220703125,-0.0004849616379942745,0.005120193585753441,0.0019941749051213264
1782969964036178400,4.030178466796875,-0.0003427488263696432,0.003204049076884985,-0.0018924422329291701
1782969964046104300,4.040104248046875,-0.0037052559200674295,0.0054424358531832695,0.00185089698061347
1782969964056030200,4.0500302734375,0.0006737797521054745,0.004650145769119263,0.002555569401010871
1782969964065957400,4.059957275390625,-0.0018463695887476206,0.007889880798757076,0.0010836402652785182
1782969964075883300,4.06988330078125,-0.0018322548130527139,0.006833937484771013,0.0013366405619308352
1782969964085810200,4.07981005859375,0.00026019083452410996,0.003734284546226263,0.00202293717302382
1782969964095736300,4.089736328125,-0.003192064817994833,0.0085452850908041,0.0017156084068119526
1782969964105662500,4.099662353515625,-0.003578489413484931,0.006539391819387674,0.0007414240390062332
1782969964115589400,4.10958935546875,-0.0004524710529949516,0.0007523429812863469,0.004668254870921373
1782969964125515300,4.119515380859375,-0.0015459649730473757,0.003665042342618108,0.001350488979369402
1782969964135441400,4.12944140625,-0.0007741809240542352,0.0038954056799411774,0.001957956003025174
1782969964145368300,4.139368408203125,0.00032197617110796273,0.0054727960377931595,0.0007102650706656277
1782969964155294200,4.149294189453125,0.00044474788592197,0.005434180144220591,0.001680987305007875
1782969964165221000,4.15922119140625,-0.0015097459545359015,0.00245090713724494,0.002782204421237111
1782969964175147300,4.169147216796875,0.0006495449924841523,0.0038242992013692856,0.0035057852510362864
1782969964185073400,4.179073486328125,-0.0004956142511218786,0.00273133791051805,0.002463423879817128
1782969964195000300,4.189000244140625,0.001156877144239843,0.0030927290208637714,0.002516420790925622
1782969964204926200,4.19892626953125,0.00022290658671408892,0.0041039311327040195,0.0005893575726076961
1782969964214853400,4.208853271484375,-0.00004447478931979276,0.006147907115519047,0.0016202671686187387
1782969964224779300,4.218779296875,-0.0023457121569663286,0.0026644926983863115,0.0008615325787104666
1782969964234705200,4.228705078125,0.0032567796297371387,0.0021915151737630367,0.0025414545089006424
1782969964244632300,4.23863232421875,-0.001570998691022396,0.004996356554329395,0.0035412053111940622
1782969964254558200,4.24855810546875,-0.0024628913961350918,0.004289287142455578,0.00455693481490016
1782969964264484400,4.258484375,0.0010237190872430801,0.004947620443999767,0.0011973571963608265
1782969964274411300,4.268411376953125,-0.0007715177489444613,0.007813181728124619,0.00130894361063838
1782969964284337400,4.27833740234375,-0.0008106662426143885,0.007444866932928562,0.001449292292818427
1782969964294264300,4.288264404296875,0.00041571943438611925,0.0048858351074159145,0.0023427826818078756
1782969964304190500,4.2981904296875,-0.0011707255616784096,0.0026754115242511034,0.0006274407496675849
1782969964314116400,4.308116455078125,0.001960619119927287,0.005883721634745598,0.002415753435343504
1782969964324043300,4.318043212890625,0.00014274542627390474,0.007258711848407984,-0.00013022858183830976
1782969964333969400,4.327969482421875,-0.0010271812789142132,0.004012318328022957,0.0033960631117224693
1782969964343896300,4.337896240234375,0.0014495585346594453,0.0041673146188259125,0.0022333269007503986
1782969964353822200,4.347822265625,-0.00086872314568609,0.006887467112392187,0.0003195793251506984
1782969964363748400,4.357748291015625,-0.0016921724891290069,0.005823800805956125,0.0007392935222014785
1782969964373675300,4.36767529296875,0.0023853934835642576,0.004495682194828987,0.003434146288782358
1782969964383601400,4.377601318359375,-0.0009147958480753005,0.004752144683152437,0.003745469730347395
1782969964393530400,4.3875302734375,-0.003573429537937045,0.006935670506209135,0.004334561061114073
1782969964403456500,4.39745654296875,-0.00031851406674832106,0.005938316695392132,0.00037736992817372084
1782969964413383200,4.407383056640625,0.0005454153870232403,0.004321511369198561,0.0005627259379252791
1782969964423309300,4.417309326171875,-0.0008681904873810709,0.005661614239215851,0.0008881642133928835
1782969964433235500,4.4272353515625,0.00008069378236541525,0.0034461303148418665,0.0020543625578284264
1782969964443162400,4.437162353515625,-0.0005518069956451654,0.003950799349695444,0.001698830397799611
1782969964453088300,4.447088134765625,-0.0012516856659203768,0.004897020757198334,0.0008519452530890703
1782969964463015400,4.457015380859375,0.0014857775531709194,0.004799282643944025,0.0027212179265916348
1782969964472941300,4.46694140625,0.00041784998029470444,0.004847219679504633,0.001888980157673359
1782969964482867200,4.4768671875,-0.000008255799002654385,0.005577191710472107,0.001088433898985386
1782969964492794400,4.48679443359375,-0.0007126618875190616,0.005001949146389961,0.002100967802107334
1782969964502720300,4.49672021484375,0.00014993596414569765,0.004503937903791666,0.0033981935121119022
1782969964512646400,4.506646484375,-0.0012751214671880007,0.005612611770629883,0.003338538808748126
1782969964522573300,4.5165732421875,0.00017949705943465233,0.006905043963342905,0.004357730504125357
1782969964532499200,4.526499267578125,0.0011795139871537685,0.004135622642934322,0.00011691277177305892
1782969964542426400,4.53642626953125,0.00036458674003370106,0.005811017472296953,0.0011222560424357653
1782969964552352500,4.5463525390625,-0.0020037624053657055,0.004767058417201042,0.0009587379754520953
1782969964562278100,4.556278076171875,-0.0015941682504490018,0.006450176239013672,0.003144660498946905
1782969964572205300,4.566205322265625,-0.0034029872622340918,0.006313023157417774,0.00011424961121520028
1782969964582131500,4.57613134765625,-0.0017310547409579158,0.003081809962168336,0.0031302794814109802
1782969964592058400,4.586058349609375,0.0003486077766865492,0.006072539836168289,0.005619269795715809
1782969964601984300,4.595984375,-0.001258876291103661,0.003999801818281412,0.0022535668686032295
1782969964611910400,4.605910400390625,-0.00019654128118418157,0.0037585191894322634,0.0027257453184574842
1782969964621837300,4.61583740234375,-0.001255680457688868,0.004911668132990599,-0.00014034859486855567
1782969964631763200,4.62576318359375,-0.00230789533816278,0.006667756475508213,0.003602191573008895
1782969964641689300,4.635689453125,-0.00007483482477255166,0.0065460498444736,0.0006679208017885685
1782969964651616300,4.6456162109375,-0.000886566296685487,0.003625627374276519,-0.00003861583536490798
1782969964661542400,4.65554248046875,-0.0014346449170261621,0.006191050633788109,0.001743305241689086
1782969964671469600,4.665469482421875,0.0007882956997491419,0.006217149551957846,0.0005842975224368274
1782969964681395200,4.675395263671875,0.000743554555810988,0.005344697739928961,0.0008221178431995213
1782969964691321300,4.6853212890625,0.001984321279451251,0.005316734779626131,0.001216798322275281
1782969964701248500,4.69524853515625,-0.002428004052489996,0.0041763694025576115,0.00112465291749686
1782969964711174100,4.705174072265625,-0.0014080132823437452,0.005312207154929638,0.0015715312911197543
1782969964721101300,4.715101318359375,-0.00016431703988928348,0.004996356554329395,0.0024088292848318815
1782969964731027500,4.72502734375,-0.0010516822803765535,0.005399559158831835,0.002147839404642582
1782969964740953300,4.734953369140625,-0.0015014902455732226,0.003608316881582141,0.00008868326403899118
1782969964750880300,4.74488037109375,0.0005821670056320727,0.005368666257709265,0.003578755771741271
1782969964760806400,4.754806396484375,-0.0010098706698045135,0.0059814597479999065,0.00213665422052145
1782969964770732300,4.764732177734375,-0.0016365124611184,0.005143096670508385,0.0008170577930286527
1782969964780659500,4.774659423828125,-0.00196408131159842,0.006462692748755217,-0.000017310547264060006
1782969964790585300,4.78458544921875,0.00009507485083304346,0.005403021350502968,0.003507383167743683
1782969964800512300,4.79451220703125,0.000437291048001498,0.004487959202378988,0.003665308468043804
1782969964810438400,4.8044384765625,-0.001967010786756873,0.004364122170954943,0.00152332813013345
1782969964820364300,4.8143642578125,-0.0014660701854154468,0.004647482186555862,0.0004620584368240088
1782969964830291200,4.824291259765625,-0.0004463458026293665,0.006833671126514673,-0.0003813646617345512
1782969964840217300,4.83421728515625,-0.0002210423699580133,0.006280798930674791,0.0035976641811430454
1782969964850144500,4.84414453125,-0.002415753435343504,0.0065537733025848866,0.0023875238839536905
1782969964860070100,4.854070068359375,-0.001463939668610692,0.002775812754407525,0.0016309198690578341
1782969964869996300,4.863996337890625,-0.0017504957504570484,0.00375985074788332,0.001916410750709474
1782969964879923500,4.87392333984375,0.0006343649583868682,0.005795304663479328,0.0015097459545359015
1782969964889849300,4.883849365234375,0.0006106628570705652,0.004780906718224287,0.002719353651627898
1782969964899775200,4.893775146484375,0.0013752563390880823,0.005350556690245867,-0.000182959163794294
1782969964909702400,4.903702392578125,-0.0013470269041135907,0.005477056838572025,0.002419215627014637
1782969964919628300,4.913628173828125,-0.00028282770654186606,0.00512738386169076,0.0018764632986858487
1782969964929555500,4.923555419921875,0.0023811322171241045,0.008702411316335201,0.003209641668945551
1782969964939481300,4.9334814453125,0.00040559942135587335,0.005155880004167557,0.0007382282637991011
1782969964949407200,4.9434072265625,0.000606668065302074,0.004567587748169899,-0.00015632755821570754
1782969964959334400,4.95333447265625,0.0015654060989618301,0.004884237423539162,0.0018013621447607875
1782969964969260300,4.96326025390625,-0.00001944107498275116,0.006816360633820295,0.002713228575885296
1782969964979187200,4.973187255859375,0.0008780442294664681,0.005499161314219236,-0.00025246766745112836
1782969964989113300,4.98311328125,-0.00043995422311127186,0.0038344194181263447,0.00045593318645842373
1782969964999039500,4.99303955078125,0.00034647725988179445,0.005921272095292807,0.000565122754778713
1782969965008966400,5.00296630859375,-0.0010495517635717988,0.005687713157385588,0.0024146882351487875
1782969965018892300,5.012892333984375,-0.000254331884207204,0.005783054046332836,0.0007965514669194818
1782969965028818400,5.022818359375,-0.0002793656021822244,0.004511128645390272,0.0017811221769079566
1782969965038745300,5.032745361328125,-0.0008423578692600131,0.003919906914234161,0.0028272117488086224
1782969965048671200,5.042671142578125,-0.0012602078495547175,0.005840578582137823,0.004177168011665344
1782969965058598400,5.052598388671875,0.00024181502521969378,0.005084773525595665,0.0013659353135153651
1782969965068524300,5.062524169921875,-0.0001685781026026234,0.006047239992767572,0.003737214021384716
1782969965078450400,5.072450439453125,-0.001520132296718657,0.0041558630764484406,0.0015448997728526592
1782969965088377300,5.08237744140625,-0.00096113485051319,0.0038930089212954044,0.0008026767172850668
1782969965098303200,5.09230322265625,-0.0008788431296125054,0.006725813262164593,0.002572613535448909
1782969965108229400,5.1022294921875,-0.0008064051507972181,0.002843989757820964,0.0009353021741844714
1782969965118156500,5.112156494140625,-0.0002205097407568246,0.0033015208318829536,0.0022985744290053844
1782969965128082200,5.122082275390625,-0.0010836402652785182,0.0066637615673244,-0.002269279444590211
1782969965138009300,5.13200927734375,-0.0006380933918990195,0.006335127633064985,-0.00015419702685903758
1782969965147935500,5.141935546875,0.0011970909545198083,0.005142031237483025,0.00330258603207767
1782969965157861000,5.151861083984375,0.00036218989407643676,0.0031960594933480024,0.004274107050150633
1782969965167788300,5.161788330078125,-0.0011638014111667871,0.003826163476333022,0.000862864195369184
1782969965177714400,5.17171435546875,0.0018287927377969027,0.004874649923294783,0.0036549223586916924
1782969965187641300,5.181641357421875,-0.0009062737226486206,0.0018282600212842226,0.0030466562602669
1782969965197567200,5.191567138671875,-0.0002580603177193552,0.006536462344229221,0.0004524710529949516
1782969965207493400,5.201493408203125,-0.0016817862633615732,0.004580104257911444,0.0022090920247137547
1782969965217420300,5.211420166015625,-0.00047590688336640596,0.003998203668743372,0.0027409254107624292
1782969965227346400,5.221346435546875,0.0014700648607686162,0.005416869651526213,-0.0005094627267681062
1782969965237272300,5.231272216796875,-0.00017363809456583112,0.005653890781104565,0.0014138722326606512
1782969965247199200,5.24119921875,0.0019981698133051395,0.005579056218266487,0.002511893631890416
1782969965257125400,5.25112548828125,0.0011089402250945568,0.004156395327299833,0.0026197514962404966
1782969965267052300,5.26105224609375,-0.0013334447285160422,0.004031759686768055,0.00021278657368384302
1782969965276978200,5.270978271484375,-0.00013741910515818745,0.003805124433711171,0.0038149782922118902
1782969965286904300,5.280904296875,-0.0012831110507249832,0.00609224708750844,0.001508680754341185
1782969965296831500,5.29083154296875,0.0009747169679030776,0.003023220458999276,0.001540638622827828
1782969965306757400,5.30075732421875,-0.0008586031035520136,0.00495054991915822,0.000046871635277057067
1782969965316684300,5.310684326171875,-0.0004471447318792343,0.007565774489194155,0.00028575718170031905
1782969965326610400,5.3206103515625,0.0011440940434113145,0.005813414230942726,0.0007145261042751372
1782969965336536300,5.330536376953125,-0.0017291904659941792,0.004710599314421415,0.003341201925650239
1782969965346463500,5.34046337890625,-0.001201884588226676,0.004058923572301865,0.0022389194928109646
1782969965356389400,5.350389404296875,0.001139033935032785,0.004853610880672932,-0.000681236619129777
1782969965366315000,5.36031494140625,-0.0009912285022437572,0.004014182835817337,0.002491120947524905
1782969965376242200,5.3702421875,-0.001059139147400856,0.004495948553085327,0.002031725598499179
1782969965386168300,5.380168212890625,-0.0009009473724290729,0.005131378769874573,0.003540672594681382
1782969965396095200,5.39009521484375,0.0009922938188537955,0.0052110073156654835,0.0011174624087288976
1782969965406021000,5.400021240234375,-0.00005193164179218002,0.0051745218224823475,0.0028511802665889263
1782969965415947300,5.409947265625,-0.000045806369598722085,0.004759601317346096,0.003142263740301132
1782969965425874200,5.419874267578125,-0.003326554549857974,0.005107676610350609,0.0017805894603952765
1782969965435800300,5.42980029296875,-0.0022218753583729267,0.005465073045343161,0.0051926313899457455
1782969965445727200,5.439727294921875,0.001514806062914431,0.004189951345324516,0.00061279337387532
1782969965455653000,5.449653076171875,-0.0015283881220966578,0.006302104331552982,0.002296443795785308
1782969965465579300,5.459579345703125,-0.002478337613865733,0.004126035608351231,0.0016785904299467802
1782969965475506400,5.46950634765625,-0.0035715652629733086,0.006850449368357658,0.002211222657933831
1782969965485432000,5.47943212890625,0.0023491743486374617,0.004315119702368975,0.0007494135061278939
1782969965495358200,5.489358154296875,-0.002153431996703148,0.0057465690188109875,0.0011065434664487839
1782969965505285400,5.499285400390625,-0.0007797735743224621,0.0054882424883544445,0.0024562333710491657
1782969965515211000,5.5092109375,0.0014817827614024282,0.005730323493480682,0.002630137838423252
1782969965525138200,5.51913818359375,0.003025883575901389,0.0032439965289086103,0.00264851376414299
1782969965535064300,5.529064208984375,0.0001334243715973571,0.004262122791260481,0.0025627599097788334
1782969965544990200,5.538990234375,-0.0035052525345236063,0.006962568499147892,0.002171275205910206
1782969965554917000,5.548917236328125,-0.002064482541754842,0.005332713946700096,0.003403253620490432
1782969965564843300,5.55884326171875,-0.00014034859486855567,0.0060933125205338,0.000854075769893825
1782969965574770200,5.568770263671875,0.00013502225920092314,0.003748132847249508,0.0026724820490926504
1782969965584696300,5.5786962890625,-0.0007986819837242365,0.003977963700890541,0.00267674308270216
1782969965594622200,5.588622314453125,0.0004442152567207813,0.005328452680259943,0.0022498385515064
1782969965604549000,5.598549072265625,-0.00005725796290789731,0.006958573590964079,0.0025209481827914715
1782969965614475300,5.608475341796875,-0.00256435782648623,0.006964698899537325,0.002088450826704502
1782969965624401200,5.618401123046875,-0.0017339842161163688,0.0049492185935378075,0.0024170849937945604
1782969965634328000,5.628328125,0.0012125372886657715,0.006387325469404459,0.000176301269675605
1782969965644254200,5.638254150390625,-0.0006253102328628302,0.004731904715299606,0.0004996090428903699
1782969965654181000,5.64818115234375,-0.00009454221435589716,0.003969707991927862,0.001469532260671258
1782969965664107300,5.658107177734375,0.001538241864182055,0.005197425372898579,0.001213336130604148
1782969965674033200,5.668033203125,-0.0016223976854234934,0.005375324282795191,0.002910568844527006
1782969965683960300,5.677960205078125,-0.00012916330888401717,0.005687446799129248,0.0011001517996191978
1782969965693886200,5.68788623046875,0.0000029294772048160667,0.0037111148703843355,0.002359827049076557
1782969965703812000,5.69781201171875,0.0011757856700569391,0.005818474106490612,-0.0004713795206043869
1782969965713739300,5.7077392578125,-0.00034887410583905876,0.006669620517641306,-0.0002902845444623381
1782969965723665200,5.7176650390625,-0.0015608787070959806,0.006767624989151955,-0.00038962045800872147
1782969965733592300,5.72759228515625,-0.0008641957538202405,0.0056949034333229065,0.0034051176626235247
1782969965743518200,5.737518310546875,0.0001739044237183407,0.003998736385256052,0.0025659557431936264
1782969965753444000,5.747444091796875,-0.002971288748085499,0.004820055328309536,0.002630670554935932
1782969965763371300,5.757371337890625,-0.0010418286547064781,0.004285824950784445,0.002374474424868822
1782969965773297400,5.76729736328125,-0.0008886968716979027,0.0028871328104287386,0.00012783173588104546
1782969965783224000,5.77722412109375,-0.0004929511342197657,0.0065654912032186985,0.0012623383663594723
1782969965793150200,5.787150146484375,-0.0008349010022357106,0.005569735076278448,0.0020216056145727634
1782969965803076400,5.797076416015625,0.0006623281515203416,0.005772135220468044,0.0023281353060156107
1782969965813003300,5.807003173828125,-0.0008471515611745417,0.006942594423890114,-0.0003081277245655656
1782969965822929200,5.81692919921875,-0.0016450346447527409,0.0044293696992099285,0.0009142631897702813
1782969965832855300,5.826855224609375,-0.003561445279046893,0.004595017991960049,0.0008612662786617875
1782969965842782200,5.8367822265625,-0.0018053569365292788,0.0052147358655929565,0.000577107013668865
1782969965852708000,5.8467080078125,-0.0008309062686748803,0.004626443609595299,0.0008263788768090308
1782969965862635000,5.856635009765625,0.0007462177309207618,0.004317250568419695,0.002609098795801401
1782969965872561200,5.86656103515625,-0.0016082830261439085,0.006055762059986591,0.001076715998351574
1782969965882487300,5.8764873046875,0.0019156117923557758,0.006068012677133083,0.0006844323943369091
1782969965892414200,5.886414306640625,-0.0017411747248843312,0.005628058221191168,0.003144660498946905
1782969965902340000,5.896340087890625,-0.000975782226305455,0.006479737348854542,0.0006679208017885685
1782969965912267300,5.906267333984375,-0.0006572681595571339,0.003359045134857297,0.002092445734888315
1782969965922193400,5.916193359375,-0.0010016148444265127,0.00678227236494422,0.0008586031035520136
1782969965932119000,5.926119140625,0.0002878876985050738,0.0034964641090482473,0.00007776429993100464
1782969965942046200,5.936046142578125,-0.0005262406193651259,0.007693073246628046,0.0017297230660915375
1782969965951972400,5.945972412109375,-0.000303334032651037,0.004221110139042139,0.002926813904196024
1782969965961898200,5.955898193359375,-0.0026607641484588385,0.004442951641976833,0.0020117517560720444
1782969965971825200,5.9658251953125,0.0009036105475388467,0.005556153133511543,0.00015686018741689622
1782969965981751300,5.975751220703125,-0.0015781891997903585,0.003611512714996934,0.004064782522618771
1782969965991678200,5.98567822265625,-0.000687361869495362,0.006109557580202818,0.0027454528026282787
1782969966001604400,5.995604248046875,-0.0005954828229732811,0.004789695143699646,0.0018351842882111669
1782969966011530200,6.0055302734375,-0.001350488979369402,0.004788097459822893,0.00011185276525793597
1782969966021457200,6.01545703125,-0.0024652881547808647,0.0037875475827604532,0.0046847667545080185
1782969966031383300,6.02538330078125,-0.002516687149181962,0.00498117646202445,0.0008692557457834482
1782969966041310200,6.035310302734375,-0.003186205867677927,0.00794420950114727,0.001017593895085156
1782969966051236000,6.045236083984375,-0.002088717184960842,0.005477056838572025,0.0028913940768688917
1782969966061162200,6.055162353515625,0.0002719087351579219,0.00376011710613966,0.0005858954391442239
1782969966071089200,6.065089111328125,-0.0006788397440686822,0.004731904715299606,0.003757453989237547
1782969966081015000,6.07501513671875,-0.0012112056137993932,0.004953479394316673,0.0020069582387804985
1782969966090941200,6.084941162109375,-0.001728391507640481,0.00398701848462224,0.0025473134592175484
1782969966100868400,6.094868408203125,-0.00005326322207110934,0.00666322885081172,0.0025454494170844555
1782969966110794200,6.104794189453125,0.0012839100090786815,0.004229632206261158,-0.002198173198848963
1782969966120721200,6.11472119140625,-0.0018349179299548268,0.0056831855326890945,0.00003462109452812001
1782969966130647300,6.124647216796875,0.000291616132017225,0.00412363838404417,0.0006314354832284153
1782969966140573200,6.1345732421875,-0.0001691107318038121,0.005684250965714455,0.000022370553779182956
1782969966150500400,6.144500244140625,-0.0022716764360666275,0.004936701618134975,0.0025244103744626045
1782969966160426200,6.15442626953125,-0.0000804274677648209,0.005316468421369791,-0.00021997711155563593
1782969966170352000,6.16435205078125,0.0002921487612184137,0.0027513117529451847,0.0026407905388623476
1782969966180279300,6.174279296875,-0.00007723167072981596,0.004534298088401556,0.003650128608569503
1782969966190205200,6.184205078125,-0.00044128578156232834,0.003808586625382304,0.002055161399766803
1782969966200132000,6.194132080078125,0.0001930791768245399,0.006172408349812031,-0.00026285400963388383
1782969966210058200,6.204058349609375,-0.0002817624481394887,0.004337224178016186,-0.00022956448083277792
1782969966219984400,6.213984375,0.00017017599020618945,0.005879194475710392,0.0030024477746337652
1782969966229911000,6.2239111328125,0.001014131703414023,0.0032469260040670633,0.000693220819812268
1782969966239837200,6.233837158203125,0.00035952674807049334,0.003534547286108136,0.003506850451231003
1782969966249764000,6.24376416015625,0.0017771273851394653,0.002689260058104992,0.0026221484877169132
1782969966259690200,6.253690185546875,0.0009211873984895647,0.004551342222839594,0.0024687503464519978
1782969966269616000,6.2636162109375,0.0009472863748669624,0.006204898934811354,0.0009494169498793781
1782969966279543000,6.27354296875,-0.0009510148083791137,0.0037617150228470564,0.0016474314033985138
1782969966289469200,6.28346923828125,-0.0005898901727050543,0.006884004920721054,0.0023451796732842922
1782969966299395300,6.293395263671875,-0.0010186590952798724,0.0026437200140208006,0.003629089565947652
1782969966309322200,6.303322265625,-0.001056209672242403,0.005366003140807152,0.0004889564006589353
1782969966319248100,6.313248046875,0.0013973605819046497,0.003328684950247407,0.00253479671664536
1782969966329175300,6.32317529296875,-0.0006042712484486401,0.004612328484654427,0.0009824400767683983
1782969966339101400,6.333101318359375,-0.00001917476038215682,0.005695702508091927,0.0019542276859283447
1782969966349027000,6.343027099609375,-0.00012650014832615852,0.0062613580375909805,0.0029912625905126333
1782969966358954200,6.352954345703125,-0.0012982910266146064,0.005429386626929045,0.001446362817659974
1782969966368880400,6.36288037109375,0.00016671388584654778,0.005073055624961853,-0.0003962783666793257
1782969966378807300,6.372807373046875,-0.0014950985787436366,0.004517520312219858,0.0024807346053421497
1782969966388733200,6.382733154296875,-0.001210406655445695,0.004562527406960726,-0.00038402783684432507
1782969966398659300,6.392659423828125,0.0015845808666199446,0.005889580585062504,-0.0013496900210157037
1782969966408586200,6.402586181640625,0.0008138620178215206,0.004509796854108572,0.004230164922773838
1782969966418512100,6.41251220703125,-0.00025592977181077003,0.005520999431610107,0.00045593318645842373
1782969966428438300,6.422438232421875,-0.00019254654762335122,0.004335093777626753,0.0046669235453009605
1782969966438365200,6.432365234375,-0.0004932174342684448,0.004548146389424801,0.0023640880826860666
1782969966448291300,6.442291259765625,-0.0002889529860112816,0.004145210143178701,0.0032405343372374773
1782969966458218000,6.452218017578125,-0.0004844290087930858,0.003495132550597191,0.0011105381418019533
1782969966468144000,6.46214404296875,0.0026434536557644606,0.004563326481729746,0.0016644756542518735
1782969966478070300,6.4720703125,0.001065264455974102,0.00669465446844697,0.0033132387325167656
1782969966487997200,6.4819970703125,0.0028397287242114544,0.003694869577884674,0.0013177321525290608
1782969966497923000,6.491923095703125,0.0006599313346669078,0.0041002025827765465,0.0013435647124424577
1782969966507849200,6.50184912109375,0.0005400890368036926,0.004518851637840271,0.0008205199264921248
1782969966517776100,6.511776123046875,-0.0010319749126210809,0.0057375142350792885,0.0019443739438429475
1782969966527702000,6.521701904296875,0.00011371697473805398,0.004336691461503506,0.0018634138396009803
1782969966537629200,6.531629150390625,-0.00017443705291952938,0.0062706791795790195,0.0043992758728563786
1782969966547555300,6.541555419921875,0.0014093448407948017,0.00401471508666873,0.002433863002806902
1782969966557481200,6.551481201171875,-0.0005278385360725224,0.005148955620825291,0.0005427522119134665
1782969966567408400,6.561408447265625,-0.00011984224693151191,0.004776911810040474,0.0023307986557483673
1782969966577334300,6.571334228515625,-0.00016245282313320786,0.007663778495043516,0.0004034689045511186
1782969966587260200,6.58126025390625,-0.0011113371001556516,0.004351338837295771,0.0020061591640114784
1782969966597187300,6.591187255859375,-0.0011984225129708648,0.004904743749648333,-0.0003557983145583421
1782969966607113200,6.60111328125,-0.00010359696898376569,0.003102582646533847,0.0035867453552782536
1782969966617040100,6.6110400390625,-0.001255680457688868,0.0029577065724879503,-0.00004873584839515388
1782969966626966300,6.62096630859375,0.0026493126060813665,0.005781190004199743,0.000818123109638691
1782969966636892400,6.630892333984375,-0.001987517112866044,0.0046509443782269955,0.000601075473241508
1782969966646819000,6.640819091796875,0.0021315941121429205,0.001237571006640792,0.000892691605258733
1782969966656745200,6.6507451171875,-0.0007331682136282325,0.0054605454206466675,0.002347310073673725
1782969966666672000,6.660672119140625,0.001413073274306953,0.002965696156024933,0.0019180085510015488
1782969966676598300,6.670598388671875,-0.0011563445441424847,0.0032858080230653286,0.0026381274219602346
1782969966686524200,6.680524169921875,0.0007925567333586514,0.005063468124717474,0.005291700828820467
1782969966696451000,6.690451171875,0.00003781688792514615,0.004960936494171619,0.0013755226973444223
1782969966706377200,6.700377197265625,-0.0004655205411836505,0.006154831498861313,0.000371777277905494
1782969966716304400,6.710304443359375,-0.001531850197352469,0.005033374298363924,-0.0011318434262648225
1782969966726230300,6.720230224609375,-0.0008178567513823509,0.0064834654331207275,0.0015539544401690364
1782969966736156200,6.73015625,-0.001976331928744912,0.003980360459536314,0.002630670554935932
1782969966746083300,6.740083251953125,0.001118793967179954,0.0030751521699130535,0.0011968245962634683
1782969966756009200,6.75000927734375,-0.00130947632715106,0.005240035708993673,-0.0005387574783526361
1782969966765935000,6.75993505859375,-0.0008857673965394497,0.006557501386851072,0.0016269250772893429
1782969966775862300,6.7698623046875,0.0011329087428748608,0.003908189013600349,0.0032977922819554806
1782969966785788400,6.779788330078125,-0.0007414240390062332,0.005042695440351963,0.0018985675415024161
1782969966795715000,6.789715087890625,-0.0004247741890139878,0.005570534151047468,0.002386192325502634
1782969966805641200,6.79964111328125,-0.001731320982798934,0.003951065707951784,0.0016402408946305513
1782969966815567400,6.8095673828125,0.00017204020696226507,0.005043228156864643,0.0008234494016505778
1782969966825494300,6.819494384765625,0.0011667308863252401,0.004381699021905661,0.0002671150432433933
1782969966835420200,6.829420166015625,0.0002772350562736392,0.006221144460141659,-0.0011350392596796155
1782969966845346300,6.83934619140625,-0.0003502056933939457,0.005578789860010147,0.0027214842848479748
1782969966855273200,6.849273193359375,-0.0012010856298729777,0.004603540059179068,-0.00020266656065359712
1782969966865199000,6.85919921875,-0.0005179848521947861,0.003837615018710494,-0.001561677665449679
1782969966875126000,6.8691259765625,-0.0004753742541652173,0.00481286458671093,0.0016679377295076847
1782969966885052200,6.87905224609375,-0.00005965480886516161,0.0029196233954280615,0.0004063983797095716
1782969966894978300,6.888978271484375,-0.00023542344570159912,0.004462126176804304,0.004209658596664667
1782969966904905200,6.8989052734375,-0.002566488226875663,0.004090615548193455,0.0005078648100607097
1782969966914831000,6.9088310546875,-0.0019390475936233997,0.0030804784037172794,0.0005542038124985993
1782969966924758300,6.91875830078125,0.0007004113867878914,0.006705573294311762,0.0003914846747647971
1782969966934684200,6.92868408203125,-0.0011403656098991632,0.0057617491111159325,0.0011169298086315393
1782969966944610000,6.938610107421875,-0.002573412610217929,0.005314870737493038,0.0013670006301254034
1782969966954537200,6.948537109375,0.01040576957166195,0.006043511442840099,0.0075881448574364185
1782969966964463400,6.95846337890625,-0.007848069071769714,-0.0016615461790934205,-0.006668289192020893
1782969966974389200,6.96838916015625,0.01721600443124771,0.008420382626354694,0.007484015077352524
1782969966984316200,6.978316162109375,-0.018216820433735847,0.003138801548629999,0.0012873720843344927
1782969966994242300,6.9882421875,0.024687236174941063,0.004265851341187954,0.0021489046048372984
1782969967004169200,6.998169189453125,-0.0272635780274868,0.00378994457423687,0.0031619712244719267
1782969967014095400,7.008095458984375,0.03484027087688446,0.005819273181259632,0.0008753810543566942
1782969967024021200,7.018021240234375,-0.03905605524778366,0.007021424360573292,0.004560397006571293
1782969967033948200,7.0279482421875,0.04735526442527771,0.0028815402183681726,0.0004037352045997977
1782969967043874300,7.037874267578125,-0.043531764298677444,0.002294047037139535,0.005507150664925575
1782969967053801200,7.04780126953125,0.048339035362005234,0.004325506277382374,-0.0028248149901628494
1782969967063727000,7.05772705078125,-0.05114627629518509,0.005316734779626131,0.0057553574442863464
1782969967073653200,7.0676533203125,0.05783187597990036,0.0025867284275591373,0.0005523395957425237
1782969967083580200,7.077580078125,-0.06010967493057251,0.006907707080245018,0.005644570104777813
1782969967093506000,7.087506103515625,0.061827946454286575,0.003459978848695755,-0.003689809702336788
1782969967103432200,7.09743212890625,-0.06506981700658798,0.00666269613429904,0.007583883590996265
1782969967113359000,7.107359130859375,0.0663294866681099,0.00640916358679533,-0.007190534844994545
1782969967123285200,7.11728515625,-0.06866481155157089,0.005810751114040613,0.004147074185311794
1782969967133212200,7.127212158203125,0.06703149527311325,0.0026935210917145014,-0.005961752496659756
1782969967143138000,7.137137939453125,-0.0692959800362587,0.005709284916520119,0.008509332314133644
1782969967153064200,7.147064208984375,0.06863711774349213,0.003998736385256052,-0.0031470574904233217
1782969967162991400,7.156991455078125,-0.06886961311101913,0.004135356284677982,0.00977513287216425
1782969967172917200,7.166917236328125,0.06944778561592102,0.004220311529934406,-0.004810467828065157
1782969967182844200,7.17684423828125,-0.06955058127641678,0.006560963578522205,0.007407582364976406
1782969967192770300,7.186770263671875,0.06352411210536957,0.003358512418344617,-0.006081860978156328
1782969967202696400,7.196696533203125,-0.06846534460783005,0.003727360162883997,0.00749120581895113
1782969967212623000,7.206623046875,0.06412678956985474,0.006068811286240816,-0.00509915454313159
1782969967222549200,7.21654931640625,-0.06144604831933975,0.004209392238408327,0.007987086661159992
1782969967232475400,7.226475341796875,0.059412725269794464,0.00490314606577158,-0.005377454683184624
1782969967242402300,7.23640234375,-0.05922310799360275,0.0038195056840777397,0.009701096452772617
1782969967252328200,7.246328125,0.05657938867807388,0.00487198680639267,-0.005416336935013533
1782969967262255000,7.256255126953125,-0.05205441266298294,0.004372377879917622,0.00836898386478424
1782969967272181200,7.26618115234375,0.044555749744176865,0.006848052144050598,-0.007053382229059935
1782969967282107100,7.276107177734375,-0.04400287941098213,0.003695402294397354,0.007802262902259827
1782969967292034000,7.286033935546875,0.04284493625164032,0.00509755639359355,-0.005501558072865009
1782969967301960200,7.295960205078125,-0.039141278713941574,0.004824049770832062,0.006106628105044365
1782969967311887400,7.305887451171875,0.03201013058423996,0.005794239696115255,-0.00558225205168128
1782969967321813000,7.31581298828125,-0.030251113697886467,0.005632585845887661,0.010378338396549225
1782969967331739100,7.3257392578125,0.0208890363574028,0.005113002844154835,-0.0031073763966560364
1782969967341666300,7.335666259765625,0.0031188279390335083,0.005922870244830847,0.006375341210514307
1782969967351592200,7.34559228515625,0.0010743191232904792,0.005882923025637865,0.000020506340661086142
1782969967361517800,7.355517822265625,0.0020458402577787638,0.0033747577108442783,0.00006924218905624002
1782969967371445000,7.365445068359375,0.0007701861904934049,0.005273858085274696,0.0010317085543647408
1782969967381371100,7.37537109375,-0.0020248014479875565,0.0038962047547101974,-0.0003171824791934341
1782969967391298000,7.385298095703125,-0.0006711165769957006,0.0041614556685090065,0.0000029294772048160667
1782969967401224000,7.395223876953125,0.0018133464036509395,0.00634791050106287,0.0033534523099660873
1782969967411150000,7.405150146484375,-0.0022027005907148123,0.006440322380512953,0.00008841694943839684
1782969967421077000,7.415076904296875,-0.0000655137628200464,0.003774764481931925,0.000841825210954994
1782969967431003000,7.4250029296875,-0.00029587719473056495,0.003837881376966834,0.004786765668541193
1782969967440929800,7.4349296875,-0.001942243310622871,0.005517537239938974,0.0004191815387457609
1782969967450856000,7.44485595703125,-0.0008855010382831097,0.005861084908246994,0.0035960664972662926
1782969967460782000,7.454781982421875,0.0002609897928778082,0.006530071143060923,0.0013305152533575892
1782969967470708700,7.464708740234375,-0.0011249192757532,0.00729386555030942,0.0033771544694900513
1782969967480635000,7.474634765625,0.0006780407857149839,0.0038722362369298935,0.0006641923682764173
1782969967490561000,7.48456103515625,-0.00029081720276735723,0.005576659459620714,0.002654106356203556
1782969967500488000,7.494488037109375,-0.0003504719934426248,0.007728759665042162,0.000016777914424892515
1782969967510413800,7.504413818359375,0.0009177253232337534,0.005780124571174383,0.0019462381023913622
1782969967520341000,7.514341064453125,-0.0007765777409076691,0.007154848426580429,-0.0015997608425095677
1782969967530267000,7.524266845703125,0.0002615224220789969,0.005044027231633663,0.004083691164851189
1782969967540192800,7.53419287109375,-0.0005819007055833936,0.0043595945462584496,0.004308195784687996
1782969967550120000,7.544119873046875,-0.0016820525052025914,0.0027049726340919733,0.002984072081744671
1782969967560046000,7.554046142578125,0.0013771206140518188,0.005106344819068909,0.0030309436842799187
1782969967569973000,7.563972900390625,-0.0013792511308565736,0.004570783115923405,0.0009060074225999415
1782969967579899100,7.573899169921875,-0.0009928264189511538,0.0057532270438969135,0.00043116576853208244
1782969967589825000,7.583824951171875,-0.0012924320762977004,0.007671235594898462,0.003183809109032154
1782969967599752000,7.593751953125,0.0009153284481726587,0.006755374372005463,0.0013403689954429865
1782969967609678000,7.603677978515625,0.0009531453251838684,0.00506906071677804,0.005275189410895109
1782969967619604000,7.61360400390625,0.00021544973424170166,0.00624191714450717,-0.00008708536915946752
1782969967629531000,7.62353076171875,0.0006583334179595113,0.005185174755752087,-0.00009108010999625549
1782969967639457000,7.63345703125,-0.0006410228670574725,0.0038032603915780783,0.0019473034190014005
1782969967649384000,7.643384033203125,-0.0013512879377231002,0.003477555699646473,0.0033949976786971092
1782969967659309800,7.653309814453125,-0.001800030586309731,0.005276521202176809,0.003014432033523917
1782969967669236000,7.663236083984375,0.0014916365034878254,0.006342051550745964,0.0031585090328007936
1782969967679163000,7.673162841796875,-0.0020804614759981632,0.007050985470414162,-0.00018722022650763392
1782969967689089000,7.683089111328125,-0.0023102923296391964,0.005512476898729801,0.0023366576060652733
1782969967699015000,7.693014892578125,0.0007957525085657835,0.004764395300298929,0.0014895059866830707
1782969967708941800,7.70294189453125,0.0003528688393998891,0.0028517129831016064,0.0010245180455967784
1782969967718868000,7.712867919921875,-0.0014711301773786545,0.0036131106317043304,0.003605121048167348
1782969967728795100,7.722795166015625,0.0007856325246393681,0.002837864449247718,0.0009440905996598303
1782969967738720800,7.732720703125,-0.0012719257501885295,0.004920722916722298,0.0009765811264514923
1782969967748647000,7.74264697265625,0.0008117315010167658,0.006082926411181688,0.004522580187767744
1782969967758574000,7.752573974609375,-0.001659948262386024,0.006804642733186483,0.0029577065724879503
1782969967768500000,7.7625,-0.0004652542411349714,0.006084257736802101,0.003733219113200903
1782969967778427000,7.772427001953125,-0.0007350324303843081,0.003971039317548275,0.003718305379152298
1782969967788353000,7.78235302734375,0.0010940266074612737,0.005613943561911583,0.0030298782512545586
1782969967798279200,7.792279052734375,-0.0024535702541470528,0.004827245604246855,0.0007757788407616317
1782969967808205800,7.802205810546875,-0.0013254552613943815,0.004261057823896408,-0.0000351537273672875
1782969967818132000,7.812132080078125,-0.0009153284481726587,0.004456267226487398,0.0017012272728607059
1782969967828058000,7.82205810546875,-0.0011315771844238043,0.006120476871728897,0.003912449814379215
1782969967837985000,7.831985107421875,-0.00012410330236889422,0.00478436890989542,0.001955559244379401
1782969967847911000,7.841910888671875,0.00112438655924052,0.0064714811742305756,0.002993126632645726
1782969967857837800,7.851837890625,-5.326322138898831e-7,0.006403570994734764,0.0011659319279715419
1782969967867764000,7.861763916015625,-0.0033193640410900116,0.0057479003444314,0.0009105347562581301
1782969967877690000,7.871690185546875,0.00010146643762709573,0.004567853640764952,0.002826679265126586
1782969967887616800,7.88161669921875,-0.0015092133544385433,0.004869590047746897,0.0008785768295638263
1782969967897543000,7.89154296875,0.0006170544074848294,0.002722283359616995,0.0035537220537662506
1782969967907470000,7.901469970703125,-0.0003885551996063441,0.005303418729454279,0.002427737694233656
1782969967917396000,7.91139599609375,-0.002121207769960165,0.004025368019938469,0.00267807487398386
1782969967927321900,7.92132177734375,0.000496945867780596,0.006599313113838434,-0.0003299656673334539
1782969967937249000,7.9312490234375,-0.00112465291749686,0.006469350773841143,0.0010327738709747791
1782969967947175000,7.9411748046875,0.002624545246362686,0.005078914575278759,0.000990429543890059
1782969967957100800,7.951100830078125,-0.0025039040483534336,0.004268248099833727,0.0027169568929821253
1782969967967028000,7.961028076171875,-0.0021992383990436792,0.004788629710674286,0.0006748450105078518
1782969967976953900,7.970953857421875,0.000015446334145963192,0.002406165935099125,0.0021108214277774096
1782969967986878000,7.9808779296875,-0.0025486452504992485,0.006146575789898634,0.004343349486589432
1782969967996804900,7.990804931640625,0.00025033715064637363,0.005887450184673071,0.0032021848019212484
1782969968006731000,8.00073095703125,-0.0015395734226331115,0.008651811629533768,0.0008080030675046146
1782969968016657000,8.010656982421875,-0.0013342436868697405,0.005175853613764048,0.0021614215802401304
1782969968026583800,8.020583740234375,-0.00017496968212071806,0.005233910400420427,0.00096113485051319
1782969968036510000,8.030510009765624,0.0013723268639296293,0.006739129312336445,-0.00025246766745112836
1782969968046436000,8.04043603515625,0.001205080421641469,0.004532434046268463,0.0026106967125087976
1782969968056362800,8.05036279296875,-0.0013070794520899653,0.0041372207924723625,0.0012713931500911713
1782969968066289000,8.060288818359375,0.00040000680019147694,0.004060521721839905,0.0021057615522295237
1782969968076216000,8.070216064453126,0.0034879420418292284,0.0026913906913250685,-0.0025238776579499245
1782969968086142000,8.080141845703125,-0.00027297402266412973,0.005654157139360905,0.00230789533816278
1782969968096067800,8.09006787109375,-0.003462375607341528,0.005309810396283865,0.0025395904667675495
1782969968105995000,8.0999951171875,0.0005531385540962219,0.003979827743023634,0.0016980315558612347
1782969968115921000,8.1099208984375,-0.0030037793330848217,0.005538309924304485,0.00034594463068060577
1782969968125848000,8.11984814453125,-0.003117496380582452,0.0081514036282897,0.00421205535531044
1782969968135774000,8.12977392578125,-0.0002540655550546944,0.001669003046117723,0.0014237258583307266
1782969968145700000,8.1397001953125,0.0009574064170010388,0.005309277679771185,0.004434429574757814
1782969968155627000,8.149626953125,-0.0011526161106303334,0.003314303932711482,0.0018730012234300375
1782969968165553000,8.159552978515626,-0.0014199974248185754,0.004627508576959372,0.001671932521276176
1782969968175479000,8.16947900390625,-0.0007134608458727598,0.006589725613594055,0.001972070662304759
1782969968185406000,8.179406005859375,-0.0000021305288555595325,0.007400924805551767,0.0012189288390800357
1782969968195332000,8.18933203125,0.00020639497961383313,0.0041185785084962845,0.0034961977507919073
1782969968205258800,8.1992587890625,0.000559263804461807,0.0043931505642831326,0.001755023142322898
1782969968215185000,8.209184814453126,-0.0002796319022309035,0.005391835700720549,0.0005600627628155053
1782969968225111000,8.219111083984375,0.00030652983696199954,0.005601160228252411,-0.00014700648898724467
1782969968235038000,8.229037841796876,-0.0004207794554531574,0.0044048684649169445,0.0026375947054475546
1782969968244963800,8.2389638671875,-0.0015456987312063575,0.004673847462981939,0.0017683389596641064
1782969968254890000,8.248889892578125,-0.002359827049076557,0.0031814121175557375,0.0005496764206327498
1782969968264817000,8.25881689453125,-0.0006048039067536592,0.0031614385079592466,0.0019771307706832886
1782969968274742800,8.26874267578125,0.0024056334514170885,0.006688795518130064,-0.0014855111949145794
1782969968284670000,8.278669921875,0.0009419600828550756,0.005927131045609713,0.0024738102219998837
1782969968294595800,8.288595947265625,-0.0009901633020490408,0.0049026133492589,0.0009531453251838684
1782969968304522000,8.29852197265625,-0.0008857673965394497,0.007456851191818714,-0.00016538229829166085
1782969968314449200,8.30844921875,-0.00038269624928943813,0.002567820018157363,-0.0008697884040884674
1782969968324375000,8.318375,-0.0005065332516096532,0.006502107717096806,0.00115421402733773
1782969968334301000,8.328301025390624,-0.0006958839949220419,0.005270928610116243,0.0038248319178819656
1782969968344228000,8.33822802734375,0.00005379585491027683,0.0037236318457871675,0.004057592246681452
1782969968354154000,8.348154052734374,0.0020698087755590677,0.001957689644768834,0.0035582494456321
1782969968364081700,8.35808154296875,0.000002663161012605997,0.006728476379066706,0.00126739835832268
1782969968374007800,8.3680078125,-0.0007986819837242365,0.0037209687288850546,0.0015078817959874868
1782969968383933700,8.37793359375,-0.0010745854815468192,0.006487993057817221,-0.0036011263728141785
1782969968393860600,8.387860595703126,-0.0005270395777188241,0.005065864883363247,-0.0016415724530816078
1782969968403786800,8.397786865234375,0.0011062771081924438,0.0065444521605968475,0.002478870330378413
1782969968413713700,8.407713623046876,0.002578738844022155,0.004503937903791666,0.0012279836228117347
1782969968423639800,8.417639892578125,0.0008386294357478619,0.004460528492927551,0.004791293293237686
1782969968433565700,8.427565673828125,-0.0005004079430364072,0.00484269205480814,0.0023241406306624413
1782969968443492600,8.43749267578125,0.0024019049014896154,0.005696767941117287,0.0015188007382676005
1782969968453418800,8.447418701171875,-0.002448510378599167,0.0037031255196779966,0.0021198762115091085
1782969968463344600,8.4573447265625,0.0010695254895836115,0.0059897154569625854,-0.0010966897243633866
1782969968473271600,8.467271484375,-0.003462375607341528,0.006159625016152859,0.000434361572843045
1782969968483197700,8.47719775390625,-0.00007323692989302799,0.003409911412745714,0.0011747203534469008
1782969968493124600,8.48712451171875,0.0003270361921750009,0.00686083547770977,0.003436543047428131
1782969968503050500,8.497050537109375,-0.0017779263434931636,0.0038088529836386442,0.001540904981084168
1782969968512976600,8.5069765625,-0.00006604639202123508,0.004653607495129108,0.002117745578289032
1782969968522903800,8.51690380859375,-0.0005153216770850122,0.00512871565297246,0.002671683207154274
1782969968532829700,8.52682958984375,-0.0015539544401690364,0.004458930809050798,0.003611246356740594
1782969968542755600,8.536755615234375,-0.0017006946727633476,0.005761216394603252,-0.0013795174891129136
1782969968552682800,8.546682861328126,-0.0005645901546813548,0.0049561429768800735,0.0023518374655395746
1782969968562608600,8.556608642578125,-0.00007243797881528735,0.0038778288289904594,0.0011124024167656898
1782969968572535800,8.566535888671876,-0.0027864654548466206,0.005572664551436901,-0.0022572954185307026
1782969968582461700,8.576461669921875,-0.0010990865994244814,0.002834402257576585,0.0007355650886893272
1782969968592387600,8.5863876953125,-0.0008452873444184661,0.0054429685696959496,-0.0014940333785489202
1782969968602314800,8.596314697265624,-0.00185063062235713,0.004802212119102478,0.003460777923464775
1782969968612240600,8.60624072265625,-0.0013675332302227616,0.0033214944414794445,0.0013632721966132522
1782969968622166500,8.61616650390625,0.0013171994360163808,0.003652791725471616,0.0005755090969614685
1782969968632093700,8.62609375,0.00004900216299574822,0.00541340745985508,-0.00035952674807049334
1782969968642019800,8.636019775390626,-0.0012199940392747521,0.005608084611594677,0.0016759273130446672
1782969968651946800,8.64594677734375,0.0011057445080950856,0.005369465332478285,0.003522563260048628
1782969968661872600,8.65587255859375,0.00016192019393201917,0.005303152836859226,0.0015108112711459398
1782969968671798800,8.665798828125,-0.002579537918791175,0.0035502600949257612,0.0013978932984173298
1782969968681725700,8.6757255859375,0.00024101608141791075,0.005083175376057625,0.001686579897068441
1782969968691651600,8.685651611328124,-0.0004159857635386288,0.006806773599237204,-0.0005318332696333528
1782969968701577700,8.69557763671875,0.0002561961009632796,0.00484402384608984,0.0001304948964389041
1782969968711504600,8.705504638671876,0.00010466222738614306,0.006137254647910595,-0.0009512811084277928
1782969968721430800,8.7154306640625,-0.0002663161139935255,0.003090332029387355,0.0018048242200165987
1782969968731357700,8.725357666015626,-0.00041252365917898715,0.00487358495593071,0.0006205165409483016
1782969968741283600,8.73528369140625,-0.0006002765148878098,0.004192348103970289,0.0034386736806482077
1782969968751209700,8.745209716796875,0.0006673881434835494,0.004020308144390583,-0.000365918327588588
1782969968761137000,8.755136962890624,0.0010242518037557602,0.005421929527074099,0.00180881901178509
1782969968771062500,8.7650625,0.00009906959166983142,0.004776645917445421,0.003652791725471616
1782969968780989700,8.77498974609375,-0.0033691651187837124,0.007613977417349815,0.00293267285451293
1782969968790915800,8.784915771484375,-0.001085504423826933,0.0064954496920108795,0.0025718146935105324
1782969968800841500,8.794841552734376,-0.0007728493656031787,0.004151069093495607,0.0025036376900970936
1782969968810768600,8.8047685546875,-0.0017382452497258782,0.006121275946497917,0.0031989889685064554
1782969968820694800,8.81469482421875,-0.0010511496802791953,0.005554821342229843,0.000215716048842296
1782969968830620700,8.82462060546875,-0.0011944277212023735,0.004806206561625004,0.0024607607629150152
1782969968840547600,8.834547607421875,-0.000016777914424892515,0.005283178761601448,0.0017608820926398039
1782969968850473700,8.8444736328125,0.0012450277572497725,0.005306880921125412,0.00042450788896530867
1782969968860400600,8.854400634765625,0.0014849785948172212,0.005065332166850567,-0.0005510080372914672
1782969968870326800,8.864326904296876,-0.0008559399866499007,0.005287173669785261,0.002590989461168647
1782969968880252700,8.874252685546875,0.0014389059506356716,0.005665875039994717,0.00029401297797448933
1782969968890179600,8.8841796875,0.0007853662245906889,0.0056831855326890945,0.0005885586142539978
1782969968900105700,8.894105712890624,0.00029827404068782926,0.005937251262366772,0.0017062872648239136
1782969968910031600,8.904031494140625,-0.001335841603577137,0.0043590618297457695,0.0025632926262915134
1782969968919958500,8.91395849609375,0.0013901700731366873,0.0028152274899184704,0.0025094966404139996
1782969968929884700,8.923884765625,-0.0012679309584200382,0.005994775798171759,0.004531901329755783
1782969968939811600,8.9338115234375,-0.00005273058923194185,0.004834436345845461,0.0024373249616473913
1782969968949737500,8.943737548828125,0.0014692660188302398,0.005379319190979004,0.004833104554563761
1782969968959663600,8.95366357421875,-0.00025539714260958135,0.004473045468330383,0.001255680457688868
1782969968969590800,8.9635908203125,0.0018034926615655422,0.005042429082095623,0.0010546117555350065
1782969968979516700,8.9735166015625,0.0004881574132014066,0.003909786697477102,0.0034179009962826967
1782969968989442600,8.983442626953124,0.00018801917030941695,0.005251220893114805,0.0014761901693418622
1782969968999369700,8.99336962890625,-0.00018322547839488834,0.005333246197551489,-0.0002133192028850317
1782969969009295600,9.003295654296876,-0.0014136058744043112,0.005244829226285219,0.001999235013499856
1782969969019222800,9.013222900390625,-0.0007368966471403837,0.004799282643944025,0.0007006776868365705
1782969969029148700,9.023148681640626,-0.0026676885318011045,0.0049281795509159565,0.0016447682864964008
1782969969039074600,9.033074462890625,-0.0026471822056919336,0.004926581867039204,0.0008154599345289171
1782969969049001700,9.043001708984375,-0.000041811628761934116,0.00797590147703886,0.00370126124471426
1782969969058927900,9.052927978515624,0.0009488842915743589,0.005265069659799337,0.002551840851083398
1782969969068853500,9.062853515625,0.0018793927738443017,0.004766525700688362,0.0010037453612312675
1782969969078780700,9.07278076171875,-0.000574177538510412,0.006524212192744017,0.0007952199084684253
1782969969088706800,9.082706787109375,-0.0002620550512801856,0.0025744778104126453,0.0006950850365683436
1782969969098633700,9.0926337890625,-0.003314570290967822,0.003385676769539714,0.0020003002136945724
1782969969108559600,9.1025595703125,0.002414954360574484,0.004415787290781736,0.0016612798208370805
1782969969118485800,9.11248583984375,-0.004303668159991503,0.0054757255129516125,-0.0008535431115888059
1782969969128412700,9.12241259765625,-0.0011411645682528615,0.0049068741500377655,0.0005736448802053928
1782969969138338600,9.132338623046875,0.00014940333494450897,0.005151086021214724,0.0032059133518487215
1782969969148264700,9.1422646484375,-0.00041864890954457223,0.0062214103527367115,0.0018745990237221122
1782969969158191600,9.152191650390625,0.0015646071406081319,0.007135407533496618,0.0014596786350011826
1782969969168117800,9.16211767578125,0.00009108010999625549,0.006039250176399946,0.003090598387643695
1782969969178044700,9.172044677734375,0.0023212111555039883,0.0038836877793073654,-0.0003203782835043967
1782969969187970600,9.181970458984376,-0.0028181569650769234,0.006179332733154297,0.0019518306944519281
1782969969197896700,9.191896728515625,-0.0012373046483844519,0.0033686324022710323,0.0013305152533575892
1782969969207824000,9.201823974609376,0.0014564828015863895,0.004851746838539839,0.003251719754189253
1782969969217749500,9.21174951171875,-0.0031055121216923,0.00378967821598053,0.0012037487467750907
1782969969227675600,9.221675537109375,-0.002501773415133357,0.003736681304872036,0.002234924817457795
1782969969237602800,9.231602783203124,0.0004796353168785572,0.0060030315071344376,0.001957689644768834
1782969969247528400,9.241528564453125,-0.0004724447790067643,0.0060080913826823235,0.0031609057914465666
1782969969257455600,9.25145556640625,-0.0007550061563961208,0.004358263220638037,0.002083124592900276
1782969969267381800,9.2613818359375,-0.0006005428149364889,0.005941246170550585,-0.0012825783342123032
1782969969277307600,9.2713076171875,-0.0015997608425095677,0.002689792774617672,0.0007241134881041944
1782969969287234800,9.28123486328125,-0.0001371527905575931,0.004484230652451515,0.0025955168530344963
1782969969297160700,9.29116064453125,-0.0007882956997491419,0.006449110805988312,-0.002317216480150819
1782969969307086600,9.301086669921874,-0.0010724549647420645,0.004000067710876465,0.004815261345356703
1782969969317013800,9.311013671875,-0.001901230658404529,0.004787831101566553,0.0016767261549830437
1782969969326939600,9.320939697265626,-0.0014093448407948017,0.005105279851704836,0.002377137541770935
1782969969336866600,9.330866455078125,-0.0006298375665210187,0.005437642335891724,0.0024463797453790903
1782969969346792700,9.340792724609376,0.000663393409922719,0.006096241995692253,0.002438656520098448
1782969969356718800,9.35071875,0.0009432916413061321,0.00392709719017148,0.0017409083666279912
1782969969366645000,9.36064501953125,0.001558748190291226,0.003875964554026723,0.0018112158868461847
1782969969376571000,9.37057080078125,-0.0015931029338389635,0.004530303180217743,0.003768639173358679
1782969969386497000,9.3804970703125,0.00045034053619019687,0.004255997482687235,0.0033939324785023928
1782969969396424000,9.390423828125,0.0007874967413954437,0.004081560764461756,0.0026458504144102335
1782969969406350000,9.40035009765625,0.000910268456209451,0.005256547126919031,0.002552639925852418
1782969969416277000,9.410277099609376,-0.0013041499769315124,0.0041281660087406635,0.003120425855740905
1782969969426203100,9.420203125,0.00041438787593506277,0.005152684170752764,-0.002144377212971449
1782969969436129000,9.43012890625,-0.003222158644348383,0.005579056218266487,0.0026200178544968367
1782969969446056200,9.44005615234375,-0.002668487373739481,0.006418218370527029,0.0007659250986762345
1782969969455982000,9.449982177734375,-0.0002639192680362612,0.0019923108629882336,0.0031009847298264503
1782969969465908000,9.459907958984376,0.0014343785587698221,0.0052964948117733,-0.00016698020044714212
1782969969475835100,9.469835205078125,0.000853809411637485,-0.07557438313961029,-0.04446972906589508
1782969969485761000,9.479760986328126,-0.00017124126316048205,0.00034221619716845453,-0.0024224112275987864
1782969969495688000,9.48968798828125,-0.00006897587445564568,-0.031863123178482056,-0.01606791652739048
1782969969505614000,9.499614013671875,0.00138058268930763,-0.0037619813811033964,-0.0025656893849372864
1782969969515540200,9.509540283203124,0.0009885653853416443,-0.0032439965289086103,-0.0024224112275987864
1782969969525467100,9.519467041015625,0.00017496968212071806,-0.008884038776159286,-0.003732952754944563
1782969969535393000,9.52939306640625,-0.0010040117194876075,-0.002665557898581028,-0.00458836043253541
1782969969545319200,9.539319091796875,0.0003504719934426248,-0.005781722720712423,-0.0035172367934137583
1782969969555246000,9.54924609375,0.0023971113841980696,-0.002240251051262021,-0.0022386531345546246
1782969969565172000,9.559171875,-0.0010290454374626279,0.007409979589283466,0.00016005597717594355
1782969969575099000,9.569098876953126,-0.00042583944741636515,0.0068155620247125626,0.0008154599345289171
1782969969585025000,9.57902490234375,0.00048602689639665186,0.0056712012737989426,0.0007574030314572155
1782969969594951200,9.588951171875,-0.0007195860962383449,0.008186823688447475,0.0031164311803877354
1782969969604877800,9.5988779296875,0.0006356965750455856,0.0032056469935923815,0.0018809906905516982
1782969969614804000,9.608803955078125,0.00003302319601061754,0.003687146585434675,-0.0009960222523659468
1782969969624730000,9.618730224609376,0.0013305152533575892,0.008698683232069016,0.006392918061465025
1782969969634657000,9.628656982421875,-0.0015022892039269209,0.011857458390295506,0.004821919370442629
1782969969644583000,9.6385830078125,0.00048629322554916143,0.016026636585593224,0.006075202953070402
1782969969654510000,9.648510009765625,-0.00018136126163881272,0.030414897948503494,0.017716413363814354
1782969969664436200,9.658436279296875,-0.003939081449061632,0.0214762631803751,0.00777616398409009
1782969969674361900,9.66836181640625,0.00021944446780253202,0.07624629884958267,0.04175037518143654
1782969969684289000,9.6782890625,-0.0012066783383488655,0.02225390635430813,0.01028406247496605
1782969969694215200,9.688215087890624,0.0014064153656363487,-0.00330311874859035,-0.0028367992490530014
1782969969704141000,9.69814111328125,-0.0009725864510983229,0.02238253690302372,0.009787916205823421
1782969969714068000,9.70806787109375,-0.00028389296494424343,-0.001931058126501739,-0.002231995342299342
1782969969723994000,9.717994140625,-0.002415487077087164,0.01595073752105236,0.006071474403142929
1782969969733921000,9.727921142578126,0.0015931029338389635,0.00011531487689353526,0.00015286543930415064
1782969969743847200,9.73784716796875,0.00039308256236836314,0.009679525159299374,0.004580370616167784
1782969969753773000,9.74777294921875,0.0005760417552664876,0.00227833422832191,-0.0015073491958901286
1782969969763700000,9.757699951171874,-0.002612827345728874,0.006907440721988678,0.0022327941842377186
1782969969773626000,9.767626220703125,-0.0003025351034011692,0.006549512036144733,0.002282062778249383
1782969969783553000,9.777552978515626,-0.00043888893560506403,0.005133509170264006,0.0011251855175942183
1782969969793479000,9.78747900390625,0.00007962851668708026,0.0073596457950770855,0.00010120012302650139
1782969969803405000,9.797405029296876,-0.0010868359822779894,0.006199839059263468,0.002112685702741146
1782969969813332000,9.80733203125,-0.0015701997326686978,0.003460511565208435,0.0036706349346786737
1782969969823257900,9.8172578125,-0.0005552690709009767,0.005884254351258278,0.002234924817457795
1782969969833184000,9.82718408203125,-0.000857005245052278,0.0062613580375909805,0.0022003035992383957
1782969969843111000,9.83711083984375,-0.0003230414295103401,0.002100701443850994,0.0027334685437381268
1782969969853037000,9.847037109375,0.00023382554354611784,0.006743922829627991,0.0016586167039349675
1782969969862964200,9.856964111328125,0.0010357033461332321,0.004358529578894377,-0.00020985709852539003
1782969969872890000,9.86689013671875,-0.000850879936479032,0.0054573495872318745,0.0018410432385280728
1782969969882816000,9.87681591796875,0.0001637844106880948,0.0031071100383996964,0.000934236915782094
1782969969892743200,9.8867431640625,0.0024232103023678064,0.0046730488538742065,0.00455773388966918
1782969969902669000,9.8966689453125,-0.00070493872044608,0.006727677304297686,0.0016682040877640247
1782969969912595000,9.906594970703125,-0.00010812433902174234,0.004720985423773527,0.0028964539524167776
1782969969922522000,9.916522216796874,0.001377653214149177,0.0065710837952792645,0.0006207828409969807
1782969969932448300,9.9264482421875,-0.0011954930378124118,0.007254983298480511,0.000027164242055732757
1782969969942374000,9.936373779296876,0.0013664679136127234,0.004009388852864504,0.0029878003988415003
1782969969952301000,9.946301025390625,0.0010644654976204038,0.0029582392890006304,0.0003206445835530758
1782969969962227200,9.956227294921876,0.001115598133765161,0.006558566819876432,0.0017587515758350492
1782969969972154000,9.966154052734375,0.0006945523782633245,0.005434712860733271,0.00017656758427619934
1782969969982080000,9.976080078125,-0.0003890878288075328,0.00475347600877285,0.0015275891637429595
1782969969992006100,9.986006103515624,-0.0005779059720225632,0.004062652122229338,0.0015949672088027
1782969970001933000,9.99593310546875,0.00017204020696226507,0.006572415120899677,0.0005731122801080346
1782969970011859000,10.00585888671875,-0.0014444985426962376,0.005742041394114494,0.0006181196658872068
1782969970021785900,10.015785888671875,0.0015478292480111122,0.005703159607946873,-0.000015712650565546937
1782969970031712000,10.0257119140625,0.0013733921805396676,0.005673332139849663,0.0023012375459074974
1782969970041638100,10.03563818359375,0.0001685781026026234,0.005913282744586468,0.0038306908681988716
1782969970051565000,10.04556494140625,0.0007925567333586514,0.005989449098706245,-0.00021411814668681473
1782969970061491000,10.055490966796874,0.002429868094623089,0.004450141917914152,-0.00008974852971732616
1782969970071417000,10.0654169921875,-0.0008223841432482004,0.005020591430366039,0.002246110001578927
1782969970081344000,10.075343994140624,0.0004588626616168767,0.004683967679738998,-0.00025300029665231705
1782969970091270000,10.085269775390625,-0.0018343853298574686,0.004759334959089756,0.0004290352517273277
1782969970101197000,10.095197021484376,-0.001868207473307848,0.005476790945976973,0.0029851372819393873
1782969970111123200,10.105123291015625,-0.0006500775925815105,0.004324973560869694,0.0010159959783777595
1782969970121048800,10.115048828125,0.0003206445835530758,0.007562845014035702,0.0016325177857652307
1782969970130976000,10.12497607421875,-0.0019379822770133615,0.005261074751615524,-0.00010705907334340736
1782969970140902100,10.134902099609375,-0.0014434333425015211,0.005585181526839733,0.001460743835195899
1782969970150828000,10.144828125,0.0015483618481084704,0.0041465419344604015,0.00012623383372556418
1782969970160755200,10.154755126953125,-0.0024319987278431654,0.0037561224307864904,0.0014828480780124664
1782969970170681000,10.16468115234375,-0.002695385366678238,0.0070680296048521996,0.00015579492901451886
1782969970180607000,10.17460693359375,-0.0019859191961586475,0.0033505228348076344,0.004351871553808451
1782969970190534100,10.1845341796875,-0.0016016251174733043,0.004742290824651718,0.0003528688393998891
1782969970200460000,10.1944599609375,-0.0014562164433300495,0.0041007352992892265,0.0016346483025699854
1782969970210387000,10.204386962890625,-0.0010508833220228553,0.006834736559540033,0.0024074974935501814
1782969970220313000,10.21431298828125,0.001407214323990047,0.006225405260920525,0.0008562062866985798
1782969970230239200,10.2242392578125,0.0005432848702184856,0.005103948060423136,0.0019137475173920393
1782969970240166000,10.234165771484374,-0.0018599516479298472,0.006199039984494448,-0.00119602563790977
1782969970250092000,10.244092041015625,0.000313986703986302,0.004252269398421049,0.0012839100090786815
1782969970260019000,10.25401904296875,-0.00010705907334340736,0.004741758108139038,0.001710814656689763
1782969970269945000,10.263945068359375,-0.002889263443648815,0.006927414797246456,0.000060453756304923445
1782969970279871000,10.27387109375,-0.0021321268286556005,0.004887965973466635,-0.0015808524331077933
1782969970289798100,10.283798095703125,-0.0008399609941989183,0.005340703297406435,0.001841842196881771
1782969970299724000,10.29372412109375,0.0011435613268986344,0.006119411438703537,0.004584898240864277
1782969970309650000,10.30364990234375,-0.00195156445261091,0.005287440028041601,0.0004495415778364986
1782969970319577000,10.3135771484375,-0.0007640608819201589,0.00569916469976306,0.0006162554491311312
1782969970329503000,10.3235029296875,-0.0014708638191223145,0.004785700235515833,0.0023606258910149336
1782969970339430100,10.33343017578125,0.0018005631864070892,0.006117014680057764,0.0031364047899842262
1782969970349356000,10.34335595703125,0.0014053500490263104,0.0027289411518722773,0.0008921589469537139
1782969970359282000,10.353281982421874,0.0007582019316032529,0.0018543590558692813,0.0017126789316534996
1782969970369209300,10.363209228515625,-0.0010673949727788568,0.005089300684630871,0.002237587934359908
1782969970379135500,10.373135498046874,0.001603755634278059,0.004063451196998358,0.0004063983797095716
1782969970389061000,10.38306103515625,0.00162399560213089,0.005091697443276644,0.004729241598397493
1782969970398988300,10.39298828125,-0.00007110639853635803,0.004738828632980585,0.0017614146927371621
1782969970408914400,10.40291455078125,-0.0012777847005054355,0.006460029631853104,0.002091646660119295
1782969970418841300,10.41284130859375,-0.0011835087789222598,0.005420065484941006,0.0013086773687973619
1782969970428767200,10.422767333984375,-0.002454369328916073,0.0026695525739341974,0.0014713965356349945
1782969970438693400,10.432693359375,-0.0015960324089974165,0.004828577395528555,0.0018732674652710557
1782969970448620300,10.442620361328125,0.0004873584839515388,0.004034955520182848,0.00433109886944294
1782969970458546400,10.45254638671875,-0.00043329631444066763,0.005299690645188093,0.003251187037676573
1782969970468472300,10.462472412109374,-0.0026469158474355936,0.004923918284475803,0.0024261397775262594
1782969970478399200,10.472399169921875,0.0005283711361698806,0.0054847802966833115,0.004166781902313232
1782969970488325400,10.482325439453126,0.001041295938193798,0.0038959383964538574,0.0008772452711127698
1782969970498252300,10.492252197265625,0.00038748994120396674,0.005940713454037905,0.001205080421641469
1782969970508178200,10.50217822265625,-0.0013307816116139293,0.005368133541196585,0.0013491574209183455
1782969970518104300,10.512104248046874,-0.0013797837309539318,0.004775580484420061,0.0009645969257690012
1782969970528031200,10.52203125,0.0003075950953643769,0.003162770066410303,0.0011259844759479165
1782969970537957000,10.53195703125,0.0015369103057309985,0.0041060615330934525,0.0037526602391153574
1782969970547883300,10.54188330078125,-0.0009518137667328119,0.004906075540930033,0.0008820389630272985
1782969970557810400,10.551810546875,-0.0026288062799721956,0.006598514039069414,0.00018216021999251097
1782969970567736300,10.561736328125,0.00008149272616719827,0.006446714047342539,0.0015374429058283567
1782969970577663200,10.571663330078126,-0.0031193606555461884,0.005031243897974491,0.002019208623096347
1782969970587589400,10.58158935546875,-0.0011456918437033892,0.005827795248478651,-0.00021172130072955042
1782969970597515300,10.591515380859375,0.00236249016597867,0.004772917367517948,-0.00004820321555598639
1782969970607442400,10.6014423828125,-0.002260757377371192,0.0026383937802165747,-0.0020671456586569548
1782969970617368300,10.611368408203125,0.002636263146996498,0.003949734382331371,0.0006522081675939262
1782969970627294200,10.621294189453126,0.0008937568636611104,0.005476790945976973,0.0022719427943229675
1782969970637221400,10.631221435546875,-0.0016277240356430411,0.003742540255188942,0.0021065603941679
1782969970647147300,10.641147216796876,-0.001389104756526649,0.006355633959174156,0.0007491472060792148
1782969970657074200,10.65107421875,-0.00009028115891851485,0.007927431724965572,0.0017986990278586745
1782969970667000300,10.661000244140626,-0.000835966260638088,0.00415319949388504,0.000023968450477696024
1782969970676926500,10.670926513671875,-0.0018663433147594333,0.007268299348652363,0.0025334651581943035
1782969970686853400,10.680853271484375,0.0004942826926708221,0.0028703550342470407,-0.0006841660942882299
1782969970696779300,10.690779296875,0.0025779400020837784,0.006403038278222084,-0.0014881744282320142
1782969970706705400,10.700705322265625,-0.0024892566725611687,0.005274656694382429,0.00013209278404247016
1782969970716632300,10.71063232421875,-0.0003510046226438135,0.0070555126294493675,0.001538241864182055
1782969970726558200,10.72055810546875,0.00019920444174204022,0.002441852353513241,0.001449292292818427
1782969970736485000,10.730485107421876,-0.003111637430265546,0.0049614692106842995,0.0018482337472960353
1782969970746411300,10.740411376953125,-0.0014711301773786545,0.005272526293992996,0.0024053670931607485
1782969970756337400,10.75033740234375,0.002169144805520773,0.0035001926589757204,0.0005632585380226374
1782969970766264300,10.760264404296874,-0.0015504923649132252,0.0037699707318097353,0.0013177321525290608
1782969970776190200,10.770190185546875,-0.0007848335662856698,0.006283195689320564,0.0009760485263541341
1782969970786116400,10.780116455078126,0.0011036139912903309,0.006196110509335995,0.0024607607629150152
1782969970796043500,10.79004345703125,-0.00035899411886930466,0.008837966248393059,0.0010157296201214194
1782969970805969200,10.79996923828125,0.0004564658156596124,0.005101018585264683,0.0012096078135073185
1782969970815896300,10.809896240234375,-0.0015520902816206217,0.0026706180069595575,0.0012607404496520758
1782969970825822500,10.819822509765626,-0.0009552759001962841,0.003992344718426466,0.000993625377304852
1782969970835748000,10.829748046875,0.002368349116295576,0.0037886130157858133,0.0010684601729735732
1782969970845675300,10.83967529296875,0.0005382248782552779,0.0038274950347840786,-0.00013369068619795144
1782969970855601400,10.849601318359374,-0.0004889564006589353,0.004197940696030855,0.0026226809713989496
1782969970865527300,10.85952734375,0.0025161546654999256,0.0054392400197684765,0.001395230065099895
1782969970875454200,10.8694541015625,-0.0004756405542138964,0.007875500246882439,0.00033449303009547293
1782969970885380400,10.87938037109375,-0.0026786073576658964,0.0060112872160971165,-0.0008562062866985798
1782969970895307300,10.889307373046876,-0.0016101471846923232,0.0037441381718963385,-0.001344363670796156
1782969970905233400,10.8992333984375,0.001365402713418007,0.0034080471377819777,0.0028972530271857977
1782969970915159300,10.9091591796875,0.00133903743699193,0.004714594222605228,0.001927595934830606
1782969970925086200,10.919086181640624,-0.0009856359101831913,0.005597165785729885,-0.0005121259018778801
1782969970935012400,10.929012451171875,-0.0007651261985301971,0.004406998865306377,0.0021491709630936384
1782969970944938200,10.938938232421876,0.00035206988104619086,0.004849882796406746,0.0021614215802401304
1782969970954865200,10.948865234375,0.0007949535502120852,0.0041217743419110775,-0.00033582461765035987
1782969970964791300,10.958791259765626,0.0002002697146963328,0.005961219780147076,0.0007882956997491419
1782969970974718200,10.96871826171875,-0.0024466461036354303,0.0059244679287076,0.001279382617212832
1782969970984644000,10.97864404296875,0.0020117517560720444,0.0028336034156382084,0.0027276095934212208
1782969970994570200,10.9885703125,-0.0011736550368368626,0.00759853096678853,0.0021283982787281275
1782969971004497400,10.998497314453125,0.001064998097717762,0.0037739656399935484,0.0014500912511721253
1782969971014423300,11.00842333984375,0.0012178635224699974,0.006194512825459242,0.004032558295875788
1782969971024349200,11.01834912109375,0.0014080132823437452,0.003926298581063747,0.0008844357798807323
1782969971034276400,11.0282763671875,-0.000494016392622143,0.005276254843920469,0.0003640541108325124
1782969971044202200,11.0382021484375,0.0002306297537870705,0.003939347807317972,0.0011712582781910896
1782969971054129400,11.04812939453125,0.0007422229973599315,0.004719121381640434,0.00270657055079937
1782969971064055300,11.05805517578125,-0.0010586065473034978,0.005714877508580685,0.002406165935099125
1782969971073981200,11.067981201171875,0.0013422331539914012,0.0026844663079828024,0.0034903388004750013
1782969971083908400,11.077908447265624,-0.0014367754338309169,0.003709516953676939,-0.0003701793903019279
1782969971093834500,11.08783447265625,-0.0014839133946225047,0.005776130128651857,0.0032554480712860823
1782969971103760100,11.097760009765626,-0.0025483788922429085,0.005398227367550135,0.0008372978190891445
1782969971113687300,11.107687255859375,0.0023196132387965918,0.0046354979276657104,0.0021470405627042055
1782969971123613400,11.117613525390626,-0.0011147991754114628,0.0038107172586023808,0.0043681166134774685
1782969971133540400,11.127540283203125,-0.00019254654762335122,0.0026234800461679697,0.0011379687348380685
1782969971143466200,11.13746630859375,-0.0005411543534137309,0.006631537340581417,0.0005302353529259562
1782969971153392400,11.147392333984374,-0.001776062068529427,0.004733768757432699,0.0036645096261054277
1782969971163319300,11.1573193359375,-0.002141447737812996,0.006339388433843851,0.0014682007022202015
1782969971173245200,11.1672451171875,-0.0004756405542138964,0.003835750976577401,0.0007030745036900043
1782969971183171300,11.17717138671875,0.0026138925459235907,0.003571032779291272,-0.0004141215467825532
1782969971193098200,11.18709814453125,0.000925182132050395,0.004834169987589121,0.002675145398825407
1782969971203024400,11.1970244140625,-0.0025814019609242678,0.0038807583041489124,0.00202293717302382
1782969971212951300,11.206951416015626,-0.0017390442080795765,0.004150004126131535,0.0006138586322776973
1782969971222877200,11.216877197265624,-0.000264718197286129,0.003501524217426777,0.001680454588495195
1782969971232803300,11.22680322265625,-0.0013006879016757011,0.004562261048704386,0.0011414308100938797
1782969971242730500,11.23673046875,-0.0026232136879116297,0.0049193911254405975,0.0036634444259107113
1782969971252656000,11.24665625,0.00004713794987765141,0.005087703000754118,0.0033337450586259365
1782969971262582300,11.256582275390626,0.0013928331900388002,0.003706587478518486,0.0014109427575021982
1782969971272509400,11.266509521484375,0.0009568737586960196,0.004034955520182848,0.0010719223646447062
1782969971282435000,11.27643505859375,-0.0015773903578519821,0.004327103961259127,0.0022242721170186996
1782969971292362200,11.2863623046875,-0.003840544493868947,0.007816111668944359,-0.00044022052315995097
1782969971302288400,11.296288330078125,-0.0005275722360238433,0.004850681405514479,0.0014391721924766898
1782969971312214300,11.30621435546875,-0.00020825919636990875,0.006375607568770647,0.00013768543431069702
1782969971322141400,11.316141357421875,-0.002416286151856184,0.006072007119655609,0.00032730249222368
1782969971332067300,11.3260673828125,0.002373941708356142,0.004671717062592506,0.0025350630749017
1782969971341993200,11.3359931640625,0.0014748586108908057,0.004972121678292751,0.0027739484794437885
1782969971351920400,11.34592041015625,0.00021598236344289035,0.005803294479846954,0.0023552996572107077
1782969971361846300,11.35584619140625,-0.0007574030314572155,0.0043864925391972065,0.0007960188668221235
1782969971371774000,11.36577392578125,0.0005328985280357301,0.005018194206058979,0.0001715075777610764
1782969971381699800,11.375699951171875,0.001032241270877421,0.006416087504476309,0.00020746025256812572
1782969971391626000,11.3856259765625,-0.0002764361270237714,0.006770554464310408,0.0025995115283876657
1782969971401553000,11.395552978515624,-0.0006303702248260379,0.00624191714450717,-0.000011451592399680521
1782969971411479000,11.40547900390625,0.0009765811264514923,0.00526693370193243,0.0009009473724290729
1782969971421405000,11.415405029296876,0.0025214808993041515,0.015487080439925194,0.007998271845281124
1782969971431331800,11.425331787109375,0.0009416937828063965,0.0027052389923483133,-0.00015419702685903758
1782969971441258000,11.435258056640626,0.0005699164466932416,0.004200337454676628,0.001422128058038652
1782969971451185000,11.445184814453125,0.00010519486386328936,-0.0014732606941834092,-0.004865861497819424
1782969971461110800,11.45511083984375,0.0003888215287588537,0.006697051227092743,0.001630120910704136
1782969971471037000,11.465036865234374,-0.001202150946483016,0.004279167391359806,-0.0009864348685368896
1782969971480963800,11.4749638671875,-0.0009970874525606632,0.005633650813251734,0.0007044061203487217
1782969971490890000,11.484889892578124,-0.00013448962999973446,0.004308728501200676,0.0017989652696996927
1782969971500816000,11.49481591796875,-0.0007896272582001984,0.006601709872484207,-0.0005083974683657289
1782969971510742800,11.50474267578125,-0.0004037352045997977,0.003515905234962702,0.0008396946941502392
1782969971520669000,11.5146689453125,0.0008681904873810709,0.0032471923623234034,0.000835966260638088
1782969971530596000,11.52459619140625,0.0019896477460861206,0.004715126473456621,0.00247594085521996
1782969971540522000,11.53452197265625,-0.0017102820565924048,0.002957174088805914,0.001606418751180172
1782969971550447900,11.54444775390625,-0.00006764429417671636,0.005892510060220957,-0.0007107976707629859
1782969971560375000,11.554375,-0.0003789678157772869,0.00469595193862915,-0.001591771375387907
1782969971570301000,11.564301025390625,-0.000678307143971324,0.006690925918519497,0.0011725898366421461
1782969971580226800,11.574226806640626,-0.00010386328358436003,0.004433896858245134,0.0012199940392747521
1782969971590154000,11.584154052734375,-0.001710814656689763,0.004255731590092182,0.0012434299569576979
1782969971600080100,11.594080078125,-0.001978995045647025,0.004091148264706135,0.0009984191274270415
1782969971610006800,11.6040068359375,-0.0003001382574439049,0.004776911810040474,0.0008873652550391853
1782969971619933000,11.613932861328125,-0.001597363967448473,0.005143363028764725,-0.0004844290087930858
1782969971629859000,11.623859130859374,0.0025963156949728727,0.0054357778280973434,0.003079413203522563
1782969971639786000,11.633785888671875,-0.0005307680112309754,0.003552923211827874,0.0033398703671991825
1782969971649711900,11.6437119140625,-0.0012950951931998134,0.0051686628721654415,0.0003861583536490798
