time,seconds_elapsed,z,y,x
1782952298518848800,0.068848876953125,0.9790215582549572,-0.18423180114850402,1.1927625816781073
1782952298528775400,0.078775390625,0.8127817792624235,-0.29578429666385053,0.8558825237117708
1782952298538702600,0.08870263671875,0.7389063957124948,-0.34457112392559647,0.5668816766429692
1782952298548629500,0.09862939453125,0.40367490867078304,-0.39190833690091964,0.39019671067744494
1782952298558557400,0.108557373046875,-0.07014730293750762,-0.3691609369114041,0.21558603023532777
1782952298568484600,0.118484619140625,-0.49528001017868517,-0.25342516436204315,-0.025160635143704712
1782952298578411500,0.12841162109375,-0.8569751412540674,-0.16675971121340988,-0.1898909959539771
1782952298588338700,0.138338623046875,-1.0527560720294713,-0.16886793553903698,-0.30100561150871213
1782952298598266600,0.1482666015625,-1.314769762647152,-0.10625950367376208,-0.28982074861694124
1782952298608193500,0.158193603515625,-1.3279969084888696,0.025776538552343842,-0.3125912006884813
1782952298618120400,0.168120361328125,-0.9417109415143727,0.13793357583209873,-0.28500110990814864
1782952298628048600,0.178048583984375,-0.76666650929749,0.1541964361079037,0.00533569847214967
1782952298637975600,0.1879755859375,-0.8516483932733535,0.27811346928626296,0.27367176051177083
1782952298647902500,0.19790234375,-0.8526298055261373,0.5190105759866536,0.2465254314435646
1782952298657829600,0.20782958984375,-0.7843558952450752,0.7402695007592439,0.18165592277850956
1782952298667757600,0.217757568359375,-0.7788923691421746,0.8164945161752403,0.05804024716690182
1782952298677684500,0.2276845703125,-0.6336334188580512,0.7867666096486151,-0.07403528681937604
1782952298687611600,0.237611572265625,-0.35911680501997467,0.7269622754186391,-0.2132105698082596
1782952298697538600,0.24753857421875,-0.16585399454534053,0.6705008218757808,-0.31040289686396716
1782952298707465700,0.2574658203125,0.07165536941289902,0.6596421587310731,-0.40319293384011834
1782952298717393700,0.2673935546875,0.38581484233140945,0.6995445455305278,-0.42136918998919426
1782952298727320300,0.2773203125,0.6968944694131612,0.7863238343171775,-0.44520332576949145
1782952298737247200,0.287247314453125,0.9316694399714469,0.8376308277063071,-0.4883643125060945
1782952298747175200,0.297175048828125,0.9525871403157711,0.8229052600003779,-0.46669093495626
1782952298757102300,0.307102294921875,0.8308914364486932,0.9330695160277187,-0.36406430789213623
1782952298767029200,0.317029296875,0.7275590722680091,1.1396049189209938,-0.35989286742638793
1782952298776956400,0.326956298828125,0.634937487193942,1.3379416716590522,-0.502727403575182
1782952298786884400,0.33688427734375,0.5197755690097808,1.3984367646321654,-0.6924491804420948
1782952298796811300,0.346811279296875,0.3252414234250784,1.376764154267311,-0.7962914669062942
1782952298806738400,0.356738525390625,0.0008399579554796219,1.3814191404663025,-0.8896191544231027
1782952298816665000,0.3666650390625,-0.33009237058758734,1.4460356972835957,-0.9743119923245162
1782952298826593300,0.37659326171875,-0.584931055009365,1.5526627190954982,-0.9912206031579524
1782952298836520200,0.386520263671875,-0.7117559384584426,1.6326213680818675,-0.8795503995470703
1782952298846447000,0.396447021484375,-0.6159627376109361,1.7050167422071099,-0.7320454239018261
1782952298856374300,0.406374267578125,-0.054496729341149325,1.7876118771769105,-0.6191548116505146
1782952298866302200,0.41630224609375,0.576057428202033,1.8959177919864654,-0.4096162814185023
1782952298876229400,0.4262294921875,1.0624988828867674,1.9712937893576918,-0.2619029237195849
1782952298886156300,0.43615625,1.4048644595921038,1.950452076859027,-0.2900843679891899
1782952298896083500,0.44608349609375,1.6124147386163472,1.8342384576648472,-0.4620363871486857
1782952298906011400,0.456011474609375,1.6833014617443083,1.6181437837876378,-0.6590764146070927
1782952298915938300,0.465938232421875,1.5677888304263352,1.3872130675673484,-0.8625682120207696
1782952298925865200,0.475865234375,1.2120797880232332,1.185053980062157,-1.0670460247971116
1782952298935792000,0.485792236328125,0.797927909001708,1.092283049645275,-1.1897823968235404
1782952298945720300,0.49572021484375,0.39949148550629615,1.079095359031111,-1.2528352845206856
1782952298955647200,0.505647216796875,-0.006144494104385376,1.101818355231732,-1.284259765832126
1782952298965574100,0.51557421875,-0.325113413131237,1.1598612327471374,-1.2365453901074825
1782952298975501300,0.525501220703125,-0.5401473259091377,1.2311908773370086,-1.1895232344307005
1782952298985429200,0.53542919921875,-0.636500498726964,1.2862490399532018,-1.2378925669327379
1782952298995356400,0.5453564453125,-0.6325754342377186,1.3120168106772006,-1.3408129893116651
1782952299005283300,0.555283447265625,-0.4168681522428989,1.3095656181327997,-1.3621455540671943
1782952299015210500,0.56521044921875,-0.08535247085392475,1.275053107678145,-1.242459436456859
1782952299025138400,0.575138427734375,0.22318857766091824,1.311809013145417,-1.0271814857900141
1782952299035065000,0.585065185546875,0.36750644770264623,1.3683973079383371,-0.8700056685451417
1782952299044992300,0.5949921875,0.227202489477396,1.4686938115544617,-0.7434203660055995
1782952299054919200,0.604919189453125,-0.0212450326025486,1.5277737770326434,-0.6486649837732315
1782952299064847000,0.61484716796875,-0.2315507478147745,1.5931385218687355,-0.5682929316803813
1782952299074774300,0.624774169921875,-0.3018973727166652,1.710091707383841,-0.5181447529375552
1782952299084701200,0.634701171875,-0.14828618915081024,1.9168981823034583,-0.4467164702787995
1782952299094628400,0.64462841796875,0.10876841775476932,2.1082053286656737,-0.27673553199656303
1782952299104556300,0.654556396484375,0.2682446939617395,1.8157304488107562,-0.17316011630762368
1782952299114483500,0.6644833984375,0.4201531652629375,1.2151299693740905,-0.30059768829494715
1782952299124410400,0.674410400390625,0.4996311911255121,0.7972627230912447,-0.3825931038059294
1782952299134338300,0.68433837890625,0.4903694417834282,0.5804705684691667,-0.42655335116144266
1782952299144265200,0.69426513671875,0.40426352221369743,0.5136126624658703,-0.4496360840525478
1782952299154192100,0.704192138671875,0.26457565006017686,0.35612273777052755,-0.42580498047955334
1782952299164119300,0.714119384765625,0.09814765501916407,0.13409779706150293,-0.496400063717179
1782952299174046200,0.724046142578125,-0.045482232758402824,-0.24296295318901537,-0.2728860169615596
1782952299183974100,0.73397412109375,-0.17088906610310076,-0.46177126993909473,-0.1484203003918752
1782952299193901300,0.7439013671875,-0.20454232937991618,-0.6837440420694649,-0.04463438375741243
1782952299203828200,0.753828125,-0.24988135427534577,-0.7478804141543806,-0.04246613634023815
1782952299213756400,0.76375634765625,-0.4192921645194292,-0.7380898186326027,-0.11823522468227893
1782952299223683300,0.773683349609375,-0.6615624592691659,-0.7272738255858421,-0.08122724415007979
1782952299233610500,0.783610595703125,-0.8895540532976388,-0.6725494249686599,0.04851688774656504
1782952299243537200,0.793537109375,-1.0877391226053237,-0.6246602771990001,0.23771752681620417
1782952299253465000,0.803465087890625,-1.191837794983387,-0.6341875456094741,0.45538098438009617
1782952299263392300,0.813392333984375,-1.1926263150125742,-0.7583017087951303,0.5913203907202929
1782952299273319200,0.823319091796875,-1.0526999579280614,-0.7968401137650013,0.5804336705248803
1782952299283246300,0.833246337890625,-0.8662146787643432,-0.6447616927243769,0.35597890885304656
1782952299293174300,0.84317431640625,-0.6413713196337223,-0.9249924464255571,0.557706473073177
1782952299303101200,0.85310107421875,-0.35259704786241053,-1.3125384964637457,0.8705279388535767
1782952299313028400,0.8630283203125,-0.009418985730409621,-1.3810358402371405,0.7859980364289134
1782952299322955300,0.872955322265625,0.34579847376346584,-1.2566785159453748,0.5938310948995873
1782952299332883500,0.882883544921875,0.6529232257395983,-1.258735448475182,0.5655237957606092
1782952299342810400,0.892810302734375,0.7846674454122782,-1.3977807849414645,0.7435233879886567
1782952299352737300,0.9027373046875,0.8312918339431286,-1.5078579472072422,0.836815273539722
1782952299362664200,0.912664306640625,0.9159884712368249,-1.5794145324207842,0.8451389383140951
1782952299372592000,0.922592041015625,0.9133055157631635,-1.563642086010426,0.7756631048973649
1782952299382519300,0.932519287109375,0.8575573250561952,-1.4731374930903314,0.6493751048039644
1782952299392446200,0.9424462890625,0.8446265318125485,-1.4185494322039187,0.664322206306085
1782952299402373400,0.952373291015625,0.8896516684532165,-1.8366940341234206,1.170838699965924
1782952299412301300,0.96230126953125,0.9188765938937663,-2.145874257324636,1.5345131682902573
1782952299422228200,0.972228271484375,0.8096995953381061,-2.0983172641187906,1.6373485427342354
1782952299432155400,0.9821552734375,0.39357437041699883,-1.669466559267789,1.3839876757800578
1782952299442082300,0.992082275390625,-0.2044675105780363,-1.4023179899796843,1.2050417060799896
1782952299452010500,1.002010498046875,-0.8005459825456142,-1.3218829556532203,1.2399223191946744
1782952299461937200,1.011937255859375,-1.2629022127658127,-1.240292613811791,1.1166249522846192
1782952299471864300,1.0218642578125,-1.3207447454035282,-1.1041104116916656,0.9343569254897535
1782952299481791200,1.031791259765625,-1.0577613329708575,-1.0449242093600333,0.8487661889005452
1782952299491719200,1.04171923828125,-0.5775134722292423,-1.0372224028110504,0.8012050309762359
1782952299501646300,1.051646240234375,-0.0770978527277708,-1.0796508009567856,0.7101411236729472
1782952299511573200,1.0615732421875,0.2596130592167377,-1.1249690753251314,0.6476132096979766
1782952299521500400,1.07150048828125,0.2885597522377968,-1.1979719138242304,0.6198528769172728
1782952299531428400,1.081428466796875,0.04125087879896164,-1.2729855076238512,0.663775678339228
1782952299541355300,1.091355224609375,-0.29397242493629455,-1.3097278229571878,0.684036229949072
1782952299551282400,1.101282470703125,-0.5140191974401473,-1.2568113485448063,0.6384533863604068
1782952299561209000,1.111208984375,-0.5747025064617395,-1.157914044202119,0.5439507733127102
1782952299571137300,1.12113720703125,-0.5131809930503368,-1.0098391597144305,0.5245395320085808
1782952299581064200,1.131064208984375,-0.3724620242834091,-0.8389329963460564,0.4700789699593559
1782952299590991400,1.140991455078125,-0.19072306286394594,-0.6729162124544382,0.4201110796868801
1782952299600918300,1.150918212890625,0.041646015596389765,-0.4928603818163275,0.43738034052625296
1782952299610846200,1.16084619140625,0.31100422375798226,-0.36537718058899044,0.578848008768633
1782952299620773400,1.1707734375,0.5895359184563159,-0.21718860659375785,0.7473820361781864
1782952299630700300,1.1807001953125,0.8008785755008458,-0.036333296141028405,0.8698334537833928
1782952299640627500,1.19062744140625,0.9348036463439464,0.09066840517967939,1.0286101303536443
1782952299650555400,1.200555419921875,0.9544389056622982,0.13622808708846568,1.1517403970684856
1782952299660482300,1.210482421875,0.8750520652145147,0.1918449065007269,1.1924595070783048
1782952299670409200,1.2204091796875,0.7291004564911127,0.283337341414392,1.1121761561822145
1782952299680336100,1.230336181640625,0.44958442693054673,0.3697780458964407,0.9322245165709405
1782952299690264300,1.240264404296875,0.09916355406343937,0.3943680050127208,0.6351274568080901
1782952299700191200,1.250191162109375,-0.30645021371543407,0.3701876496106386,0.3316630905030295
1782952299710118400,1.260118408203125,-0.6343365986913442,0.3141391607828438,0.026225268700532614
1782952299720045300,1.27004541015625,-0.8531722418397665,0.19908479462638495,-0.2541564925775863
1782952299729974300,1.279974365234375,-1.0217495238691567,0.1131672372356057,-0.43748559099901463
1782952299739901200,1.289901123046875,-1.0776233867824077,0.0770762254178524,-0.5894556562943384
1782952299749828000,1.299828125,-0.9687965168386697,0.13899126819148658,-0.6254298733320087
1782952299759755000,1.309755126953125,-0.664654580065608,0.20773104241862891,-0.4143803540151566
1782952299769683200,1.31968310546875,-0.6174012459814548,0.4295110684558749,0.02468322689030319
1782952299779610000,1.329610107421875,-0.3862719384491443,0.6892239347852767,0.2912472742887214
1782952299789537300,1.339537353515625,0.028244682231545446,0.8587018189162016,0.43407709772977976
1782952299799464200,1.349464111328125,0.16101356877684592,1.0599665879301725,0.6594342881340534
1782952299809392000,1.35939208984375,0.3702963706821203,1.179841944502294,0.7906719465240836
1782952299819319300,1.3693193359375,0.5370914454698562,1.1646148570150137,0.7203467297364026
1782952299829246200,1.37924609375,0.650256636878848,1.0711809326447546,0.5557153357885778
1782952299839173000,1.389173095703125,0.5691980638265609,1.0043974070519208,0.3226713537413627
1782952299849101000,1.39910107421875,0.3965092548251152,0.9506728311270475,0.16784443771019578
1782952299859028200,1.4090283203125,0.21655893038809299,0.914750161613524,0.06845025322865694
1782952299868955100,1.418955078125,0.01567278542816639,0.9577624971270561,-0.044062282957881685
1782952299878882000,1.428882080078125,-0.10059271008372306,1.0404922182619571,-0.14941643528975546
1782952299888810200,1.438810302734375,-0.12281973946094513,1.1088912162274123,-0.21395817330516873
1782952299898737200,1.448737060546875,-0.012081482937932014,1.1666387640580533,-0.30462332708183676
1782952299908664300,1.458664306640625,0.08514321201741695,1.2049553429707884,-0.4173941123457625
1782952299918591200,1.46859130859375,0.11043021348714828,1.2049471596643329,-0.5196130353918299
1782952299928519200,1.478519287109375,0.10677519811093807,1.187833820039034,-0.677268416314572
1782952299938446300,1.4884462890625,0.11127601666152477,1.13453886770308,-0.7996967453051358
1782952299948373000,1.498373046875,-0.04379413354098797,1.0763687105461954,-0.8695936536781489
1782952299958300200,1.508300048828125,-0.3337140682160854,1.035168539021164,-0.8805492743913084
1782952299968228000,1.51822802734375,-0.7156628827691077,1.0468065159752964,-0.8348831364333629
1782952299978155300,1.5281552734375,-1.0917021810173988,1.145431579247862,-0.7602418100122362
1782952299988082200,1.538082275390625,-1.3534364701718091,1.3357653505332767,-0.5498972240943462
1782952299998009000,1.548009033203125,-1.3815414516717195,1.5079877110667526,-0.3000777560740709
1782952300007937300,1.557937255859375,-1.0330758045256137,1.6901543963789938,-0.15868746391683816
1782952300017864200,1.5678642578125,-0.38963527740240095,1.797578706048429,-0.10006854007914662
1782952300027791400,1.577791259765625,0.3719470604985952,1.7505853380747138,-0.014130378291755914
1782952300037718000,1.587718017578125,1.0468208367615937,1.6208502662673592,0.023006050925701856
1782952300047646200,1.597646240234375,1.4812544563114642,1.4580929225631056,0.009383914417028426
1782952300057573000,1.607572998046875,1.6138275280237198,1.29204793549031,-0.1483035056117922
1782952300067500000,1.6175,1.401121181410551,1.1184826359152793,-0.3646250105148181
1782952300077427200,1.62742724609375,0.9201046743839979,0.9679171036556362,-0.5509519573116675
1782952300087355100,1.637355224609375,0.35024610082209107,0.8712498964525759,-0.6865578573811799
1782952300097282000,1.647281982421875,-0.26688392700254915,0.8305553363621234,-0.7278755908712744
1782952300107209200,1.657209228515625,-0.8193331006020307,0.8952861672088503,-0.7885246322970837
1782952300117136100,1.66713623046875,-0.9527186577409505,0.9960609558612108,-0.9135944887723774
1782952300127064300,1.677064208984375,-0.7389408825039863,0.9888400646969675,-0.9961031145025044
1782952300136991200,1.6869912109375,-0.3989356051892042,0.9182137460708618,-1.0244378861702979
1782952300146918100,1.696918212890625,-0.04656885895133018,0.9262170197844505,-1.1052196881078182
1782952300156845000,1.706844970703125,0.3097410719543695,0.9212864315144718,-1.1737320833198726
1782952300166773000,1.71677294921875,0.5283575193941593,0.8487452191777527,-1.0982939804978669
1782952300176700200,1.7267001953125,0.4885515787065029,0.7837422933913767,-0.9582631401255727
1782952300186627000,1.736626953125,0.33816520240604875,0.8112541313037276,-0.839148100401461
1782952300196554200,1.74655419921875,0.270360663202405,0.8842156148791313,-0.7680455425657331
1782952300206482200,1.756482177734375,0.18694179075956344,0.9360096611328422,-0.7020093282088637
1782952300216409000,1.7664091796875,0.03455518055260181,0.8972865472458302,-0.6579506985127925
1782952300226336300,1.776336181640625,-0.15832242999672888,0.8344253096632659,-0.5785034696472808
1782952300236263200,1.78626318359375,-0.36320085946321484,0.7509104295000434,-0.4544780076583847
1782952300246191400,1.79619140625,-0.4939829561054706,0.7185802315205335,-0.46572534132711585
1782952300256118000,1.806117919921875,-0.3765133455008268,0.7000171314783394,-0.5488710228517651
1782952300266045200,1.816045166015625,-0.22815116850435732,0.58227805628255,-0.21330246760910376
1782952300275972000,1.82597216796875,-0.18373042749762533,0.41685280854329465,0.007703761044051498
1782952300285900000,1.835900146484375,-0.07802782705426216,0.26763459923937916,-0.0009331161316484212
1782952300295827200,1.8458271484375,0.044886604952812194,0.11387070932984351,-0.08331866347137838
1782952300305754000,1.855754150390625,0.16104630200266837,-0.14652224821820856,-0.08895956456833519
1782952300315681300,1.865681396484375,0.18343699750900266,-0.4227830753751099,-0.029914912432129494
1782952300325609200,1.875609130859375,0.00881166748702526,-0.6106482645899057,-0.036852210015174934
1782952300335536000,1.8855361328125,-0.2385872223228216,-0.7193278350174427,-0.19172809345433486
1782952300345463300,1.89546337890625,-0.40387423063516614,-0.8740643693514167,-0.13377012687656095
1782952300355390000,1.905389892578125,-0.5582575676172972,-0.9858122413083911,-0.08006119604539126
1782952300365318100,1.915318115234375,-0.46775195178389545,-1.0220051060654223,-0.17929907572036607
1782952300375245000,1.9252451171875,-0.27865269072949883,-1.1451656217880546,-0.27068041494237255
1782952300385172200,1.935172119140625,-0.07100596559345722,-1.3210058805577456,-0.20953759865025057
1782952300395099100,1.94509912109375,0.0777992789953947,-1.4408924891762434,-0.12472607540576718
1782952300405027000,1.955027099609375,0.21580781975984573,-1.4743343016594648,-0.024360945266531778
1782952300414954200,1.964954345703125,0.37460605057477947,-1.4700797129549086,0.06315575441657566
1782952300424881200,1.974881103515625,0.550721326893568,-1.471610283523053,0.12946663012951612
1782952300434808300,1.984808349609375,0.7489730316966772,-1.5293226139098406,0.1892528259146027
1782952300444736300,1.994736328125,0.9838923791617155,-1.6124949642457067,0.22629008734021336
1782952300454663200,2.0046630859375,1.1835375841498375,-1.6860019528746604,0.2514958220009692
1782952300464590000,2.014590087890625,1.093427105113864,-1.753482082429528,0.30557151291845364
1782952300474517000,2.02451708984375,0.6103513274699449,-1.798617109185457,0.39638226744458077
1782952300484445200,2.034445068359375,-0.14654606748521326,-1.7374485008649527,0.5277819114632905
1782952300494372000,2.0443720703125,-0.9146744660288095,-1.5280227833576498,0.6255943431787192
1782952300504299300,2.05429931640625,-1.5332055928230284,-1.260496028406918,0.6789594381414353
1782952300514226200,2.06422607421875,-1.7475018389761448,-1.0372129043303429,0.7594183648001402
1782952300524154000,2.074154052734375,-1.411850665217638,-0.8936388383932411,0.8627775439225137
1782952300534081300,2.084081298828125,-0.7527788537204265,-0.8640075241088867,0.948804991428554
1782952300544008200,2.09400830078125,0.05092354702949524,-0.8712447818860412,0.8617787421435117
1782952300553935000,2.10393505859375,0.7570154683768748,-0.9236403011642396,0.6815460936337709
1782952300563863300,2.11386328125,1.1653373260706663,-1.0262392365038395,0.5303927515488117
1782952300573790000,2.1237900390625,1.2479969045788049,-1.1268212790630756,0.4308008160054683
1782952300583717000,2.133717041015625,1.1758341701656578,-1.192744096173346,0.38077655590325593
1782952300593644000,2.14364404296875,0.9577928922653197,-1.1764984792932867,0.4321493080049753
1782952300603572200,2.153572265625,0.5840133556425571,-1.0917072955839335,0.5327377803049981
1782952300613499100,2.1634990234375,0.08526362352669238,-0.9718110423542559,0.5920452709287405
1782952300623426300,2.17342626953125,-0.3812088098406791,-0.7815823388785124,0.559499968893826
1782952300633353200,2.183353271484375,-0.7193243278861046,-0.6188482299193739,0.5537277787005529
1782952300643281200,2.19328125,-0.8431254795998334,-0.5459792469330131,0.566130566014722
1782952300653208300,2.203208251953125,-0.7397416774928569,-0.48068508311510083,0.5647242794133722
1782952300663135000,2.213135009765625,-0.38963936905562874,-0.40792102180793877,0.6081877562278881
1782952300673062100,2.223062255859375,0.016841829207539558,-0.4073940753243863,0.7212734891925007
1782952300682990000,2.232989990234375,0.3795031749665737,-0.40519554236680266,0.7905880676329136
1782952300692917000,2.2429169921875,0.6683394060581922,-0.376024392940104,0.774526063691452
1782952300702844200,2.25284423828125,0.8161457027375698,-0.34954058290123935,0.8133017845485359
1782952300712771000,2.26277099609375,0.87664605640769,-0.3054997811228037,0.8999749095469712
1782952300722699300,2.27269921875,0.9057207597225904,-0.20734043566584587,0.8730096726667136
1782952300732625700,2.282625732421875,0.9329390215158462,-0.15474983220696448,0.754187478409335
1782952300742552800,2.292552734375,0.9042641311734915,-0.18789485370069742,0.6226727566435932
1782952300752479500,2.3024794921875,0.78703242097795,-0.21157865775749085,0.5018505111427978
1782952300762406700,2.31240673828125,0.5628863964617252,-0.2102320654541254,0.3254044319670647
1782952300772334600,2.32233447265625,0.27842414267063137,-0.20598989783972502,0.16913277875399216
1782952300782261500,2.332261474609375,0.02190904946923256,-0.2301115087918937,-0.0036221542862243947
1782952300792188700,2.342188720703125,-0.20838672984838486,-0.2936161588445306,-0.0545507154175546
1782952300802115600,2.352115478515625,-0.47110418482124805,-0.19771496757790444,-0.11375347615834325
1782952300812043800,2.362043701171875,-0.6481991198271513,-0.06313508608788251,-0.18774861363042145
1782952300821970700,2.371970703125,-0.583873654910922,0.030633623194694516,-0.2515445930461399
1782952300831897900,2.38189794921875,-0.29360943684279917,0.0305113119892776,-0.3118593062173575
1782952300841824800,2.39182470703125,0.17041969502568244,-0.007179390110075473,-0.42154184314236043
1782952300851752700,2.401752685546875,0.6224567758053541,-0.06909808614552021,-0.39927283778693523
1782952300861679600,2.4116796875,0.7558575305134058,-0.157482033649832,-0.15305185091635212
1782952300871606500,2.4216064453125,0.49774318542182444,-0.10311068425402045,0.025947620802931486
1782952300881533700,2.43153369140625,-0.09406652318537234,0.17396788902655244,0.07658962921099736
1782952300891461600,2.441461669921875,-0.7836112143576145,0.3926671924442053,0.009414419153146445
1782952300901388500,2.451388427734375,-1.1883113744229077,0.49601811519488687,0.026290625554323196
1782952300911315700,2.461315673828125,-1.4259715450286865,0.5663233851730823,0.1692975225953385
1782952300921242600,2.47124267578125,-0.9118868811368942,0.5690726838812231,0.20674352921862155
1782952300931170800,2.4811708984375,-0.32894027794301506,0.5898053830474614,0.28883670601565387
1782952300941097700,2.49109765625,0.07832184156477451,0.5769302655138075,0.3034292219264433
1782952300951025000,2.50102490234375,0.2562806999236345,0.5358244942739605,0.2629713932013139
1782952300960951600,2.51095166015625,0.2646545605152845,0.4659327735327184,0.298772591759637
1782952300970879500,2.52087939453125,0.06964578315615653,0.5143278249979019,0.38000023776851594
1782952300980806700,2.530806640625,-0.17846505431532858,0.7289264150984585,0.34899895030520856
1782952300990733600,2.540733642578125,-0.2572562669575214,0.9895869375415146,0.2898009479379281
1782952301000660700,2.55066064453125,-0.24746143365204332,1.1666109992682934,0.1983727738995105
1782952301010588700,2.560588623046875,-0.14660451967418192,1.2188653565101324,0.10406743698958307
1782952301020515600,2.570515625,-0.027638533031940457,1.2264676482073962,-0.0506869983272627
1782952301030442800,2.58044287109375,-0.031149171501398086,1.188567541141063,-0.23443295218758284
1782952301040369700,2.59036962890625,-0.2091898629248142,1.164684707380831,-0.4010219830092042
1782952301050297900,2.6002978515625,-0.44963995651006694,1.1811794767163692,-0.5375936228383332
1782952301060224800,2.610224853515625,-0.674145461988449,1.164962647539377,-0.548133794618398
1782952301070151700,2.620151611328125,-0.9056213910013436,1.1867800732024014,-0.4076120289240032
1782952301080078600,2.63007861328125,-0.9689134212166071,1.3101945636861025,-0.2004251398520544
1782952301090006500,2.640006591796875,-0.6333201151251793,1.5502560963451861,-0.009019026627391576
1782952301099933700,2.64993359375,0.012027122402191162,1.7647284297175705,0.11371592062693088
1782952301109860600,2.659860595703125,0.6959253321200609,1.838095717614889,0.19222225191313771
1782952301119787800,2.669787841796875,1.2138725166589022,1.785880231078714,0.2110299378335476
1782952301129715700,2.6797158203125,1.4248247130811214,1.7421876582160591,0.13517532663252205
1782952301139642600,2.689642578125,1.2089964350551365,1.7259965480022132,0.14327782293688504
1782952301149569800,2.69956982421875,0.807036513608694,1.6783324411600826,0.09982833811510354
1782952301159496700,2.70949658203125,0.45193245136141774,1.6158211860589682,-0.08424670156911016
1782952301169425000,2.7194248046875,0.09934592489302158,1.5064638625003397,-0.2940745336038992
1782952301179351600,2.7293515625,-0.24256664734780786,1.3957546859413386,-0.47573213688284155
1782952301189278700,2.73927880859375,-0.5358382305383682,1.3217406245730816,-0.5137547012850642
1782952301199205600,2.74920556640625,-0.7281698976427317,1.2856094268754124,-0.43750867961365725
1782952301209133600,2.759133544921875,-0.8101999460756778,1.32594465213418,-0.34748193333838134
1782952301219060700,2.769060791015625,-0.7943330993801355,1.4097647988542914,-0.2937522063143551
1782952301228987600,2.778987548828125,-0.6352776789337397,1.5072304629586637,-0.2847113697139546
1782952301238914800,2.788914794921875,-0.4822141923785209,1.4971794629350303,-0.29858759058155115
1782952301248842800,2.7988427734375,-0.3759112879544496,1.433638572525233,-0.26492811675965783
1782952301258769700,2.808769775390625,-0.37982758461534977,1.3693949406735597,-0.32096484208442266
1782952301268696600,2.818696533203125,-0.43147067809104916,1.34400243300274,-0.4162751547858119
1782952301278623500,2.82862353515625,-0.34899347041249273,1.3725354306563735,-0.428699094485864
1782952301288551700,2.8385517578125,-0.07646949169635772,1.3649053741693495,-0.5001913092263043
1782952301298478600,2.848478515625,0.2755132236599922,1.2674417558915911,-0.5935923542402685
1782952301308405800,2.85840576171875,0.5703875658720732,1.1582839004278183,-0.6759143713571131
1782952301318332700,2.868332763671875,0.7954641492366791,1.0292216133154928,-0.7327052029848098
1782952301328260600,2.878260498046875,0.8943214138299226,0.8305416000977158,-0.7806558716833591
1782952301338187800,2.888187744140625,0.9209691822588443,0.672025108833611,-0.7548211732029915
1782952301348114700,2.89811474609375,0.8797200570255518,0.5549744542934,-0.7440479963846505
1782952301358041900,2.908041748046875,0.7551105115383863,0.5627059253282845,-0.7204224983863532
1782952301367969800,2.9179697265625,0.4488602043092251,0.5826996426954865,-0.6682357995532453
1782952301377896400,2.927896484375,0.15420798041522502,0.5639082868553698,-0.6298170754402875
1782952301387823600,2.93782373046875,-0.09254618175029754,0.4726160506889224,-0.710870241665095
1782952301397750500,2.94775048828125,-0.19839140553474424,0.3745448219068348,-0.7516939810931682
1782952301407678700,2.9576787109375,-0.1870651248782873,0.28592750403806566,-0.7372041218392551
1782952301417605600,2.967605712890625,-0.16851999888420105,0.11266074901819229,-0.6894099588766693
1782952301427532800,2.97753271484375,-0.16683365323245525,-0.16920198979899287,-0.5735289691703394
1782952301437459700,2.987459716796875,-0.21022388214766977,-0.4848812196306884,-0.42438689384255557
1782952301447387600,2.9973876953125,-0.27302082232236863,-0.832767021062225,-0.3165008849455043
1782952301457314800,3.007314697265625,-0.30042846920788285,-1.039218252803385,-0.2541011821937747
1782952301467241700,3.01724169921875,-0.3121726830154657,-1.1379974837243556,-0.1794299538247287
1782952301477168600,3.027168701171875,-0.23119477398395538,-1.2796997644402086,-0.08528134184647351
1782952301487096600,3.0370966796875,-0.1583089859932661,-1.3866319066785275,0.04413425221554935
1782952301497023500,3.0470234375,0.0231926595389843,-1.53237294139117,0.18901054159132763
1782952301506950700,3.05695068359375,0.05492576840817928,-1.6357181650534272,0.35683066684417425
1782952301516877600,3.066877685546875,-0.13242109602093696,-1.6564890042729674,0.5495902770370245
1782952301526804700,3.0768046875,-0.3348597311198711,-1.647918452065438,0.6103381026621908
1782952301536732700,3.086732666015625,-0.4598673360139131,-1.6877542033694684,0.6542700372386724
1782952301546659600,3.09665966796875,-0.5012888952046632,-1.776839138749987,0.66590984082371
1782952301556586800,3.106586669921875,-0.44634266853034493,-1.8898370107680558,0.586067438628152
1782952301566513700,3.116513671875,-0.27926117801666256,-1.9901576259121299,0.509235726023279
1782952301576441900,3.12644189453125,0.008840309059619904,-2.060438930492848,0.5684797594893723
1782952301586368500,3.136368408203125,0.414120899361372,-2.015002728833258,0.7022958170000463
1782952301596295700,3.146295654296875,0.883719940316677,-1.97707398019433,0.9142777948614209
1782952301606222600,3.15622265625,1.1768114907652139,-1.9627057014934717,1.1165735143583266
1782952301616150500,3.166150634765625,1.156997367748618,-1.8775689192168414,1.1942029897447675
1782952301626077700,3.17607763671875,0.7641530651718378,-1.79304456975013,1.1849983043521641
1782952301636004600,3.186004638671875,0.02340776359438896,-1.6793521395966409,1.1613195417966693
1782952301645931800,3.195931884765625,-0.7845201458960771,-1.5568503800436853,1.069121808157861
1782952301655859700,3.205859619140625,-1.4360112930059432,-1.4530710027478635,0.9070628219813108
1782952301665786600,3.21578662109375,-1.6269968061983584,-1.3898869629517197,0.8026127058170736
1782952301675713800,3.2257138671875,-1.4825813210010528,-1.2788618523113429,0.7751637040078639
1782952301685640400,3.235640380859375,-1.0640402671098708,-1.269852762556076,0.691889208471775
1782952301695568600,3.245568603515625,-0.415286436009407,-1.2007333413615822,0.6483516069751233
1782952301705495600,3.25549560546875,0.2480424484103918,-1.1620970289751886,0.6032249461887405
1782952301715422700,3.265422607421875,0.6969143431574106,-1.1628754660017788,0.553423206263408
1782952301725349600,3.275349609375,0.7215116087973117,-1.1538824505984782,0.5129527737850323
1782952301735277600,3.285277587890625,0.5169681103736162,-1.168207182418555,0.48218569693639873
1782952301745204700,3.295204833984375,0.15076748457252978,-1.1262111843407154,0.43219150317888705
1782952301755131400,3.30513134765625,-0.20552432615458965,-1.0270889852009712,0.35130638699736444
1782952301765058600,3.31505859375,-0.4616606491714716,-0.8597568809270858,0.28487218629885463
1782952301774986500,3.324986572265625,-0.5975806932240724,-0.6647650547027587,0.30477603342551735
1782952301784913700,3.33491357421875,-0.5700538038730621,-0.4129984712027013,0.4218430911112577
1782952301794840600,3.344840576171875,-0.3935580038040876,-0.19767565848082302,0.6000080665014684
1782952301804767500,3.354767578125,-0.03729483464956283,-0.05588160782828927,0.7531992710895836
1782952301814695700,3.36469580078125,0.2865156791895628,0.014428046064078806,0.9202085731498897
1782952301824622600,3.37462255859375,0.5002174665808677,0.043262510882318014,0.9503487137392163
1782952301834549800,3.3845498046875,0.6721849755704402,0.11744842168614268,0.8281940140582621
1782952301844476700,3.3944765625,0.8180617654919624,0.16907032624334095,0.6681573274895548
1782952301854404600,3.404404541015625,0.9422978014916181,0.17895064587518572,0.6180399822764099
1782952301864331500,3.41433154296875,0.9885328984439372,0.16247443510964513,0.5912150306496768
1782952301874258400,3.424258544921875,0.8130074047118425,0.17401728112623094,0.5506442065367475
1782952301884185600,3.434185546875,0.4459609757363796,0.19472090032845735,0.35147312186639756
1782952301894113500,3.444113525390625,0.0895680427223444,0.19817440178319812,0.10217577802408485
1782952301904040400,3.45404052734375,-0.27836452143788337,0.19278671739548445,-0.04449088363349438
1782952301913967600,3.463967529296875,-0.6176128429055213,0.22925810683295128,-0.060609147806838154
1782952301923894500,3.47389453125,-0.8458850074410438,0.34822657769322396,0.027055764707922935
1782952301933822700,3.48382275390625,-0.9648784666121005,0.45117169612199065,0.18158238261826334
1782952301943749600,3.49374951171875,-0.9680945060491561,0.4965399471119046,0.3056026569753885
1782952301953676800,3.5036767578125,-0.8112479938238859,0.55014878770262,0.37296887782700355
1782952301963603500,3.513603515625,-0.6780372087299823,0.5916920735768973,0.41623913362435994
1782952301973531400,3.523531494140625,-0.5941594866037369,0.5940260694824159,0.324346447346732
1782952301983458600,3.53345849609375,-0.11811316920518874,0.4800805413506925,0.1650512267950922
1782952301993385500,3.543385498046875,-0.03677227208018303,0.35546573516651986,0.09345504022352397
1782952302003312600,3.553312744140625,0.022874095109105107,0.27951471438631414,-0.10445552299171686
1782952302013240600,3.563240478515625,-0.058745034435391426,0.22437559548839925,-0.16758520225211976
1782952302023167500,3.57316748046875,-0.12948153543770313,0.2274745844170451,-0.16560966439545152
1782952302033094700,3.5830947265625,-0.19963293002843854,0.2777363065369427,-0.05085355053320527
1782952302043021600,3.593021484375,-0.31701252426207066,0.3818025379501283,0.08000643365085125
1782952302052949800,3.60294970703125,-0.4082727578550577,0.626035803335905,0.25884828538931903
1782952302062876700,3.612876708984375,-0.44356677407622336,0.8672769011683762,0.45363275247327983
1782952302072803600,3.622803466796875,-0.40149055036902426,1.0030530067056418,0.5669415901366621
1782952302082730500,3.63273046875,-0.3149778035640716,1.088551900292933,0.6016336218766868
1782952302092658400,3.642658447265625,-0.15498130287528036,1.0919856741338967,0.495612310872972
1782952302102585600,3.652585693359375,0.10784019699394702,1.040408339370787,0.30417532758601007
1782952302112512500,3.662512451171875,0.4237883068948984,0.9539283257916569,0.0701187344301492
1782952302122439700,3.672439697265625,0.7055868944346905,0.8255062362790108,-0.27659773096106943
1782952302132367600,3.68236767578125,0.8639987562805413,0.8226072999671101,-0.592155307174474
1782952302142294500,3.69229443359375,0.8753396499842405,0.8459718089416622,-0.7737810174778104
1782952302152221700,3.7022216796875,0.6622334903985262,0.8878820284321903,-0.8580745538633316
1782952302162148400,3.7121484375,0.13585457760095596,0.9298962928190827,-0.8347010578647256
1782952302172076500,3.72207666015625,-0.57143795170784,0.9299769568398595,-0.6483077678333967
1782952302182003500,3.73200341796875,-1.1404618280112744,1.0390434807583688,-0.4449975375317037
1782952302191930600,3.7419306640625,-1.2622569005995987,1.092408575721085,-0.2646215350285172
1782952302201857500,3.751857421875,-0.9697983873575925,1.4830802104339003,-0.3387408834021538
1782952302211785500,3.761785400390625,-0.33647476510107516,1.8092282273098825,-0.22930443019270896
1782952302221712600,3.771712646484375,0.4839151510775089,1.7673492797404526,-0.11390417320802806
1782952302231639600,3.7816396484375,1.2534206831932067,1.6363532480865717,-0.20625446706004438
1782952302241566700,3.791566650390625,1.747581333953142,1.4541013687089084,-0.3933536403384059
1782952302251493600,3.80149365234375,1.861003714993596,1.2227879367813468,-0.5202930900778621
1782952302261421600,3.811421630859375,1.577668419405818,1.0129211975082755,-0.5008370597839356
1782952302271348500,3.821348388671875,0.9570604863375425,0.9019386108353733,-0.42609008103124796
1782952302281275400,3.831275390625,0.29789222872853277,0.8554153445914388,-0.5477114775530993
1782952302291202600,3.84120263671875,-0.1508668532937765,0.9417398753479123,-0.8563452458526939
1782952302301130500,3.851130615234375,-0.4127168777823448,1.1261141537070274,-0.9270164265338331
1782952302311057700,3.8610576171875,-0.5333733017295599,1.1863035417318344,-0.9376212610479444
1782952302320984600,3.870984619140625,-0.4640203640401363,1.2469443267859517,-0.9142962073009461
1782952302330911700,3.880911865234375,-0.3748790222972631,1.27661509629786,-0.961045902711898
1782952302340839700,3.890839599609375,-0.24425416204333303,1.223988544742763,-1.0054570721726863
1782952302350766600,3.9007666015625,-0.0665144993931055,1.1525665456943213,-0.9967838633082806
1782952302360693800,3.91069384765625,0.07383563606142997,1.1141466525375843,-0.9838412334963679
1782952302370620400,3.920620361328125,0.20404139412045477,1.1227334252275525,-1.0145870848938823
1782952302380548400,3.93054833984375,0.30464170298874377,1.1092157720066607,-1.0171032324332743
1782952302390475500,3.9404755859375,0.4380635004848242,1.0779819909617303,-0.9715000767089426
1782952302400402400,3.95040234375,0.5092670344769954,1.1283750843763352,-0.9023401773735881
1782952302410329600,3.96032958984375,0.4202244769334793,1.2209472773507237,-0.8494299865715205
1782952302420257500,3.970257568359375,0.220091196167469,1.243869595515728,-0.8113250776480883
1782952302430184700,3.980184814453125,0.020955694267153737,1.2468114941865205,-0.7205944939523935
1782952302440111600,3.990111572265625,-0.09536474630236626,1.2332988094016908,-0.6286494199004024
1782952302450038800,4.000038818359375,-0.16012743359208106,1.1834021212019026,-0.548069716406241
1782952302459966700,4.009966796875,-0.16936930918991563,1.0801574353046715,-0.5054740719348192
1782952302469893600,4.0198935546875,-0.09166180013120175,0.9388562827356159,-0.5625497118532657
1782952302479820500,4.029820556640625,-0.026108839246630666,0.7554343366652727,-0.6587548545025289
1782952302489747500,4.03974755859375,0.02468085227012634,0.5459167030908167,-0.7054852606911212
1782952302499675400,4.04967529296875,0.029634675285220145,0.30187121536210176,-0.7124096531268209
1782952302509602600,4.0596025390625,0.04587912312150001,0.08861088812798261,-0.6822834679976105
1782952302519529500,4.069529541015625,0.03138414930105209,-0.024649872609972954,-0.630796661062166
1782952302529456600,4.07945654296875,0.04543839361667633,-0.1235047991156578,-0.5753560019344091
1782952302539384600,4.089384521484375,0.013320669344067573,-0.2138438262104988,-0.47335656685791905
1782952302549311700,4.099311767578125,-0.11414894174933433,-0.3032923342064023,-0.4412367236934602
1782952302559238700,4.10923876953125,-0.27177286808788775,-0.4062883060395717,-0.368826809586212
1782952302569165600,4.11916552734375,-0.3667500763773918,-0.4605409974917769,-0.21118717422187328
1782952302579093800,4.12909375,-0.390155501884222,-0.49942485489845273,0.03860555192194879
1782952302589020400,4.1390205078125,-0.3927250601112842,-0.5502070937611162,0.30652459412589667
1782952302598947600,4.148947509765625,-0.3771504743605852,-0.6057837272934615,0.5781668946366757
1782952302608874500,4.15887451171875,-0.38195349072813983,-0.6337305956222117,0.7948723938886075
1782952302618802400,4.168802490234375,-0.3658779697179794,-0.6717698188982903,0.950314665339142
1782952302628729600,4.1787294921875,-0.26478900054991245,-0.7229042321994901,1.0295971686296164
1782952302638656500,4.188656494140625,-0.20034896934330462,-0.7795715835779905,1.0541288947526364
1782952302648583700,4.198583740234375,-0.12900924175083636,-0.9546193767957388,1.005780605038628
1782952302658511600,4.20851171875,-0.029368717825412748,-1.1545818310394882,0.95998397256881
1782952302668438800,4.218438720703125,0.12387772408127784,-1.3466812968231736,0.8955042669389396
1782952302678365400,4.228365478515625,0.26584172447323795,-1.4717941156573593,0.7461655730605125
1782952302688292600,4.238292724609375,0.392941917732358,-1.6385549959145485,0.600298354684934
1782952302698220500,4.248220458984375,0.5773316859215497,-1.781832563123107,0.47893473231643435
1782952302708147500,4.2581474609375,0.6774088476985692,-1.9031657172881065,0.4043148870747536
1782952302718074600,4.26807470703125,0.6377987218439579,-1.954244601009786,0.33127675806656476
1782952302728001500,4.27800146484375,0.3921680107504129,-1.9644765105582773,0.2755850467871874
1782952302737929500,4.287929443359375,-0.22220658088624476,-1.8646074385739861,0.2785573405962437
1782952302747856600,4.297856689453125,-1.0337643713116644,-1.7084652752257883,0.26095738649778066
1782952302757783600,4.307783447265625,-1.5590227556467056,-1.5378344216674564,0.28590682657621797
1782952302767710500,4.31771044921875,-1.4898942743629215,-1.4026054286189376,0.3685154786147177
1782952302777638400,4.327638427734375,-1.0770014554917813,-1.3429833190880716,0.5331334285590797
1782952302787565600,4.337565673828125,-0.5406728110879659,-1.2951377181991934,0.7401119721099734
1782952302797492500,4.347492431640625,-0.029209143349528312,-1.2296034620150924,0.8979290829330682
1782952302807419600,4.357419677734375,0.33341187039911746,-1.119588405200094,0.9599960283327847
1782952302817347600,4.36734765625,0.5222136098116636,-1.0836292030684649,0.9012158495187759
1782952302827274500,4.3772744140625,0.5271002128094434,-1.1533419139809906,0.8257184907902032
1782952302837201700,4.38720166015625,0.39308220298588276,-1.258802376231551,0.701014764213562
1782952302847128600,4.397128662109375,0.19381635270416736,-1.3339039405755697,0.5965253389522432
1782952302857055500,4.407055419921875,0.02072071646749973,-1.3333011523768306,0.6046660483751446
1782952302866983700,4.416983642578125,-0.09880758023262023,-1.2079263216055929,0.6999597022026777
1782952302876910300,4.426910400390625,-0.2034393365740776,-0.9804399006202816,0.8047042712688446
1782952302886837500,4.43683740234375,-0.29809038164913654,-0.7360048290520906,0.858020266392827
1782952302896764400,4.446764404296875,-0.24270167190432548,-0.536949991172552,0.9661346772182732
1782952302906692600,4.456692626953125,-0.10509294411242008,-0.3616916239440441,1.067492818716541
1782952302916619500,4.46661962890625,0.12576514526307583,-0.2551376673683524,1.1386913842726498
1782952302926546700,4.476546630859375,0.42959903900027274,-0.22520108652710913,1.1917960747335106
1782952302936473600,4.4864736328125,0.7307961544930934,-0.3174887634716928,1.2015392509169875
1782952302946401500,4.496401611328125,0.9290122034609317,-0.4509140680991113,1.2068373573251068
1782952302956328700,4.50632861328125,0.9002987346738577,-0.516643992985785,1.1717206704322247
1782952302966255400,4.51625537109375,0.6554752483099698,-0.4455952111639082,1.001873441532254
1782952302976182500,4.5261826171875,0.3280506356269121,-0.25845804396271704,0.7225325493428856
1782952302986110500,4.5361103515625,0.013262801676988602,-0.08816621310040354,0.4314434247579425
1782952302996037400,4.546037353515625,-0.20410686057209967,-0.01996419901177287,0.17575104611627757
1782952303005964500,4.555964599609375,-0.423522349435091,-0.059633799968659876,-0.07337685944326222
1782952303015891500,4.565891357421875,-0.7005073992133141,-0.1238949674770236,-0.29956987961716947
1782952303025819600,4.575819580078125,-0.9417202938646078,-0.12993278633654118,-0.4198328472673893
1782952303035746600,4.58574658203125,-1.0295400316148995,-0.09703384855836629,-0.4710653141155839
1782952303045673700,4.595673828125,-0.9610118543118238,0.02222337611541152,-0.460791245925799
1782952303055600600,4.6056005859375,-0.712284930768609,0.18477073033079505,-0.39971236171536145
1782952303065528600,4.615528564453125,-0.30883389398157596,0.2983509322814643,-0.3043983226869255
1782952303075455500,4.62545556640625,-0.2610615044593811,0.40782165308669205,-0.08048179607763886
1782952303085382400,4.63538232421875,-0.04004267205297947,0.443359414935857,-0.08173515713959932
1782952303095309600,4.6453095703125,0.1583569167882204,0.4475264714874327,0.023371669367700815
1782952303105237500,4.655237548828125,0.30991525947749615,0.47632615725323557,0.13294972300492228
1782952303115164400,4.665164306640625,0.4979541978240013,0.5585984900094568,0.12117526018954813
1782952303125091600,4.675091552734375,0.6451473310410976,0.6238521756865084,0.08521620418839156
1782952303135018500,4.6850185546875,0.7971195152282714,0.6174436238184571,0.05469400547891855
1782952303144946700,4.69494677734375,0.8984475538492203,0.5931196221619844,0.09011062516644597
1782952303154873600,4.70487353515625,0.9136854549914598,0.5962821778461337,0.1456747645433992
1782952303164800800,4.71480078125,0.6863683992236852,0.6492424914002418,0.18335319168306885
1782952303174727400,4.7247275390625,0.1844856297791004,0.7351365217849611,0.1345567928753793
1782952303184655400,4.7346552734375,-0.23622867649793625,0.8104647344917059,0.16835940149500966
1782952303194582500,4.74458251953125,-0.45665480370819567,0.8617777192302047,0.24584004299528894
1782952303204509400,4.754509521484375,-0.5034171394050121,0.9229059955403208,0.22188231736794112
1782952303214436600,4.7644365234375,-0.44353930154740806,0.9908742008730769,0.09146598529815674
1782952303224363500,4.774363525390625,-0.40705461423695083,0.9999778370440006,-0.11473090635575353
1782952303234291500,4.78429150390625,-0.3979775738120079,0.962580857194215,-0.2826483362369239
1782952303244218600,4.794218505859375,-0.3490986843526363,0.9039308075658976,-0.4164264728900045
1782952303254145500,4.8041455078125,-0.2448141340136528,0.957790554177761,-0.5324116901557893
1782952303264072700,4.81407275390625,-0.17216157025694845,1.0699163195364176,-0.627711116136983
1782952303274000600,4.824000732421875,-0.13382102594673634,1.139556841995567,-0.6975444577544927
1782952303283927600,4.833927490234375,-0.2263181078583002,1.1997552901096642,-0.7442516291979699
1782952303293854500,4.8438544921875,-0.3703302729517221,1.2619535337388514,-0.7464498698946088
1782952303303781600,4.85378173828125,-0.5785626890212298,1.2837538621366023,-0.6776354960612953
1782952303313709600,4.86370947265625,-0.841145703959465,1.2894172947257756,-0.5138845382098108
1782952303323636500,4.873636474609375,-1.0026017558068037,1.3704074787169693,-0.3587597352106124
1782952303333563600,4.883563720703125,-0.9442945282667875,1.5687857325091956,-0.2815151674885303
1782952303343490600,4.893490478515625,-0.6183715523183345,1.7768876540668308,-0.22579130750522017
1782952303353418500,4.90341845703125,-0.09684826285839081,1.9147667232327161,-0.18924794881008564
1782952303363345700,4.913345703125,0.43270109666883944,1.9475385274998842,-0.23455818600244818
1782952303373272600,4.9232724609375,0.8847615583240985,1.9551764750324188,-0.43332909237407147
1782952303383199500,4.933199462890625,1.1915817743957042,1.87963681153208,-0.6819018482688814
1782952303393127400,4.94312744140625,1.2739917620569468,1.713822418344766,-0.8994745588093995
1782952303403054600,4.9530546875,1.2169792505025863,1.5158467540040612,-1.0865194446172564
1782952303412981500,4.9629814453125,1.0276274759918451,1.3176505787804722,-1.3498013285398482
1782952303422908700,4.97290869140625,0.7115250523120165,1.1219945895589887,-1.4733990666359662
1782952303432836600,4.982836669921875,0.33990473954975603,0.9906905148692429,-1.5062500736191868
1782952303442763500,4.992763427734375,0.060308630490303036,0.9836910113707185,-1.472094121517241
1782952303452690700,5.002690673828125,-0.0980640683889389,1.077177104319632,-1.3638386217206715
1782952303462617600,5.01261767578125,-0.22549977721273898,1.1894732578091323,-1.2670083329103887
1782952303472545500,5.022545654296875,-0.31791268797218797,1.2696361971959471,-1.1152515450395644
1782952303482472700,5.03247265625,-0.3526303656101227,1.3289232295535505,-0.8946669393319636
1782952303492399400,5.0423994140625,-0.41819852406382557,1.3878396750330924,-0.722571493113786
1782952303502326500,5.052326416015625,-0.4792401450037956,1.4413191901557147,-0.6686138390854001
1782952303512253400,5.06225341796875,-0.4821458033174276,1.4996956835396587,-0.6922276466459035
1782952303522181600,5.072181640625,-0.3073755118668079,1.5417141857102512,-0.7378038412980735
1782952303532108500,5.082108642578125,-0.042027123868465424,1.518422011319548,-0.6813769476119429
1782952303542035500,5.092035400390625,0.2458247723609209,1.451324159080535,-0.5890061589611694
1782952303551962600,5.101962646484375,0.41051790643334385,1.3735405160456895,-0.5003682732284068
1782952303561890600,5.111890625,0.5256237105160951,1.3229337798804044,-0.41687713926695286
1782952303571817700,5.121817626953125,0.6070470252275466,1.2407194609217345,-0.4241260144166648
1782952303581744400,5.131744384765625,0.5791735143959522,1.0732586157016455,-0.46155978261288255
1782952303591671600,5.141671630859375,0.4168845188558101,0.8814379668593406,-0.45195349414944647
1782952303601599500,5.151599609375,0.24369009841978548,0.7169245732679963,-0.38191827328428624
1782952303611526400,5.1615263671875,0.10799334172904491,0.5655879105053842,-0.24593069868711753
1782952303621453600,5.17145361328125,-0.02331248652637005,0.41034254986643787,-0.10146903626052663
1782952303631380500,5.18138037109375,-0.14563947403430938,0.30815000337064263,-0.005502542939037084
1782952303641308700,5.19130859375,-0.2003805335253477,0.16285349755510686,0.04934400448678061
1782952303651235600,5.201235595703125,-0.2239297514170408,-0.0006511573851108551,0.053125203525926916
1782952303661162500,5.21116259765625,-0.15424188268482683,-0.18370090914219617,0.11380047537153586
1782952303671089700,5.221089599609375,-0.16372750391066074,-0.38902518268004055,0.2656292142337188
1782952303681017600,5.231017578125,-0.31422493937015533,-0.583039103782922,0.5192889910692349
1782952303690944500,5.240944580078125,-0.6218529646933079,-0.6818013835690915,0.680828008492291
1782952303700871400,5.250871337890625,-0.9581623100996017,-0.7551222019761801,0.6897077727794647
1782952303710798600,5.260798583984375,-1.224540625667572,-0.8468468382105231,0.5933361144568771
1782952303720725500,5.2707255859375,-1.3049562246412039,-1.0062783984929322,0.47773953118249773
1782952303730653400,5.2806533203125,-1.2187509363502262,-1.197514963836968,0.392824794158712
1782952303740581600,5.29058154296875,-1.0323042356312275,-1.3952647104673086,0.33679785957559943
1782952303750508800,5.3005087890625,-0.7466916427612305,-1.5786448632225394,0.33739286632668225
1782952303760435700,5.310435791015625,-0.39594109954833984,-1.6884125211477279,0.4071992103394121
1782952303770364000,5.320364013671875,-0.023164017966389654,-1.7454428606197236,0.5241422397866845
1782952303780288800,5.330288818359375,0.2878840449333191,-1.8167206288918851,0.6287919701762497
1782952303790215700,5.340215576171875,0.4362269327074289,-1.8088379128180443,0.6917690892234444
1782952303800143600,5.3501435546875,0.4684907874524593,-1.777978371912986,0.7831579906973988
1782952303810070800,5.36007080078125,0.5618079535752535,-1.7418116645105182,0.931589068211615
1782952303819997700,5.369997802734375,0.6989350353300571,-1.7603468536324798,1.0814040743649005
1782952303829924900,5.3799248046875,0.8073410495132207,-1.7306233310200272,1.1918730124272405
1782952303839852800,5.389852783203125,0.8899170413911343,-1.7179083724841475,1.2216318255487828
1782952303849780000,5.399780029296875,0.990189433479309,-1.6930227914221583,1.148754805386439
1782952303859707000,5.409706787109375,1.1950164250195026,-1.7239520365625618,1.064008410666883
1782952303869633800,5.4196337890625,1.4733295085310936,-1.7931510988645254,1.0025503909457474
1782952303879560700,5.429560791015625,1.5189695621997117,-1.8231470086775718,0.9098169429950416
1782952303889488600,5.439488525390625,1.2471674680173397,-1.7721395827569066,0.8479908936791122
1782952303899415800,5.449415771484375,0.7813140433311462,-1.696618331696093,0.7436788708113133
1782952303909342700,5.4593427734375,0.11214520071148872,-1.6147719692669809,0.6786690768927335
1782952303919270000,5.469269775390625,-0.6227735866695642,-1.4886092029884457,0.6444700893666595
1782952303929197800,5.47919775390625,-1.1880816573202608,-1.2410567300520836,0.6013556817181408
1782952303939124700,5.489124755859375,-1.420772807341814,-0.9546791441589594,0.6133462715022265
1782952303949052000,5.499052001953125,-1.2725088300228118,-0.696559976761788,0.663053063153103
1782952303958978800,5.508978759765625,-0.7493664149284363,-0.6284513400450349,0.7054124877158552
1782952303968906800,5.51890673828125,-0.09013912060856819,-0.7334367321297526,0.7123260664965957
1782952303978833700,5.528833740234375,0.4045511069834232,-0.9666305709764361,0.7194968349087983
1782952303988760800,5.5387607421875,0.6780629276931286,-1.149695812563598,0.7814541824541985
1782952303998687700,5.548687744140625,0.7221113282561302,-1.1932397707358002,0.9059981153592467
1782952304008615700,5.55861572265625,0.5334072039991616,-1.0267566845066844,1.0212472003702073
1782952304018542800,5.56854296875,0.19981471633613107,-0.7490459508024155,1.047454458490014
1782952304028469800,5.5784697265625,-0.08699556188583374,-0.5597226717337965,1.028651558342576
1782952304038397000,5.58839697265625,-0.2634925309985876,-0.429840008149296,1.0264703418459742
1782952304048324900,5.598324951171875,-0.2941407672405243,-0.314314955741167,1.0696573032740504
1782952304058251800,5.608251708984375,-0.25882746179699895,-0.19764672464728356,1.1027612621050327
1782952304068179000,5.618178955078125,-0.1194049625813961,-0.0672759852848947,1.0805175738539545
1782952304078105600,5.628105712890625,0.14168810606002807,0.09674012630879879,1.0950387780942021
1782952304088033800,5.63803369140625,0.4139923045456409,0.177844145938009,1.158940610770881
1782952304097960700,5.647960693359375,0.6112152508229017,0.24258812852725387,1.160418282108009
1782952304107887900,5.657887939453125,0.67289400062263,0.28165026511028407,1.0102570198003202
1782952304117814800,5.667814697265625,0.6261001007437705,0.2245703874081373,0.8203470999501645
1782952304127741700,5.67774169921875,0.4889730189889669,0.1326388304248452,0.6347409417085349
1782952304137670000,5.687669921875,0.3583540039539337,0.026081220587342975,0.4449032103117555
1782952304147596800,5.6975966796875,0.15533610766232012,-0.07162278231754898,0.23500487032402306
1782952304157524000,5.70752392578125,-0.0853846195578575,-0.10664002742394804,0.009941858827043324
1782952304167451000,5.717450927734375,-0.2886106056421995,-0.05402765052467584,-0.2414359993500635
1782952304177378800,5.72737890625,-0.48319794271886346,0.041000411169230935,-0.4455377088230103
1782952304187305700,5.7373056640625,-0.6143102942287921,0.14180954048261046,-0.5962950373277068
1782952304197235000,5.74723486328125,-0.8087082462131977,0.24568624067306516,-0.5418730537232012
1782952304207161900,5.757161865234375,-1.0078700515985488,0.29768282376155253,-0.3225242734208703
1782952304217088800,5.7670888671875,-0.8421113341212272,0.2721647900149226,0.04327712392956018
1782952304227016700,5.7770166015625,-0.9062515055984258,0.40658085924535986,0.5834818425817415
1782952304236943600,5.786943603515625,-0.907137056261301,0.6958190952666103,0.7502509426780044
1782952304246870800,5.796870849609375,-0.9369716380327939,0.9508072711616754,0.6890040814895182
1782952304256797700,5.806797607421875,-0.92537881539464,1.0117971619144082,0.5639313389373943
1782952304266726000,5.816725830078125,-0.7359393626004457,1.020508876158297,0.47595852951724077
1782952304276652800,5.82665283203125,-0.467474888408184,0.9473447096176445,0.40396139746196563
1782952304286580000,5.836580078125,-0.20918869388103484,0.818776635763049,0.31053185700587926
1782952304296507000,5.8465068359375,-0.062763037905097,0.7368887722797691,0.17377527079759164
1782952304306434800,5.856434814453125,0.07229132922887802,0.7094321716859936,0.05594475445868447
1782952304316362000,5.866362060546875,0.1710965713739395,0.7273312548615039,0.030689445035159586
1782952304326288600,5.87628857421875,0.2545335639953613,0.8082225085228681,0.005688457432575523
1782952304336215800,5.8862158203125,0.2765899129807949,0.865215438593924,-0.0433075921330601
1782952304346143700,5.896143798828125,0.2701917363762855,0.9615892158083618,-0.14524996326006948
1782952304356070700,5.906070556640625,0.20857494589686393,1.0260133187934755,-0.29701858769915995
1782952304365997800,5.915997802734375,0.13856851273477078,1.07296138632074,-0.48306295469496396
1782952304375924700,5.9259248046875,0.15805413444936275,1.1145049644559621,-0.6314597280807793
1782952304385853000,5.93585302734375,0.3424070777595043,1.1363866875268518,-0.7546417980480938
1782952304395779800,5.94577978515625,0.4947025025516748,1.1397910891428589,-0.8276055466458201
1782952304405707000,5.95570703125,0.5449065031349659,1.1191789476163685,-0.8504344874389469
1782952304415633700,5.965633544921875,0.3928676834523678,1.1499357587993144,-0.9119615538083017
1782952304425561900,5.975561767578125,0.10700608425736427,1.1927411735638975,-0.9502319554917513
1782952304435488800,5.98548876953125,-0.2802671401888132,1.2421879260390996,-0.9055953797772526
1782952304445415700,5.995415771484375,-0.6740992847591638,1.3219945993341504,-0.8694070450648665
1782952304455342800,6.0053427734375,-1.0127549010306596,1.3920270437203346,-0.8245512736417353
1782952304465269800,6.015269775390625,-1.2416723777323961,1.4685966347903012,-0.7645216792885213
1782952304475197700,6.02519775390625,-1.1672948898792266,1.5402198554992674,-0.6974325948778539
1782952304485124900,6.035124755859375,-0.7841647565871477,1.6026355412714182,-0.6363220734201371
1782952304495051800,6.0450517578125,-0.23618016118109225,1.6224866352975367,-0.6060627999631688
1782952304504979000,6.05497900390625,0.3057388505756855,1.5855334536924957,-0.5556445721073076
1782952304514907000,6.064906982421875,0.8040811709344386,1.505639832766354,-0.525259078454785
1782952304524833800,6.074833740234375,1.2005682139277458,1.4111489466890692,-0.5028932981939986
1782952304534760700,6.0847607421875,1.3349556415855883,1.3058823995754123,-0.4863379943102598
1782952304544687900,6.09468798828125,1.2011837154775857,1.2305512642592191,-0.5587920032875612
1782952304554615800,6.10461572265625,0.9679822778463363,1.19812637373358,-0.6700361269734799
1782952304564542700,6.114542724609375,0.6738257285147905,1.1543480222836136,-0.7574921459779143
1782952304574470000,6.124469970703125,0.3232271609932184,1.0866592184141277,-0.7674988684684038
1782952304584396800,6.134396728515625,0.008005027279257775,1.0784592530846595,-0.739192373047024
1782952304594324700,6.14432470703125,-0.13920447255074977,1.1516145056664944,-0.6155541568100452
1782952304604252000,6.154251953125,-0.11144202087819575,1.242597383622825,-0.5481294837694615
1782952304614178800,6.1641787109375,0.04351999277472496,1.2867507058650254,-0.5698113734193145
1782952304624105700,6.174105712890625,0.1997322987496853,1.2664344785451889,-0.63774333839491
1782952304634033700,6.18403369140625,0.3923649946272373,1.2017170917019246,-0.735882956238091
1782952304643960800,6.1939609375,0.5535018975228071,1.1155603187277912,-0.7593820513777434
1782952304653887700,6.2038876953125,0.6404425143510103,1.013185109141469,-0.7720996402621269
1782952304663814700,6.213814697265625,0.6078735391795634,0.9245429490923881,-0.7715859916515648
1782952304673742800,6.223742919921875,0.40493163073360916,0.8824034508906304,-0.726034785310179
1782952304683669800,6.233669677734375,0.07832768678367137,0.8972031067460775,-0.6126199665216728
1782952304693597000,6.243596923828125,-0.31966216198801994,0.8776534798845649,-0.44411622465252876
1782952304703523800,6.25352392578125,-0.7043950543016195,0.8589487794145941,-0.29469967976491895
1782952304713451800,6.26345166015625,-0.9574953706234693,0.8230189495079219,-0.19138543576281516
1782952304723379000,6.27337890625,-0.9426227956622838,0.7601673565365373,-0.15370401294846087
1782952304733305600,6.2833056640625,-0.7562105817347764,0.6094643155023455,-0.15214735809098928
1782952304743232300,6.293232177734375,-0.5097767375648021,0.40342663299813863,-0.16163202946875244
1782952304753159200,6.3031591796875,-0.22221476419270036,0.16786518823727964,-0.1424647164557129
1782952304763087400,6.31308740234375,0.05086977101564407,-0.03210340348631143,-0.15316380512453615
1782952304773014000,6.323013916015625,0.2453495560646057,-0.26600743642896413,-0.17224928507301956
1782952304782941200,6.332941162109375,0.3045896805405617,-0.589727933897078,-0.16591960712745785
1782952304792868000,6.3428681640625,0.22421090644598005,-0.8613570096001029,-0.11829638028498739
1782952304802796000,6.352796142578125,0.06262099908590317,-1.063635193440318,-0.06914967020228505
1782952304812723200,6.36272314453125,-0.12143851423561572,-1.163461595326662,-0.03656239218916744
1782952304822650000,6.372650146484375,-0.31155659694373605,-1.1989694004289806,-0.01480509921554476
1782952304832577300,6.382577392578125,-0.47044425960779185,-1.223796237041056,0.029403569943085312
1782952304842505200,6.392505126953125,-0.5648386995732784,-1.2906586730889975,0.10657941981051117
1782952304852432100,6.40243212890625,-0.571799770757556,-1.3874560825429856,0.17993797641210257
1782952304862359000,6.412359130859375,-0.4603571653574705,-1.4320210543259977,0.2440958662090823
1782952304872286200,6.4222861328125,-0.23229835131168364,-1.4568715640746057,0.36124636439457536
1782952304882214100,6.432214111328125,0.06937222691178321,-1.5096876468524336,0.5090280380893498
1782952304892141000,6.44214111328125,0.36010873866677284,-1.528666341958195,0.6784368025068194
1782952304902068200,6.452068115234375,0.5173837054371834,-1.531087577755749,0.8575120246097445
1782952304911995100,6.4619951171875,0.5490992786496878,-1.5070922235317528,1.0031021796096116
1782952304921923000,6.471923095703125,0.5065764802187681,-1.4815981551825999,1.0330030315503478
1782952304931850200,6.481850341796875,0.40978199337422844,-1.472437235866487,1.0110602259419859
1782952304941777200,6.491777099609375,0.3764052089512348,-1.5502560963451861,0.9722388393122702
1782952304951704300,6.501704345703125,0.4319125766396522,-1.6385080880329013,0.9206320592589676
1782952304961631000,6.511630859375,0.48912967085540293,-1.674782931984961,0.8442237231653184
1782952304971559200,6.52155908203125,0.445445427429676,-1.6168714257642627,0.7695427953861653
1782952304981486000,6.531486083984375,0.25527707583904263,-1.5523536531463265,0.6969754256948828
1782952304991413000,6.5414130859375,-0.11422785220444202,-1.5245464855492115,0.670105100556463
1782952305001340200,6.551340087890625,-0.7920435271382331,-1.4452204353779554,0.6660210461132228
1782952305011268000,6.56126806640625,-1.3820616761535405,-1.325320821147412,0.6066553590288385
1782952305021195300,6.5711953125,-1.6834686350047587,-1.1712360287204384,0.5437508302938193
1782952305031122200,6.5811220703125,-1.6753806056171654,-1.0324386756658555,0.5400954861240461
1782952305041049300,6.59104931640625,-1.3472007906526327,-0.9035875470861792,0.5730038858503103
1782952305050977300,6.600977294921875,-0.8024404179900884,-0.7967619339622557,0.526801668254286
1782952305060904200,6.610904296875,-0.13176175532937048,-0.7186155950948595,0.47796051698941733
1782952305070831000,6.6208310546875,0.47748950194418427,-0.7526148953303694,0.4750106542078778
1782952305080758000,6.630758056640625,0.8361527179777621,-0.8672815773434936,0.5829985160442069
1782952305090686200,6.640686279296875,0.9338637351453304,-0.9491858074396848,0.7092785885594785
1782952305100613000,6.650613037109375,0.7176046644866466,-0.9300850933894514,0.7901739338740706
1782952305110540000,6.6605400390625,0.35055998907685276,-0.846921657012403,0.7450999896556139
1782952305120467200,6.67046728515625,-0.02165361340343952,-0.7639961210444569,0.6964636767804622
1782952305130395100,6.68039501953125,-0.3982938001543283,-0.6702180594116449,0.6689462128449231
1782952305140322300,6.690322265625,-0.7334989837110042,-0.5467540306977927,0.576861803387478
1782952305150249200,6.700249267578125,-0.8740303209513425,-0.4036119264371693,0.5379214300205931
1782952305160176400,6.71017626953125,-0.7087064877599477,-0.2799045904867351,0.6093013800255954
1782952305170104300,6.720104248046875,-0.40346857244372364,-0.18417393348142502,0.692082246825844
1782952305180031000,6.730031005859375,-0.05437690235376358,-0.11421177785247563,0.7269358988683671
1782952305189958100,6.739958251953125,0.2479033322006464,-0.06542655802592635,0.7371329562991857
1782952305199885000,6.749885009765625,0.43616380434334273,-0.04154635461419821,0.7544216524913907
1782952305209813000,6.75981298828125,0.5621043061733245,0.007831424278020858,0.743074329046905
1782952305219740200,6.769740234375,0.6402075365513563,0.09626710196956992,0.6553517680607736
1782952305229667000,6.7796669921875,0.6782435449570418,0.12287190803959964,0.5257435009708628
1782952305239594200,6.78959423828125,0.6694651952177286,0.08369652034044266,0.3947711789861321
1782952305249521200,6.799521240234375,0.6583207008689641,0.049482700571417806,0.3286496244333684
1782952305259449300,6.809449462890625,0.49217210729122157,0.07859276746064424,0.26873236788082866
1782952305269376300,6.819376220703125,0.20204758995473385,0.15429638935104012,0.25599654922001064
1782952305279303200,6.82930322265625,-0.018363924208283422,0.25020181840136646,0.26682430576980115
1782952305289230000,6.83922998046875,-0.10887480073869228,0.4269200290493667,0.26395196520388126
1782952305299158000,6.849157958984375,0.01270166066288948,0.6046595455691218,0.26617157748211173
1782952305309085200,6.859085205078125,-0.09291735315024852,0.7541627092942595,0.40303913151789456
1782952305319012000,6.86901220703125,0.06416355235278606,0.7955547501295804,0.34607436809539793
1782952305328939300,6.878939208984375,0.06434183152914047,0.7060252858519553,0.31755850423965604
1782952305338867200,6.8888671875,-0.12448796493411063,0.5355629207283258,0.2561073526507243
1782952305348794000,6.898794189453125,-0.4698053771823644,0.34840894852280613,0.008485650403052568
1782952305358721300,6.90872119140625,-0.7967056737303734,0.1578828695356846,-0.2912934880506247
1782952305368648000,6.91864794921875,-0.9918336935549974,0.08327537231892347,-0.6089865419227629
1782952305378576400,6.928576416015625,-1.0630097550183535,0.13729571631997822,-0.8353628827743231
1782952305388503000,6.9385029296875,-1.1154109733849764,0.2815203551203012,-0.9222391291294246
1782952305398430200,6.94843017578125,-1.173301436817646,0.40876200267672536,-0.9105675421666354
1782952305408357000,6.958357177734375,-1.0253671298444271,0.5586813459873199,-0.7795015140164643
1782952305418285000,6.96828515625,-0.6934995662778616,0.6511047781407833,-0.5639283067300915
1782952305428212200,6.978212158203125,-0.2808417252063751,0.7209802783995867,-0.20063925752677023
1782952305438139100,6.98813916015625,0.04257657444477081,0.7962588067457079,0.10760222351960837
1782952305448066300,6.99806640625,0.23175649951994418,0.9890075302183627,0.23502266170904038
1782952305457993200,7.0079931640625,0.3313233736872673,1.1110092312946915,0.17528795864917338
1782952305467921200,7.017921142578125,0.43425124872028825,1.2036389996752141,0.10026683913022279
1782952305477848000,7.02784814453125,0.5457669193565845,1.2187030055552721,0.02308141771685332
1782952305487775000,7.03777490234375,0.5901414831340313,1.1350243131324649,-0.1427456522889435
1782952305497702100,7.0477021484375,0.636893881958723,1.0365227301090956,-0.3448630195442587
1782952305507630000,7.057630126953125,0.6865326498746872,0.9504489592432975,-0.5239045585732907
1782952305517557200,7.06755712890625,0.7682441338777541,0.914880509994924,-0.7489370836004614
1782952305527484200,7.077484130859375,0.8936895456671714,0.8467509766206145,-0.892747077185288
1782952305537411300,7.087411376953125,0.9212579360723495,0.7760477933660149,-1.0266723672240972
1782952305547339300,7.09733935546875,0.9377829544156789,0.7884484252557158,-1.1455158965304493
1782952305557266200,7.10726611328125,0.9328098421782255,0.8452072543099522,-1.2184702197127044
1782952305567193300,7.117193359375,0.7861492084026336,0.8653490018457174,-1.2513796788848937
1782952305577120000,7.1271201171875,0.5349181930840015,0.8572551272392273,-1.1880167753905058
1782952305587048000,7.1370478515625,0.052718613752722736,0.7620677833303808,-1.0692765603281558
1782952305596975000,7.14697509765625,-0.48694005185663697,0.7660510077476501,-0.8392029723938554
1782952305606902000,7.156902099609375,-0.9014175095707178,0.9491603807374834,-0.49681598757430906
1782952305616829200,7.1668291015625,-1.1438672525405884,1.224810967041552,-0.2802321784732863
1782952305626757000,7.176757080078125,-1.1128981137812137,1.540690980142355,-0.20139566538464276
1782952305636684300,7.186684326171875,-0.8472375910937786,1.8192808347687124,-0.22360789905153214
1782952305646611200,7.196611083984375,-0.3888970262557268,1.93713506077677,-0.21834482742417602
1782952305656538400,7.206538330078125,0.22195406742990015,1.9200243514999746,-0.24909383889315648
1782952305666466300,7.21646630859375,0.820145586028695,1.7646639861792326,-0.31129538872428236
1782952305676393200,7.226393310546875,1.2177379599153995,1.5298653424844144,-0.3627027006827295
1782952305686320000,7.236320068359375,1.36863462382555,1.2974240755707025,-0.41279648235719646
1782952305696247000,7.2462470703125,1.263487319177389,1.1275152526766061,-0.5124734293028712
1782952305706175000,7.256175048828125,0.9226999515742063,1.0296896692186592,-0.7113607285957783
1782952305716102100,7.26610205078125,0.444222023114562,0.9953965006031096,-0.9487144636008888
1782952305726029000,7.276029052734375,-0.04192132540643215,1.0978482825569809,-1.1128085358016193
1782952305735955500,7.28595556640625,-0.4294663525313139,1.2754625652618705,-1.2218646844565868
1782952305745882600,7.295882568359375,-0.558664394852519,1.424627729204297,-1.2333268664523958
1782952305755810600,7.305810546875,-0.4569932418823242,1.5268534473173319,-1.1977996259972452
1782952305765737500,7.315737548828125,-0.20577625508904457,1.5943571038782596,-1.197697626927495
1782952305775664600,7.32566455078125,0.0421153866738081,1.5878656960323452,-1.1986058278135954
1782952305785591600,7.335591552734375,0.19812895520627496,1.4856111902162432,-1.1506570588111877
1782952305795519500,7.34551953125,0.22375322580635545,1.3684342789478599,-1.0429076088406144
1782952305805446700,7.35544677734375,0.06601239508986473,1.2872941650919616,-0.9250820974703877
1782952305815373600,7.36537353515625,-0.21667934189736843,1.2262768018104135,-0.815780157360807
1782952305825300500,7.375300537109375,-0.5223568176746368,1.1648792070396243,-0.6491511598549783
1782952305835228400,7.385228515625,-0.7300099725514649,1.116647383312136,-0.4897963911358267
1782952305845155600,7.395155517578125,-0.7356511933088302,1.103701246368885,-0.4416577986497432
1782952305855082500,7.40508251953125,-0.6178033970415592,1.0677158868826926,-0.4027434730395674
1782952305865009700,7.415009765625,-0.44726153694093224,0.971654098226875,-0.30805216901935634
1782952305874937600,7.4249375,-0.23927929624021052,0.8690354352734982,-0.239140837617591
1782952305884864500,7.434864501953125,-0.013265139764547348,0.6680024291887879,-0.17277540957266463
1782952305894791700,7.444791748046875,0.2019879687219858,0.445479037438333,-0.1209918116477318
1782952305904718600,7.454718505859375,0.3482575573533773,0.27195991509258743,-0.00037856697182869536
1782952305914646500,7.464646484375,0.4029962787568569,-0.051575727327913046,0.019954116009175776
1782952305924573400,7.474573486328125,0.4519464798867702,-0.37354178234413266,0.04476009249631315
1782952305934500400,7.484500244140625,0.46970776202678677,-0.6992309495367109,0.13450822275960816
1782952305944427500,7.494427490234375,0.3763800745099783,-0.93225133151263,0.3083063264435157
1782952305954354400,7.5043544921875,0.289310862866044,-0.9979343485176563,0.41575182503145186
1782952305964282600,7.51428271484375,0.16162264058589934,-1.0327217303909362,0.5204582905769348
1782952305974209500,7.52420947265625,0.010441899037361145,-1.054431311765313,0.6733915748812258
1782952305984136700,7.53413671875,-0.13957389038503168,-1.1363977934427558,0.8872461416814476
1782952305994063600,7.544063720703125,-0.2669125685751438,-1.225836802957952,1.0407089297525585
1782952306003991600,7.553991455078125,-0.3289350172460079,-1.3367210438229142,1.1494144383389502
1782952306013918700,7.563918701171875,-0.3463537695586681,-1.4116167103312909,1.280544836962223
1782952306023845400,7.573845458984375,-0.3744844700217247,-1.4561905960731207,1.3495456002131103
1782952306033772500,7.5837724609375,-0.3138508453607559,-1.5125357297599316,1.3308037826031445
1782952306043700500,7.593700439453125,-0.2024246065735817,-1.5531176232561468,1.2962708138823509
1782952306053627400,7.60362744140625,-0.11403379093706607,-1.5499050909504293,1.2289563962832093
1782952306063554600,7.613554443359375,-0.0176198278427124,-1.5851355404160916,1.1927055177286268
1782952306073481500,7.6234814453125,0.09326514367461204,-1.6307183109395205,1.203187018124014
1782952306083409700,7.63340966796875,0.1962982326477766,-1.6508457376889885,1.2316383288435637
1782952306093336600,7.643336669921875,0.207217101547122,-1.6572361693784594,1.2129603702500462
1782952306103263700,7.653263671875,0.08559738552570342,-1.6757427169278263,1.0921859459463505
1782952306113190700,7.663190673828125,-0.1542214244186878,-1.7220052864089608,0.9584479221079498
1782952306123118600,7.67311865234375,-0.4659375958383083,-1.6915604637846349,0.8648940976850688
1782952306133045500,7.68304541015625,-0.7830436436027288,-1.576459628137946,0.8183413861509412
1782952306142972400,7.692972412109375,-0.9617565351992845,-1.3952761086441576,0.8290463931038975
1782952306152899600,7.702899658203125,-0.9279659092783927,-1.210237667287886,0.9130275756046176
1782952306162827500,7.71282763671875,-0.6771171712756157,-1.0709598372399807,0.9244911458399147
1782952306172754400,7.72275439453125,-0.34471944635510443,-1.014396384627372,0.866032307934761
1782952306182681600,7.732681640625,-0.0008370353460311889,-1.0951961606130003,0.6849794290833174
1782952306192608500,7.7426083984375,0.3555921380251646,-1.2291796836450695,0.5521090183923021
1782952306202536700,7.75253662109375,0.6882008753478527,-1.3568931864969431,0.5216051225244999
1782952306212463600,7.762463623046875,0.8229331709206104,-1.4763165615178644,0.5032686708450317
1782952306222390500,7.772390625,0.7122463523238897,-1.5127560945123433,0.5851811573129146
1782952306232317400,7.7823173828125,0.4400689950883388,-1.3752771305799483,0.6594578151401131
1782952306242245400,7.792245361328125,0.16652502567470073,-1.22046913844496,0.6849860049545764
1782952306252172500,7.802172607421875,-0.06780278563797473,-1.1282396214284003,0.739049603575468
1782952306262099500,7.812099365234375,-0.27124621386528014,-1.0393176215246318,0.8078891849152743
1782952306272026600,7.822026611328125,-0.3450567154854536,-0.8932700050808489,0.7994486888282001
1782952306281953500,7.83195361328125,-0.29870296058952805,-0.7762456540256738,0.7593485874995589
1782952306291881500,7.841881591796875,-0.2627881821215153,-0.6620370910435914,0.6898236542440951
1782952306301808600,7.85180859375,-0.08922726646065711,-0.5780322354063392,0.6942701122589409
1782952306311735600,7.861735595703125,0.23837036470174788,-0.48599604900479315,0.7856425740547478
1782952306321662500,7.871662353515625,0.5709750103712081,-0.42807270621582866,0.8940686081126332
1782952306331590700,7.881590576171875,0.8445540510982275,-0.3800926652923226,1.0481871566787362
1782952306341517600,7.891517578125,1.0573708723485469,-0.30810353388041256,1.0950350517671554
1782952306351444500,7.901444580078125,1.2763865482389927,-0.25692177430614827,1.0252664459489285
1782952306361371400,7.911371337890625,1.4230793307185172,-0.22358356832787393,0.874433202663809
1782952306371299600,7.921299560546875,1.3135147941499947,-0.19848171416670082,0.5945848724089563
1782952306381226500,7.9312265625,0.9202771083414554,-0.14617270412817596,0.30239154944177715
1782952306391153700,7.941153564453125,0.377447411480546,-0.11130129723325372,0.06823507610801607
1782952306401080600,7.95108056640625,-0.23519056562185287,-0.17254136335477233,-0.06475931258911732
1782952306411008500,7.961008544921875,-0.8634931448459625,-0.24407062216997144,-0.2049275841041468
1782952306420935700,7.970935791015625,-1.368598967990279,-0.19318039288818836,-0.3263345158914104
1782952306430862300,7.9808623046875,-1.6595435695379972,-0.057374768995493645,-0.488745347712934
1782952306440789500,7.99078955078125,-1.6051187363892794,0.0963303764641285,-0.5736718117071316
1782952306450717400,8.000717529296875,-1.26633920147717,0.18266776670217513,-0.456428264943324
1782952306460644600,8.01064453125,-0.9702098907679318,0.11226210508942604,-0.005926663802354596
1782952306470571500,8.020571533203125,-0.7655898199766874,0.11808715798109769,0.42871575335972006
1782952306480498400,8.03049853515625,-0.79842767521739,0.3788882579386234,0.8219467902317643
1782952306490426600,8.040426513671875,-0.6932265945553779,0.7199076807320117,0.9889197788696735
1782952306500353500,8.050353515625,-0.5499889209657907,0.9427553360007703,1.0933191146947443
1782952306510280700,8.06028076171875,-0.5029191267549992,1.0820805123217403,1.1452704704020171
1782952306520207600,8.07020751953125,-0.352424613904953,1.1497105717413127,1.0314344670593738
1782952306530135600,8.080135498046875,-0.24348259314894674,1.1507784932337701,0.8179354356985539
1782952306540062500,8.0900625,0.0010299275696277618,1.0596509461097419,0.5088073445433751
1782952306549989400,8.0999892578125,0.18957681543827057,0.9349130980677902,0.23594383167456834
1782952306559916500,8.10991650390625,0.2731915027141571,0.8592248198769986,-0.06412997887674719
1782952306569843500,8.119843505859375,0.23861820198297498,0.7501641411773861,-0.2870426804720424
1782952306579771400,8.129771484375,0.09324585445225238,0.6900792364403605,-0.35683541608452796
1782952306589698600,8.139698486328125,-0.18993512735664844,0.7108810553200543,-0.2851172288347967
1782952306599625500,8.14962548828125,-0.5535714556276798,0.9477800322949885,-0.252389208910428
1782952306609552600,8.159552734375,-0.7075304297178984,1.3293863170206546,-0.27533772096261383
1782952306619480600,8.16948046875,-0.5672457607150078,1.6121403055891395,-0.3730444638138637
1782952306629407700,8.17940771484375,-0.26850597524642944,1.7176510367222129,-0.4955106405967846
1782952306639334400,8.18933447265625,0.012495324435830115,1.6650766537457704,-0.5850333463400602
1782952306649261600,8.199261474609376,0.26565526199042794,1.528326004087925,-0.7244843409977852
1782952306659189500,8.209189453125,0.4616495432555675,1.3780468875542282,-0.8803326359659432
1782952306669116400,8.219116455078124,0.44656946302354333,1.2547253360509871,-0.9901423794671893
1782952306679043600,8.229043701171875,0.21507541383206843,1.215516630604118,-1.0262003657981753
1782952306688970500,8.238970458984374,-0.19287994863688945,1.2735820122122763,-0.8960205458980053
1782952306698898400,8.2488984375,-0.7316822896778583,1.390033677946031,-0.6173425015315414
1782952306708825600,8.25882568359375,-1.1256149720132351,1.5743910051703451,-0.30793475318476554
1782952306718752500,8.26875244140625,-1.1804904715389013,1.772896976995468,-0.06116941203810274
1782952306728679700,8.2786796875,-0.8349772444576025,1.926979431334883,0.055925465236324814
1782952306738607000,8.288607177734375,-0.2475637249827385,1.954288586281985,-0.006730258103087544
1782952306748534000,8.298533935546875,0.3174883250802755,1.9130325929164886,-0.10372841429356484
1782952306758461000,8.3084609375,0.8608154500693083,1.8517283755175769,-0.22544282286111264
1782952306768388000,8.31838818359375,1.2332587696522475,1.7630147576674817,-0.4439202271563932
1782952306778316000,8.32831591796875,1.324989543366432,1.6653990175679325,-0.7318937404714524
1782952306788243000,8.338242919921875,1.2502175032377243,1.530129546378553,-0.9880243643999099
1782952306798170000,8.348170166015626,0.9945137264192104,1.3954489809930324,-1.1861541233237831
1782952306808097000,8.358096923828125,0.6512240206062794,1.2346107687830925,-1.3197174481824039
1782952306818025200,8.368025146484374,0.38090310489237306,1.052249291551113,-1.3643341501526534
1782952306827952000,8.3779521484375,0.19020868360102175,0.9804363934889435,-1.3797532530806957
1782952306837879300,8.38787939453125,0.0511953497081995,0.9759105866275727,-1.312558370207995
1782952306847806000,8.397805908203125,-0.03932312560677528,1.0350658092990517,-1.1676383695546537
1782952306857734000,8.40773388671875,-0.13423662101030348,1.1262369033038615,-1.0322650726646185
1782952306867661000,8.4176611328125,-0.2223755077123642,1.203055646829307,-0.9092214613199233
1782952306877588000,8.427587890625,-0.28834757079184054,1.2323657663352787,-0.7999575151331723
1782952306887515100,8.43751513671875,-0.3311515242516994,1.205977233364433,-0.7140984099313616
1782952306897442000,8.447442138671875,-0.3177420075803995,1.126672372111678,-0.6458242073893546
1782952306907370000,8.457369873046876,-0.15901625747978687,1.082123766941577,-0.6477535680167377
1782952306917297200,8.467297119140625,0.042971711242198944,1.058015892253816,-0.7098149604585021
1782952306927224000,8.47722412109375,0.24723113202750682,0.9889926249101757,-0.7181944470733403
1782952306937151200,8.487151123046875,0.3792535841196775,0.8756313264071941,-0.6854653859693557
1782952306947079200,8.4970791015625,0.48037119486033913,0.7623962846323847,-0.5968450358932837
1782952306957006000,8.507006103515625,0.5020435129642487,0.6451794797450303,-0.49992155237421393
1782952306966933000,8.51693310546875,0.43668227525949477,0.5674865837335586,-0.4293098467953503
1782952306976860200,8.526860107421875,0.35702713926434515,0.45458954174146055,-0.42198936771415174
1782952306986788000,8.5367880859375,0.31421850962936876,0.3082460110910237,-0.42915538688600063
1782952306996715000,8.546715087890625,0.2576005503505468,0.1353640176050365,-0.4529954044178128
1782952307006642200,8.55664208984375,0.1718418367832899,-0.041652737598121166,-0.4126736596951261
1782952307016569000,8.566569091796875,0.08528641988039017,-0.15624489307031034,-0.3569686505427584
1782952307026497000,8.5764970703125,0.0609463438719511,-0.21302608008682727,-0.32734135484639554
1782952307036424200,8.586424072265626,-0.01892740330994129,-0.2756874111831188,-0.2823412613154389
1782952307046351000,8.59635107421875,-0.09464344629049301,-0.40701968905404207,-0.2991279810685664
1782952307056278000,8.606278076171876,-0.20105799439549446,-0.6187367323689162,-0.35962278178073465
1782952307066206000,8.6162060546875,-0.3418886068433523,-0.8033619167491793,-0.36475908522326494
1782952307076133000,8.626133056640626,-0.4987801272541284,-0.9862284208938479,-0.2749903870959766
1782952307086060000,8.63606005859375,-0.676844199553132,-1.141344456064701,-0.15097029540194198
1782952307095987200,8.6459873046875,-0.8317734799802303,-1.1819867014460266,0.013439875276945531
1782952307105915100,8.6559150390625,-1.0030044913887977,-1.144135109696537,0.2021452416429296
1782952307115842000,8.665842041015624,-1.1493494833439588,-1.1112596989244221,0.4179236891778186
1782952307125769200,8.675769287109375,-1.1821207030892371,-1.0580331356495618,0.618367899056524
1782952307135696100,8.685696044921874,-1.1153045904010535,-1.0320648739174008,0.7617708462104201
1782952307145624000,8.6956240234375,-0.8671750482290983,-1.0598068673238157,0.8639928379964082
1782952307155551200,8.70555126953125,-0.4618289914757013,-1.1156143870025872,0.9012933717343956
1782952307165478000,8.715477783203125,-0.04652735789716243,-1.196101005385816,0.9082602150723338
1782952307175405000,8.725405029296875,0.272298353266716,-1.2914914706513285,0.8837915442481636
1782952307185332000,8.73533203125,0.5219739558368921,-1.4006173235416413,0.8420374651674181
1782952307195260200,8.74526025390625,0.6377770945340394,-1.505366714913398,0.8002951495897025
1782952307205187000,8.75518701171875,0.6743728410035371,-1.5992304090030491,0.7445040695890783
1782952307215114200,8.7651142578125,0.6634785220235586,-1.657265541603416,0.67237414146699
1782952307225041200,8.775041259765626,0.6695692401140928,-1.6793161915004253,0.6496340480010956
1782952307234969000,8.784968994140625,0.726615653938055,-1.6746807867847382,0.7006049413036555
1782952307244896300,8.794896240234374,0.7945581403076648,-1.6416497470594942,0.7508092341478914
1782952307254823000,8.804822998046875,0.7587304556012153,-1.5375376306779682,0.7737940961550921
1782952307264750000,8.81475,0.5391179828613997,-1.4285257595561445,0.7264632398553192
1782952307274678000,8.824677978515625,0.12495792053341864,-1.3679239913381636,0.6535758444294333
1782952307284605000,8.83460498046875,-0.31786475717723367,-1.3185608254931867,0.6453316746320575
1782952307294532000,8.844531982421875,-0.7026192768007516,-1.2470280595466494,0.729059686089307
1782952307304459000,8.854458984375,-0.9700853876054286,-1.1085285203948616,0.7778207943879067
1782952307314387200,8.86438720703125,-1.0131389319121837,-0.9407010338194668,0.8446317194443196
1782952307324314000,8.874314208984375,-0.8028671189695596,-0.8070242386490106,0.8907103106606751
1782952307334241000,8.884240966796876,-0.38472938518226146,-0.6655671648658812,0.8975001899965107
1782952307344168200,8.894168212890625,0.213311911290884,-0.5307863539762795,0.8376183335509151
1782952307354096000,8.90409619140625,0.7696715363323688,-0.4845936348609626,0.7812569793816655
1782952307364023000,8.91402294921875,1.1596890910506248,-0.516092934974283,0.7134887536004185
1782952307373950000,8.923949951171876,1.2410446012228726,-0.5896436166144907,0.6584402355954051
1782952307383877000,8.933877197265625,1.091328671529889,-0.6312589448116719,0.5759977339040487
1782952307393805000,8.94380517578125,0.7660182745218277,-0.5867772673979401,0.4546663333047181
1782952307403732000,8.95373193359375,0.4090180232644081,-0.4670473106458783,0.39177846344355494
1782952307413659100,8.9636591796875,0.17172668597102164,-0.39522579088583587,0.35500776226595043
1782952307423586000,8.9735859375,0.04938333185017109,-0.3058477177776396,0.4830443961249664
1782952307433514200,8.98351416015625,0.044003392377495766,-0.1717709635041654,0.6742277334444224
1782952307443441200,8.993441162109375,0.17419804452061652,0.0007867664635181426,0.8504868021480738
1782952307453368000,9.0033681640625,0.2888888380616903,0.11476605073437093,0.9092104284692555
1782952307463295000,9.013294921875,0.43297348386943335,0.17107596697732805,0.9713981507044285
1782952307473222100,9.02322216796875,0.534531239593029,0.22874314304813742,1.041339921132475
1782952307483150000,9.033150146484376,0.5136825128316879,0.2275846206627786,0.9864227013569324
1782952307493077000,9.043076904296875,0.467611082008481,0.22191505059376357,0.8714752296410501
1782952307503004200,9.053004150390626,0.42110768950879574,0.21993147556111214,0.8175478246204555
1782952307512931000,9.06293115234375,0.2845592844247818,0.2948936314344406,0.7066834574997425
1782952307522859000,9.07285888671875,0.17019114696681498,0.3062419777922332,0.5515494482807815
1782952307532786200,9.0827861328125,0.04338613726198673,0.2999897855296731,0.3874011251421645
1782952307542713000,9.092713134765624,-0.1510761121302843,0.25072628066688774,0.2462649173438549
1782952307552640300,9.10264013671875,-0.3379880922734737,0.23833660856261848,0.1258687974337954
1782952307562568200,9.112568115234374,-0.4191740910977125,0.2373969896249473,0.01640478036398999
1782952307572495000,9.1224951171875,-0.48625616124570364,0.20170140686556695,-0.05693045929409563
1782952307582422000,9.132422119140625,-0.5586906983375549,0.2191445629671216,-0.09987367509417236
1782952307592349000,9.142348876953125,-0.612497691848874,0.23700974387302992,-0.12773902088562025
1782952307602277000,9.152277099609375,-0.713899964749813,0.2911130899824202,-0.06267859275834635
1782952307612204000,9.1622041015625,-0.7232979076921939,0.3026712796986103,-0.04830074251154438
1782952307622131200,9.172131103515625,-0.5052975463241338,0.2672629894480109,-0.03573165871975943
1782952307632058000,9.18205810546875,-0.4875958854168653,0.27180998522788286,0.19768612507591024
1782952307641986000,9.191986083984375,-0.4176648555785417,0.4589999055296182,0.3257569717317819
1782952307651913200,9.201913330078124,-0.45238954747915266,0.6441134579487144,0.37528292692303655
1782952307661840100,9.211840087890625,-0.4910696990072727,0.6934107189506292,0.432980278936401
1782952307671767000,9.22176708984375,-0.4393149618506431,0.6618529666483401,0.4767602012889459
1782952307681695000,9.231695068359375,-0.37789690881371496,0.6337865635931491,0.4149199407845735
1782952307691622100,9.2416220703125,-0.3530471297174692,0.6089898298583925,0.24757486743126064
1782952307701549000,9.251549072265625,-0.30612931119799613,0.5852272614769637,0.0912879070512019
1782952307711476000,9.26147607421875,-0.1785346124202013,0.554053247795254,-0.029358561757579445
1782952307721404200,9.271404052734376,-0.05557224961817264,0.5046268074557185,-0.12884484496936202
1782952307731331000,9.2813310546875,0.13940671712458133,0.49204687347635623,-0.27015553255174307
1782952307741258500,9.291258544921876,0.3058727060884237,0.47452422239780423,-0.3344026350021362
1782952307751185400,9.301185302734375,0.32985271661281584,0.46723552669435736,-0.392375990945287
1782952307761113300,9.31111328125,0.23229016800522803,0.5011648304335773,-0.5207388976166024
1782952307771040500,9.32104052734375,0.08627133926451205,0.5526854665733874,-0.6730972681097686
1782952307780965400,9.33096533203125,0.005527238988876342,0.6240399533435702,-0.8095883900485933
1782952307790892300,9.340892333984375,0.020266542959213256,0.651348669899255,-0.8453416212793439
1782952307800820200,9.3508203125,0.0796428610354662,0.6972095267117023,-0.8472140640877187
1782952307810747400,9.360747314453125,0.21238135244250297,0.7502461203724146,-0.8585054195612668
1782952307820674300,9.37067431640625,0.3629500995725393,0.803133076429367,-0.8893895834509282
1782952307830601500,9.3806015625,0.3539373565554619,0.8467008538685739,-0.880572363005951
1782952307840529400,9.390529296875,0.11541092450916766,0.879946120866388,-0.8636433669716119
1782952307850456600,9.40045654296875,-0.3486071014434099,0.8970381254427134,-0.7698252655893564
1782952307860383500,9.410383544921874,-0.7697387563496828,0.9669628716707229,-0.6282988528970629
1782952307870310400,9.420310302734375,-1.0821376493364572,1.079775011858344,-0.44331773121859874
1782952307880238600,9.430238525390624,-1.2573586071640253,1.2512917083404957,-0.21212591637670994
1782952307890165200,9.440165283203125,-1.07890582780838,1.478397605575621,-0.003397350820712745
1782952307900092400,9.450092529296874,-0.5340069234579802,1.6277655986137687,0.08943225098084658
1782952307910019300,9.460019287109375,0.18812953923940656,1.6500434813953935,0.06264993291944265
1782952307919947300,9.469947265625,0.8183528573930263,1.609637236727029,0.03547883473616093
1782952307929874400,9.47987451171875,1.297063425564766,1.5112715550430118,-0.0916027999529615
1782952307939801300,9.48980126953125,1.4941653758108615,1.3561037896849215,-0.3070467913690954
1782952307949728500,9.499728515625,1.2916069137245416,1.1851659160040318,-0.6488460394285619
1782952307959656400,9.509656494140625,0.8874819231986999,1.0690184939138592,-1.0118754878476262
1782952307969583600,9.51958349609375,0.42646833975911136,0.9673685298621654,-1.2588821634694933
1782952307979510300,9.52951025390625,-0.005811316627264022,0.8744242887049913,-1.3772805793568492
1782952307989437400,9.5394375,-0.2937736874938011,0.7999033007279038,-1.397820094038546
1782952307999365400,9.549365478515625,-0.4745598782330751,0.7867053809806704,-1.2620330287158488
1782952308009292300,9.559292236328124,-0.5871031383514403,0.8636427824497223,-1.0580490638710558
1782952308019219500,9.569219482421875,-0.5268570517033339,0.9900894802361726,-0.7753909368924796
1782952308029146400,9.579146484375,-0.28973113410472867,1.1011147370070218,-0.46626470890082417
1782952308039074300,9.58907421875,0.00455225647687912,1.199556991058588,-0.1985989838708192
1782952308049001500,9.59900146484375,0.31278058578073975,1.2923536404386162,-0.08500340168792754
1782952308058928400,9.608928466796876,0.5620698193818331,1.332871967179328,-0.04076601789146662
1782952308068855600,9.61885546875,0.6622644700586795,1.3245197338975965,-0.08286821629013866
1782952308078782200,9.6287822265625,0.534148962277174,1.222587738034129,-0.24485559853520242
1782952308088710400,9.63871044921875,0.28391163417100906,1.1135257441602646,-0.38104930843003093
1782952308098637300,9.64863720703125,0.02278992395699024,1.0045841617956757,-0.35573370192032305
1782952308108564500,9.658564453125,-0.22589199140071867,0.8627022867292166,-0.30684297589268533
1782952308118491400,9.668491455078126,-0.34081191752254963,0.6869863849915564,-0.2289712161829695
1782952308128419300,9.67841943359375,-0.36514322570264335,0.5228643288053572,-0.25109880377370863
1782952308138346500,9.688346435546874,-0.28378479292094705,0.36439796029329297,-0.21497356089279054
1782952308148273400,9.6982734375,-0.12980711413025856,0.10529781903475523,-0.16092004527449608
1782952308158200600,9.70820068359375,0.07104688212573528,-0.1200767243631184,-0.07942180216331035
1782952308168128500,9.71812841796875,0.21301438964903355,-0.25255992583483455,-0.01774984743054956
1782952308178055400,9.728055419921875,0.24000936408042906,-0.379110960778594,0.005414462796784937
1782952308187985400,9.7379853515625,0.06780921537876129,-0.5001435245618224,0.04806896131597459
1782952308197912600,9.74791259765625,-0.18763737180829046,-0.644069618806988,0.10158234217558056
1782952308207839500,9.757839599609374,-0.4625222344368696,-0.7539693786792456,0.15040453301165252
1782952308217767400,9.767767333984375,-0.7517541868478059,-0.8053716491363943,0.1906679351432249
1782952308227694600,9.777694580078125,-0.9397259051769972,-0.824480838754028,0.19474636356327682
1782952308237621200,9.787621337890625,-1.0514221930772065,-0.8350716447427868,0.2132578064834699
1782952308247548400,9.79754833984375,-1.1023176830559969,-0.9098061293400823,0.21706421302910892
1782952308257476400,9.807476318359376,-0.9574258125185966,-1.0265186379671096,0.18923034008815884
1782952308267403300,9.8174033203125,-0.6882061360448598,-1.0914578508675097,0.16894399644993244
1782952308277330400,9.827330322265626,-0.308971841147542,-1.1351499853387474,0.20930136047527192
1782952308287257300,9.83725732421875,0.0715554161697626,-1.1758860464833676,0.3522526183389127
1782952308297185500,9.847185546875,0.3281377293884754,-1.2043814886055886,0.5506348541865125
1782952308307112400,9.857112548828125,0.5404968699991702,-1.1870384318776428,0.7503365020696073
1782952308317039600,9.86703955078125,0.7307844640552997,-1.1420920595616102,0.9206490103937685
1782952308326966500,9.876966552734375,0.8874187948346137,-1.111878269214183,1.084203788086027
1782952308336894500,9.88689453125,0.9888216522574425,-1.0558319723434746,1.1419726709656417
1782952308346821400,9.8968212890625,1.0410925222426652,-1.0497278102494776,1.0722919626265763
1782952308356748300,9.906748291015624,1.0380027395337819,-1.1315563447609542,0.9294348127871751
1782952308366675500,9.916675537109375,1.0922177293241024,-1.261450114261359,0.7768194353256375
1782952308376603400,9.926603271484375,1.1003425835907459,-1.4087719884246588,0.6432002886265515
1782952308386530300,9.9365302734375,0.9970686715990305,-1.4337088612824678,0.49320082928445186
1782952308396457500,9.94645751953125,0.6440139430969953,-1.3191035540677607,0.3984436204211786
1782952308406384400,9.95638427734375,0.057115387406945224,-1.1751644542105495,0.33161146991364654
1782952308416312600,9.9663125,-0.5459884531527758,-1.045674735466391,0.32657099152840674
1782952308426239500,9.976239501953126,-1.2442863596230744,-0.9184947549693286,0.3220321059897542
1782952308436166400,9.98616650390625,-1.8061188631176948,-0.7654097872346639,0.33912717930600045
1782952308446093300,9.99609326171875,-1.9867372960746288,-0.5934133444115519,0.38088798038847743
1782952308456020500,10.0060205078125,-1.893916973558068,-0.44702655914127826,0.39320721760503946
1782952308465948400,10.015948486328124,-1.425209328484535,-0.3424314815483987,0.36993338258862496
1782952308475875300,10.025875244140625,-0.703041886126995,-0.31862069011107086,0.3422413658037782
1782952308485802500,10.035802490234374,0.09330489116311073,-0.3401277346506715,0.3508689088955521
1782952308495729400,10.0457294921875,0.7241793667018414,-0.3383965269438922,0.33844255804270507
1782952308505657300,10.0556572265625,1.1214292107611894,-0.370001333258301,0.2587775947732851
1782952308515584500,10.06558447265625,1.1308587178856133,-0.453865026859194,0.1870098510270938
1782952308525511400,10.075511474609375,0.8583201261222362,-0.5014424783311784,0.12827561198035253
1782952308535438300,10.085438232421875,0.45371582764685153,-0.46416108768507836,0.15002791825160383
1782952308545366500,10.095366455078125,-0.0002478372812271118,-0.3456104038454592,0.24739728237465022
1782952308555293400,10.10529345703125,-0.3219464735329151,-0.2743207990050316,0.4054578100321814
1782952308565220400,10.115220458984375,-0.4332271663695574,-0.1723440872170031,0.55363392640464
1782952308575147300,10.125147216796876,-0.3696370299905538,-0.07324132343009114,0.7214618513714521
1782952308585075500,10.135075439453125,-0.15896774216294288,0.016790245150774718,0.9177153680946677
1782952308595002400,10.14500244140625,0.09105097475647926,0.03970291870459914,0.9888212138660252
1782952308604929500,10.154929443359375,0.32964754942953584,0.03200111215561628,1.0239360010627656
1782952308614856400,10.1648564453125,0.49451896267831325,0.07054784656241536,0.9830965526089072
1782952308624784400,10.174784423828125,0.5589876354575157,0.0919565452940762,0.8468081136353314
1782952308634711600,10.184711669921874,0.5444435617983341,0.09582724924758076,0.7021077470820397
1782952308644638200,10.19463818359375,0.5294885692507029,0.07705284454226494,0.6130621207986027
1782952308654565400,10.2045654296875,0.4959276604324579,0.011793167515844106,0.5867126777291297
1782952308664493300,10.214493408203126,0.463159363296628,-0.015368980176001787,0.6141042502626777
1782952308674420500,10.22442041015625,0.4735106614410877,0.005625000274926423,0.681091408668831
1782952308684347400,10.234347412109376,0.5061497792392969,0.05699176102727651,0.7109805701717734
1782952308694274300,10.2442744140625,0.5405372020095587,0.10478154007568954,0.6890854761626571
1782952308704202500,10.254202392578126,0.4922609546184539,0.12704305624440312,0.599080174534209
1782952308714129400,10.26412939453125,0.320143223503232,0.10804697161242365,0.4816696737056598
1782952308724056600,10.274056640625,-0.016518588602542877,0.07537409767508506,0.33171595320142805
1782952308733983500,10.2839833984375,-0.5285486580520868,0.0985528748191893,0.08663975245179607
1782952308743912000,10.293911865234374,-1.0372422765552998,0.07854103727340697,-0.23443587479703126
1782952308753839000,10.303839111328125,-1.395153212916851,0.06779752494096755,-0.5363098666381091
1782952308763766000,10.31376611328125,-1.8121902919858692,0.09768675950914621,-0.7208877778105437
1782952308773693000,10.32369287109375,-1.81159232609272,0.04928235569372773,-0.8740530442398041
1782952308783621000,10.33362109375,-1.6431015533030031,-0.0033715222597122192,-0.8503609838113189
1782952308793547800,10.3435478515625,-1.3760147972047327,-0.04762085222229361,-0.7206454934872687
1782952308803475000,10.353474853515625,-1.0396066675990818,-0.011214929236471652,-0.5588729595692828
1782952308813401900,10.36340185546875,-0.6696306149125099,0.049451428650319575,-0.3300820683892816
1782952308823330000,10.373330078125,-0.36247605232000346,0.1324409697651863,-0.1404872423702851
1782952308833257000,10.383257080078126,-0.13219605509340762,0.20596037948429582,-0.020937793284282087
1782952308843183900,10.393183837890625,0.019625322446227073,0.25412293736785646,0.08464446871504187
1782952308853111000,10.403111083984374,0.057330491462349885,0.3227531137406826,0.22563776091132312
1782952308863038000,10.413037841796875,0.0859118583023548,0.4128128855027258,0.2792262163011357
1782952308872966100,10.422966064453124,0.14908113892078398,0.4754359304152429,0.21839849384017287
1782952308882892800,10.432892822265625,0.28292671478688713,0.5088432561069727,0.12053455113321541
1782952308892820000,10.442820068359374,0.45824178063869475,0.5010765676282346,-0.00600106704570353
1782952308902747000,10.452746826171875,0.6893775179117918,0.4354322751984,-0.18299480669945478
1782952308912674800,10.4626748046875,0.9575836334288119,0.36785102335661646,-0.34756778499092905
1782952308922602000,10.47260205078125,1.1402905630975961,0.321008608160913,-0.5215027215959503
1782952308932529000,10.48252880859375,1.1944546994835137,0.3104834147542715,-0.6279128492541611
1782952308942456000,10.4924560546875,1.0943898126661777,0.3646525195762515,-0.7140270251955837
1782952308952384000,10.502384033203125,0.7905804688483477,0.48913639285713434,-0.7441144857496023
1782952308962311000,10.512310791015626,0.2707955474883318,0.6321656843930482,-0.7844519029654562
1782952308972238000,10.522238037109375,-0.27356325863599773,0.7106853866174817,-0.8422628714211284
1782952308982164700,10.532164794921876,-0.6738730747878551,0.7888748339742422,-0.8088840411715209
1782952308992093000,10.542093017578125,-0.7665911059737205,0.9874062325015663,-0.6318431013751775
1782952309002019800,10.552019775390624,-0.6866817029565573,1.1327955311670899,-0.37893527541812505
1782952309011947000,10.561947021484375,-0.4662473924398422,1.294226448573172,-0.274885520215705
1782952309021874000,10.5718740234375,-0.060761634954810136,1.466795722848177,-0.21535379238203167
1782952309031801900,10.5818017578125,0.5032388602286577,1.5950941859811543,-0.20110329484194517
1782952309041729000,10.59172900390625,1.0796738895714282,1.5825988615453241,-0.23668401905000208
1782952309051656000,10.601656005859375,1.5285288331836462,1.4883134349122642,-0.3746778006367385
1782952309061583000,10.6115830078125,1.7588807266026734,1.4474635381296277,-0.5863990817353129
1782952309071511000,10.621510986328126,1.7057856807529925,1.4374120997145772,-0.7832444268718362
1782952309081438000,10.63143798828125,1.3971657217830418,1.4794599741101264,-0.9565038753680885
1782952309091364900,10.64136474609375,0.9897697467625141,1.6098393351703881,-1.054684994265437
1782952309101291800,10.651291748046875,0.6831774942278862,1.6510642027452587,-1.1428205930318682
1782952309111220000,10.661219970703126,0.46568683594763277,1.6011588928475975,-1.1595499748408793
1782952309121147000,10.67114697265625,0.20400164663195608,1.5324392846256494,-1.0957358204476535
1782952309131074000,10.681073974609374,-0.023939093992114066,1.5448261802509426,-1.0611730411104858
1782952309141001000,10.6910009765625,-0.15208967308700083,1.5306499169908463,-0.9965870986271649
1782952309150929000,10.700928955078124,-0.24367373180687427,1.463631559728831,-0.8671560512676835
1782952309160856000,10.71085595703125,-0.23788287344574927,1.3706554621286688,-0.7218047465249896
1782952309170783000,10.720782958984374,-0.19175474399924278,1.2812629221037029,-0.5944496651893482
1782952309180710000,10.7307099609375,-0.2528694301754236,1.1514017396986485,-0.5247966851074248
1782952309190638000,10.74063818359375,-0.33107670544981954,0.8575102710440754,-0.5773302611494436
1782952309200564700,10.750564697265625,-0.3294277691990137,0.5237292750716209,-0.7164494300369173
1782952309210492000,10.760491943359375,-0.2711789938479662,0.21233605199605227,-0.7276233696758747
1782952309220418800,10.770418701171875,-0.25658114417493344,-0.008023439718782902,-0.5788923228343948
1782952309230346000,10.780345947265625,-0.3094523181408644,-0.06878595145642757,-0.35720129025485364
1782952309240274000,10.79027392578125,-0.5522065970152616,-0.055013446691632266,-0.2445928559457883
1782952309250201000,10.800201171875,-0.8504542150527238,-0.11633783009573817,-0.19915117439348248
1782952309260128000,10.8101279296875,-1.0713345157712697,-0.3124878864444792,-0.1854536345610395
1782952309270055200,10.82005517578125,-1.0006143813818693,-0.4352613025456667,-0.2402196092976257
1782952309279983000,10.829983154296874,-0.48166298823654646,-0.533656502585113,-0.46314277748800814
1782952309289909800,10.83990966796875,-0.32563831378817554,-0.8163938322797417,-0.41447643480077384
1782952309299837000,10.8498369140625,-0.5447451750934124,-1.1166679877087473,-0.2897665342116728
1782952309309763800,10.859763916015625,-0.5908668747991324,-1.2757673934273421,-0.19322441469300536
1782952309319691800,10.86969189453125,-0.34727029988169666,-1.1946049216091632,0.010502652781270444
1782952309329619000,10.879618896484375,0.06502513761818408,-1.1841899105787277,0.2480959686959162
1782952309339545900,10.8895458984375,0.4012807070106268,-1.2954561364986001,0.40168095837458967
1782952309349473000,10.89947314453125,0.557922052052617,-1.3513703314222394,0.5496193935336545
1782952309359401000,10.90940087890625,0.2629962719142437,-1.3573923681907354,0.8127901817645877
1782952309369328000,10.919328125,-0.27703999483585356,-1.37262573928833,0.8521348616160452
1782952309379255000,10.929255126953125,-0.4989858789592981,-1.1612827899828553,0.5386896744467318
1782952309389182000,10.939181884765626,-0.6324696357756853,-0.8685514511488378,0.1881162413664162
1782952309399110000,10.94910986328125,-0.7569295436590909,-0.6628535219930112,0.004253858052194118
1782952309409036800,10.959036865234374,-0.8724602951556444,-0.49443143052533267,0.12168372116833924
1782952309418964000,10.9689638671875,-1.074872042247653,-0.45030689598619933,0.3298814312506467
1782952309428891000,10.978890869140624,-1.1704413712114095,-0.39705607505291696,0.5856503822598605
1782952309438818800,10.98881884765625,-0.9774988787323236,-0.3252231571160257,0.8107545842837541
1782952309448746000,10.99874609375,-0.4660924941390753,-0.2565722302161157,0.9159383484847843
1782952309458673000,11.0086728515625,0.061576458469033236,-0.025408070566132663,1.116854304061085
1782952309468600000,11.01860009765625,0.6029957040101289,0.031492797307297586,1.2708745068192482
1782952309478528000,11.028528076171876,0.9139011435687542,-0.08249532785713672,1.2763418323144315
1782952309488455200,11.038455078125,1.095405711710453,-0.21210640795864164,1.1073642258558423
1782952309498381800,11.0483818359375,1.123882449132204,-0.21743300980888305,0.9319318902999162
1782952309508309000,11.05830908203125,0.934849239051342,-0.16009097403921185,0.7900390554480254
1782952309518237000,11.06823681640625,0.5129705651700497,-0.19923713564388454,0.7272285251393914
1782952309528163800,11.078163818359375,0.12281097163259982,-0.41399201228469606,0.575476559574157
1782952309538091000,11.088091064453126,-0.2583843942046165,-0.5488881931822747,0.4934156776115298
1782952309548018000,11.098017822265625,-0.5355079756706953,-0.5454116031128913,0.5884144401457161
1782952309557945900,11.10794580078125,-0.5981722293764352,-0.48904739939942954,0.645944253572449
1782952309567873000,11.117873046875,-0.39058570999503134,-0.3210647222623229,0.7112347641285508
1782952309577800000,11.127800048828124,-0.13114157760441303,-0.21890447060093282,0.7563810429308563
1782952309587727000,11.13772705078125,0.1931044050425291,-0.180271519215405,0.7609899980310351
1782952309597653800,11.14765380859375,0.5950818621456623,-0.213952035825327,0.7004393024131655
1782952309607582000,11.15758203125,0.9634382046759128,-0.2970478137936443,0.5709467706574127
1782952309617508900,11.1675087890625,1.1195903048962355,-0.4061282201070338,0.6374284272268415
1782952309627436000,11.17743603515625,0.9949684844493866,-0.4431820856075734,0.7475949482765049
1782952309637363000,11.187363037109375,0.554555790489912,-0.41250608457587656,0.7739327739734202
1782952309647291000,11.197290771484376,-0.04749707971215248,-0.27279358943775295,0.7665119032576679
1782952309657218000,11.207218017578125,-0.4814747721880674,-0.013410831845551729,0.9306842283263802
1782952309667145000,11.21714501953125,-0.7419178524881601,0.227760123360157,1.1380131196849048
1782952309677072100,11.227072021484375,-0.8608920224368571,0.324085823649168,1.091223311459273
1782952309687000000,11.237,-0.5200982250928878,0.1471626650135964,1.1614593155935407
1782952309696927000,11.246927001953125,-0.20233517472445964,-0.030888986195251343,1.2776833100512623
1782952309706854000,11.25685400390625,-0.10992577109634875,0.0586402588866651,1.1689116774260997
1782952309716780800,11.26678076171875,-0.00889057794213295,0.05980469955615699,0.9426253529455513
1782952309726709000,11.276708984375,0.18994740231633186,-0.11245981961861252,0.6877718362808227
1782952309736636000,11.286635986328125,0.2878752771049738,-0.24749518979117271,0.6218169435318559
1782952309746563000,11.29656298828125,0.46038463788628575,-0.3092372871506959,0.5947045167332515
1782952309756490200,11.306490234375,0.5404091917157173,-0.3694376349609345,0.5981384367046877
1782952309766418200,11.316418212890625,0.4263023355424404,-0.36787937266826626,0.5406263050651178
