time,seconds_elapsed,z,y,x
1782952298523811600,0.0738115234375,1.1922080516815186,-0.2311517298221588,0.32585054636001587
1782952298533739500,0.083739501953125,1.1353471279144287,-0.30662891268730164,0.23140020668506622
1782952298543666700,0.093666748046875,1.099155306816101,-0.33215343952178955,0.1782965064048767
1782952298553593600,0.103593505859375,1.070387601852417,-0.34054505825042725,0.15648308396339417
1782952298563520500,0.1135205078125,1.0197124481201172,-0.3230273127555847,0.15550650656223297
1782952298573448700,0.12344873046875,0.9523195028305054,-0.292707234621048,0.1577712595462799
1782952298583375400,0.133375244140625,0.8860722780227661,-0.2303171008825302,0.1532851606607437
1782952298593302500,0.143302490234375,0.8254406452178955,-0.10339296609163284,0.1981373131275177
1782952298603229400,0.1532294921875,0.7585065960884094,-0.018444787710905075,0.1980568915605545
1782952298613157600,0.16315771484375,0.7074841856956482,0.038474954664707184,0.16354632377624512
1782952298623084500,0.17308447265625,0.6893773674964905,0.07641088217496872,0.1398593634366989
1782952298633011500,0.183011474609375,0.6678465008735657,0.0761490985751152,0.15890629589557648
1782952298642938600,0.192938720703125,0.6587057113647461,0.014031130820512772,0.19211378693580627
1782952298652866600,0.202866455078125,0.6740367412567139,-0.022939138114452362,0.24698182940483093
1782952298662793700,0.212793701171875,0.6909347772598267,-0.007582818623632193,0.31510573625564575
1782952298672720400,0.222720458984375,0.6950339078903198,0.015399196185171604,0.3467036187648773
1782952298682647600,0.2326474609375,0.6724292635917664,0.03921690955758095,0.3789699375629425
1782952298692575500,0.242575439453125,0.6359644532203674,0.07209203392267227,0.40988871455192566
1782952298702502400,0.25250244140625,0.5918769240379333,0.10671605914831161,0.4331918954849243
1782952298712429600,0.2624296875,0.5527989864349365,0.12478400766849518,0.4357386827468872
1782952298722356500,0.2723564453125,0.5198125839233398,0.12610013782978058,0.4149963855743408
1782952298732284400,0.282284423828125,0.47923609614372253,0.1090383380651474,0.38329440355300903
1782952298742211300,0.29221142578125,0.42672470211982727,0.0582507885992527,0.3606322109699249
1782952298752138500,0.302138427734375,0.3994904160499573,-0.0020959076937288046,0.36054620146751404
1782952298762065200,0.312065185546875,0.38311275839805603,-0.08112068474292755,0.366335928440094
1782952298771993300,0.321993408203125,0.3668765425682068,-0.18008507788181305,0.3480421304702759
1782952298781920300,0.331920166015625,0.3350546956062317,-0.2675078809261322,0.31058770418167114
1782952298791847200,0.34184716796875,0.2868299186229706,-0.3021310865879059,0.26262444257736206
1782952298801774300,0.3517744140625,0.23704317212104797,-0.27350637316703796,0.22118884325027466
1782952298811702300,0.361702392578125,0.19507494568824768,-0.15851427614688873,0.19391967356204987
1782952298821629200,0.371629150390625,0.16011163592338562,-0.00498224189504981,0.19667896628379822
1782952298831556400,0.381556396484375,0.13964657485485077,0.13323448598384857,0.23991699516773224
1782952298841483300,0.391483154296875,0.10950758308172226,0.28756627440452576,0.25023433566093445
1782952298851411500,0.401411376953125,0.10718051344156265,0.3664911687374115,0.23420052230358124
1782952298861338400,0.41133837890625,0.14533349871635437,0.37452805042266846,0.2274363487958908
1782952298871265300,0.421265380859375,0.19063572585582733,0.3285430073738098,0.21363584697246552
1782952298881192200,0.431192138671875,0.2321554720401764,0.22099097073078156,0.1935926377773285
1782952298891120000,0.4411201171875,0.23438800871372223,0.07875846326351166,0.1430988311767578
1782952298901047300,0.45104736328125,0.20016957819461823,-0.0749456137418747,0.07571286708116531
1782952298910974200,0.46097412109375,0.12090165168046951,-0.22352150082588196,0.005387841258198023
1782952298920902100,0.470902099609375,0.021768944337964058,-0.2894192934036255,-0.0509052574634552
1782952298930829300,0.480829345703125,-0.09216108918190002,-0.3012743592262268,-0.09010539203882217
1782952298940756200,0.490756103515625,-0.20848903059959412,-0.2918859124183655,-0.10357353091239929
1782952298950683400,0.500683349609375,-0.31222739815711975,-0.23905839025974274,-0.09567086398601532
1782952298960611300,0.510611328125,-0.3811910152435303,-0.16820472478866577,-0.06638594716787338
1782952298970538500,0.52053857421875,-0.4334483742713928,-0.10033486038446426,-0.022768961265683174
1782952298980465200,0.530465087890625,-0.4824199080467224,-0.034869566559791565,0.0480884313583374
1782952298990392300,0.540392333984375,-0.5342791080474854,0.023630760610103607,0.12075144797563553
1782952299000320300,0.5503203125,-0.5899945497512817,0.03129667043685913,0.1758788824081421
1782952299010247200,0.5602470703125,-0.6402984857559204,-0.017015201970934868,0.19267651438713074
1782952299020174300,0.57017431640625,-0.6797553300857544,-0.10029517859220505,0.17553241550922394
1782952299030101200,0.580101318359375,-0.7047059535980225,-0.18471765518188477,0.15055115520954132
1782952299040029200,0.590029296875,-0.7190598845481873,-0.23161885142326355,0.14774711430072784
1782952299049956400,0.599956298828125,-0.7233992218971252,-0.2503901422023773,0.15825913846492767
1782952299059883300,0.60988330078125,-0.7141886949539185,-0.19906596839427948,0.17697077989578247
1782952299069810400,0.619810546875,-0.6701434850692749,-0.0373028963804245,0.1646355539560318
1782952299079738400,0.62973828125,-0.5846509337425232,0.16270023584365845,0.10478020459413528
1782952299089665300,0.639665283203125,-0.470048189163208,0.3176943361759186,0.02642068825662136
1782952299099592200,0.64959228515625,-0.3845024108886719,0.4497027099132538,-0.0851934552192688
1782952299109519400,0.659519287109375,-0.35501959919929504,0.4802513122558594,-0.21630433201789856
1782952299119447300,0.669447265625,-0.36486291885375977,0.4214684069156647,-0.3028983473777771
1782952299129374200,0.679374267578125,-0.38936692476272583,0.32759782671928406,-0.34239304065704346
1782952299139301400,0.68930126953125,-0.4211198091506958,0.209487184882164,-0.35688620805740356
1782952299149228300,0.699228271484375,-0.49185869097709656,0.08776181191205978,-0.3510701358318329
1782952299159156200,0.70915625,-0.538196861743927,-0.01116050872951746,-0.3351180851459503
1782952299169083400,0.71908349609375,-0.5500168204307556,-0.0768902525305748,-0.3173249661922455
1782952299179010300,0.72901025390625,-0.5607168674468994,-0.1265677958726883,-0.31959158182144165
1782952299188937200,0.738937255859375,-0.5783653259277344,-0.1460070013999939,-0.3598497807979584
1782952299198865200,0.748865234375,-0.6280918717384338,-0.13076546788215637,-0.41115930676460266
1782952299208792300,0.758792236328125,-0.6760509014129639,-0.07712061703205109,-0.4679027497768402
1782952299218719200,0.76871923828125,-0.7011655569076538,0.009348227642476559,-0.5070837140083313
1782952299228646400,0.778646484375,-0.6888710856437683,0.12112242728471756,-0.5263940095901489
1782952299238574300,0.78857421875,-0.652799129486084,0.23172643780708313,-0.5174500942230225
1782952299248501200,0.798501220703125,-0.5988740921020508,0.32294556498527527,-0.48069897294044495
1782952299258428400,0.808428466796875,-0.5430158972740173,0.40301403403282166,-0.41004717350006104
1782952299268355300,0.818355224609375,-0.5223603844642639,0.46260812878608704,-0.31899502873420715
1782952299278283300,0.828283203125,-0.5123642086982727,0.46317511796951294,-0.21928122639656067
1782952299288210400,0.83821044921875,-0.4373491108417511,0.44963905215263367,-0.1291622519493103
1782952299298137000,0.84813720703125,-0.3591541647911072,0.44152122735977173,-0.04057778790593147
1782952299308064300,0.858064208984375,-0.3199162185192108,0.40441352128982544,0.03015151061117649
1782952299317992200,0.8679921875,-0.3166053891181946,0.33227062225341797,0.06898226588964462
1782952299327919400,0.87791943359375,-0.3035529553890228,0.26939019560813904,0.08410049974918365
1782952299337846300,0.88784619140625,-0.27540308237075806,0.23690229654312134,0.09186094999313354
1782952299347773400,0.8977734375,-0.24913179874420166,0.24719540774822235,0.07747907936573029
1782952299357701400,0.907701416015625,-0.23809193074703217,0.2706083357334137,0.04121241718530655
1782952299367628300,0.917628173828125,-0.25132542848587036,0.29699546098709106,0.007924768142402172
1782952299377555500,0.927555419921875,-0.2869313657283783,0.37187716364860535,-0.025082983076572418
1782952299387482400,0.937482421875,-0.25425785779953003,0.34638485312461853,-0.08184586465358734
1782952299397410300,0.947410400390625,-0.15270592272281647,0.3004714250564575,-0.15698668360710144
1782952299407337200,0.957337158203125,-0.029257487505674362,0.19806301593780518,-0.24489736557006836
1782952299417264000,0.96726416015625,0.04658800736069679,0.03982943668961525,-0.289154052734375
1782952299427191300,0.97719140625,0.08919059485197067,-0.09977612644433975,-0.27113616466522217
1782952299437119200,0.987119140625,0.15147101879119873,-0.18976274132728577,-0.19831708073616028
1782952299447046400,0.99704638671875,0.23793719708919525,-0.196130633354187,-0.07427742332220078
1782952299456973300,1.006973388671875,0.30974987149238586,-0.13046400249004364,0.06757691502571106
1782952299466900200,1.016900146484375,0.36727893352508545,-0.019692478701472282,0.19038112461566925
1782952299476828400,1.026828369140625,0.42507272958755493,0.08180298656225204,0.25172358751296997
1782952299486755300,1.03675537109375,0.47757428884506226,0.14939188957214355,0.24642789363861084
1782952299496682500,1.0466826171875,0.5235995650291443,0.15104703605175018,0.19154013693332672
1782952299506609200,1.056609130859375,0.547980785369873,0.08910324424505234,0.1200675517320633
1782952299516537000,1.066537109375,0.5676112174987793,0.007074953522533178,0.06947281956672668
1782952299526464300,1.07646435546875,0.5804982781410217,-0.07977685332298279,0.06691671907901764
1782952299536391200,1.08639111328125,0.5854155421257019,-0.13429921865463257,0.10553601384162903
1782952299546318300,1.096318359375,0.5835803747177124,-0.14746162295341492,0.1475769430398941
1782952299556246300,1.106246337890625,0.571506917476654,-0.10201851278543472,0.18856778740882874
1782952299566173400,1.11617333984375,0.5617650747299194,-0.016599483788013458,0.21958374977111816
1782952299576100400,1.126100341796875,0.5593770146369934,0.07781197130680084,0.24778689444065094
1782952299586028300,1.1360283203125,0.558213472366333,0.16613677144050598,0.266066312789917
1782952299595955500,1.14595556640625,0.5648716688156128,0.231438547372818,0.28473320603370667
1782952299605882400,1.15588232421875,0.5932585597038269,0.25134381651878357,0.29875075817108154
1782952299615809300,1.165809326171875,0.6421693563461304,0.22181202471256256,0.31039249897003174
1782952299625737200,1.1757373046875,0.6997684836387634,0.14821583032608032,0.3103903532028198
1782952299635664100,1.1856640625,0.7769463658332825,0.046364035457372665,0.3104287087917328
1782952299645591300,1.19559130859375,0.8576337099075317,-0.0916052833199501,0.3101471960544586
1782952299655518200,1.205518310546875,0.9275555610656738,-0.23887516558170319,0.305113822221756
1782952299665445400,1.2154453125,0.9962608814239502,-0.36776843667030334,0.3001750111579895
1782952299675373300,1.225373291015625,1.0451316833496094,-0.448943167924881,0.2908158600330353
1782952299685300200,1.23530029296875,1.0643783807754517,-0.4920453727245331,0.2852213680744171
1782952299695227400,1.245227294921875,1.0526304244995117,-0.48878246545791626,0.27923882007598877
1782952299705154300,1.255154296875,1.0039345026016235,-0.44220882654190063,0.2621426582336426
1782952299715082500,1.26508251953125,0.9235429763793945,-0.34785518050193787,0.23215654492378235
1782952299725009200,1.275009033203125,0.8116132616996765,-0.2080562561750412,0.19528986513614655
1782952299734937000,1.28493701171875,0.6878622770309448,-0.04850495234131813,0.15921814739704132
1782952299744865300,1.294865234375,0.5635067820549011,0.08022772520780563,0.12610121071338654
1782952299754792200,1.304792236328125,0.48206278681755066,0.15568412840366364,0.09845360368490219
1782952299764719400,1.31471923828125,0.4476206600666046,0.1623351126909256,0.14379924535751343
1782952299774646300,1.324646240234375,0.4296930432319641,0.15158899128437042,0.14551831781864166
1782952299784574200,1.33457421875,0.4584674537181854,0.12681733071804047,0.15043558180332184
1782952299794501000,1.344501220703125,0.5044130682945251,0.10287418216466904,0.1643545925617218
1782952299804428000,1.354427978515625,0.5538578629493713,0.030592797324061394,0.17226524651050568
1782952299814355200,1.364355224609375,0.584817111492157,-0.04753050208091736,0.15895050764083862
1782952299824282000,1.3742822265625,0.5932244658470154,-0.1188875064253807,0.12984322011470795
1782952299834210000,1.3842099609375,0.58196622133255,-0.16801510751247406,0.1024981439113617
1782952299844137200,1.39413720703125,0.5578896403312683,-0.1887107938528061,0.0773475170135498
1782952299854064000,1.404064208984375,0.5284377336502075,-0.18148137629032135,0.07355118542909622
1782952299863992300,1.413992431640625,0.4971977770328522,-0.1624906361103058,0.08317957818508148
1782952299873919200,1.423919189453125,0.46300679445266724,-0.13385793566703796,0.08941030502319336
1782952299883846400,1.433846435546875,0.429739385843277,-0.10726919770240784,0.090725377202034
1782952299893773000,1.44377294921875,0.3948519825935364,-0.09545861184597015,0.07545720785856247
1782952299903701000,1.453700927734375,0.35252049565315247,-0.10276792198419571,0.05002588406205177
1782952299913628200,1.463628173828125,0.297634094953537,-0.13482145965099335,0.016034627333283424
1782952299923555000,1.47355517578125,0.23353391885757446,-0.1948336660861969,-0.032282572239637375
1782952299933482200,1.483482177734375,0.1523035168647766,-0.2733215391635895,-0.10034257918596268
1782952299943410200,1.49341015625,0.057443585246801376,-0.3298173248767853,-0.17405276000499725
1782952299953337000,1.503337158203125,-0.040229711681604385,-0.3376467525959015,-0.23228996992111206
1782952299963264300,1.51326416015625,-0.13159771263599396,-0.2611338496208191,-0.2540815472602844
1782952299973191200,1.523191162109375,-0.2079169750213623,-0.11626642197370529,-0.23545193672180176
1782952299983119400,1.533119384765625,-0.253327876329422,0.06869703531265259,-0.17869864404201508
1782952299993046300,1.54304638671875,-0.2595527470111847,0.26764529943466187,-0.08750162273645401
1782952300002973200,1.55297314453125,-0.22726377844810486,0.3994573950767517,0.0011427623685449362
1782952300012900000,1.562900146484375,-0.1823522299528122,0.436612993478775,0.06842273473739624
1782952300022828000,1.572828125,-0.1466435045003891,0.36918097734451294,0.08723290264606476
1782952300032755200,1.582755126953125,-0.11451406031847,0.22598598897457123,0.05566885322332382
1782952300042682000,1.59268212890625,-0.10124699026346207,0.04312829673290253,-0.003655987558886409
1782952300052609300,1.602609375,-0.10900212079286575,-0.1331348866224289,-0.07294078916311264
1782952300062537200,1.612537109375,-0.14207617938518524,-0.2407177984714508,-0.1453995406627655
1782952300072464100,1.622464111328125,-0.1886649876832962,-0.27954617142677307,-0.18386144936084747
1782952300082391300,1.632391357421875,-0.23995719850063324,-0.2726594805717468,-0.18273839354515076
1782952300092318000,1.64231787109375,-0.2851552963256836,-0.19970272481441498,-0.12705275416374207
1782952300102246400,1.652246337890625,-0.3183151185512543,-0.06463412195444107,-0.029952039942145348
1782952300112173000,1.662173095703125,-0.35759061574935913,0.06390228122472763,0.05486404895782471
1782952300122100200,1.672100341796875,-0.4024374485015869,0.1528095155954361,0.10249015688896179
1782952300132027100,1.682027099609375,-0.4510473310947418,0.21563374996185303,0.11731836944818497
1782952300141955000,1.691955078125,-0.4963993728160858,0.2413814663887024,0.10280494391918182
1782952300151882200,1.70188232421875,-0.5532013773918152,0.20756198465824127,0.056771669536828995
1782952300161809200,1.71180908203125,-0.6061605215072632,0.14100106060504913,0.0018397116800770164
1782952300171736300,1.721736328125,-0.6508611440658569,0.08333217352628708,-0.0362810418009758
1782952300181663200,1.731663330078125,-0.6857852935791016,0.048888713121414185,-0.06179918348789215
1782952300191591200,1.741591064453125,-0.7071885466575623,0.020314859226346016,-0.08437293767929077
1782952300201518000,1.75151806640625,-0.7283273935317993,0.009476326406002045,-0.10587343573570251
1782952300211445000,1.761445068359375,-0.7486822009086609,0.019716713577508926,-0.10940399020910263
1782952300221372200,1.7713720703125,-0.7711092233657837,0.05254203826189041,-0.10789211094379425
1782952300231300000,1.781300048828125,-0.7856128215789795,0.10462494939565659,-0.09828183054924011
1782952300241227300,1.791227294921875,-0.7973741292953491,0.24184058606624603,-0.09639471024274826
1782952300251154200,1.801154296875,-0.7925551533699036,0.2724834680557251,-0.12602344155311584
1782952300261081300,1.811081298828125,-0.7609657645225525,0.2607918977737427,-0.14268870651721954
1782952300271009300,1.82100927734375,-0.7038950324058533,0.2576645612716675,-0.1345468908548355
1782952300280936200,1.830936279296875,-0.6666853427886963,0.21913288533687592,-0.1390945017337799
1782952300290863400,1.84086328125,-0.6332634687423706,0.15429262816905975,-0.15476533770561218
1782952300300790000,1.8507900390625,-0.6096242070198059,0.07832329720258713,-0.17346446216106415
1782952300310718000,1.860718017578125,-0.5930556058883667,0.013014867901802063,-0.18773847818374634
1782952300320645000,1.87064501953125,-0.5911751389503479,-0.014243383891880512,-0.18248459696769714
1782952300330572000,1.880572021484375,-0.5759943127632141,-0.003469299990683794,-0.18431657552719116
1782952300340499200,1.890499267578125,-0.542073667049408,0.04291524365544319,-0.16188929975032806
1782952300350427100,1.90042724609375,-0.5121551752090454,0.09528017789125443,-0.12513341009616852
1782952300360354300,1.910354248046875,-0.4929654896259308,0.13749927282333374,-0.094395212829113
1782952300370281200,1.92028125,-0.48027312755584717,0.1512174755334854,-0.07436131685972214
1782952300380208000,1.9302080078125,-0.4765865206718445,0.16564887762069702,-0.06304581463336945
1782952300390136300,1.94013623046875,-0.4699280858039856,0.16204136610031128,-0.05017714947462082
1782952300400063200,1.950063232421875,-0.4533240795135498,0.16479986906051636,-0.03662965074181557
1782952300409990100,1.959990234375,-0.42680326104164124,0.16933949291706085,-0.030821029096841812
1782952300419917000,1.9699169921875,-0.4039671719074249,0.162471204996109,-0.038598526269197464
1782952300429845000,1.979844970703125,-0.37123987078666687,0.151638001203537,-0.06605678051710129
1782952300439772200,1.989772216796875,-0.34430649876594543,0.12439092993736267,-0.13700206577777863
1782952300449699000,1.999698974609375,-0.32932624220848083,0.0662224292755127,-0.2292206734418869
1782952300459626200,2.009626220703125,-0.3113757371902466,-0.026523219421505928,-0.3116156756877899
1782952300469554200,2.01955419921875,-0.28886696696281433,-0.12555180490016937,-0.33600011467933655
1782952300479481300,2.0294814453125,-0.2571497857570648,-0.17457206547260284,-0.283846378326416
1782952300489408300,2.039408203125,-0.20570921897888184,-0.17725972831249237,-0.15640585124492645
1782952300499335200,2.049335205078125,-0.1364039182662964,-0.11239604651927948,0.017292171716690063
1782952300509263400,2.059263427734375,-0.054609715938568115,-0.01284389290958643,0.18082837760448456
1782952300519190000,2.06918994140625,0.031317174434661865,0.08390901237726212,0.2972969114780426
1782952300529117200,2.0791171875,0.10782899707555771,0.17327138781547546,0.34124839305877686
1782952300539044000,2.089044189453125,0.16532264649868011,0.21373306214809418,0.3101426959037781
1782952300548972000,2.098971923828125,0.21209494769573212,0.18170161545276642,0.23692838847637177
1782952300558899200,2.108899169921875,0.2347850799560547,0.1013021171092987,0.1541922390460968
1782952300568826000,2.118826171875,0.2401667982339859,-0.0020967067684978247,0.09069208800792694
1782952300578753300,2.128753173828125,0.231678768992424,-0.09512864798307419,0.033365678042173386
1782952300588681200,2.13868115234375,0.23134639859199524,-0.15428011119365692,-0.012575712986290455
1782952300598608100,2.148608154296875,0.25024232268333435,-0.2005631923675537,-0.024653680622577667
1782952300608535000,2.15853515625,0.26865461468696594,-0.20182952284812927,-0.005532983224838972
1782952300618462200,2.168462158203125,0.29216262698173523,-0.1784919798374176,0.042327217757701874
1782952300628390100,2.17839013671875,0.32243555784225464,-0.09967466443777084,0.10206697881221771
1782952300638317000,2.188317138671875,0.3473222851753235,0.02690298669040203,0.15629959106445312
1782952300648244200,2.198244140625,0.36825260519981384,0.15319807827472687,0.19793757796287537
1782952300658171100,2.208171142578125,0.39834311604499817,0.24643614888191223,0.21373306214809418
1782952300668099000,2.21809912109375,0.433658242225647,0.3031231164932251,0.20553956925868988
1782952300678026200,2.228026123046875,0.4725792706012726,0.3282412588596344,0.1918748915195465
1782952300687953200,2.237953125,0.5094994902610779,0.30765795707702637,0.17641738057136536
1782952300697880300,2.24788037109375,0.5492399334907532,0.2418869286775589,0.18307234346866608
1782952300707808300,2.257808349609375,0.5975965857505798,0.14523522555828094,0.1995253562927246
1782952300717735200,2.267735107421875,0.6449078917503357,0.04013356938958168,0.2087572067975998
1782952300727662000,2.277662109375,0.6842811107635498,-0.06191210448741913,0.18210962414741516
1782952300737588700,2.287588623046875,0.7036396265029907,-0.1688271015882492,0.13896401226520538
1782952300747516700,2.2975166015625,0.7070053219795227,-0.25378379225730896,0.08609919995069504
1782952300757443600,2.307443603515625,0.686135470867157,-0.3026091456413269,0.031435418874025345
1782952300767370800,2.317370849609375,0.64630126953125,-0.31328919529914856,-0.01691719889640808
1782952300777297700,2.327297607421875,0.600273847579956,-0.28035494685173035,-0.07258232682943344
1782952300787225600,2.3372255859375,0.5489720106124878,-0.2524876296520233,-0.11760758608579636
1782952300797152800,2.34715283203125,0.4934283494949341,-0.2052764594554901,-0.12820084393024445
1782952300807079700,2.35707958984375,0.44124558568000793,-0.1354864537715912,-0.10579460859298706
1782952300817006600,2.367006591796875,0.39486607909202576,-0.07120546698570251,-0.09247720241546631
1782952300826934500,2.3769345703125,0.3455909490585327,-0.004005394410341978,-0.10617650300264359
1782952300836861700,2.38686181640625,0.2679606080055237,0.022525548934936523,-0.1677040457725525
1782952300846788600,2.39678857421875,0.17295579612255096,-0.019102854654192924,-0.25398460030555725
1782952300856715800,2.4067158203125,0.09261568635702133,-0.10621006041765213,-0.3335188329219818
1782952300866643700,2.416643798828125,0.04249153286218643,-0.20818009972572327,-0.358902245759964
1782952300876570600,2.426570556640625,0.02997734025120735,-0.2952899634838104,-0.31140395998954773
1782952300886497800,2.436497802734375,0.021165739744901657,-0.31756332516670227,-0.22582274675369263
1782952300896424700,2.4464248046875,0.038006238639354706,-0.2651088833808899,-0.03919001296162605
1782952300906352600,2.4563525390625,0.03555186837911606,-0.20097678899765015,0.07128909230232239
1782952300916279600,2.466279541015625,0.05157717317342758,-0.09934496134519577,0.09120980650186539
1782952300926206500,2.47620654296875,0.07141612470149994,0.0036887445021420717,0.052555352449417114
1782952300936133600,2.486133544921875,0.08373937010765076,0.08491489291191101,-0.007016896735876799
1782952300946061600,2.4960615234375,0.06599020212888718,0.12778858840465546,-0.05438627675175667
1782952300955988700,2.50598876953125,0.05576073378324509,0.10756614059209824,-0.07219243794679642
1782952300965915600,2.51591552734375,0.05776449665427208,0.055632103234529495,-0.034684743732213974
1782952300975842800,2.5258427734375,0.08295640349388123,-0.00971441250294447,0.02654079720377922
1782952300985770800,2.535770751953125,0.11667574942111969,-0.10013538599014282,0.09534995257854462
1782952300995697700,2.54569775390625,0.14058108627796173,-0.21512456238269806,0.15518026053905487
1782952301005624800,2.555624755859375,0.15146861970424652,-0.3319909870624542,0.176557719707489
1782952301015551500,2.565551513671875,0.1352853924036026,-0.4193163216114044,0.1542513519525528
1782952301025479700,2.575479736328125,0.09195335954427719,-0.4340750277042389,0.09657181054353714
1782952301035406600,2.585406494140625,0.02130715362727642,-0.37517601251602173,0.026328010484576225
1782952301045333500,2.59533349609375,-0.05793653801083565,-0.26573553681373596,-0.030775489285588264
1782952301055260700,2.6052607421875,-0.13995550572872162,-0.12583036720752716,-0.044319793581962585
1782952301065188600,2.615188720703125,-0.20289719104766846,0.030833546072244644,-0.010041182860732079
1782952301075115800,2.62511572265625,-0.23013973236083984,0.17520377039909363,0.06034403294324875
1782952301085042700,2.635042724609375,-0.22665658593177795,0.27634263038635254,0.13257721066474915
1782952301094969900,2.644969970703125,-0.20007450878620148,0.29709717631340027,0.16699084639549255
1782952301104896800,2.654896728515625,-0.17004096508026123,0.24365606904029846,0.1544494926929474
1782952301114824700,2.66482470703125,-0.1582796573638916,0.12047635018825531,0.10601591318845749
1782952301124751600,2.674751708984375,-0.14646640419960022,-0.05137477442622185,0.05805611237883568
1782952301134678500,2.684678466796875,-0.13721804320812225,-0.19921855628490448,0.02521294541656971
1782952301144605700,2.694605712890625,-0.1358310729265213,-0.2954590916633606,-0.0008684568456374109
1782952301154533600,2.70453369140625,-0.15528813004493713,-0.3295358121395111,-0.03960173949599266
1782952301164460500,2.71446044921875,-0.19640173017978668,-0.31076693534851074,-0.08613701164722443
1782952301174387700,2.7243876953125,-0.25319579243659973,-0.24185577034950256,-0.11786831170320511
1782952301184314600,2.734314697265625,-0.30955997109413147,-0.15068404376506805,-0.11812211573123932
1782952301194242800,2.744242919921875,-0.35747718811035156,-0.052803028374910355,-0.09967918694019318
1782952301204169700,2.754169677734375,-0.3830685615539551,0.039386287331581116,-0.06518646329641342
1782952301214097000,2.764096923828125,-0.37763065099716187,0.10368458181619644,-0.024268321692943573
1782952301224023600,2.7740234375,-0.3674051761627197,0.12423034012317657,0.013845774345099926
1782952301233951500,2.783951416015625,-0.3471755385398865,0.09027077257633209,0.05192391946911812
1782952301243878700,2.793878662109375,-0.32494214177131653,0.02972061187028885,0.10293330252170563
1782952301253805600,2.8038056640625,-0.31543996930122375,-0.02327709272503853,0.17120450735092163
1782952301263732700,2.813732666015625,-0.2941597104072571,-0.05329118296504021,0.24259106814861298
1782952301273660700,2.82366064453125,-0.2756084203720093,-0.06084097921848297,0.30412793159484863
1782952301283587600,2.833587646484375,-0.2674005329608917,-0.06761446595191956,0.31695637106895447
1782952301293514800,2.8435146484375,-0.2689947187900543,-0.07461884617805481,0.28707757592201233
1782952301303441700,2.853441650390625,-0.2821406126022339,-0.06918066740036011,0.22038963437080383
1782952301313369900,2.863369873046875,-0.3064989447593689,-0.052501555532217026,0.12167530506849289
1782952301323296500,2.873296630859375,-0.34819313883781433,-0.03953542560338974,0.014743260107934475
1782952301333223700,2.8832236328125,-0.3949028551578522,-0.022310098633170128,-0.09944110363721848
1782952301343150600,2.893150634765625,-0.4349208474159241,-0.032768066972494125,-0.204725444316864
1782952301353078500,2.90307861328125,-0.4580743610858917,-0.06867466866970062,-0.28822061419487
1782952301363005700,2.913005615234375,-0.46086668968200684,-0.0937643051147461,-0.34133124351501465
1782952301372932600,2.9229326171875,-0.4568146765232086,-0.1102045327425003,-0.3713935315608978
1782952301382859800,2.93285986328125,-0.45958462357521057,-0.09103856235742569,-0.39131689071655273
1782952301392787700,2.94278759765625,-0.4506121873855591,-0.046547260135412216,-0.42736437916755676
1782952301402714600,2.952714599609375,-0.4375901222229004,0.029631661251187325,-0.477744460105896
1782952301412641800,2.962641845703125,-0.43131357431411743,0.11888830363750458,-0.5293794274330139
1782952301422568400,2.972568359375,-0.4318273067474365,0.1976129412651062,-0.5696685314178467
1782952301432496600,2.98249658203125,-0.4427239000797272,0.24299266934394836,-0.5857649445533752
1782952301442423600,2.992423583984375,-0.455064982175827,0.26149603724479675,-0.5724179744720459
1782952301452350700,3.002350830078125,-0.4542692303657532,0.22651277482509613,-0.5302864909172058
1782952301462277600,3.012277587890625,-0.4475751221179962,0.1530127227306366,-0.4764999747276306
1782952301472205600,3.02220556640625,-0.42818889021873474,0.06882753223180771,-0.41138702630996704
1782952301482132700,3.0321328125,-0.41404086351394653,-0.01799018494784832,-0.3726843595504761
1782952301492059600,3.0420595703125,-0.3932897746562958,-0.0870230495929718,-0.35607820749282837
1782952301501986800,3.05198681640625,-0.3549165427684784,-0.14284130930900574,-0.3267727792263031
1782952301511914800,3.061914794921875,-0.3069085478782654,-0.17214034497737885,-0.2841164171695709
1782952301521841700,3.071841552734375,-0.2496553659439087,-0.15571263432502747,-0.22750718891620636
1782952301531768600,3.0817685546875,-0.20176135003566742,-0.12407480925321579,-0.15538080036640167
1782952301541695500,3.091695556640625,-0.16076970100402832,-0.06840142607688904,-0.091658815741539
1782952301551623700,3.101623779296875,-0.14707599580287933,0.010477142408490181,-0.03557131066918373
1782952301561550600,3.111550537109375,-0.1396969109773636,0.09237760305404663,0.011041732504963875
1782952301571477800,3.121477783203125,-0.12598909437656403,0.15988820791244507,0.03248550370335579
1782952301581404700,3.13140478515625,-0.09944802522659302,0.19476255774497986,0.007228884380310774
1782952301591332600,3.14133251953125,-0.05090685561299324,0.15800321102142334,-0.07113649696111679
1782952301601259800,3.151259765625,0.002290584845468402,0.06995618343353271,-0.1724950671195984
1782952301611186700,3.161186767578125,0.06741072982549667,-0.061218082904815674,-0.24596743285655975
1782952301621113900,3.17111376953125,0.13075588643550873,-0.20199410617351532,-0.26149100065231323
1782952301631041800,3.181041748046875,0.19706006348133087,-0.2928779423236847,-0.19472847878932953
1782952301640968400,3.190968505859375,0.2598363757133484,-0.31425780057907104,-0.0718797817826271
1782952301650895600,3.2008955078125,0.3006344139575958,-0.2466217577457428,0.07545347511768341
1782952301660822500,3.210822509765625,0.34276267886161804,-0.11186634749174118,0.21150851249694824
1782952301670750700,3.220750732421875,0.37169578671455383,0.05865772068500519,0.3034677505493164
1782952301680677600,3.230677734375,0.39413318037986755,0.21798133850097656,0.3494197726249695
1782952301690604800,3.240604736328125,0.4131644070148468,0.30911123752593994,0.3344773054122925
1782952301700531700,3.25053173828125,0.4227651059627533,0.2913106679916382,0.27375590801239014
1782952301710459600,3.260459716796875,0.4333420991897583,0.2052900344133377,0.2085486799478531
1782952301720386800,3.27038671875,0.43890732526779175,0.08368770778179169,0.17154406011104584
1782952301730313700,3.280313720703125,0.4312424659729004,-0.03331534564495087,0.16500040888786316
1782952301740240600,3.29024072265625,0.41873735189437866,-0.08488639444112778,0.18352694809436798
1782952301750168600,3.30016845703125,0.3959220349788666,-0.07559782266616821,0.21349763870239258
1782952301760095500,3.310095458984375,0.37498587369918823,-0.0009816411184147,0.2560085952281952
1782952301770022700,3.320022705078125,0.3742194175720215,0.11502406001091003,0.29465293884277344
1782952301779949600,3.329949462890625,0.399183064699173,0.23151232302188873,0.3238939046859741
1782952301789877800,3.339877685546875,0.4468347430229187,0.3189423084259033,0.3393501043319702
1782952301799804700,3.3498046875,0.5071976780891418,0.33688855171203613,0.34502077102661133
1782952301809731600,3.359731689453125,0.5693572163581848,0.3009132444858551,0.34599441289901733
1782952301819658500,3.369658447265625,0.6254692077636719,0.23818433284759521,0.3559442460536957
1782952301829586400,3.37958642578125,0.6598719358444214,0.1617489457130432,0.35421186685562134
1782952301839513600,3.389513671875,0.6876335144042969,0.06271637976169586,0.3468301296234131
1782952301849440500,3.3994404296875,0.7072452902793884,-0.05354738235473633,0.3334256410598755
1782952301859367700,3.40936767578125,0.7185344099998474,-0.17586131393909454,0.3056648373603821
1782952301869295600,3.419295654296875,0.7181985974311829,-0.28094297647476196,0.2840788662433624
1782952301879222500,3.429222412109375,0.6942123174667358,-0.3359633684158325,0.26407957077026367
1782952301889149700,3.439149658203125,0.6505087614059448,-0.36103010177612305,0.24893605709075928
1782952301899076600,3.44907666015625,0.6020768284797668,-0.34988105297088623,0.24227522313594818
1782952301909003500,3.45900341796875,0.5501757860183716,-0.30226078629493713,0.24676744639873505
1782952301918931500,3.468931396484375,0.514213502407074,-0.24158252775669098,0.24940955638885498
1782952301928858600,3.478858642578125,0.5021949410438538,-0.18073995411396027,0.24889397621154785
1782952301938785500,3.48878564453125,0.5050373673439026,-0.12889912724494934,0.24672776460647583
1782952301948712700,3.498712646484375,0.5156742930412292,-0.09764506667852402,0.22232787311077118
1782952301958640600,3.508640625,0.5315403342247009,-0.0736055076122284,0.25927072763442993
1782952301968567600,3.518567626953125,0.5052365660667419,-0.0947137251496315,0.22475534677505493
1782952301978494700,3.52849462890625,0.48661065101623535,-0.10705721378326416,0.19259421527385712
1782952301988421600,3.538421630859375,0.43738824129104614,-0.12061110138893127,0.15059296786785126
1782952301998349600,3.548349609375,0.3668301999568939,-0.13212448358535767,0.12694835662841797
1782952302008276700,3.55827685546875,0.2894994616508484,-0.1495484709739685,0.11303281038999557
1782952302018203400,3.568203369140625,0.22204238176345825,-0.16863028705120087,0.10604574531316757
1782952302028130600,3.578130615234375,0.16237665712833405,-0.17398084700107574,0.11139869689941406
1782952302038058500,3.58805859375,0.12468280643224716,-0.14577318727970123,0.11401205509901047
1782952302047985700,3.597985595703125,0.1261368989944458,-0.09856145828962326,0.12684689462184906
1782952302057912600,3.60791259765625,0.15617549419403076,-0.04463271424174309,0.1373104602098465
1782952302067839700,3.61783984375,0.2064911276102066,0.002124403603374958,0.15262362360954285
1782952302077767700,3.627767578125,0.26374509930610657,0.03816043585538864,0.17027053236961365
1782952302087694600,3.637694580078125,0.30169886350631714,0.06486714631319046,0.1900133490562439
1782952302097621800,3.647621826171875,0.3121166229248047,0.04675845056772232,0.18819200992584229
1782952302107548400,3.65754833984375,0.28351399302482605,-0.01318051666021347,0.1549738645553589
1782952302117476400,3.667476318359375,0.21645107865333557,-0.10417433828115463,0.10037001222372055
1782952302127403500,3.677403564453125,0.12032081931829453,-0.21265341341495514,0.0348847471177578
1782952302137330400,3.687330322265625,0.020539097487926483,-0.34361276030540466,-0.04525349661707878
1782952302147257600,3.697257568359375,-0.07721542567014694,-0.4278927445411682,-0.12172909826040268
1782952302157185500,3.707185546875,-0.1697181910276413,-0.4524276554584503,-0.15979792177677155
1782952302167112700,3.71711279296875,-0.24065548181533813,-0.3778626024723053,-0.135574072599411
1782952302177039600,3.72703955078125,-0.2719457745552063,-0.20205189287662506,-0.05914587900042534
1782952302186966800,3.736966796875,-0.30428585410118103,-0.02184324711561203,0.028478246182203293
1782952302196894700,3.746894775390625,-0.3020482659339905,0.14747095108032227,0.09640989452600479
1782952302206821600,3.756821533203125,-0.24979199469089508,0.2920459806919098,0.12084146589040756
1782952302216748500,3.76674853515625,-0.18327981233596802,0.36884966492652893,0.08629840612411499
1782952302226675500,3.776675537109375,-0.16602465510368347,0.3160091042518616,-0.014434066601097584
1782952302236603400,3.786603271484375,-0.1807098537683487,0.14968882501125336,-0.12083400785923004
1782952302246530600,3.796530517578125,-0.22360698878765106,-0.09088463336229324,-0.19840683043003082
1782952302256457500,3.80645751953125,-0.28126150369644165,-0.32535624504089355,-0.2336103618144989
1782952302266384600,3.816384521484375,-0.32822367548942566,-0.46734189987182617,-0.2286190688610077
1782952302276312600,3.8263125,-0.3791917860507965,-0.4534077048301697,-0.21220307052135468
1782952302286239700,3.83623974609375,-0.44875141978263855,-0.4159300923347473,-0.2037760317325592
1782952302296166700,3.846166748046875,-0.5057891607284546,-0.3249290883541107,-0.18703193962574005
1782952302306093600,3.856093505859375,-0.5330029129981995,-0.19737805426120758,-0.1838340163230896
1782952302316021800,3.866021728515625,-0.5533811450004578,-0.086961530148983,-0.19324029982089996
1782952302325948400,3.875948486328125,-0.5788127779960632,-0.008728244341909885,-0.20702987909317017
1782952302335875600,3.88587548828125,-0.6046158671379089,0.02353701740503311,-0.22010865807533264
1782952302345802500,3.895802490234375,-0.6356635093688965,0.013744041323661804,-0.23144973814487457
1782952302355730400,3.90573046875,-0.667231023311615,-0.03178083151578903,-0.23788340389728546
1782952302365657600,3.91565771484375,-0.6958027482032776,-0.07111945003271103,-0.250680148601532
1782952302375584500,3.92558447265625,-0.7223225235939026,-0.0876089408993721,-0.27456045150756836
1782952302385511700,3.93551171875,-0.7463412880897522,-0.09836065769195557,-0.3110518753528595
1782952302395439600,3.945439697265625,-0.7577266097068787,-0.11743927747011185,-0.3511772155761719
1782952302405366800,3.95536669921875,-0.7483456134796143,-0.12015517055988312,-0.3698456883430481
1782952302415293700,3.965293701171875,-0.7222636342048645,-0.10558714717626572,-0.36834394931793213
1782952302425220600,3.975220703125,-0.6772665977478027,-0.10515491664409637,-0.3336797058582306
1782952302435148500,3.9851484375,-0.6299931406974792,-0.12658457458019257,-0.28590577840805054
1782952302445075500,3.995075439453125,-0.5885809659957886,-0.16339345276355743,-0.22775059938430786
1782952302455002600,4.005002685546875,-0.5513571500778198,-0.18662287294864655,-0.17835642397403717
1782952302464929500,4.014929443359375,-0.5242898464202881,-0.2108648270368576,-0.1403038501739502
1782952302474857500,4.024857421875,-0.5129381418228149,-0.23926371335983276,-0.12371954321861267
1782952302484784600,4.03478466796875,-0.5159783959388733,-0.2412930428981781,-0.12173149734735489
1782952302494711600,4.044711669921875,-0.529302716255188,-0.22230391204357147,-0.1441931277513504
1782952302504638700,4.054638671875,-0.5512540936470032,-0.19769975543022156,-0.18118390440940857
1782952302514566700,4.064566650390625,-0.5705668330192566,-0.1707373857498169,-0.2226914018392563
1782952302524493600,4.07449365234375,-0.5870323181152344,-0.13649925589561462,-0.2737375497817993
1782952302534420500,4.08442041015625,-0.5961318016052246,-0.09361250698566437,-0.3249535858631134
1782952302544347600,4.09434765625,-0.6042731404304504,-0.034988611936569214,-0.37311550974845886
1782952302554275600,4.104275634765625,-0.6097820997238159,0.04903518781065941,-0.41215160489082336
1782952302564202500,4.114202392578125,-0.6000581383705139,0.14002980291843414,-0.42696598172187805
1782952302574129700,4.124129638671875,-0.5779266953468323,0.20207959413528442,-0.4138786792755127
1782952302584056600,4.134056640625,-0.5358032584190369,0.22439049184322357,-0.3919914662837982
1782952302593983700,4.143983642578125,-0.4697187542915344,0.21993929147720337,-0.3582335114479065
1782952302603911700,4.15391162109375,-0.3830517828464508,0.21114899218082428,-0.30070337653160095
1782952302613838600,4.163838623046875,-0.29089680314064026,0.19826515018939972,-0.23861896991729736
1782952302623765500,4.173765625,-0.19979114830493927,0.1882639229297638,-0.19210605323314667
1782952302633692400,4.1836923828125,-0.10070983320474625,0.18018175661563873,-0.14750823378562927
1782952302643620600,4.19362060546875,-0.02167147397994995,0.18816404044628143,-0.11374733597040176
1782952302653547500,4.203547607421875,0.04025554284453392,0.19208022952079773,-0.09962086379528046
1782952302663474400,4.213474365234375,0.07472962886095047,0.18962612748146057,-0.09580162912607193
1782952302673401600,4.223401611328125,0.09802670031785965,0.18375198543071747,-0.10523827373981476
1782952302683329500,4.23332958984375,0.1060718446969986,0.1693488210439682,-0.13797491788864136
1782952302693256700,4.243256591796875,0.09210515767335892,0.12687139213085175,-0.19162535667419434
1782952302703183600,4.25318359375,0.06773723661899567,0.06920517235994339,-0.2638542950153351
1782952302713110800,4.26311083984375,0.04009602218866348,-0.012525911442935467,-0.32799091935157776
1782952302723038700,4.273038818359375,0.020167052745819092,-0.10506809502840042,-0.34906238317489624
1782952302732965400,4.28296533203125,0.011828962713479996,-0.15917980670928955,-0.2809158265590668
1782952302742892500,4.292892578125,0.013912620022892952,-0.13293062150478363,-0.1259150505065918
1782952302752819500,4.3028193359375,0.016280969604849815,-0.044386640191078186,0.040525320917367935
1782952302762747600,4.31274755859375,0.044251084327697754,0.07007762044668198,0.17177201807498932
1782952302772674600,4.322674560546875,0.07959841936826706,0.18339352309703827,0.24622096121311188
1782952302782601500,4.3326015625,0.13256283104419708,0.2542716860771179,0.2622973918914795
1782952302792528600,4.342528564453125,0.19478200376033783,0.26558321714401245,0.2319115251302719
1782952302802456600,4.35245654296875,0.2600869834423065,0.22459688782691956,0.17898546159267426
1782952302812383700,4.3623837890625,0.31147798895835876,0.15954865515232086,0.11901427060365677
1782952302822310400,4.372310302734375,0.34455180168151855,0.09177226573228836,0.06373023986816406
1782952302832237600,4.382237548828125,0.3489004671573639,0.05271434411406517,0.03514067828655243
1782952302842165500,4.39216552734375,0.33612313866615295,0.06142740696668625,0.020113524049520493
1782952302852092400,4.402092529296875,0.3238217532634735,0.10372346639633179,0.017964620143175125
1782952302862019600,4.41201953125,0.3280622959136963,0.1761728972196579,0.03604188933968544
1782952302871946500,4.421946533203125,0.3563876748085022,0.24507686495780945,0.07258152216672897
1782952302881874700,4.431874755859375,0.40463775396347046,0.3084750175476074,0.13917572796344757
1782952302891801600,4.441801513671875,0.4714953601360321,0.3463888466358185,0.22408156096935272
1782952302901728500,4.451728515625,0.5591199994087219,0.36386528611183167,0.30568641424179077
1782952302911655400,4.461655517578125,0.6491537690162659,0.3521713614463806,0.37901097536087036
1782952302921583600,4.47158349609375,0.7331144213676453,0.311311274766922,0.4202342927455902
1782952302931510500,4.481510498046875,0.8056315183639526,0.22278328239917755,0.41622650623321533
1782952302941437400,4.4914375,0.8679367303848267,0.08612769097089767,0.3704041540622711
1782952302951364600,4.501364501953125,0.9178051948547363,-0.051602739840745926,0.3233461081981659
1782952302961292500,4.51129248046875,0.9621034264564514,-0.17103245854377747,0.286424845457077
1782952302971219500,4.521219482421875,0.9862364530563354,-0.24597488343715668,0.25692233443260193
1782952302981146600,4.531146728515625,0.9955580234527588,-0.2793216407299042,0.2286853790283203
1782952302991073500,4.541073486328125,0.9809505939483643,-0.2854975163936615,0.1852702498435974
1782952303001001500,4.55100146484375,0.9336339831352234,-0.27855387330055237,0.14759212732315063
1782952303010928600,4.5609287109375,0.8631118535995483,-0.23524793982505798,0.12447401881217957
1782952303020855600,4.57085546875,0.777213990688324,-0.15253041684627533,0.12031415849924088
1782952303030782500,4.580782470703125,0.6934988498687744,-0.060502227395772934,0.13321584463119507
1782952303040709400,4.59070947265625,0.6198182702064514,0.03503042086958885,0.1518222838640213
1782952303050637600,4.600637451171875,0.5551705360412598,0.10952063649892807,0.14409379661083221
1782952303060564500,4.610564453125,0.5195209383964539,0.1564742922782898,0.14207938313484192
1782952303070491600,4.62049169921875,0.46881169080734253,0.1575630009174347,0.13133591413497925
1782952303080418600,4.63041845703125,0.422566682100296,0.16604888439178467,0.11235424131155014
1782952303090346500,4.640346435546875,0.39869171380996704,0.18867909908294678,0.09869461506605148
1782952303100273700,4.650273681640625,0.37836754322052,0.18250775337219238,0.07289710640907288
1782952303110200600,4.66020068359375,0.36100614070892334,0.16788727045059204,0.045871883630752563
1782952303120127500,4.67012744140625,0.337686151266098,0.13252928853034973,0.010014817118644714
1782952303130055400,4.680055419921875,0.31715691089630127,0.08816234767436981,-0.02948465570807457
1782952303139982300,4.689982421875,0.2870576083660126,0.024750087410211563,-0.07474001497030258
1782952303149909500,4.699909423828125,0.2694445252418518,-0.06241357699036598,-0.11918844282627106
1782952303159836400,4.70983642578125,0.25657400488853455,-0.14351056516170502,-0.11439394950866699
1782952303169764600,4.7197646484375,0.24361585080623627,-0.19022932648658752,-0.05782468244433403
1782952303179691500,4.72969140625,0.2387997955083847,-0.21094419062137604,0.01822507567703724
1782952303189618700,4.73961865234375,0.2475741058588028,-0.21050263941287994,0.08958234637975693
1782952303199545600,4.749545654296875,0.2564408481121063,-0.19621238112449646,0.12819285690784454
1782952303209473500,4.7594736328125,0.25249484181404114,-0.14813780784606934,0.1340390294790268
1782952303219400700,4.769400634765625,0.23466497659683228,-0.08426401764154434,0.11760439723730087
1782952303229327400,4.779327392578125,0.1955689638853073,-0.012930712662637234,0.09926346689462662
1782952303239254500,4.789254638671875,0.1465606838464737,0.05395963788032532,0.07636081427335739
1782952303249182500,4.799182373046875,0.09419573843479156,0.08193294703960419,0.05148928984999657
1782952303259109400,4.809109375,0.0357326976954937,0.06350786983966827,0.016511332243680954
1782952303269036500,4.81903662109375,-0.02076413482427597,0.012178635224699974,-0.018185395747423172
1782952303278963500,4.82896337890625,-0.07475227117538452,-0.03145166486501694,-0.04428490623831749
1782952303288891600,4.8388916015625,-0.12891164422035217,-0.06870502978563309,-0.0607600212097168
1782952303298818600,4.848818603515625,-0.1703786551952362,-0.0551050640642643,-0.053703442215919495
1782952303308745700,4.858745849609375,-0.19876210391521454,0.0358610600233078,-0.011184743605554104
1782952303318672600,4.868672607421875,-0.2112366110086441,0.16932883858680725,0.06808105111122131
1782952303328600600,4.8786005859375,-0.20322422683238983,0.2952097952365875,0.16322727501392365
1782952303338527500,4.888527587890625,-0.17588581144809723,0.38305631279945374,0.2564357817173004
1782952303348454400,4.898454345703125,-0.13332316279411316,0.37254321575164795,0.3215082585811615
1782952303358381600,4.908381591796875,-0.09611827880144119,0.2921868562698364,0.35580337047576904
1782952303368308500,4.91830859375,-0.07927457988262177,0.1692606657743454,0.3585118055343628
1782952303378236400,4.928236328125,-0.08481555432081223,0.02845507673919201,0.3260449469089508
1782952303388163600,4.93816357421875,-0.12385457009077072,-0.08456575125455856,0.26736193895339966
1782952303398090500,4.948090576171875,-0.19358597695827484,-0.14270442724227905,0.18087418377399445
1782952303408017700,4.958017578125,-0.29167500138282776,-0.1604892760515213,0.08115717023611069
1782952303417945600,4.967945556640625,-0.41343259811401367,-0.13960956037044525,-0.012911271303892136
1782952303427872800,4.977872802734375,-0.540206789970398,-0.06739714741706848,-0.08138593286275864
1782952303437799400,4.98779931640625,-0.6527841687202454,0.027052389457821846,-0.13732962310314178
1782952303447726600,4.9977265625,-0.743737518787384,0.1098380833864212,-0.18442682921886444
1782952303457654500,5.007654541015625,-0.8137829303741455,0.19613409042358398,-0.22033768892288208
1782952303467581400,5.01758154296875,-0.8557535409927368,0.23965546488761902,-0.231663316488266
1782952303477508600,5.027508544921875,-0.8782628774642944,0.2433098554611206,-0.21291173994541168
1782952303487435500,5.037435546875,-0.8803656697273254,0.2270376831293106,-0.15784795582294464
1782952303497363500,5.047363525390625,-0.8762494921684265,0.20580455660820007,-0.07763540744781494
1782952303507290600,5.05729052734375,-0.8715924024581909,0.1956842839717865,0.009615609422326088
1782952303517217500,5.067217529296875,-0.8732350468635559,0.1764219105243683,0.07650462538003922
1782952303527144400,5.07714453125,-0.8677185773849487,0.16089248657226562,0.10957016795873642
1782952303537072600,5.08707275390625,-0.8655907511711121,0.13838957250118256,0.11274998635053635
1782952303546999600,5.09699951171875,-0.8534845113754272,0.10852168500423431,0.09148117899894714
1782952303556926500,5.106926513671875,-0.8433200716972351,0.0734555721282959,0.05131565034389496
1782952303566853600,5.116853515625,-0.8338509202003479,0.022541262209415436,-0.0032775523141026497
1782952303576781600,5.126781494140625,-0.8299416303634644,-0.019157715141773224,-0.06803524494171143
1782952303586708500,5.13670849609375,-0.8360741138458252,-0.03689490258693695,-0.12933588027954102
1782952303596635600,5.1466357421875,-0.833554208278656,-0.03927842900156975,-0.18755897879600525
1782952303606562600,5.1565625,-0.8203060626983643,-0.047755271196365356,-0.23530253767967224
1782952303616490500,5.166490478515625,-0.7966023683547974,-0.041422806680202484,-0.2649933099746704
1782952303626417700,5.176417724609375,-0.7666209936141968,-0.036307141184806824,-0.2800023555755615
1782952303636344300,5.18634423828125,-0.7313788533210754,-0.027098461985588074,-0.2935008704662323
1782952303646271500,5.196271484375,-0.709062933921814,-0.012260128743946552,-0.31352144479751587
1782952303656198400,5.206198486328125,-0.6829388737678528,-0.00953997578471899,-0.3478253483772278
1782952303666126600,5.216126708984375,-0.6468546390533447,-0.021448034793138504,-0.3821830451488495
1782952303676053500,5.226053466796875,-0.5876706838607788,-0.03433720022439957,-0.41457560658454895
1782952303685980700,5.235980712890625,-0.5130992531776428,-0.05438308045268059,-0.4076857566833496
1782952303695907600,5.245907470703125,-0.44021013379096985,-0.05760683864355087,-0.3627281188964844
1782952303705835500,5.25583544921875,-0.37886902689933777,-0.04748363047838211,-0.2904376983642578
1782952303715762700,5.2657626953125,-0.3423898220062256,-0.033121202141046524,-0.1999536007642746
1782952303725689600,5.275689697265625,-0.31399333477020264,-0.04283588007092476,-0.11831918358802795
1782952303735617800,5.28561767578125,-0.3058733642101288,-0.0332021601498127,-0.042154643684625626
1782952303745546000,5.2955458984375,-0.3055788278579712,0.005119128152728081,0.013471866957843304
1782952303755473000,5.305472900390625,-0.3022783696651459,0.05654903128743172,0.03930479660630226
1782952303765399800,5.31539990234375,-0.2987757921218872,0.10932090133428574,0.042100049555301666
1782952303775326700,5.32532666015625,-0.2857830226421356,0.16082057356834412,0.03050224855542183
1782952303785252900,5.3352529296875,-0.26776406168937683,0.2134464979171753,0.03519047796726227
1782952303795179800,5.3451796875,-0.24304699897766113,0.24228906631469727,0.055692024528980255
1782952303805107000,5.35510693359375,-0.1976936310529709,0.2341698855161667,0.08518093824386597
1782952303815033600,5.36503369140625,-0.13761724531650543,0.21053965389728546,0.10762473195791245
1782952303824961800,5.3749619140625,-0.059899020940065384,0.19531729817390442,0.11853090673685074
1782952303834888700,5.384888671875,0.01588921807706356,0.17888186872005463,0.13057905435562134
1782952303844815600,5.394815673828125,0.07799546420574188,0.16158783435821533,0.12970420718193054
1782952303854742800,5.40474267578125,0.12560026347637177,0.1105872318148613,0.07615415751934052
1782952303864670700,5.414670654296875,0.158194437623024,0.03418726474046707,-0.028600219637155533
1782952303874598000,5.424597900390625,0.182330921292305,-0.049205098301172256,-0.14027827978134155
1782952303884524800,5.43452490234375,0.20803256332874298,-0.1247778832912445,-0.23329424858093262
1782952303894452000,5.444451904296875,0.23072615265846252,-0.18242840468883514,-0.2925250828266144
1782952303904380000,5.4543798828125,0.24356338381767273,-0.20199383795261383,-0.27783480286598206
1782952303914306800,5.464306884765625,0.25267407298088074,-0.13043417036533356,-0.1939242035150528
1782952303924233700,5.474233642578125,0.2681227922439575,0.023120231926441193,-0.058883823454380035
1782952303934160600,5.48416064453125,0.29869961738586426,0.18341536819934845,0.0918060839176178
1782952303944088600,5.494088623046875,0.34649989008903503,0.29875102639198303,0.21828946471214294
1782952303954015700,5.504015625,0.39420270919799805,0.341530442237854,0.2927541136741638
1782952303963942700,5.513942626953125,0.4213411211967468,0.2978498041629791,0.30260327458381653
1782952303973869800,5.523869873046875,0.42985257506370544,0.20593106746673584,0.26984187960624695
1782952303983797800,5.5337978515625,0.4334489107131958,0.11224691569805145,0.20575635135173798
1782952303993725000,5.543724853515625,0.4423776865005493,0.03947870060801506,0.12881790101528168
1782952304003651800,5.55365185546875,0.4769130349159241,0.00911626685410738,0.06734974682331085
1782952304013579000,5.5635791015625,0.5103708505630493,0.03003433160483837,0.047444745898246765
1782952304023505700,5.573505615234375,0.5466100573539734,0.07623058557510376,0.06587301939725876
1782952304033433600,5.58343359375,0.5905120372772217,0.1268567442893982,0.11643446981906891
1782952304043360800,5.59336083984375,0.6327633261680603,0.16817303001880646,0.19538147747516632
1782952304053287700,5.60328759765625,0.6788309812545776,0.20409800112247467,0.27688512206077576
1782952304063214800,5.61321484375,0.7292603254318237,0.22164903581142426,0.3420335054397583
1782952304073142800,5.623142822265625,0.7862847447395325,0.2036583125591278,0.3705572783946991
1782952304083069700,5.633069580078125,0.8556725978851318,0.1422269195318222,0.37296345829963684
1782952304092996900,5.642996826171875,0.9254031777381897,0.035652268677949905,0.35020700097084045
1782952304102923800,5.652923828125,0.9727688431739807,-0.0817614421248436,0.3222685754299164
1782952304112852000,5.66285205078125,0.9959346055984497,-0.1982574313879013,0.293192982673645
1782952304122779000,5.67277880859375,0.9917582273483276,-0.2938574552536011,0.2601327896118164
1782952304132705800,5.682705810546875,0.9626251459121704,-0.36601847410202026,0.20677368342876434
1782952304142632700,5.6926328125,0.9092079997062683,-0.4001029431819916,0.14417554438114166
1782952304152560600,5.702560546875,0.8420222997665405,-0.3850475549697876,0.09110114723443985
1782952304162487800,5.71248779296875,0.7506577372550964,-0.3205753564834595,0.04117752984166145
1782952304172414700,5.722414794921875,0.6501647233963013,-0.2311069816350937,-0.008595085702836514
1782952304182342000,5.732341796875,0.5398946404457092,-0.1113600805401802,-0.04891321435570717
1782952304192270800,5.742270751953125,0.4529792070388794,-0.00484189298003912,-0.00436039362102747
1782952304202198800,5.75219873046875,0.3460144102573395,0.0621722936630249,-0.004989432170987129
1782952304212125700,5.762125732421875,0.30570584535598755,0.14845791459083557,0.005405151750892401
1782952304222052900,5.772052978515625,0.3162967264652252,0.23025263845920563,-0.00678227236494422
1782952304231979800,5.781979736328125,0.3526405990123749,0.3059418201446533,-0.014317953027784824
1782952304241907700,5.79190771484375,0.38736504316329956,0.384496808052063,-0.007623032201081514
1782952304251835000,5.8018349609375,0.42840540409088135,0.4264772832393646,-0.0005163869354873896
1782952304261761800,5.81176171875,0.46415090560913086,0.41523075103759766,0.024896828457713127
1782952304271688700,5.821688720703125,0.48840031027793884,0.346803218126297,0.04795314371585846
1782952304281616600,5.83161669921875,0.49247628450393677,0.2454417198896408,0.08833944797515869
1782952304291543800,5.841543701171875,0.4878849685192108,0.13279692828655243,0.13280224800109863
1782952304301470700,5.851470703125,0.4707488715648651,0.023238476365804672,0.16474580764770508
1782952304311398000,5.86139794921875,0.46463000774383545,-0.06139358505606651,0.18723833560943604
1782952304321324800,5.87132470703125,0.46037399768829346,-0.11660464107990265,0.20172619819641113
1782952304331252700,5.881252685546875,0.4512079358100891,-0.12801681458950043,0.20334459841251373
1782952304341180000,5.891179931640625,0.43641752004623413,-0.1208510547876358,0.20318427681922913
1782952304351106800,5.90110693359375,0.40915554761886597,-0.10198096185922623,0.20459042489528656
1782952304361033700,5.91103369140625,0.36405810713768005,-0.07120014727115631,0.21025443077087402
1782952304370962000,5.9209619140625,0.31123244762420654,-0.05896931141614914,0.19453273713588715
1782952304380888600,5.930888671875,0.24961702525615692,-0.0791478157043457,0.16172978281974792
1782952304390815700,5.940815673828125,0.18047204613685608,-0.11910561472177505,0.09884428977966309
1782952304400742700,5.95074267578125,0.109359510242939,-0.16388534009456635,0.021523667499423027
1782952304410670800,5.9606708984375,0.030072415247559547,-0.19282324612140656,-0.05029432848095894
1782952304420597800,5.97059765625,-0.04111760854721069,-0.20935668051242828,-0.10334715992212296
1782952304430525000,5.98052490234375,-0.10581937432289124,-0.1921667754650116,-0.1296224445104599
1782952304440451800,5.990451904296875,-0.1672545075416565,-0.14481763541698456,-0.12151791155338287
1782952304450379800,6.0003798828125,-0.21253730356693268,-0.07459088414907455,-0.07231840491294861
1782952304460307000,6.010306884765625,-0.25169187784194946,0.02521960251033306,0.004169711377471685
1782952304470233600,6.020233642578125,-0.27711522579193115,0.12962935864925385,0.08428692072629929
1782952304480160800,6.030160888671875,-0.29592886567115784,0.1945657581090927,0.14281600713729858
1782952304490088700,6.040088623046875,-0.30756980180740356,0.21149839460849762,0.17790742218494415
1782952304500015600,6.050015625,-0.31715771555900574,0.17316272854804993,0.17673934996128082
1782952304509942800,6.05994287109375,-0.3300956189632416,0.08858472853899002,0.14339470863342285
1782952304519869700,6.06986962890625,-0.346838116645813,-0.021885590627789497,0.07786736637353897
1782952304529798000,6.0797978515625,-0.36138641834259033,-0.1331721693277359,0.006595584563910961
1782952304539724800,6.089724853515625,-0.3808954060077667,-0.20939317345619202,-0.04766019806265831
1782952304549652000,6.09965185546875,-0.4149726927280426,-0.26126623153686523,-0.08551996201276779
1782952304559579000,6.109578857421875,-0.4547557830810547,-0.2788742482662201,-0.099309541285038
1782952304569506800,6.1195068359375,-0.4913273751735687,-0.25964489579200745,-0.09069927781820297
1782952304579433700,6.129433837890625,-0.5234096646308899,-0.2142217457294464,-0.06199066713452339
1782952304589360600,6.139360595703125,-0.5391817092895508,-0.15906554460525513,-0.025301894173026085
1782952304599287800,6.149287841796875,-0.5435495972633362,-0.12826742231845856,0.004833903629332781
1782952304609214700,6.159214599609375,-0.5453898310661316,-0.11614764481782913,0.01805836334824562
1782952304619142700,6.169142578125,-0.5610297918319702,-0.11362429708242416,0.0169715266674757
1782952304629069800,6.17906982421875,-0.5854887962341309,-0.1360023021697998,-0.0076059880666434765
1782952304638996700,6.188996826171875,-0.617533802986145,-0.1750253438949585,-0.052074920386075974
1782952304648924000,6.198923828125,-0.6504038572311401,-0.20417258143424988,-0.13591362535953522
1782952304658851800,6.208851806640625,-0.6868228316307068,-0.22541235387325287,-0.22948431968688965
1782952304668779000,6.218779052734375,-0.7103934288024902,-0.21733711659908295,-0.31476911902427673
1782952304678705700,6.22870556640625,-0.7239670157432556,-0.19774876534938812,-0.3684139847755432
1782952304688632800,6.2386328125,-0.7169349193572998,-0.16943563520908356,-0.38047996163368225
1782952304698560800,6.248560791015625,-0.6910184025764465,-0.12194028496742249,-0.34628576040267944
1782952304708487700,6.25848779296875,-0.6579605937004089,-0.06925390660762787,-0.2920001745223999
1782952304718414800,6.268414794921875,-0.6168016791343689,-0.025243304669857025,-0.23774118721485138
1782952304728341800,6.278341796875,-0.5812886953353882,0.007848069071769714,-0.20152965188026428
1782952304738269200,6.288269287109375,-0.5525537133216858,0.033176593482494354,-0.19134199619293213
1782952304748196000,6.298196044921875,-0.5277541279792786,0.0344780832529068,-0.21200039982795715
1782952304758123300,6.308123291015625,-0.4992297887802124,0.016705743968486786,-0.25370895862579346
1782952304768050200,6.31805029296875,-0.4889105558395386,-0.018428541719913483,-0.31030914187431335
1782952304777978000,6.32797802734375,-0.4880165457725525,-0.0700501874089241,-0.3672754764556885
1782952304787905300,6.3379052734375,-0.49515247344970703,-0.11630530655384064,-0.40937820076942444
1782952304797832200,6.347832275390625,-0.5039079189300537,-0.15155437588691711,-0.43283745646476746
1782952304807759000,6.357759033203125,-0.5114907026290894,-0.152424156665802,-0.4346427917480469
1782952304817687300,6.367687255859375,-0.5072506666183472,-0.12985466420650482,-0.4099006950855255
1782952304827614000,6.377614013671875,-0.5076400637626648,-0.09576354175806046,-0.37800881266593933
1782952304837541000,6.387541015625,-0.4985991418361664,-0.03577930107712746,-0.3421299159526825
1782952304847468000,6.397468017578125,-0.4929457902908325,0.037409424781799316,-0.30319929122924805
1782952304857395200,6.407395263671875,-0.4837653338909149,0.09015172719955444,-0.2575726807117462
1782952304867323100,6.4173232421875,-0.46509310603141785,0.11602247506380081,-0.2198607176542282
1782952304877250300,6.427250244140625,-0.4347197711467743,0.12123268097639084,-0.1890452802181244
1782952304887177200,6.43717724609375,-0.3868928551673889,0.09727302193641663,-0.1725776344537735
1782952304897104400,6.4471044921875,-0.3257195055484772,0.049321211874485016,-0.14958922564983368
1782952304907032300,6.4570322265625,-0.2525734007358551,-0.0018407768802717328,-0.11457424610853195
1782952304916959000,6.466958984375,-0.17973487079143524,-0.03386741876602173,-0.07775604724884033
1782952304926886100,6.47688623046875,-0.10742126405239105,-0.04530090093612671,-0.04951642081141472
1782952304936813000,6.48681298828125,-0.0492253378033638,-0.04794329032301903,-0.039795882999897
1782952304946741000,6.496740966796875,-0.0028008464723825455,-0.05409545823931694,-0.0597970224916935
1782952304956668200,6.506668212890625,0.03470950946211815,-0.08084771037101746,-0.09298426657915115
1782952304966595000,6.516594970703125,0.06354381889104843,-0.12361035495996475,-0.13495755195617676
1782952304976522200,6.526522216796875,0.08808005601167679,-0.1836121678352356,-0.16862496733665466
1782952304986450200,6.5364501953125,0.11276382952928543,-0.2447682023048401,-0.16343925893306732
1782952304996377300,6.54637744140625,0.14290203154087067,-0.2573535144329071,-0.10668250173330307
1782952305006304300,6.55630419921875,0.1721523255109787,-0.21331174671649933,-0.00022077605535741895
1782952305016231200,6.566231201171875,0.19890324771404266,-0.11703953891992569,0.12962697446346283
1782952305026159000,6.5761591796875,0.22736898064613342,0.010787933133542538,0.25462856888771057
1782952305036086000,6.5860859375,0.25590845942497253,0.15375706553459167,0.3475781977176666
1782952305046013200,6.59601318359375,0.2877558767795563,0.2662503123283386,0.3791012465953827
1782952305055940000,6.605940185546875,0.309928297996521,0.30164292454719543,0.35541802644729614
1782952305065868000,6.615867919921875,0.3292117118835449,0.2570142149925232,0.3015744984149933
1782952305075795200,6.625795166015625,0.3452276885509491,0.1673509180545807,0.23356987535953522
1782952305085722000,6.63572216796875,0.3608279526233673,0.0671372264623642,0.17116588354110718
1782952305095649300,6.645649169921875,0.38738954067230225,-0.01113254576921463,0.1249464601278305
1782952305105576200,6.655576171875,0.40727055072784424,-0.051960136741399765,0.09504928439855576
1782952305115504400,6.66550439453125,0.4275641143321991,-0.05036783218383789,0.10015270113945007
1782952305125431000,6.67543115234375,0.4506042003631592,-0.002210423583164811,0.13736771047115326
1782952305135358200,6.685358154296875,0.4627716541290283,0.0726824626326561,0.20787596702575684
1782952305145285000,6.69528515625,0.48757871985435486,0.1421603411436081,0.2896896004676819
1782952305155213000,6.705213134765625,0.5224488377571106,0.18534216284751892,0.3556363880634308
1782952305165140200,6.71514013671875,0.5704682469367981,0.20666556060314178,0.38956692814826965
1782952305175067100,6.725067138671875,0.6153129935264587,0.2105710804462433,0.3965761065483093
1782952305184994300,6.734994384765625,0.6562638878822327,0.19895809888839722,0.38635143637657166
1782952305194922200,6.744922119140625,0.6885983943939209,0.18193064630031586,0.36872103810310364
1782952305204849200,6.75484912109375,0.7181251049041748,0.15542687475681305,0.3558262884616852
1782952305214776300,6.7647763671875,0.732685387134552,0.11878257989883423,0.3372909426689148
1782952305224703000,6.774702880859375,0.7286413908004761,0.11669359356164932,0.30494579672813416
1782952305234631200,6.784631103515625,0.7115002274513245,0.14010144770145416,0.25479555130004883
1782952305244558000,6.79455810546875,0.6853154897689819,0.14630208909511566,0.21187816560268402
1782952305254485200,6.8044853515625,0.6606050729751587,0.14750877022743225,0.2051078826189041
1782952305264412200,6.814412109375,0.6394249796867371,0.16180114448070526,0.22957034409046173
1782952305274340000,6.824340087890625,0.6245493292808533,0.17160743474960327,0.26462259888648987
1782952305284267300,6.834267333984375,0.6238606572151184,0.16319425404071808,0.2658519148826599
1782952305294194200,6.844194091796875,0.6616490483283997,0.12905065715312958,0.29776376485824585
1782952305304121300,6.854121337890625,0.7001439929008484,0.03505998104810715,0.27783453464508057
1782952305314049300,6.86404931640625,0.7404256463050842,-0.0740092471241951,0.22312575578689575
1782952305323976200,6.87397607421875,0.779531717300415,-0.164772167801857,0.1815279871225357
1782952305333903000,6.883903076171875,0.7890040874481201,-0.2646702826023102,0.15883199870586395
1782952305343830000,6.893830078125,0.7514681816101074,-0.328644722700119,0.15095463395118713
1782952305353757200,6.903757080078125,0.675829291343689,-0.3164125680923462,0.14563389122486115
1782952305363685000,6.91368505859375,0.575543999671936,-0.2479749172925949,0.14365170896053314
1782952305373612300,6.9236123046875,0.4607159495353699,-0.14426477253437042,0.13285578787326813
1782952305383539200,6.933539306640625,0.35500282049179077,-0.015043930150568485,0.14493827521800995
1782952305393466000,6.943466064453125,0.2677430212497711,0.10162010043859482,0.18305717408657074
1782952305403394300,6.953394287109375,0.1861610859632492,0.18950548768043518,0.22718468308448792
1782952305413321200,6.9633212890625,0.1284940540790558,0.229346364736557,0.25891146063804626
1782952305423248100,6.973248046875,0.09999050945043564,0.23576858639717102,0.2548283040523529
1782952305433175000,6.983175048828125,0.10234607756137848,0.21951638162136078,0.23736488819122314
1782952305443103000,6.99310302734375,0.13000433146953583,0.1841685026884079,0.21895365417003632
1782952305453030100,7.003030029296875,0.1543581485748291,0.1447710394859314,0.22062824666500092
1782952305462957000,7.01295703125,0.1774488240480423,0.08132388442754745,0.2282523512840271
1782952305472884200,7.02288427734375,0.19371327757835388,-0.001645300886593759,0.2524160146713257
1782952305482812200,7.032812255859375,0.1769886314868927,-0.056841976940631866,0.2695486545562744
1782952305492739300,7.0427392578125,0.13226908445358276,-0.07987459003925323,0.274292528629303
1782952305502666200,7.052666259765625,0.061586134135723114,-0.07309338450431824,0.2565617561340332
1782952305512593200,7.06259326171875,-0.026076873764395714,-0.026391128078103065,0.20265430212020874
1782952305522521300,7.072521240234375,-0.12938249111175537,0.04842106252908707,0.1127350702881813
1782952305532448000,7.082447998046875,-0.24617914855480194,0.14169295132160187,0.005191565956920385
1782952305542375200,7.092375244140625,-0.3645782172679901,0.20453263819217682,-0.12708604335784912
1782952305552302000,7.102302001953125,-0.48382046818733215,0.17896123230457306,-0.2608387768268585
1782952305562230000,7.11222998046875,-0.5934809446334839,0.11114702373743057,-0.38514450192451477
1782952305572157200,7.1221572265625,-0.6952232718467712,0.01961737684905529,-0.4832649230957031
1782952305582084000,7.132083984375,-0.7966992855072021,-0.03375210613012314,-0.5370208621025085
1782952305592011300,7.14201123046875,-0.8677045106887817,-0.02605476975440979,-0.5452393293380737
1782952305601938200,7.151938232421875,-0.8960594534873962,0.031088409945368767,-0.4982127249240875
1782952305611866000,7.1618662109375,-0.8822128772735596,0.15201322734355927,-0.41446590423583984
1782952305621793300,7.171793212890625,-0.8370136618614197,0.3264135420322418,-0.2849254906177521
1782952305631720200,7.18172021484375,-0.7634321451187134,0.45573022961616516,-0.16370505094528198
1782952305641647000,7.191647216796875,-0.6804049015045166,0.501874566078186,-0.07393281161785126
1782952305651575000,7.201574951171875,-0.6056390404701233,0.4601723849773407,-0.037932999432086945
1782952305661502200,7.211502197265625,-0.5548613667488098,0.31689274311065674,-0.047997087240219116
1782952305671429000,7.22142919921875,-0.5269370675086975,0.10373784601688385,-0.09130807220935822
1782952305681356300,7.231356201171875,-0.5196232199668884,-0.1226622685790062,-0.1424540877342224
1782952305691284200,7.2412841796875,-0.5295639634132385,-0.3040328621864319,-0.18322867155075073
1782952305701211100,7.251211181640625,-0.5663736462593079,-0.38436445593833923,-0.20600563287734985
1782952305711138300,7.26113818359375,-0.6250028610229492,-0.3871602416038513,-0.20514915883541107
1782952305721065200,7.271065185546875,-0.6808421611785889,-0.31694281101226807,-0.17189985513687134
1782952305730993200,7.2809931640625,-0.7207709550857544,-0.18497250974178314,-0.11203412711620331
1782952305740919600,7.29091943359375,-0.7439106106758118,-0.06748956441879272,-0.051360391080379486
1782952305750846700,7.3008466796875,-0.761220395565033,-0.0028794098179787397,-0.02624625153839588
1782952305760773600,7.310773681640625,-0.770929217338562,0.0015781891997903585,-0.026566896587610245
1782952305770701600,7.32070166015625,-0.7794406414031982,-0.040457677096128464,-0.06841740757226944
1782952305780628500,7.33062841796875,-0.786623477935791,-0.10353251546621323,-0.12396721541881561
1782952305790555400,7.340555419921875,-0.7918334007263184,-0.17118826508522034,-0.17822672426700592
1782952305800482600,7.350482666015625,-0.7972987294197083,-0.2150033861398697,-0.2122504711151123
1782952305810410500,7.360410400390625,-0.7995544672012329,-0.22470155358314514,-0.21604974567890167
1782952305820337400,7.37033740234375,-0.7879353761672974,-0.2193930745124817,-0.1780373752117157
1782952305830264600,7.3802646484375,-0.7636257410049438,-0.17149531841278076,-0.12247265130281448
1782952305840191500,7.39019140625,-0.7267982363700867,-0.1136903464794159,-0.07320976257324219
1782952305850118700,7.40011865234375,-0.6855445504188538,-0.06695213913917542,-0.039739422500133514
1782952305860046600,7.410046630859375,-0.6435533761978149,-0.028958946466445923,-0.023965787142515182
1782952305869973800,7.419973876953125,-0.6032821536064148,0.015971509739756584,-0.03668664023280144
1782952305879900400,7.429900390625,-0.5738095045089722,0.05296734347939491,-0.07922185212373734
1782952305889827600,7.43982763671875,-0.5351393222808838,0.07756483554840088,-0.14141279458999634
1782952305899755500,7.449755615234375,-0.5111266374588013,0.10188721865415573,-0.21100863814353943
1782952305909682400,7.459682373046875,-0.5189928412437439,0.10780183225870132,-0.2832024097442627
1782952305919609600,7.469609619140625,-0.5371114015579224,0.0920921117067337,-0.36165621876716614
1782952305929536500,7.47953662109375,-0.5700048804283142,0.07679145038127899,-0.43072450160980225
1782952305939464400,7.48946435546875,-0.5930428504943848,0.061887070536613464,-0.4806545078754425
1782952305949391600,7.4993916015625,-0.603783905506134,0.05902337282896042,-0.5111535787582397
1782952305959318500,7.509318603515625,-0.5968889594078064,0.07941839098930359,-0.5385302901268005
1782952305969245400,7.519245361328125,-0.5718909502029419,0.10629262030124664,-0.5450345277786255
1782952305979173400,7.52917333984375,-0.5372397303581238,0.12912122905254364,-0.539080798625946
1782952305989100500,7.5391005859375,-0.48984721302986145,0.13640497624874115,-0.5105399489402771
1782952305999027500,7.54902734375,-0.4395270347595215,0.1410822868347168,-0.4710434079170227
1782952306008954600,7.55895458984375,-0.37482795119285583,0.1236971765756607,-0.413894921541214
1782952306018882600,7.568882568359375,-0.31171873211860657,0.08999140560626984,-0.34381115436553955
1782952306028809500,7.5788095703125,-0.2531188130378723,0.07084275037050247,-0.27701374888420105
1782952306038736600,7.588736572265625,-0.19669336080551147,0.06970451027154922,-0.23192350566387177
1782952306048663600,7.59866357421875,-0.13944178819656372,0.0721234604716301,-0.1983247995376587
1782952306058591500,7.608591552734375,-0.080544114112854,0.08549199998378754,-0.18067124485969543
1782952306068518700,7.6185185546875,-0.022047245875000954,0.09887038916349411,-0.18343347311019897
1782952306078445300,7.6284453125,0.04536322131752968,0.08726060390472412,-0.19789737462997437
1782952306088372500,7.63837255859375,0.11079256236553192,0.05204109847545624,-0.22053876519203186
1782952306098300400,7.648300537109375,0.16009566187858582,0.0023097596131265163,-0.2290707379579544
1782952306108227600,7.6582275390625,0.19586831331253052,-0.041615087538957596,-0.21674002707004547
1782952306118154500,7.668154541015625,0.23330649733543396,-0.04014661908149719,-0.17583733797073364
1782952306128081700,7.67808154296875,0.26883837580680847,-0.011775433085858822,-0.08819936960935593
1782952306138008600,7.688008544921875,0.3215002715587616,0.023001190274953842,0.022399049252271652
1782952306147936500,7.6979365234375,0.38815999031066895,0.09967146813869476,0.1212819516658783
1782952306157863700,7.70786376953125,0.4595057964324951,0.15694567561149597,0.20438402891159058
1782952306167790600,7.71779052734375,0.5130627751350403,0.1942022293806076,0.26589080691337585
1782952306177717500,7.727717529296875,0.5422715544700623,0.20610550045967102,0.29019615054130554
1782952306187645400,7.7376455078125,0.5592765808105469,0.17419283092021942,0.2698762118816376
1782952306197572400,7.747572265625,0.5604113936424255,0.08991870284080505,0.21458686888217926
1782952306207499500,7.75749951171875,0.5598212480545044,0.009237706661224365,0.1440061777830124
1782952306217426400,7.767426513671875,0.5626537799835205,-0.04578426480293274,0.0867956131696701
1782952306227354600,7.777354736328125,0.5737820267677307,-0.07318633049726486,0.05489574000239372
1782952306237281500,7.787281494140625,0.5911027193069458,-0.07312880456447601,0.046773362904787064
1782952306247208700,7.797208740234375,0.6087115406990051,-0.029920615255832672,0.05844387039542198
1782952306257135600,7.807135498046875,0.6281683444976807,0.0567876473069191,0.09032750129699707
1782952306267063600,7.8170634765625,0.6496371030807495,0.15167954564094543,0.1286541223526001
1782952306276990700,7.82699072265625,0.6750476956367493,0.23213496804237366,0.17904219031333923
1782952306286917400,7.83691748046875,0.6988467574119568,0.3013010025024414,0.24396152794361115
1782952306296844500,7.846844482421875,0.7276272773742676,0.35004323720932007,0.31267720460891724
1782952306306772500,7.8567724609375,0.7658859491348267,0.3635353446006775,0.35553812980651855
1782952306316699400,7.866699462890625,0.8151933550834656,0.35026827454566956,0.3844568729400635
1782952306326626600,7.87662646484375,0.8709178566932678,0.3074643313884735,0.400971919298172
1782952306336553500,7.886553466796875,0.9269177317619324,0.23535579442977905,0.3957313597202301
1782952306346481700,7.896481689453125,0.9654009342193604,0.1196795254945755,0.35507792234420776
1782952306356408600,7.90640869140625,0.9875981211662292,-0.036327116191387177,0.2794380486011505
1782952306366335700,7.916335693359375,0.9879123568534851,-0.187729150056839,0.19909632205963135
1782952306376262400,7.926262451171875,0.9653080105781555,-0.3089623749256134,0.12776727974414825
1782952306386190600,7.936190673828125,0.9151787757873535,-0.38090020418167114,0.07073169201612473
1782952306396117500,7.946117431640625,0.8475872278213501,-0.39485782384872437,0.026220684871077538
1782952306406044400,7.95604443359375,0.7700972557067871,-0.33621901273727417,0.012753612361848354
1782952306415971600,7.9659716796875,0.6815260648727417,-0.22043409943580627,0.027650803327560425
1782952306425898500,7.9758984375,0.5880451202392578,-0.049134258180856705,0.04784635081887245
1782952306435826400,7.985826416015625,0.4942733645439148,0.11098963767290115,0.05812428891658783
1782952306445753600,7.995753662109375,0.4132935702800751,0.19830270111560822,0.04819495975971222
1782952306455680500,8.005680419921875,0.3504429757595062,0.2348812222480774,0.037342313677072525
1782952306465607700,8.015607666015624,0.34538909792900085,0.24683348834514618,0.043651074171066284
1782952306475535600,8.02553564453125,0.37729641795158386,0.19088312983512878,0.08459983766078949
1782952306485462500,8.035462646484374,0.4367285966873169,0.09596727788448334,0.11500461399555206
1782952306495389400,8.045389404296875,0.5355046987533569,0.014120612293481827,0.1662752628326416
1782952306505316600,8.055316650390624,0.6432293057441711,-0.10214554518461227,0.22480328381061554
1782952306515244500,8.06524462890625,0.725958526134491,-0.19083786010742188,0.30007246136665344
1782952306525171500,8.07517138671875,0.7690247893333435,-0.24596929550170898,0.34629350900650024
1782952306535098600,8.0850986328125,0.7854056358337402,-0.25254249572753906,0.3427751958370209
1782952306545025500,8.095025634765625,0.7697981595993042,-0.20662854611873627,0.2949299216270447
1782952306554953500,8.104953369140626,0.7177379131317139,-0.13337643444538116,0.21962690353393555
1782952306564880600,8.114880615234375,0.6381013989448547,-0.0582910031080246,0.15525935590267181
1782952306574807600,8.1248076171875,0.5535558462142944,-0.021763885393738747,0.1118631511926651
1782952306584734500,8.134734375,0.489546537399292,-0.016474580392241478,0.11655563861131668
1782952306594662400,8.144662353515624,0.4561915099620819,-0.011621502228081226,0.17614173889160156
1782952306604589600,8.154589599609375,0.44369328022003174,0.00014860439114272594,0.24819409847259521
1782952306614516500,8.1645166015625,0.4292110204696655,0.0024647556710988283,0.3025526702404022
1782952306624443600,8.174443603515625,0.40161454677581787,-0.021853633224964142,0.3217868208885193
1782952306634371600,8.18437158203125,0.35451680421829224,-0.05619030073285103,0.30609866976737976
1782952306644298500,8.194298583984375,0.2776465117931366,-0.09774866700172424,0.2418547123670578
1782952306654225700,8.2042255859375,0.1709323227405548,-0.13102219998836517,0.1279454529285431
1782952306664152600,8.214152587890625,0.05494367703795433,-0.12038660049438477,-0.011297928169369698
1782952306674080500,8.22408056640625,-0.057373013347387314,-0.0678940936923027,-0.14990587532520294
1782952306684007700,8.234007568359376,-0.14818094670772552,0.029201295226812363,-0.23015277087688446
1782952306693934300,8.243934326171875,-0.19257397949695587,0.15038444101810455,-0.2312619835138321
1782952306703861500,8.253861572265626,-0.1997714340686798,0.2776755690574646,-0.15183719992637634
1782952306713788400,8.263788330078125,-0.1659191995859146,0.3654980957508087,-0.027277160435914993
1782952306723716600,8.273716552734374,-0.12108461558818817,0.38910701870918274,0.09168517589569092
1782952306733643500,8.2836435546875,-0.0685092881321907,0.33313482999801636,0.18631607294082642
1782952306743570200,8.293570068359376,-0.02658953331410885,0.21530139446258545,0.24586915969848633
1782952306753497000,8.3034970703125,-0.004930043593049049,0.05488082394003868,0.2494172900915146
1782952306763425000,8.313425048828124,-0.0037713022902607918,-0.08998101949691772,0.2063174843788147
1782952306773352200,8.323352294921875,-0.03045297972857952,-0.17521868646144867,0.12905704975128174
1782952306783279000,8.333279052734374,-0.08400968462228775,-0.21414664387702942,0.04760853201150894
1782952306793206000,8.3432060546875,-0.155281201004982,-0.22184637188911438,-0.01601358689367771
1782952306803134000,8.353134033203125,-0.2448749989271164,-0.18267634510993958,-0.05240142345428467
1782952306813061000,8.36306103515625,-0.34049099683761597,-0.12320581823587418,-0.09002256393432617
1782952306822988000,8.372988037109375,-0.4272402822971344,-0.0673164576292038,-0.1147761195898056
1782952306832915000,8.3829150390625,-0.49511146545410156,-0.03073847107589245,-0.1270437091588974
1782952306842843100,8.392843017578125,-0.5415018796920776,-0.016623716801404953,-0.12033812701702118
1782952306852770000,8.40277001953125,-0.5631784200668335,-0.015444469638168812,-0.09195069223642349
1782952306862697200,8.412697265625,-0.572709321975708,-0.013609818182885647,-0.057909104973077774
1782952306872624000,8.4226240234375,-0.5720848441123962,-0.01528654433786869,-0.014522217214107513
1782952306882552000,8.432552001953125,-0.5716214179992676,-0.015366173349320889,0.0372038260102272
1782952306892479200,8.442479248046874,-0.5695489645004272,-0.010036388412117958,0.08255666494369507
1782952306902406000,8.452406005859375,-0.5759826302528381,-0.0199260376393795,0.10651925206184387
1782952306912333000,8.4623330078125,-0.5839523673057556,-0.02785426750779152,0.10765935480594635
1782952306922261000,8.472260986328125,-0.5995665192604065,-0.04457439109683037,0.0795864388346672
1782952306932188200,8.482188232421874,-0.6080158948898315,-0.07298339903354645,0.03900572285056114
1782952306942115000,8.492114990234375,-0.6115390062332153,-0.11202294379472733,-0.0024527714122086763
1782952306952042000,8.5020419921875,-0.6111387610435486,-0.14866697788238525,-0.042995136231184006
1782952306961970200,8.51197021484375,-0.6058701872825623,-0.17644506692886353,-0.07191120833158493
1782952306971897000,8.52189697265625,-0.6090502738952637,-0.19743983447551727,-0.0940932109951973
1782952306981824300,8.53182421875,-0.6141561269760132,-0.21846576035022736,-0.11497318744659424
1782952306991751200,8.541751220703125,-0.6256433725357056,-0.2290576845407486,-0.13287895917892456
1782952307001679000,8.55167919921875,-0.6420183777809143,-0.23780536651611328,-0.15608040988445282
1782952307011606000,8.56160595703125,-0.6521825790405273,-0.25132542848587036,-0.18245768547058105
1782952307021533000,8.571532958984376,-0.6520446538925171,-0.2634201943874359,-0.21435223519802094
1782952307031460000,8.581460205078125,-0.6479929089546204,-0.2629847526550293,-0.2615059018135071
1782952307041387000,8.591386962890626,-0.6542742252349854,-0.24346165359020233,-0.3142191767692566
1782952307051315000,8.60131494140625,-0.6750234365463257,-0.20036478340625763,-0.3676656186580658
1782952307061242000,8.6112421875,-0.6981836557388306,-0.16020964086055756,-0.4192289710044861
1782952307071169000,8.6211689453125,-0.7297806739807129,-0.11327063292264938,-0.45235201716423035
1782952307081096200,8.63109619140625,-0.7410980463027954,-0.06719714403152466,-0.4762302041053772
1782952307091024100,8.641024169921875,-0.7370708584785461,-0.03380856290459633,-0.4733547866344452
1782952307100951300,8.650951416015625,-0.7120970487594604,-0.0022921827621757984,-0.43660181760787964
1782952307110878000,8.6608779296875,-0.6644107699394226,0.030343258753418922,-0.3628900647163391
1782952307120805000,8.67080517578125,-0.5971598029136658,0.05198011174798012,-0.2638838291168213
1782952307130733000,8.680733154296876,-0.5178554058074951,0.056889913976192474,-0.14871330559253693
1782952307140660000,8.690659912109375,-0.4395941495895386,0.05602838099002838,-0.0482703261077404
1782952307150587100,8.700587158203126,-0.3573991358280182,0.04043823480606079,0.021106617525219917
1782952307160514000,8.71051416015625,-0.285119891166687,0.02334500290453434,0.060684386640787125
1782952307170442000,8.72044189453125,-0.21932116150856018,0.008082693442702293,0.07184889167547226
1782952307180369200,8.730369140625,-0.17199386656284332,-0.0028929917607456446,0.06392811983823776
1782952307190296000,8.740296142578124,-0.12402820587158203,-0.00361737166531384,0.05258384719491005
1782952307200223000,8.750222900390625,-0.08837273716926575,0.0038309572264552116,0.04982827603816986
1782952307210151200,8.760151123046874,-0.06071953848004341,0.022433137521147728,0.037034451961517334
1782952307220078000,8.770078125,-0.02599618025124073,0.05456763878464699,0.019892482087016106
1782952307230005000,8.7800048828125,0.010206830687820911,0.06418990343809128,-0.006071474403142929
1782952307239932200,8.78993212890625,0.04729880765080452,0.033422406762838364,-0.04283907637000084
1782952307249860000,8.799860107421875,0.08445283025503159,-0.016089487820863724,-0.08592768758535385
1782952307259787000,8.809787109375,0.12047581374645233,-0.06831327825784683,-0.11603552848100662
1782952307269714200,8.819714111328125,0.14642086625099182,-0.09277547895908356,-0.12664316594600677
1782952307279641000,8.82964111328125,0.1707451045513153,-0.09627354145050049,-0.1022518053650856
1782952307289569000,8.839569091796875,0.20514649152755737,-0.06361652910709381,-0.030280940234661102
1782952307299496200,8.84949609375,0.24164271354675293,0.016693493351340294,0.06398191303014755
1782952307309422800,8.8594228515625,0.2790100574493408,0.12242072075605392,0.1777137964963913
1782952307319350000,8.86935009765625,0.321773499250412,0.22726111114025116,0.2789759635925293
1782952307329277000,8.87927685546875,0.3688108026981354,0.28664374351501465,0.3404798209667206
1782952307339205000,8.889205078125,0.41722387075424194,0.28307539224624634,0.36173689365386963
1782952307349132000,8.899132080078125,0.4500585198402405,0.2266765534877777,0.3335433602333069
1782952307359059200,8.90905908203125,0.4734666347503662,0.13088983297348022,0.280452162027359
1782952307368986000,8.918986083984375,0.4836508333683014,0.047814927995204926,0.21856988966464996
1782952307378914000,8.9289140625,0.4705035984516144,0.01882695034146309,0.16223391890525818
1782952307388841200,8.93884130859375,0.45885199308395386,0.039319708943367004,0.12241832166910172
1782952307398768000,8.94876806640625,0.4374162256717682,0.11339739710092545,0.10920185595750809
1782952307408695000,8.958695068359376,0.4242633879184723,0.19379396736621857,0.11655990034341812
1782952307418623000,8.968623046875,0.4299069046974182,0.24741005897521973,0.15136662125587463
1782952307428550000,8.9785498046875,0.45971566438674927,0.2785237729549408,0.1898045539855957
1782952307438477000,8.98847705078125,0.5053755640983582,0.29137271642684937,0.22076007723808289
1782952307448404000,8.998404052734376,0.5548940896987915,0.3033982217311859,0.21913474798202515
1782952307458332200,9.008332275390625,0.6204382181167603,0.2750885486602783,0.20595769584178925
1782952307468259000,9.018259033203124,0.6861006021499634,0.21605026721954346,0.1921023279428482
1782952307478186200,9.028186279296875,0.7403696775436401,0.14836736023426056,0.18770119547843933
1782952307488113200,9.038113037109374,0.7831009030342102,0.0863061249256134,0.1781606823205948
1782952307498041000,9.048041015625,0.8152047991752625,0.012411396019160748,0.1705123484134674
1782952307507968300,9.05796826171875,0.8445094227790833,-0.028312064707279205,0.1618831753730774
1782952307517895000,9.06789501953125,0.853496253490448,-0.055994559079408646,0.13951927423477173
1782952307527822000,9.077822021484375,0.8492493033409119,-0.05746888369321823,0.11385572701692581
1782952307537750000,9.08775,0.8300151824951172,-0.06674574315547943,0.09469188749790192
1782952307547677000,9.097677001953125,0.8015862107276917,-0.0695820078253746,0.07855765521526337
1782952307557604000,9.10760400390625,0.763242781162262,-0.07074687629938126,0.056902963668107986
1782952307567531000,9.117531005859375,0.7184345722198486,-0.06415901333093643,0.015574698336422443
1782952307577459200,9.127459228515624,0.6735142469406128,-0.0421740859746933,-0.024209199473261833
1782952307587386000,9.13738623046875,0.6327380537986755,0.0086590014398098,-0.06919451802968979
1782952307597313300,9.147313232421874,0.5974820256233215,0.06494145095348358,-0.0609017014503479
1782952307607240200,9.157240234375,0.5372133851051331,0.09916386753320694,-0.09186547249555588
1782952307617167000,9.1671669921875,0.49894028902053833,0.15924876928329468,-0.11605576425790787
1782952307627095000,9.177094970703125,0.4754488170146942,0.19236864149570465,-0.13677142560482025
1782952307637022000,9.18702197265625,0.48579758405685425,0.1796906739473343,-0.13920237123966217
1782952307646949000,9.19694921875,0.50725919008255,0.15135464072227478,-0.1150733232498169
1782952307656876000,9.2068759765625,0.540582537651062,0.09918330609798431,-0.07050426304340363
1782952307666804000,9.216803955078126,0.57286137342453,0.037754833698272705,-0.02628673054277897
1782952307676731100,9.226731201171875,0.5995598435401917,-0.02876000851392746,0.020659739151597023
1782952307686658000,9.236657958984376,0.6026967763900757,-0.07148110866546631,0.07405558228492737
1782952307696585200,9.246585205078125,0.5919208526611328,-0.11510980874300003,0.1316741406917572
1782952307706513200,9.25651318359375,0.5701857209205627,-0.14106684923171997,0.16971392929553986
1782952307716440300,9.2664404296875,0.5334354043006897,-0.13745400309562683,0.18075726926326752
1782952307726367000,9.276366943359376,0.48516854643821716,-0.1188851073384285,0.1525040566921234
1782952307736294100,9.286294189453125,0.43342840671539307,-0.09977186471223831,0.10615786164999008
1782952307746222600,9.29622265625,0.38251781463623047,-0.08282803744077682,0.06476594507694244
1782952307756149500,9.3061494140625,0.3141970932483673,-0.06962434947490692,0.04953612759709358
1782952307766076400,9.316076416015624,0.24742630124092102,-0.06876468658447266,0.054117295891046524
1782952307776003300,9.32600341796875,0.1637638956308365,-0.07729798555374146,0.06960543990135193
1782952307785929500,9.335929443359374,0.08712105453014374,-0.1018344834446907,0.07765058428049088
1782952307795856400,9.3458564453125,0.0078584561124444,-0.1256071925163269,0.06716545671224594
1782952307805783600,9.355783447265624,-0.068637914955616,-0.15675072371959686,0.020652281120419502
1782952307815711500,9.36571142578125,-0.1521029770374298,-0.19816209375858307,-0.057246509939432144
1782952307825638700,9.375638671875,-0.23569054901599884,-0.2303706258535385,-0.15583939850330353
1782952307835565300,9.3855654296875,-0.32690170407295227,-0.2241995483636856,-0.2402392327785492
1782952307845492500,9.395492431640625,-0.4005873501300812,-0.16079314053058624,-0.2895021140575409
1782952307855420400,9.40542041015625,-0.4622502028942108,-0.07221214473247528,-0.28279122710227966
1782952307865347300,9.415347412109375,-0.49900421500205994,0.0345824770629406,-0.21380256116390228
1782952307875274500,9.4252744140625,-0.5006998181343079,0.14123594760894775,-0.09228252619504929
1782952307885201400,9.435201416015625,-0.47506773471832275,0.2111431360244751,0.0461757518351078
1782952307895128600,9.445128662109376,-0.4337248206138611,0.197142094373703,0.1558913290500641
1782952307905056500,9.455056396484375,-0.39370495080947876,0.09708979725837708,0.22328102588653564
1782952307914983400,9.4649833984375,-0.35364222526550293,-0.06167455017566681,0.23371581733226776
1782952307924910300,9.474910400390625,-0.33182480931282043,-0.2503581941127777,0.1817077398300171
1782952307934837200,9.484837158203124,-0.3398246765136719,-0.4032433331012726,0.09515181183815002
1782952307944765400,9.494765380859375,-0.3735155165195465,-0.47250044345855713,0.0005515406373888254
1782952307954692400,9.5046923828125,-0.447934091091156,-0.48032188415527344,-0.0767056941986084
1782952307964619500,9.51461962890625,-0.5442718267440796,-0.4457079768180847,-0.12403299659490585
1782952307974546400,9.52454638671875,-0.6552327275276184,-0.3526555299758911,-0.13776159286499023
1782952307984474400,9.534474365234376,-0.7644230723381042,-0.23240980505943298,-0.13523238897323608
1782952307994401500,9.544401611328125,-0.8562155961990356,-0.10624681413173676,-0.10734270513057709
1782952308004328400,9.554328369140626,-0.9240921139717102,0.01290354784578085,-0.059715528041124344
1782952308014255600,9.564255615234375,-0.9538899660110474,0.09829061478376389,-0.013799701817333698
1782952308024183600,9.57418359375,-0.9487314224243164,0.13060781359672546,0.01757153682410717
1782952308034110200,9.584110107421875,-0.9192060232162476,0.12027687579393387,0.019648004323244095
1782952308044037400,9.594037353515626,-0.8812101483345032,0.0733112320303917,-0.011768242344260216
1782952308053964300,9.60396435546875,-0.8286524415016174,-0.018565960228443146,-0.07001370191574097
1782952308063892500,9.613892578125,-0.7800928950309753,-0.11586961150169373,-0.14601287245750427
1782952308073819400,9.6238193359375,-0.7541414499282837,-0.17799796164035797,-0.21673338115215302
1782952308083746600,9.63374658203125,-0.7386226654052734,-0.21441403031349182,-0.26088646054267883
1782952308093673500,9.643673583984375,-0.7222274541854858,-0.2117532640695572,-0.27844175696372986
1782952308103601400,9.653601318359375,-0.7026880979537964,-0.1756996512413025,-0.2765461206436157
1782952308113528600,9.663528564453125,-0.6857080459594727,-0.11082132160663605,-0.26691317558288574
1782952308123455500,9.67345556640625,-0.6747390031814575,-0.043238818645477295,-0.25231561064720154
1782952308133382400,9.68338232421875,-0.6730021238327026,0.005791842471808195,-0.2428930699825287
1782952308143310300,9.693310302734375,-0.6667152047157288,0.01673317328095436,-0.24487845599651337
1782952308153237200,9.7032373046875,-0.6553059220314026,-0.019344935193657875,-0.2677060067653656
1782952308163164400,9.713164306640625,-0.638459324836731,-0.08316119760274887,-0.3110867738723755
1782952308173091300,9.72309130859375,-0.6216209530830383,-0.14925579726696014,-0.3658546805381775
1782952308183021300,9.733021240234375,-0.6056361198425293,-0.1821088194847107,-0.4133223295211792
1782952308192949500,9.742949462890625,-0.5916731357574463,-0.1819484978914261,-0.4402964115142822
1782952308202876400,9.75287646484375,-0.5687233805656433,-0.1654110699892044,-0.4538777470588684
1782952308212803300,9.76280322265625,-0.5367244482040405,-0.12137249857187271,-0.45116132497787476
1782952308222730500,9.77273046875,-0.5009682774543762,-0.07992226630449295,-0.41927555203437805
1782952308232658400,9.782658447265625,-0.4661714434623718,-0.037339650094509125,-0.3630591630935669
1782952308242585300,9.79258544921875,-0.4343557059764862,0.02027571015059948,-0.2877691984176636
1782952308252512500,9.802512451171875,-0.4113635718822479,0.07304438203573227,-0.2200511395931244
1782952308262439400,9.812439453125,-0.39611032605171204,0.12079938501119614,-0.16566619277000427
1782952308272366600,9.82236669921875,-0.37752678990364075,0.14750343561172485,-0.12439998239278793
1782952308282294500,9.83229443359375,-0.34649455547332764,0.1549730747938156,-0.10002806037664413
1782952308292221200,9.84222119140625,-0.30094411969184875,0.1538526862859726,-0.07310456782579422
1782952308302148400,9.8521484375,-0.24224326014518738,0.14807388186454773,-0.05528855696320534
1782952308312075300,9.8620751953125,-0.16649843752384186,0.13310931622982025,-0.04826047271490097
1782952308322003500,9.87200341796875,-0.0734795406460762,0.1170525848865509,-0.04324973747134209
1782952308331930400,9.881930419921876,0.021209415048360825,0.09121033549308777,-0.03750210255384445
1782952308341857500,9.891857421875,0.10353970527648926,0.0651550367474556,-0.028781579807400703
1782952308351784400,9.901784423828126,0.16260115802288055,0.03936737775802612,-0.030439132824540138
1782952308361712400,9.91171240234375,0.20386071503162384,0.007903196848928928,-0.0575445182621479
1782952308371639600,9.9216396484375,0.22350499033927917,-0.019584886729717255,-0.11295611411333084
1782952308381566500,9.93156640625,0.232930988073349,-0.05842016637325287,-0.17549405992031097
1782952308391493400,9.941493408203126,0.24286937713623047,-0.12231792509555817,-0.22591142356395721
1782952308401421300,9.95142138671875,0.25995248556137085,-0.16996747255325317,-0.2570493817329407
1782952308411348200,9.96134814453125,0.2851310670375824,-0.19241578876972198,-0.2461612969636917
1782952308421275400,9.971275390625,0.3115216791629791,-0.14677639305591583,-0.1708524376153946
1782952308431202300,9.981202392578124,0.3372991979122162,-0.04904104396700859,-0.04795820638537407
1782952308441130500,9.991130615234376,0.36832395195961,0.09479708224534988,0.0963614210486412
1782952308451057400,10.001057373046875,0.3974680006504059,0.23543596267700195,0.24047411978244781
1782952308460984600,10.010984619140626,0.4220689535140991,0.3263773024082184,0.35608941316604614
1782952308470911500,10.020911376953125,0.4374428391456604,0.34414830803871155,0.41505470871925354
1782952308480839400,10.03083935546875,0.4586709141731262,0.28655481338500977,0.4224676191806793
1782952308490766600,10.0407666015625,0.4753292500972748,0.17764589190483093,0.37469130754470825
1782952308500693200,10.050693359375,0.4739680886268616,0.07360844314098358,0.2842298746109009
1782952308510620400,10.060620361328125,0.45548495650291443,0.029861493036150932,0.18619917333126068
1782952308520548400,10.07054833984375,0.42271688580513,0.04397731274366379,0.10157269984483719
1782952308530475300,10.080475341796875,0.40119242668151855,0.0908404216170311,0.053631801158189774
1782952308540402400,10.09040234375,0.3863096237182617,0.17601923644542694,0.054126616567373276
1782952308550329300,10.100329345703125,0.3857836425304413,0.27588725090026855,0.08022905886173248
1782952308560257500,10.110257568359375,0.40906181931495667,0.34506312012672424,0.1232694685459137
1782952308570184400,10.120184326171875,0.45464473962783813,0.37323084473609924,0.1680518537759781
1782952308580111600,10.130111572265625,0.5140124559402466,0.3514091670513153,0.2166644036769867
1782952308590038300,10.140038330078125,0.5726821422576904,0.30674609541893005,0.2453431785106659
1782952308599966500,10.149966552734375,0.6337942481040955,0.2556469440460205,0.26348888874053955
1782952308609893400,10.159893310546876,0.6902508735656738,0.20803362131118774,0.26908233761787415
1782952308619820300,10.1698203125,0.7304126620292664,0.181207075715065,0.2722299098968506
1782952308629747500,10.17974755859375,0.7539912462234497,0.18278047442436218,0.26927274465560913
1782952308639674400,10.18967431640625,0.7650681138038635,0.1807311624288559,0.2659997344017029
1782952308649602300,10.199602294921876,0.7691140174865723,0.19567203521728516,0.25874847173690796
1782952308659529500,10.209529541015625,0.7777801752090454,0.208050936460495,0.2458161562681198
1782952308669456400,10.219456298828124,0.7954379916191101,0.21168828010559082,0.22703342139720917
1782952308679383600,10.229383544921875,0.8266196250915527,0.19265839457511902,0.19734182953834534
1782952308689311500,10.2393115234375,0.8560944199562073,0.13433970510959625,0.15538692474365234
1782952308699238400,10.24923828125,0.8848618865013123,0.017224259674549103,0.11494016647338867
1782952308709165300,10.259165283203124,0.9064952731132507,-0.1202092319726944,0.07712674140930176
1782952308719092500,10.269092529296875,0.912821888923645,-0.23873640596866608,0.058162372559309006
1782952308729020400,10.2790205078125,0.8963568806648254,-0.29751211404800415,0.055930644273757935
1782952308738947800,10.28894775390625,0.8470271825790405,-0.2897506058216095,0.052798233926296234
1782952308748875000,10.298875,0.7871201634407043,-0.224901020526886,0.0716203898191452
1782952308758802000,10.308802001953126,0.6962304711341858,-0.14120027422904968,0.10150238871574402
1782952308768729900,10.318729736328125,0.5962846875190735,-0.038180939853191376,0.12259382754564285
1782952308778657000,10.328656982421874,0.5056783556938171,0.050281278789043427,0.13417324423789978
1782952308788584000,10.338583984375,0.41763877868652344,0.1045924574136734,0.1420207917690277
1782952308798511000,10.348510986328124,0.35504597425460815,0.12358638644218445,0.14352068305015564
1782952308808439000,10.35843896484375,0.30544087290763855,0.1228225901722908,0.13389600813388824
1782952308818366000,10.368365966796874,0.2769559621810913,0.11059682071208954,0.11659638583660126
1782952308828292900,10.37829296875,0.25483229756355286,0.0997881144285202,0.09779686480760574
1782952308838219800,10.3882197265625,0.24296391010284424,0.07773048430681229,0.09651269018650055
1782952308848148000,10.39814794921875,0.24593546986579895,0.04927593842148781,0.12328784912824631
1782952308858075000,10.408074951171875,0.2548655867576599,0.015036207623779774,0.16188371181488037
1782952308868002000,10.418001953125,0.2676074802875519,-0.016639696434140205,0.20708927512168884
1782952308877929000,10.427928955078125,0.2621663808822632,-0.031125694513320923,0.24486860632896423
1782952308887857000,10.43785693359375,0.24671204388141632,-0.038902658969163895,0.2736174166202545
1782952308897784000,10.4477841796875,0.2107202261686325,-0.05065252631902695,0.27399080991744995
1782952308907711000,10.4577109375,0.15827353298664093,-0.07941786199808121,0.24446700513362885
1782952308917638100,10.46763818359375,0.08828245848417282,-0.12471423298120499,0.17938706278800964
1782952308927566000,10.477566162109374,0.011431085877120495,-0.1890396922826767,0.10227390378713608
1782952308937492700,10.48749267578125,-0.06463119387626648,-0.2536461055278778,0.013734720647335052
1782952308947420000,10.497419921875,-0.13128133118152618,-0.30047833919525146,-0.06190571188926697
1782952308957346800,10.507346923828125,-0.20345139503479004,-0.31435447931289673,-0.09767808765172958
1782952308967275000,10.51727490234375,-0.2805190086364746,-0.29662206768989563,-0.08340301364660263
1782952308977202000,10.527201904296875,-0.3354184925556183,-0.24513785541057587,-0.03506238013505936
1782952308987129000,10.537129150390625,-0.37024757266044617,-0.18333280086517334,0.031075892969965935
1782952308997056000,10.547055908203125,-0.3859492838382721,-0.10324010252952576,0.09315364807844162
1782952309006984000,10.55698388671875,-0.3872435986995697,0.013141368515789509,0.14835964143276215
1782952309016911000,10.5669111328125,-0.38107678294181824,0.08928646892309189,0.17633108794689178
1782952309026838000,10.576838134765625,-0.36874741315841675,0.09307641535997391,0.18102863430976868
1782952309036765000,10.586764892578126,-0.35903698205947876,0.04411792755126953,0.14467595517635345
1782952309046691800,10.59669189453125,-0.36786189675331116,-0.038662973791360855,0.07238897681236267
1782952309056619800,10.606619873046874,-0.39554813504219055,-0.1172853484749794,-0.023902403190732002
1782952309066547000,10.616546875,-0.4358215034008026,-0.17660751938819885,-0.12498534470796585
1782952309076473900,10.626473876953124,-0.4762016832828522,-0.21137721836566925,-0.19454418122768402
1782952309086401000,10.636401123046875,-0.5166340470314026,-0.22560089826583862,-0.22559663653373718
1782952309096329000,10.646328857421874,-0.5652216076850891,-0.23375709354877472,-0.24462172389030457
1782952309106256100,10.656256103515625,-0.6127228140830994,-0.2341001182794571,-0.2646079659461975
1782952309116183000,10.66618310546875,-0.6603036522865295,-0.20756544172763824,-0.2712551951408386
1782952309126110000,10.67610986328125,-0.705250084400177,-0.15330460667610168,-0.2711598575115204
1782952309136038100,10.6860380859375,-0.7456573843955994,-0.10158334672451019,-0.27497512102127075
1782952309145964800,10.69596484375,-0.7705742120742798,-0.05157504230737686,-0.2729412615299225
1782952309155892000,10.70589208984375,-0.7853118777275085,-0.03465012088418007,-0.28431081771850586
1782952309165819000,10.71581884765625,-0.7846367359161377,-0.06323516368865967,-0.28979799151420593
1782952309175746800,10.725746826171875,-0.7789705991744995,-0.12590573728084564,-0.28061196208000183
1782952309185674000,10.735674072265626,-0.800675630569458,-0.21257458627223969,-0.2573593556880951
1782952309195601000,10.745600830078125,-0.8467280864715576,-0.3285669684410095,-0.24379801750183105
1782952309205528000,10.755528076171874,-0.8930263519287109,-0.4237949550151825,-0.23718884587287903
1782952309215456000,10.7654560546875,-0.9340057373046875,-0.48134931921958923,-0.2515597939491272
1782952309225383200,10.775383056640624,-0.9548662900924683,-0.4807029664516449,-0.2867566645145416
1782952309235309800,10.785309814453125,-0.9489489793777466,-0.3570987284183502,-0.33148524165153503
1782952309245237000,10.795237060546874,-0.9457241892814636,-0.13626915216445923,-0.3831164836883545
1782952309255165000,10.8051650390625,-0.9336318373680115,0.05079899728298187,-0.414081871509552
1782952309265091800,10.815091796875,-0.9825487732887268,0.24360840022563934,-0.5044311881065369
1782952309275019000,10.82501904296875,-1.016811728477478,0.25359684228897095,-0.6081735491752625
1782952309284946000,10.83494580078125,-1.0212087631225586,0.2022276669740677,-0.6834651231765747
1782952309294873900,10.844873779296876,-1.0250229835510254,0.20903123915195465,-0.6987040042877197
1782952309304801000,10.854801025390625,-1.0401498079299927,0.15335200726985931,-0.6945399045944214
1782952309314728000,10.86472802734375,-1.0736448764801025,-0.018503110855817795,-0.7132531404495239
1782952309324655000,10.874655029296875,-1.09872305393219,-0.25666266679763794,-0.7428650856018066
1782952309334583000,10.8845830078125,-1.1281869411468506,-0.48484736680984497,-0.7841765880584717
1782952309344510000,10.894510009765625,-1.1550025939941406,-0.7057949304580688,-0.8359103202819824
1782952309354436900,10.904436767578124,-1.1760966777801514,-0.8361074328422546,-0.8542879819869995
1782952309364364000,10.914364013671875,-1.1998467445373535,-0.8216485977172852,-0.8335550427436829
1782952309374292000,10.9242919921875,-1.2276098728179932,-0.7076258659362793,-0.8103474378585815
1782952309384219000,10.934218994140625,-1.2340481281280518,-0.5200847387313843,-0.7735590934753418
1782952309394146000,10.94414599609375,-1.1947294473648071,-0.35165470838546753,-0.7230905890464783
1782952309404073000,10.954072998046875,-1.1184221506118774,-0.24503612518310547,-0.6368576884269714
1782952309414000000,10.964000244140625,-1.0228348970413208,-0.15891960263252258,-0.4944744408130646
1782952309423928000,10.973927978515626,-0.917156994342804,-0.1151159331202507,-0.2830926775932312
1782952309433855000,10.98385498046875,-0.7979552149772644,-0.1437627673149109,-0.02544543892145157
1782952309443782000,10.993781982421876,-0.675447404384613,-0.09288759529590607,0.15605485439300537
1782952309453708800,11.003708740234375,-0.5538613200187683,-0.0828903540968895,0.21563374996185303
1782952309463637000,11.013636962890626,-0.4344995319843292,-0.08149592578411102,0.18591660261154175
1782952309473564000,11.02356396484375,-0.31679418683052063,-0.06161036714911461,0.10931983590126038
1782952309483490800,11.03349072265625,-0.21250560879707336,-0.0475187823176384,0.008479238487780094
1782952309493418000,11.04341796875,-0.11342669278383255,-0.04446333646774292,-0.0853431299328804
1782952309503346000,11.053345947265624,-0.018327342346310616,-0.0591871552169323,-0.14600114524364471
1782952309513273000,11.063273193359375,0.06416992843151093,-0.04614805430173874,-0.1961657851934433
1782952309523200000,11.073199951171874,0.08344722539186478,-0.042815107852220535,-0.2140350639820099
1782952309533127200,11.083127197265625,0.08972189575433731,-0.04319167882204056,-0.1710580289363861
1782952309543055000,11.09305517578125,0.09446605294942856,0.008972988463938236,-0.10389471054077148
1782952309552981800,11.102981689453125,0.12179727107286453,0.1083001047372818,-0.033964358270168304
1782952309562909000,11.112908935546875,0.1741422414779663,0.19486989080905914,0.019890617579221725
1782952309572835800,11.1228359375,0.2399638593196869,0.28314170241355896,0.050276752561330795
1782952309582764000,11.132763916015625,0.31108012795448303,0.3582622706890106,0.04249526187777519
1782952309592691000,11.14269091796875,0.3639044463634491,0.3761427402496338,-0.00836498849093914
1782952309602617900,11.152617919921875,0.3893006145954132,0.31908077001571655,-0.07914275676012039
1782952309612545000,11.162544921875,0.4016355872154236,0.21959280967712402,-0.14875538647174835
1782952309622473000,11.172472900390625,0.41684383153915405,0.13046826422214508,-0.2085457444190979
1782952309632400100,11.182400146484374,0.446096271276474,0.10311280190944672,-0.23874600231647491
1782952309642327000,11.1923271484375,0.49608832597732544,0.10672058910131454,-0.22483417391777039
1782952309652254000,11.20225390625,0.5601850152015686,0.14109107851982117,-0.1592293381690979
1782952309662182000,11.212181884765625,0.5965778827667236,0.2717239260673523,0.04069390147924423
1782952309672108800,11.22210888671875,0.5950977206230164,0.24483291804790497,0.15725965797901154
1782952309682036000,11.232035888671875,0.6279110908508301,0.1994904726743698,0.16424407064914703
1782952309691963000,11.241962890625,0.7257001996040344,0.24303288757801056,0.15491901338100433
1782952309701891000,11.25189111328125,0.8158495426177979,0.22906513512134552,0.16451917588710785
1782952309711818000,11.26181787109375,0.8567919135093689,0.22356970608234406,0.15700852870941162
1782952309721745000,11.271744873046876,0.8760143518447876,0.2309703677892685,0.18268752098083496
1782952309731672000,11.281672119140625,0.8758116960525513,0.18635202944278717,0.1793109029531479
1782952309741600300,11.291600341796874,0.8741937875747681,0.08071934431791306,0.1460285782814026
1782952309751527200,11.301527099609375,0.8802613019943237,-0.004436826333403587,0.08339981734752655
1782952309761454000,11.3114541015625,0.8607935905456543,-0.021518342196941376,0.02490401826798916
1782952309771381200,11.32138134765625,0.8170796632766724,0.03501337766647339,0.00458622956648469
