time,seconds_elapsed,z,y,x
1782952298518848800,0.068848876953125,1.2187886238098145,-0.19085176289081573,0.369840532541275
1782952298528775400,0.078775390625,1.161878228187561,-0.2793627381324768,0.2725035846233368
1782952298538702600,0.08870263671875,1.115301489830017,-0.3275024890899658,0.19888688623905182
1782952298548629500,0.09862939453125,1.083422064781189,-0.3402920365333557,0.16487671434879303
1782952298558557400,0.108557373046875,1.0487403869628906,-0.34163516759872437,0.15080131590366364
1782952298568484600,0.118484619140625,0.9889154434204102,-0.3138136565685272,0.15839985013008118
1782952298578411500,0.12841162109375,0.9112250208854675,-0.27784839272499084,0.13950447738170624
1782952298588338700,0.138338623046875,0.8621416687965393,-0.1715262234210968,0.18181784451007843
1782952298598266600,0.1482666015625,0.7871871590614319,-0.06259895861148834,0.20109044015407562
1782952298608193500,0.158193603515625,0.7310818433761597,0.007717810105532408,0.1809404343366623
1782952298618120400,0.168120361328125,0.7009819746017456,0.050120241940021515,0.1463138908147812
1782952298628048600,0.178048583984375,0.6797406077384949,0.08393333107233047,0.14541268348693848
1782952298637975600,0.1879755859375,0.6586437225341797,0.04643011465668678,0.16988296806812286
1782952298647902500,0.19790234375,0.6693832278251648,-0.01948445290327072,0.2151026427745819
1782952298657829600,0.20782958984375,0.6867813467979431,-0.0206016656011343,0.27754080295562744
1782952298667757600,0.217757568359375,0.6971538066864014,0.001403767615556717,0.3345753252506256
1782952298677684500,0.2276845703125,0.688820481300354,0.02134869247674942,0.36226725578308105
1782952298687611600,0.237611572265625,0.656986653804779,0.05068713799118996,0.39353248476982117
1782952298697538600,0.24753857421875,0.6152666211128235,0.08590225130319595,0.42159828543663025
1782952298707465700,0.2574658203125,0.5722893476486206,0.1139538586139679,0.43693968653678894
1782952298717393700,0.2673935546875,0.5372134447097778,0.12066055834293365,0.4282428026199341
1782952298727320300,0.2773203125,0.503417432308197,0.1187814325094223,0.39776960015296936
1782952298737247200,0.287247314453125,0.4555407762527466,0.08221518993377686,0.3694152235984802
1782952298747175200,0.297175048828125,0.4126386046409607,0.023966800421476364,0.3615674376487732
1782952298757102300,0.307102294921875,0.3913387656211853,-0.04087897762656212,0.36838963627815247
1782952298767029200,0.317029296875,0.37763866782188416,-0.13456977903842926,0.36160656809806824
1782952298776956400,0.326956298828125,0.3536547124385834,-0.23372794687747955,0.3306904733181
1782952298786884400,0.33688427734375,0.31234508752822876,-0.29539209604263306,0.2874433994293213
1782952298796811300,0.346811279296875,0.2643809914588928,-0.30163657665252686,0.24217529594898224
1782952298806738400,0.356738525390625,0.21280699968338013,-0.23144178092479706,0.20233574509620667
1782952298816665000,0.3666650390625,0.17800787091255188,-0.08601406961679459,0.1903081238269806
1782952298826593300,0.37659326171875,0.15294566750526428,0.059187594801187515,0.21165548264980316
1782952298836520200,0.386520263671875,0.12767112255096436,0.20425379276275635,0.2535138726234436
1782952298846447000,0.396447021484375,0.10390906780958176,0.3310788571834564,0.24188517034053802
1782952298856374300,0.406374267578125,0.12114313989877701,0.3759348690509796,0.22789961099624634
1782952298866302200,0.41630224609375,0.1664656102657318,0.35489508509635925,0.21845337748527527
1782952298876229400,0.4262294921875,0.21522662043571472,0.2792113125324249,0.2027144581079483
1782952298886156300,0.43615625,0.23748186230659485,0.1488298624753952,0.172138974070549
1782952298896083500,0.44608349609375,0.22409690916538239,-0.0022714613005518913,0.11193203181028366
1782952298906011400,0.456011474609375,0.16410042345523834,-0.16026481986045837,0.03581835329532623
1782952298915938300,0.465938232421875,0.0723942443728447,-0.27071622014045715,-0.026825014501810074
1782952298925865200,0.475865234375,-0.031841620802879333,-0.30094656348228455,-0.072013258934021
1782952298935792000,0.485792236328125,-0.15254348516464233,-0.3039761483669281,-0.10092224925756454
1782952298945720300,0.49572021484375,-0.26565858721733093,-0.27507683634757996,-0.10075367242097855
1782952298955647200,0.505647216796875,-0.35157331824302673,-0.20824871957302094,-0.08642188459634781
1782952298965574100,0.51557421875,-0.40625786781311035,-0.13791917264461517,-0.049371447414159775
1782952298975501300,0.525501220703125,-0.45582470297813416,-0.07166136801242828,0.010595690459012985
1782952298985429200,0.53542919921875,-0.5092421174049377,-0.003089230041950941,0.08659858256578445
1782952298995356400,0.5453564453125,-0.5610770583152771,0.029673665761947632,0.15057966113090515
1782952299005283300,0.555283447265625,-0.6163251399993896,0.0070208171382546425,0.18767376244068146
1782952299015210500,0.56521044921875,-0.6599901914596558,-0.06196979060769081,0.18665310740470886
1782952299025138400,0.575138427734375,-0.6924392580986023,-0.14730438590049744,0.15797938406467438
1782952299035065000,0.585065185546875,-0.7145676016807556,-0.22051368653774261,0.14456559717655182
1782952299044992300,0.5949921875,-0.7198212146759033,-0.24808326363563538,0.15285521745681763
1782952299054919200,0.604919189453125,-0.7184237241744995,-0.2386821210384369,0.16901011765003204
1782952299064847000,0.61484716796875,-0.6946606040000916,-0.13634802401065826,0.1746874451637268
1782952299074774300,0.624774169921875,-0.6298319101333618,0.06014566496014595,0.13711822032928467
1782952299084701200,0.634701171875,-0.5257206559181213,0.23649512231349945,0.06707574427127838
1782952299094628400,0.64462841796875,-0.41994062066078186,0.38945600390434265,-0.027332687750458717
1782952299104556300,0.654556396484375,-0.3639546036720276,0.4743834137916565,-0.1561785489320755
1782952299114483500,0.6644833984375,-0.3572147786617279,0.45425570011138916,-0.26459991931915283
1782952299124410400,0.674410400390625,-0.3743748664855957,0.3724401891231537,-0.3304345905780792
1782952299134338300,0.68433837890625,-0.40108048915863037,0.26559630036354065,-0.3548111617565155
1782952299144265200,0.69426513671875,-0.45295408368110657,0.1442863792181015,-0.3580908477306366
1782952299154192100,0.704192138671875,-0.5217823386192322,0.030326828360557556,-0.3445081412792206
1782952299164119300,0.714119384765625,-0.5434545874595642,-0.048993561416864395,-0.3253818452358246
1782952299174046200,0.724046142578125,-0.5559557676315308,-0.10716312378644943,-0.31701886653900146
1782952299183974100,0.73397412109375,-0.5675511360168457,-0.14324548840522766,-0.33643651008605957
1782952299193901300,0.7439013671875,-0.5982372164726257,-0.14648205041885376,-0.38499686121940613
1782952299203828200,0.753828125,-0.6528245806694031,-0.1171521320939064,-0.4430979788303375
1782952299213756400,0.76375634765625,-0.6905328035354614,-0.03944350779056549,-0.49020615220069885
1782952299223683300,0.773683349609375,-0.6987819671630859,0.05643641576170921,-0.5218514800071716
1782952299233610500,0.783610595703125,-0.6756097078323364,0.1752278357744217,-0.5275297164916992
1782952299243537200,0.793537109375,-0.6251742243766785,0.2713215947151184,-0.5033261179924011
1782952299253465000,0.803465087890625,-0.5664754509925842,0.36551791429519653,-0.4486125409603119
1782952299263392300,0.813392333984375,-0.5221380591392517,0.42600974440574646,-0.3683381974697113
1782952299273319200,0.823319091796875,-0.5257468819618225,0.4700120985507965,-0.2665920853614807
1782952299283246300,0.833246337890625,-0.4808063209056854,0.4484596848487854,-0.17397135496139526
1782952299293174300,0.84317431640625,-0.3918115198612213,0.43915268778800964,-0.08348847925662994
1782952299303101200,0.85310107421875,-0.33478498458862305,0.4192413091659546,-0.004789410624653101
1782952299313028400,0.8630283203125,-0.31551042199134827,0.369613915681839,0.05141126364469528
1782952299322955300,0.872955322265625,-0.3134898841381073,0.2950904369354248,0.07792356610298157
1782952299332883500,0.882883544921875,-0.29232466220855713,0.2407682090997696,0.08889096975326538
1782952299342810400,0.892810302734375,-0.2617635428905487,0.23748347163200378,0.0867612361907959
1782952299352737300,0.9027373046875,-0.23926760256290436,0.2523079216480255,0.06031109392642975
1782952299362664200,0.912664306640625,-0.24480164051055908,0.27783751487731934,0.020287510007619858
1782952299372592000,0.922592041015625,-0.2692258059978485,0.3321114182472229,-0.008948029950261116
1782952299382519300,0.932519287109375,-0.28174903988838196,0.3625691831111908,-0.04845016822218895
1782952299392446200,0.9424462890625,-0.20786014199256897,0.31457582116127014,-0.12022459506988525
1782952299402373400,0.952373291015625,-0.08893615007400513,0.2534043490886688,-0.2031026929616928
1782952299412301300,0.96230126953125,0.018196338787674904,0.11672823131084442,-0.2773286700248718
1782952299422228200,0.972228271484375,0.06902889162302017,-0.042061686515808105,-0.28806546330451965
1782952299432155400,0.9821552734375,0.11730650067329407,-0.15677118301391602,-0.24367888271808624
1782952299442082300,0.992082275390625,0.19736671447753906,-0.20743116736412048,-0.14540424942970276
1782952299452010500,1.002010498046875,0.27766501903533936,-0.17345935106277466,-0.006104416213929653
1782952299461937200,1.011937255859375,0.3388093411922455,-0.08242104947566986,0.13704076409339905
1782952299471864300,1.0218642578125,0.39479413628578186,0.029089409857988358,0.22945444285869598
1782952299481791200,1.031791259765625,0.45494934916496277,0.11500139534473419,0.2552221119403839
1782952299491719200,1.04171923828125,0.5032676458358765,0.1550004929304123,0.22092609107494354
1782952299501646300,1.051646240234375,0.5377278923988342,0.12168221175670624,0.15295928716659546
1782952299511573200,1.0615732421875,0.5580273270606995,0.047155119478702545,0.08977426588535309
1782952299521500400,1.07150048828125,0.5756537318229675,-0.04373244196176529,0.059265896677970886
1782952299531428400,1.081428466796875,0.5839885473251343,-0.11823584139347076,0.08154331892728806
1782952299541355300,1.091355224609375,0.5875928997993469,-0.15289261937141418,0.12284255772829056
1782952299551282400,1.101282470703125,0.5796566009521484,-0.14029844105243683,0.16750694811344147
1782952299561209000,1.111208984375,0.5681933164596558,-0.06703780591487885,0.20583489537239075
1782952299571137300,1.12113720703125,0.5630336403846741,0.02601701021194458,0.23336702585220337
1782952299581064200,1.131064208984375,0.5566444396972656,0.11743241548538208,0.25595569610595703
1782952299590991400,1.140991455078125,0.5618798136711121,0.19944557547569275,0.27452170848846436
1782952299600918300,1.150918212890625,0.5786731839179993,0.24322821199893951,0.2909294366836548
1782952299610846200,1.16084619140625,0.6162748336791992,0.2400146722793579,0.3029138445854187
1782952299620773400,1.1707734375,0.6730542182922363,0.181635782122612,0.3083285987377167
1782952299630700300,1.1807001953125,0.7389018535614014,0.09410309791564941,0.3122619390487671
1782952299640627500,1.19062744140625,0.815001904964447,-0.02428080514073372,0.31184837222099304
1782952299650555400,1.200555419921875,0.8953542113304138,-0.1720387488603592,0.3059941828250885
1782952299660482300,1.210482421875,0.9653325080871582,-0.31151488423347473,0.30087772011756897
1782952299670409200,1.2204091796875,1.024921178817749,-0.41909098625183105,0.2939436137676239
1782952299680336100,1.230336181640625,1.0617040395736694,-0.4782533645629883,0.2836414575576782
1782952299690264300,1.240264404296875,1.0636390447616577,-0.500607967376709,0.28316134214401245
1782952299700191200,1.250191162109375,1.0334465503692627,-0.4772270619869232,0.2708735167980194
1782952299710118400,1.260118408203125,0.9683560132980347,-0.4077726900577545,0.24972400069236755
1782952299720045300,1.27004541015625,0.8727530241012573,-0.2888031601905823,0.21388930082321167
1782952299729974300,1.279974365234375,0.7541535496711731,-0.13240286707878113,0.17545028030872345
1782952299739901200,1.289901123046875,0.6239457130432129,0.019328612834215164,0.14117565751075745
1782952299749828000,1.299828125,0.5076197385787964,0.11826056987047195,0.08302664756774902
1782952299759755000,1.309755126953125,0.46456095576286316,0.16634660959243774,0.12649424374103546
1782952299769683200,1.31968310546875,0.4355751574039459,0.14988109469413757,0.14355182647705078
1782952299779610000,1.329610107421875,0.44344907999038696,0.13684597611427307,0.14282745122909546
1782952299789537300,1.339537353515625,0.48165905475616455,0.11285585910081863,0.15579354763031006
1782952299799464200,1.349464111328125,0.5291557908058167,0.06377086788415909,0.16841453313827515
1782952299809392000,1.35939208984375,0.5719849467277527,-0.015401202253997326,0.1676376461982727
1782952299819319300,1.3693193359375,0.5934185981750488,-0.08752519637346268,0.14706206321716309
1782952299829246200,1.37924609375,0.5893214344978333,-0.1518431305885315,0.11454363167285919
1782952299839173000,1.389173095703125,0.5732013583183289,-0.1875515878200531,0.0871354416012764
1782952299849101000,1.39910107421875,0.5443742275238037,-0.19461722671985626,0.07485880702733994
1782952299859028200,1.4090283203125,0.513940691947937,-0.17725367844104767,0.07728441059589386
1782952299868955100,1.418955078125,0.4790641963481903,-0.15231823921203613,0.08437135070562363
1782952299878882000,1.428882080078125,0.45019713044166565,-0.1267404407262802,0.09148544818162918
1782952299888810200,1.438810302734375,0.4118919372558594,-0.10379351675510406,0.08668428659439087
1782952299898737200,1.448737060546875,0.37396425008773804,-0.1010640412569046,0.06529191136360168
1782952299908664300,1.458664306640625,0.3296581506729126,-0.12106087803840637,0.03628682345151901
1782952299918591200,1.46859130859375,0.2699261009693146,-0.1657705456018448,-0.005071533378213644
1782952299928519200,1.478519287109375,0.19313596189022064,-0.23899483680725098,-0.06785605102777481
1782952299938446300,1.4884462890625,0.10734250396490097,-0.3129095435142517,-0.1414216160774231
1782952299948373000,1.498373046875,0.010621152818202972,-0.3439403772354126,-0.20924408733844757
1782952299958300200,1.508300048828125,-0.08699781447649002,-0.31357046961784363,-0.24735338985919952
1782952299968228000,1.51822802734375,-0.16971084475517273,-0.20246554911136627,-0.24997968971729279
1782952299978155300,1.5281552734375,-0.23361259698867798,-0.032417114824056625,-0.21096518635749817
1782952299988082200,1.538082275390625,-0.2634124457836151,0.16580229997634888,-0.13639764487743378
1782952299998009000,1.548009033203125,-0.24900738894939423,0.33988329768180847,-0.043776895850896835
1782952300007937300,1.557937255859375,-0.20641092956066132,0.424728661775589,0.038534753024578094
1782952300017864200,1.5678642578125,-0.16519345343112946,0.41048580408096313,0.0820031389594078
1782952300027791400,1.577791259765625,-0.13089421391487122,0.29976537823677063,0.07083987444639206
1782952300037718000,1.587718017578125,-0.10426978766918182,0.13182321190834045,0.027846328914165497
1782952300047646200,1.597646240234375,-0.09979376941919327,-0.05521468073129654,-0.039289213716983795
1782952300057573000,1.607572998046875,-0.12356434017419815,-0.20473065972328186,-0.11482178419828415
1782952300067500000,1.6175,-0.16157391667366028,-0.27203109860420227,-0.170871764421463
1782952300077427200,1.62742724609375,-0.21259234845638275,-0.28788116574287415,-0.1918252408504486
1782952300087355100,1.637355224609375,-0.26358121633529663,-0.25149452686309814,-0.1610981523990631
1782952300097282000,1.647281982421875,-0.3001600205898285,-0.14026865363121033,-0.08158308267593384
1782952300107209200,1.657209228515625,-0.33617067337036133,-0.0017761162016540766,0.01233820803463459
1782952300117136100,1.66713623046875,-0.3814273774623871,0.10559135675430298,0.08082859218120575
1782952300127064300,1.677064208984375,-0.4249112606048584,0.1847991794347763,0.11322128772735596
1782952300136991200,1.6869912109375,-0.46964678168296814,0.23033098876476288,0.11605675518512726
1782952300146918100,1.696918212890625,-0.5225375890731812,0.22716385126113892,0.08343198150396347
1782952300156845000,1.706844970703125,-0.5783715844154358,0.17108620703220367,0.028909355401992798
1782952300166773000,1.71677294921875,-0.629741370677948,0.10296345502138138,-0.018971212208271027
1782952300176700200,1.7267001953125,-0.6690126061439514,0.059637024998664856,-0.047132011502981186
1782952300186627000,1.736626953125,-0.6951388120651245,0.029441790655255318,-0.07450151443481445
1782952300196554200,1.74655419921875,-0.7182161808013916,0.005447509232908487,-0.09733305871486664
1782952300206482200,1.756482177734375,-0.7395068407058716,0.005197166930884123,-0.10878822952508926
1782952300216409000,1.7664091796875,-0.7590166330337524,0.029768554493784904,-0.11272971332073212
1782952300226336300,1.776336181640625,-0.7776840925216675,0.07046989351511002,-0.10401429235935211
1782952300236263200,1.78626318359375,-0.7918704748153687,0.17300185561180115,-0.09438136965036392
1782952300246191400,1.79619140625,-0.7965894341468811,0.26884952187538147,-0.10991387814283371
1782952300256118000,1.806117919921875,-0.7808863520622253,0.26168960332870483,-0.14059722423553467
1782952300266045200,1.816045166015625,-0.7326136231422424,0.2554170787334442,-0.14020898938179016
1782952300275972000,1.82597216796875,-0.680730938911438,0.23806603252887726,-0.13760308921337128
1782952300285900000,1.835900146484375,-0.6493116021156311,0.1877591609954834,-0.1470249742269516
1782952300295827200,1.8458271484375,-0.619499921798706,0.11001750081777573,-0.16130776703357697
1782952300305754000,1.855754150390625,-0.598499059677124,0.03888615965843201,-0.18149107694625854
1782952300315681300,1.865681396484375,-0.5909774899482727,-0.014115272089838982,-0.18471457064151764
1782952300325609200,1.875609130859375,-0.5867217779159546,-0.019053682684898376,-0.1838458776473999
1782952300335536000,1.8855361328125,-0.5600595474243164,0.012067483738064766,-0.17656560242176056
1782952300345463300,1.89546337890625,-0.5241069793701172,0.06488920003175735,-0.1414249837398529
1782952300355390000,1.905389892578125,-0.4988895654678345,0.1168764978647232,-0.11154325306415558
1782952300365318100,1.915318115234375,-0.48441919684410095,0.13956958055496216,-0.08524252474308014
1782952300375245000,1.9252451171875,-0.4782784879207611,0.15504947304725647,-0.07243378460407257
1782952300385172200,1.935172119140625,-0.4770222306251526,0.15764181315898895,-0.05913348123431206
1782952300395099100,1.94509912109375,-0.46306753158569336,0.1560492366552353,-0.043422430753707886
1782952300405027000,1.955027099609375,-0.44119617342948914,0.1623491644859314,-0.03369985520839691
1782952300414954200,1.964954345703125,-0.4154098331928253,0.16303306818008423,-0.03340424597263336
1782952300424881200,1.974881103515625,-0.38232412934303284,0.1540825366973877,-0.04489894583821297
1782952300434808300,1.984808349609375,-0.3539718687534332,0.13558821380138397,-0.09334690868854523
1782952300444736300,1.994736328125,-0.33335158228874207,0.09425780922174454,-0.18623895943164825
1782952300454663200,2.0046630859375,-0.32068583369255066,0.016894841566681862,-0.2756285071372986
1782952300464590000,2.014590087890625,-0.3018248975276947,-0.08558990061283112,-0.334285706281662
1782952300474517000,2.02451708984375,-0.27487611770629883,-0.16080927848815918,-0.3205893337726593
1782952300484445200,2.034445068359375,-0.2349301129579544,-0.1903347373008728,-0.23171010613441467
1782952300494372000,2.0443720703125,-0.1704150289297104,-0.1573895663022995,-0.07345256209373474
1782952300504299300,2.05429931640625,-0.0943448543548584,-0.06702256202697754,0.1007143184542656
1782952300514226200,2.06422607421875,-0.012905657291412354,0.029207032173871994,0.24832960963249207
1782952300524154000,2.074154052734375,0.07107189297676086,0.12966430187225342,0.32851046323776245
1782952300534081300,2.084081298828125,0.13917185366153717,0.19775919616222382,0.33442482352256775
1782952300544008200,2.09400830078125,0.19152528047561646,0.1988641321659088,0.2765023708343506
1782952300553935000,2.10393505859375,0.22462332248687744,0.13882742822170258,0.194454625248909
1782952300563863300,2.11386328125,0.23977799713611603,0.0463842898607254,0.12124508619308472
1782952300573790000,2.1237900390625,0.23734866082668304,-0.05473114550113678,0.05955881252884865
1782952300583717000,2.133717041015625,0.23125313222408295,-0.13335755467414856,0.008288653567433357
1782952300593644000,2.14364404296875,0.23827429115772247,-0.1858963966369629,-0.02895032800734043
1782952300603572200,2.153572265625,0.25886571407318115,-0.20831255614757538,-0.02285604365170002
1782952300613499100,2.1634990234375,0.2800231873989105,-0.19834567606449127,0.013477463275194168
1782952300623426300,2.17342626953125,0.3100004196166992,-0.15204870700836182,0.07190746814012527
1782952300633353200,2.183353271484375,0.33574730157852173,-0.04513263329863548,0.12990020215511322
1782952300643281200,2.19328125,0.3580932319164276,0.08821310847997665,0.18104036152362823
1782952300653208300,2.203208251953125,0.38379326462745667,0.19986534118652344,0.20595715939998627
1782952300663135000,2.213135009765625,0.4187733232975006,0.27432823181152344,0.209392249584198
1782952300673062100,2.223062255859375,0.45846372842788696,0.3116138279438019,0.20074070990085602
1782952300682990000,2.232989990234375,0.49471256136894226,0.31780821084976196,0.18165603280067444
1782952300692917000,2.2429169921875,0.528078019618988,0.27432146668434143,0.17694810032844543
1782952300702844200,2.25284423828125,0.5729535818099976,0.1974467784166336,0.18825900554656982
1782952300712771000,2.26277099609375,0.6218220591545105,0.08748538792133331,0.2047935128211975
1782952300722699300,2.27269921875,0.6664881110191345,-0.013261177577078342,0.1974988877773285
1782952300732625700,2.282625732421875,0.6963740587234497,-0.12233759462833405,0.16214781999588013
1782952300742552800,2.292552734375,0.7106797695159912,-0.2189476191997528,0.10739463567733765
1782952300752479500,2.3024794921875,0.6995341777801514,-0.2854286730289459,0.05850938335061073
1782952300762406700,2.31240673828125,0.6729124188423157,-0.31844770908355713,0.009971489198505878
1782952300772334600,2.32233447265625,0.6270202994346619,-0.3065391182899475,-0.044722650200128555
1782952300782261500,2.332261474609375,0.576874852180481,-0.2664237916469574,-0.09908226132392883
1782952300792188700,2.342188720703125,0.522936224937439,-0.23888511955738068,-0.13114698231220245
1782952300802115600,2.352115478515625,0.4691307842731476,-0.17456552386283875,-0.12111619114875793
1782952300812043800,2.362043701171875,0.41729530692100525,-0.10990848392248154,-0.10032489150762558
1782952300821970700,2.371970703125,0.37383317947387695,-0.04155813157558441,-0.09467288106679916
1782952300831897900,2.38189794921875,0.30723923444747925,0.012055296450853348,-0.1341734230518341
1782952300841824800,2.39182470703125,0.220839723944664,0.006039128173142672,-0.21041400730609894
1782952300851752700,2.401752685546875,0.12796704471111298,-0.06299187242984772,-0.2955576479434967
1782952300861679600,2.4116796875,0.06441599130630493,-0.1653631329536438,-0.3523246645927429
1782952300871606500,2.4216064453125,0.03345886617898941,-0.2633504271507263,-0.34818530082702637
1782952300881533700,2.43153369140625,0.022038476541638374,-0.32319656014442444,-0.2625633478164673
1782952300891461600,2.441461669921875,0.029094787314534187,-0.30306383967399597,-0.13520777225494385
1782952300901388500,2.451388427734375,0.038484830409288406,-0.23853878676891327,0.028791312128305435
1782952300911315700,2.461315673828125,0.040343448519706726,-0.15836060047149658,0.0866658017039299
1782952300921242600,2.47124267578125,0.06091286242008209,-0.04856608062982559,0.07650639861822128
1782952300931170800,2.4811708984375,0.08183865249156952,0.04254412278532982,0.023087119683623314
1782952300941097700,2.49109765625,0.0779234990477562,0.10798370093107224,-0.03366987034678459
1782952300951025000,2.50102490234375,0.05813460797071457,0.12549877166748047,-0.07146891951560974
1782952300960951600,2.51095166015625,0.05456060171127319,0.07765665650367737,-0.05876978859305382
1782952300970879500,2.52087939453125,0.06688544899225235,0.02037499099969864,-0.004443966783583164
1782952300980806700,2.530806640625,0.10058850049972534,-0.05372309684753418,0.05954505875706673
1782952300990733600,2.540733642578125,0.13089926540851593,-0.1636011302471161,0.1262362003326416
1782952301000660700,2.55066064453125,0.14908647537231445,-0.27846166491508484,0.1717676967382431
1782952301010588700,2.560588623046875,0.1474457085132599,-0.38599371910095215,0.17007258534431458
1782952301020515600,2.570515625,0.11726304143667221,-0.44051823019981384,0.12567822635173798
1782952301030442800,2.58044287109375,0.059655141085386276,-0.41730985045433044,0.058391060680150986
1782952301040369700,2.59036962890625,-0.016029631718993187,-0.3292233347892761,-0.007181461900472641
1782952301050297900,2.6002978515625,-0.09586746990680695,-0.20706546306610107,-0.04724419489502907
1782952301060224800,2.610224853515625,-0.17362530529499054,-0.05282578617334366,-0.03380035236477852
1782952301070151700,2.620151611328125,-0.221581369638443,0.10096537321805954,0.02288210205733776
1782952301080078600,2.63007861328125,-0.23219332098960876,0.2291325032711029,0.09821976721286774
1782952301090006500,2.640006591796875,-0.21300524473190308,0.289643257856369,0.15675844252109528
1782952301099933700,2.64993359375,-0.1805325150489807,0.27368319034576416,0.16398732364177704
1782952301109860600,2.659860595703125,-0.1665240228176117,0.19021013379096985,0.13252714276313782
1782952301119787800,2.669787841796875,-0.1557680070400238,0.030856061726808548,0.07962767779827118
1782952301129715700,2.6797158203125,-0.14187109470367432,-0.13429588079452515,0.04092954471707344
1782952301139642600,2.689642578125,-0.13449600338935852,-0.2593501806259155,0.01231547724455595
1782952301149569800,2.69956982421875,-0.14357605576515198,-0.3244551420211792,-0.017705271020531654
1782952301159496700,2.70949658203125,-0.17265312373638153,-0.3312292695045471,-0.06244274228811264
1782952301169425000,2.7194248046875,-0.22637999057769775,-0.28621038794517517,-0.10607091337442398
1782952301179351600,2.7293515625,-0.2833068370819092,-0.20029622316360474,-0.12057028710842133
1782952301189278700,2.73927880859375,-0.334693044424057,-0.1074906587600708,-0.11117838323116302
1782952301199205600,2.74920556640625,-0.36915645003318787,-0.01134931854903698,-0.08446691185235977
1782952301209133600,2.759133544921875,-0.3804820775985718,0.07145474851131439,-0.04512376710772514
1782952301219060700,2.769060791015625,-0.37294673919677734,0.1122567430138588,-0.008049728348851204
1782952301228987600,2.778987548828125,-0.35640743374824524,0.10789661109447479,0.030511777848005295
1782952301238914800,2.788914794921875,-0.3343638479709625,0.05984843149781227,0.07724380493164062
1782952301248842800,2.7988427734375,-0.31845223903656006,-0.003736401442438364,0.1336820423603058
1782952301258769700,2.808769775390625,-0.30464470386505127,-0.04317229241132736,0.20542937517166138
1782952301268696600,2.818696533203125,-0.2844395637512207,-0.06450874358415604,0.2776718735694885
1782952301278623500,2.82862353515625,-0.26661399006843567,-0.0698341503739357,0.31696605682373047
1782952301288551700,2.8385517578125,-0.2649838924407959,-0.07921433448791504,0.3072388470172882
1782952301298478600,2.848478515625,-0.2696658968925476,-0.07731306552886963,0.25478091835975647
1782952301308405800,2.85840576171875,-0.28796714544296265,-0.0676678940653801,0.17143942415714264
1782952301318332700,2.868332763671875,-0.32598623633384705,-0.05449487641453743,0.06663237512111664
1782952301328260600,2.878260498046875,-0.36852091550827026,-0.03518642485141754,-0.04257960245013237
1782952301338187800,2.888187744140625,-0.41207391023635864,-0.02677319571375847,-0.15442535281181335
1782952301348114700,2.89811474609375,-0.4466395974159241,-0.05425701662898064,-0.2498522698879242
1782952301358041900,2.908041748046875,-0.45877280831336975,-0.0877179503440857,-0.3207530975341797
1782952301367969800,2.9179697265625,-0.4584907591342926,-0.10976865142583847,-0.35882189869880676
1782952301377896400,2.927896484375,-0.4567457437515259,-0.10919947922229767,-0.38066837191581726
1782952301387823600,2.93782373046875,-0.4530668556690216,-0.07529930025339127,-0.40941932797431946
1782952301397750500,2.94775048828125,-0.4410834014415741,-0.017455173656344414,-0.4523228406906128
1782952301407678700,2.9576787109375,-0.4326950013637543,0.07104139775037766,-0.5040331482887268
1782952301417605600,2.967605712890625,-0.43368878960609436,0.16030248999595642,-0.5557915568351746
1782952301427532800,2.97753271484375,-0.4352901577949524,0.2174302190542221,-0.5786593556404114
1782952301437459700,2.987459716796875,-0.450769305229187,0.25060582160949707,-0.5858009457588196
1782952301447387600,2.9973876953125,-0.4571409225463867,0.24657994508743286,-0.5613430142402649
1782952301457314800,3.007314697265625,-0.4493376612663269,0.18537116050720215,-0.5034446716308594
1782952301467241700,3.01724169921875,-0.43915054202079773,0.10672774165868759,-0.4442860186100006
1782952301477168600,3.027168701171875,-0.4208817780017853,0.02207051031291485,-0.3879406452178955
1782952301487096600,3.0370966796875,-0.40063217282295227,-0.061716798692941666,-0.36454370617866516
1782952301497023500,3.0470234375,-0.37467971444129944,-0.11991354823112488,-0.3451268970966339
1782952301506950700,3.05695068359375,-0.33189496397972107,-0.17029975354671478,-0.31137320399284363
1782952301516877600,3.066877685546875,-0.2779022753238678,-0.17013634741306305,-0.2588772773742676
1782952301526804700,3.0768046875,-0.22390532493591309,-0.146715447306633,-0.19450387358665466
1782952301536732700,3.086732666015625,-0.17969535291194916,-0.10140140354633331,-0.1269579827785492
1782952301546659600,3.09665966796875,-0.1510583758354187,-0.03788554295897484,-0.06303571909666061
1782952301556586800,3.106586669921875,-0.14062966406345367,0.04838239401578903,-0.011405203491449356
1782952301566513700,3.116513671875,-0.13364951312541962,0.12151732295751572,0.024291275069117546
1782952301576441900,3.12644189453125,-0.11446939408779144,0.1822897344827652,0.027382533997297287
1782952301586368500,3.136368408203125,-0.07570628076791763,0.18110409379005432,-0.025807451456785202
1782952301596295700,3.146295654296875,-0.024609364569187164,0.11108981817960739,-0.12426179647445679
1782952301606222600,3.15622265625,0.035330671817064285,0.006057944148778915,-0.2142968773841858
1782952301616150500,3.166150634765625,0.09504668414592743,-0.13870085775852203,-0.265450656414032
1782952301626077700,3.17607763671875,0.16506224870681763,-0.2607119679450989,-0.23986513912677765
1782952301636004600,3.186004638671875,0.23019686341285706,-0.3144817054271698,-0.14170853793621063
1782952301645931800,3.195931884765625,0.2844310998916626,-0.2979882061481476,0.0032406626269221306
1782952301655859700,3.205859619140625,0.32280057668685913,-0.1915999799966812,0.14511151611804962
1782952301665786600,3.21578662109375,0.36249953508377075,-0.03457015007734299,0.2614820599555969
1782952301675713800,3.2257138671875,0.3853500187397003,0.1418660283088684,0.3332393169403076
1782952301685640400,3.235640380859375,0.4038890600204468,0.2719353437423706,0.34836581349372864
1782952301695568600,3.245568603515625,0.41860339045524597,0.3110833168029785,0.30499163269996643
1782952301705495600,3.25549560546875,0.4278658628463745,0.2493954598903656,0.23258987069129944
1782952301715422700,3.265422607421875,0.43828457593917847,0.13993774354457855,0.18790318071842194
1782952301725349600,3.275349609375,0.43528690934181213,0.015701541677117348,0.16443727910518646
1782952301735277600,3.285277587890625,0.4244919717311859,-0.07143726944923401,0.1710899919271469
1782952301745204700,3.295204833984375,0.40877318382263184,-0.09128554165363312,0.19966277480125427
1782952301755131400,3.30513134765625,0.3847874701023102,-0.050110649317502975,0.2350664734840393
1782952301765058600,3.31505859375,0.3687906563282013,0.0505903922021389,0.27585145831108093
1782952301774986500,3.324986572265625,0.38417160511016846,0.1724001169204712,0.30770063400268555
1782952301784913700,3.33491357421875,0.4196294844150543,0.2783587872982025,0.3290117681026459
1782952301794840600,3.344840576171875,0.47890564799308777,0.33325400948524475,0.3457610607147217
1782952301804767500,3.354767578125,0.5394859313964844,0.3153676688671112,0.34375622868537903
1782952301814695700,3.36469580078125,0.5994982719421387,0.2657180726528168,0.3485183119773865
1782952301824622600,3.37462255859375,0.645052969455719,0.19702847301959991,0.35105231404304504
1782952301834549800,3.3845498046875,0.678188145160675,0.11137939989566803,0.3491334617137909
1782952301844476700,3.3944765625,0.7009435296058655,0.0013831239193677902,0.3403055965900421
1782952301854404600,3.404404541015625,0.7177201509475708,-0.11816679686307907,0.3203197717666626
1782952301864331500,3.41433154296875,0.7229644060134888,-0.2377334088087082,0.2916809320449829
1782952301874258400,3.424258544921875,0.7109368443489075,-0.31933116912841797,0.2760064899921417
1782952301884185600,3.434185546875,0.677642285823822,-0.3576154410839081,0.2555709779262543
1782952301894113500,3.444113525390625,0.6275182366371155,-0.36590316891670227,0.24253128468990326
1782952301904040400,3.45404052734375,0.5728499293327332,-0.3328091502189636,0.2411200851202011
1782952301913967600,3.463967529296875,0.5319468379020691,-0.27864769101142883,0.24598436057567596
1782952301923894500,3.47389453125,0.5065938234329224,-0.21434353291988373,0.24597877264022827
1782952301933822700,3.48382275390625,0.5045651197433472,-0.1543232947587967,0.2510256767272949
1782952301943749600,3.49374951171875,0.5095841288566589,-0.11668431013822556,0.2396518439054489
1782952301953676800,3.5036767578125,0.5323746800422668,-0.0831790640950203,0.25193625688552856
1782952301963603500,3.513603515625,0.5206932425498962,-0.08664143830537796,0.252168208360672
1782952301973531400,3.523531494140625,0.4968152344226837,-0.10754901170730591,0.20561225712299347
1782952301983458600,3.53345849609375,0.4646402597427368,-0.11733239889144897,0.16857807338237762
1782952301993385500,3.543385498046875,0.40296486020088196,-0.13298143446445465,0.13228744268417358
1782952302003312600,3.553312744140625,0.3290046155452728,-0.14228679239749908,0.11785390228033066
1782952302013240600,3.563240478515625,0.25458455085754395,-0.16519777476787567,0.1086307018995285
1782952302023167500,3.57316748046875,0.19010916352272034,-0.17969124019145966,0.10754040628671646
1782952302033094700,3.5830947265625,0.13601377606391907,-0.16793480515480042,0.11337552219629288
1782952302043021600,3.593021484375,0.11917994171380997,-0.13060474395751953,0.12051092833280563
1782952302052949800,3.60294970703125,0.13853871822357178,-0.07365144044160843,0.13186292350292206
1782952302062876700,3.612876708984375,0.18276983499526978,-0.024866323918104172,0.14317788183689117
1782952302072803600,3.622803466796875,0.23671592772006989,0.015696171671152115,0.15901035070419312
1782952302082730500,3.63273046875,0.28741028904914856,0.04667086526751518,0.17908258736133575
1782952302092658400,3.642658447265625,0.31075701117515564,0.05660132318735123,0.1944708526134491
1782952302102585600,3.652585693359375,0.30242717266082764,0.016575343906879425,0.17635096609592438
1782952302112512500,3.662512451171875,0.25572165846824646,-0.05698078125715256,0.12901662290096283
1782952302122439700,3.672439697265625,0.17204861342906952,-0.15909330546855927,0.06944810599088669
1782952302132367600,3.68236767578125,0.07108254730701447,-0.2805275022983551,-0.0044519249349832535
1782952302142294500,3.69229443359375,-0.029722364619374275,-0.401360422372818,-0.08552813529968262
1782952302152221700,3.7022216796875,-0.12162410467863083,-0.4551360607147217,-0.14633981883525848
1782952302162148400,3.7121484375,-0.20636269450187683,-0.43209412693977356,-0.15274499356746674
1782952302172076500,3.72207666015625,-0.2608642876148224,-0.30954691767692566,-0.10119790583848953
1782952302182003500,3.73200341796875,-0.28526178002357483,-0.11115153133869171,-0.014349824748933315
1782952302191930600,3.7419306640625,-0.30994465947151184,0.062499672174453735,0.060710348188877106
1782952302201857500,3.751857421875,-0.2770650088787079,0.216002956032753,0.11614084988832474
1782952302211785500,3.761785400390625,-0.2139407992362976,0.3387146592140198,0.11207166314125061
1782952302221712600,3.771712646484375,-0.1679227203130722,0.3570862114429474,0.038393449038267136
1782952302231639600,3.7816396484375,-0.16701924800872803,0.2375730574131012,-0.06915547698736191
1782952302241566700,3.791566650390625,-0.197191521525383,0.029598293825984,-0.16510863602161407
1782952302251493600,3.80149365234375,-0.2502000033855438,-0.21992996335029602,-0.2225007265806198
1782952302261421600,3.811421630859375,-0.30316388607025146,-0.4220135807991028,-0.23641015589237213
1782952302271348500,3.821348388671875,-0.3473040461540222,-0.47191449999809265,-0.2179117351770401
1782952302281275400,3.831275390625,-0.4119459092617035,-0.4426458179950714,-0.20798560976982117
1782952302291202600,3.84120263671875,-0.4812678098678589,-0.3863098919391632,-0.19994620978832245
1782952302301130500,3.851130615234375,-0.5233314037322998,-0.2663922905921936,-0.1859811246395111
1782952302311057700,3.8610576171875,-0.5421297550201416,-0.14100581407546997,-0.18915881216526031
1782952302320984600,3.870984619140625,-0.5635924339294434,-0.05014675855636597,-0.20146767795085907
1782952302330911700,3.880911865234375,-0.5901141166687012,0.007952069863677025,-0.21450819075107574
1782952302340839700,3.890839599609375,-0.6180128455162048,0.02387271448969841,-0.2272476851940155
1782952302350766600,3.9007666015625,-0.6491129994392395,-0.009825055487453938,-0.23594039678573608
1782952302360693800,3.91069384765625,-0.6794700622558594,-0.055088140070438385,-0.24517731368541718
1782952302370620400,3.920620361328125,-0.7095059156417847,-0.08909067511558533,-0.2627600133419037
1782952302380548400,3.93054833984375,-0.7334994077682495,-0.097753144800663,-0.2925988733768463
1782952302390475500,3.9404755859375,-0.7567223310470581,-0.11306411772966385,-0.332621306180954
1782952302400402400,3.95040234375,-0.7591263651847839,-0.12313086539506912,-0.3636886775493622
1782952302410329600,3.96032958984375,-0.7384242415428162,-0.11796189844608307,-0.3721591830253601
1782952302420257500,3.970257568359375,-0.698249340057373,-0.11096976697444916,-0.3554781973361969
1782952302430184700,3.980184814453125,-0.6520000100135803,-0.11872180551290512,-0.31085485219955444
1782952302440111600,3.990111572265625,-0.6102254390716553,-0.14730417728424072,-0.2601090967655182
1782952302450038800,4.000038818359375,-0.5698502063751221,-0.18042707443237305,-0.2025815099477768
1782952302459966700,4.009966796875,-0.5356256365776062,-0.20418725907802582,-0.15828488767147064
1782952302469893600,4.0198935546875,-0.5137856602668762,-0.23107469081878662,-0.1322176605463028
1782952302479820500,4.029820556640625,-0.509246289730072,-0.24556148052215576,-0.12227661907672882
1782952302489747500,4.03974755859375,-0.5215553045272827,-0.23889382183551788,-0.13010992109775543
1782952302499675400,4.04967529296875,-0.5378733277320862,-0.21812249720096588,-0.159859299659729
1782952302509602600,4.0596025390625,-0.559960126876831,-0.1873531937599182,-0.2013646364212036
1782952302519529500,4.069529541015625,-0.5766767859458923,-0.15741819143295288,-0.24903017282485962
1782952302529456600,4.07945654296875,-0.5938246250152588,-0.12290337681770325,-0.30105406045913696
1782952302539384600,4.089384521484375,-0.6031531691551208,-0.07082845270633698,-0.35332098603248596
1782952302549311700,4.099311767578125,-0.6108560562133789,-0.00013521220535039902,-0.3958822190761566
1782952302559238700,4.10923876953125,-0.605327308177948,0.09301869571208954,-0.4208267331123352
1782952302569165600,4.11916552734375,-0.5928810238838196,0.170734241604805,-0.42669302225112915
1782952302579093800,4.12909375,-0.5550510883331299,0.21077778935432434,-0.4057464599609375
1782952302589020400,4.1390205078125,-0.5020681619644165,0.21707576513290405,-0.3789963126182556
1782952302598947600,4.148947509765625,-0.42708948254585266,0.21348102390766144,-0.3282628357410431
1782952302608874500,4.15887451171875,-0.33753952383995056,0.20329461991786957,-0.2710401713848114
1782952302618802400,4.168802490234375,-0.24466313421726227,0.18744879961013794,-0.21761581301689148
1782952302628729600,4.1787294921875,-0.15128977596759796,0.17976398766040802,-0.169866144657135
1782952302638656500,4.188656494140625,-0.056084420531988144,0.18019701540470123,-0.12859539687633514
1782952302648583700,4.198583740234375,0.014429072849452496,0.1852218210697174,-0.10447961091995239
1782952302658511600,4.20851171875,0.06227781996130943,0.18398025631904602,-0.09672848135232925
1782952302668438800,4.218438720703125,0.09054354578256607,0.18346454203128815,-0.0977097824215889
1782952302678365400,4.228365478515625,0.1043296679854393,0.1739378720521927,-0.11755379289388657
1782952302688292600,4.238292724609375,0.10087772458791733,0.14604753255844116,-0.16424383223056793
1782952302698220500,4.248220458984375,0.08259805291891098,0.09433613717556,-0.22725023329257965
1782952302708147500,4.2581474609375,0.053981050848960876,0.02265196479856968,-0.29776880145072937
1782952302718074600,4.26807470703125,0.0303548164665699,-0.06489599496126175,-0.34689611196517944
1782952302728001500,4.27800146484375,0.015526295639574528,-0.14268866181373596,-0.32942724227905273
1782952302737929500,4.287929443359375,0.012353405356407166,-0.16241656243801117,-0.21156132221221924
1782952302747856600,4.297856689453125,0.014886735007166862,-0.098026342689991,-0.039182379841804504
1782952302757783600,4.307783447265625,0.031395405530929565,0.0055021862499415874,0.11193417012691498
1782952302767710500,4.31771044921875,0.06061693653464317,0.12458249926567078,0.2145308405160904
1782952302777638400,4.327638427734375,0.106342613697052,0.22114180028438568,0.25945889949798584
1782952302787565600,4.337565673828125,0.164973184466362,0.261743426322937,0.24925413727760315
1782952302797492500,4.347492431640625,0.22805041074752808,0.24457375705242157,0.2067040055990219
1782952302807419600,4.357419677734375,0.2917303740978241,0.18816803395748138,0.14794114232063293
1782952302817347600,4.36734765625,0.334629625082016,0.12170138210058212,0.08993642777204514
1782952302827274500,4.3772744140625,0.3490869998931885,0.06272189319133759,0.04599135369062424
1782952302837201700,4.38720166015625,0.34604594111442566,0.04626941308379173,0.023941710591316223
1782952302847128600,4.397128662109375,0.3256053626537323,0.0738588273525238,0.015846313908696175
1782952302857055500,4.407055419921875,0.3247414231300354,0.13073968887329102,0.02436390146613121
1782952302866983700,4.416983642578125,0.3405163884162903,0.20533668994903564,0.04789852350950241
1782952302876910300,4.426910400390625,0.37861397862434387,0.27389127016067505,0.10263766348361969
1782952302886837500,4.43683740234375,0.43525731563568115,0.3233654499053955,0.1816103309392929
1782952302896764400,4.446764404296875,0.5136423707008362,0.352544367313385,0.26215842366218567
1782952302906692600,4.456692626953125,0.6046662926673889,0.3548924922943115,0.3458024561405182
1782952302916619500,4.46661962890625,0.6906278133392334,0.33225002884864807,0.4046474099159241
1782952302926546700,4.476546630859375,0.7730578184127808,0.26999378204345703,0.4205898642539978
1782952302936473600,4.4864736328125,0.8381925821304321,0.1547316163778305,0.39525359869003296
1782952302946401500,4.496401611328125,0.8959794640541077,0.011316906660795212,0.3450237214565277
1782952302956328700,4.50632861328125,0.942884624004364,-0.12122862040996552,0.3023761212825775
1782952302966255400,4.51625537109375,0.9788194894790649,-0.21935394406318665,0.2712717056274414
1782952302976182500,4.5261826171875,0.9937899112701416,-0.27217426896095276,0.24418069422245026
1782952302986110500,4.5361103515625,0.9896485209465027,-0.2877764105796814,0.20668460428714752
1782952302996037400,4.546037353515625,0.960343062877655,-0.29019564390182495,0.16246894001960754
1782952303005964500,4.555964599609375,0.9004937410354614,-0.26594850420951843,0.13079281151294708
1782952303015891500,4.565891357421875,0.8200356960296631,-0.20117349922657013,0.11917451024055481
1782952303025819600,4.575819580078125,0.73187655210495,-0.11482249200344086,0.12425190210342407
1782952303035746600,4.58574658203125,0.6530863642692566,-0.013413585722446442,0.14371615648269653
1782952303045673700,4.595673828125,0.5873511433601379,0.07065938413143158,0.15493489801883698
1782952303055600600,4.6056005859375,0.5285852551460266,0.1307557374238968,0.12145070731639862
1782952303065528600,4.615528564453125,0.4980354309082031,0.16096706688404083,0.14317233860492706
1782952303075455500,4.62545556640625,0.4396054148674011,0.15108966827392578,0.11624004691839218
1782952303085382400,4.63538232421875,0.4086628556251526,0.17525142431259155,0.107085220515728
1782952303095309600,4.6453095703125,0.3895655870437622,0.1823846995830536,0.08556129038333893
1782952303105237500,4.655237548828125,0.3694632351398468,0.1722591072320938,0.059651490300893784
1782952303115164400,4.665164306640625,0.34948286414146423,0.14563840627670288,0.026973174884915352
1782952303125091600,4.675091552734375,0.32821518182754517,0.1084202229976654,-0.013974471017718315
1782952303135018500,4.6850185546875,0.30273857712745667,0.055513061583042145,-0.05251733586192131
1782952303144946700,4.69494677734375,0.2803235948085785,-0.019576605409383774,-0.100650355219841
1782952303154873600,4.70487353515625,0.26749807596206665,-0.11178722977638245,-0.12181183695793152
1782952303164800800,4.71480078125,0.25227785110473633,-0.17548416554927826,-0.09544483572244644
1782952303174727400,4.7247275390625,0.24095728993415833,-0.20740507543087006,-0.02239353209733963
1782952303184655400,4.7346552734375,0.24359847605228424,-0.22014611959457397,0.05823429673910141
1782952303194582500,4.74458251953125,0.2519301772117615,-0.2080702781677246,0.11439290642738342
1782952303204509400,4.754509521484375,0.2558140456676483,-0.17964760959148407,0.1354212760925293
1782952303214436600,4.7644365234375,0.24436509609222412,-0.12094302475452423,0.1271553486585617
1782952303224363500,4.774363525390625,0.2159910798072815,-0.054674070328474045,0.10983160883188248
1782952303234291500,4.78429150390625,0.17233654856681824,0.01600675843656063,0.08823896199464798
1782952303244218600,4.794218505859375,0.12344663590192795,0.06763806194067001,0.06716375797986984
1782952303254145500,4.8041455078125,0.0704774260520935,0.0750483050942421,0.03431073948740959
1782952303264072700,4.81407275390625,0.009356681257486343,0.03512905538082123,-0.003670457284897566
1782952303274000600,4.824000732421875,-0.04749355465173721,-0.01770193688571453,-0.03872111812233925
1782952303283927600,4.833927490234375,-0.09964440762996674,-0.05960239842534065,-0.05570102855563164
1782952303293854500,4.8438544921875,-0.14648595452308655,-0.07806555926799774,-0.06209953874349594
1782952303303781600,4.85378173828125,-0.1848350167274475,-0.024572020396590233,-0.036034055054187775
1782952303313709600,4.86370947265625,-0.20306755602359772,0.09222304075956345,0.025828514248132706
1782952303323636500,4.873636474609375,-0.20780888199806213,0.23239155113697052,0.11373079568147659
1782952303333563600,4.883563720703125,-0.19244429469108582,0.3404242694377899,0.2096216380596161
1782952303343490600,4.893490478515625,-0.1553603708744049,0.3863464593887329,0.2937571406364441
1782952303353418500,4.90341845703125,-0.11370400339365005,0.33330774307250977,0.34142452478408813
1782952303363345700,4.913345703125,-0.08624623715877533,0.23038698732852936,0.3573671281337738
1782952303373272600,4.9232724609375,-0.07574405521154404,0.09219822287559509,0.34392082691192627
1782952303383199500,4.933199462890625,-0.09860427677631378,-0.039357636123895645,0.3023826777935028
1782952303393127400,4.94312744140625,-0.1545170694589615,-0.12536309659481049,0.2258298397064209
1782952303403054600,4.9530546875,-0.2370297610759735,-0.1607562154531479,0.1301865577697754
1782952303412981500,4.9629814453125,-0.35206738114356995,-0.162112295627594,0.027793338522315025
1782952303422908700,4.97290869140625,-0.4761351943016052,-0.11142963171005249,-0.05271807685494423
1782952303432836600,4.982836669921875,-0.5969414710998535,-0.027765627950429916,-0.11110495775938034
1782952303442763500,4.992763427734375,-0.7040456533432007,0.0644453763961792,-0.16142338514328003
1782952303452690700,5.002690673828125,-0.784724771976471,0.15206897258758545,-0.20179077982902527
1782952303462617600,5.01261767578125,-0.838697612285614,0.22012382745742798,-0.22906701266765594
1782952303472545500,5.022545654296875,-0.8673367500305176,0.23946797847747803,-0.22642914950847626
1782952303482472700,5.03247265625,-0.8792092800140381,0.23006492853164673,-0.1908019781112671
1782952303492399400,5.0423994140625,-0.88176429271698,0.20876790583133698,-0.12308552116155624
1782952303502326500,5.052326416015625,-0.8730652928352356,0.19874456524848938,-0.034631505608558655
1782952303512253400,5.06225341796875,-0.8711318373680115,0.17856207489967346,0.0503544919192791
1782952303522181600,5.072181640625,-0.8693687915802002,0.1631717085838318,0.09534268081188202
1782952303532108500,5.082108642578125,-0.8664861917495728,0.14771045744419098,0.11473555117845535
1782952303542035500,5.092035400390625,-0.8590459823608398,0.11673485487699509,0.10320376604795456
1782952303551962600,5.101962646484375,-0.8427740931510925,0.08727522939443588,0.07287967950105667
1782952303561890600,5.111890625,-0.8351137638092041,0.04444524645805359,0.028164248913526535
1782952303571817700,5.121817626953125,-0.8280603885650635,-0.004448793362826109,-0.037601981312036514
1782952303581744400,5.131744384765625,-0.8313746452331543,-0.035289518535137177,-0.09904394298791885
1782952303591671600,5.141671630859375,-0.8341549634933472,-0.042681124061346054,-0.161597341299057
1782952303601599500,5.151599609375,-0.8288175463676453,-0.0485888309776783,-0.2076873779296875
1782952303611526400,5.1615263671875,-0.810080885887146,-0.050429608672857285,-0.2548844516277313
1782952303621453600,5.17145361328125,-0.781653106212616,-0.04247363656759262,-0.27388110756874084
1782952303631380500,5.18138037109375,-0.7482376098632812,-0.03722135350108147,-0.2888216972351074
1782952303641308700,5.19130859375,-0.7190954089164734,-0.02435293234884739,-0.3019176423549652
1782952303651235600,5.201235595703125,-0.6931474804878235,-0.016010580584406853,-0.32783234119415283
1782952303661162500,5.21116259765625,-0.6642701029777527,-0.017965812236070633,-0.36838430166244507
1782952303671089700,5.221089599609375,-0.6168509125709534,-0.03384571149945259,-0.40137314796447754
1782952303681017600,5.231017578125,-0.5489623546600342,-0.04984753206372261,-0.4166348874568939
1782952303690944500,5.240944580078125,-0.4714867174625397,-0.06448958814144135,-0.3902874290943146
1782952303700871400,5.250871337890625,-0.40586355328559875,-0.057919327169656754,-0.32912275195121765
1782952303710798600,5.260798583984375,-0.3594726026058197,-0.042828790843486786,-0.24661137163639069
1782952303720725500,5.2707255859375,-0.3268987238407135,-0.044026173651218414,-0.15812507271766663
1782952303730653400,5.2806533203125,-0.30469197034835815,-0.05002441257238388,-0.0785098671913147
1782952303740581600,5.29058154296875,-0.3046621084213257,-0.02387601137161255,-0.012143928557634354
1782952303750508800,5.3005087890625,-0.3040591776371002,0.02155512012541294,0.03017343394458294
1782952303760435700,5.310435791015625,-0.2984696626663208,0.0787501260638237,0.0434885174036026
1782952303770364000,5.320364013671875,-0.2920117676258087,0.1320309191942215,0.03552300110459328
1782952303780288800,5.330288818359375,-0.2748872935771942,0.18026785552501678,0.030789950862526894
1782952303790215700,5.340215576171875,-0.25493383407592773,0.2251162827014923,0.042281754314899445
1782952303800143600,5.3501435546875,-0.22243160009384155,0.236589714884758,0.0722409263253212
1782952303810070800,5.36007080078125,-0.16841256618499756,0.2178352028131485,0.09670019894838333
1782952303819997700,5.369997802734375,-0.09694822877645493,0.19829225540161133,0.11473382264375687
1782952303829924900,5.3799248046875,-0.02198903262615204,0.18170848488807678,0.12404530495405197
1782952303839852800,5.389852783203125,0.05033087730407715,0.1672784984111786,0.1311274766921997
1782952303849780000,5.399780029296875,0.10806501656770706,0.13510139286518097,0.10902190953493118
1782952303859707000,5.409706787109375,0.1423250287771225,0.07100871205329895,0.024411572143435478
1782952303869633800,5.4196337890625,0.1715678721666336,-0.009954843670129776,-0.08806011080741882
1782952303879560700,5.429560791015625,0.19324715435504913,-0.0940406545996666,-0.191135436296463
1782952303889488600,5.439488525390625,0.22063404321670532,-0.16324661672115326,-0.2748763859272003
1782952303899415800,5.449415771484375,0.23964433372020721,-0.20759443938732147,-0.2908916771411896
1782952303909342700,5.4593427734375,0.24656936526298523,-0.18308669328689575,-0.2431744933128357
1782952303919270000,5.469269775390625,0.2590824067592621,-0.06323930621147156,-0.12943604588508606
1782952303929197800,5.47919775390625,0.2826596200466156,0.10063351690769196,0.015569868497550488
1782952303939124700,5.489124755859375,0.32085078954696655,0.24495677649974823,0.16064347326755524
1782952303949052000,5.499052001953125,0.3693315088748932,0.3258572220802307,0.2633298933506012
1782952303958978800,5.508978759765625,0.4110722541809082,0.3252059519290924,0.30485227704048157
1782952303968906800,5.51890673828125,0.4293721616268158,0.2522076368331909,0.2922651171684265
1782952303978833700,5.528833740234375,0.42877450585365295,0.1533377468585968,0.23805630207061768
1782952303988760800,5.5387607421875,0.4349439740180969,0.06939303874969482,0.16253811120986938
1782952303998687700,5.548687744140625,0.4572889506816864,0.014792511239647865,0.09370134025812149
1782952304008615700,5.55861572265625,0.496947705745697,0.008791344240307808,0.05180901661515236
1782952304018542800,5.56854296875,0.5323351621627808,0.04733935371041298,0.04930978640913963
1782952304028469800,5.5784697265625,0.5717417001724243,0.0971524566411972,0.08738605678081512
1782952304038397000,5.58839697265625,0.6132451891899109,0.1456955075263977,0.15455858409404755
1782952304048324900,5.598324951171875,0.6606202125549316,0.17883189022541046,0.23736585676670074
1782952304058251800,5.608251708984375,0.7075080871582031,0.20974506437778473,0.3154846131801605
1782952304068179000,5.618178955078125,0.7579448819160461,0.21309664845466614,0.3612699508666992
1782952304078105600,5.628105712890625,0.8219623565673828,0.16996149718761444,0.3766300082206726
1782952304088033800,5.63803369140625,0.8901869654655457,0.08710017055273056,0.3635525703430176
1782952304097960700,5.647960693359375,0.9534100890159607,-0.027453187853097916,0.3372446298599243
1782952304107887900,5.657887939453125,0.9882386326789856,-0.14910931885242462,0.30623000860214233
1782952304117814800,5.667814697265625,0.9967024326324463,-0.2506580352783203,0.27556318044662476
1782952304127741700,5.67774169921875,0.9791991710662842,-0.3421228229999542,0.2346140593290329
1782952304137670000,5.687669921875,0.9388797283172607,-0.3957025408744812,0.17717155814170837
1782952304147596800,5.6975966796875,0.8814222812652588,-0.4059027135372162,0.11439152806997299
1782952304157524000,5.70752392578125,0.7976726293563843,-0.36042171716690063,0.06288918107748032
1782952304167451000,5.717450927734375,0.699664294719696,-0.28705936670303345,0.015122723765671253
1782952304177378800,5.72737890625,0.5925933718681335,-0.18117627501487732,-0.0333176888525486
1782952304187305700,5.7373056640625,0.5040594935417175,-0.05503563955426216,-0.02344854362308979
1782952304197235000,5.74723486328125,0.39590567350387573,0.021440112963318825,0.0012732823379337788
1782952304207161900,5.757161865234375,0.319265216588974,0.100100576877594,0.0010514408349990845
1782952304217088800,5.7670888671875,0.30848923325538635,0.18364790081977844,-0.002076759934425354
1782952304227016700,5.7770166015625,0.33138522505760193,0.2635989487171173,-0.013612508773803711
1782952304236943600,5.786943603515625,0.36651936173439026,0.34511250257492065,-0.011387180536985397
1782952304246870800,5.796870849609375,0.4061671793460846,0.40451404452323914,-0.005131148733198643
1782952304256797700,5.806797607421875,0.44907936453819275,0.42325812578201294,0.010807612910866737
1782952304266726000,5.816725830078125,0.475327730178833,0.38459035754203796,0.03602322190999985
1782952304276652800,5.82665283203125,0.4913763999938965,0.292816698551178,0.06912397593259811
1782952304286580000,5.836580078125,0.4936094582080841,0.1851658672094345,0.10918963700532913
1782952304296507000,5.8465068359375,0.4811197519302368,0.06991514563560486,0.1489274650812149
1782952304306434800,5.856434814453125,0.46651017665863037,-0.02827533893287182,0.17575162649154663
1782952304316362000,5.866362060546875,0.46039748191833496,-0.09908874332904816,0.19517409801483154
1782952304326288600,5.87628857421875,0.45558860898017883,-0.13283205032348633,0.2071085274219513
1782952304336215800,5.8862158203125,0.4468976557254791,-0.13569335639476776,0.20379874110221863
1782952304346143700,5.896143798828125,0.4230961799621582,-0.11614096164703369,0.20462912321090698
1782952304356070700,5.906070556640625,0.3883023262023926,-0.09117525070905685,0.2040081024169922
1782952304365997800,5.915997802734375,0.3393150866031647,-0.06610451638698578,0.20371781289577484
1782952304375924700,5.9259248046875,0.28136393427848816,-0.06932321190834045,0.18392370641231537
1782952304385853000,5.93585302734375,0.21833808720111847,-0.10220898687839508,0.13111135363578796
1782952304395779800,5.94577978515625,0.14588753879070282,-0.14528857171535492,0.06092865392565727
1782952304405707000,5.95570703125,0.07279335707426071,-0.18857426941394806,-0.015712061896920204
1782952304415633700,5.965633544921875,-0.00568991107866168,-0.20806296169757843,-0.08138557523488998
1782952304425561900,5.975561767578125,-0.07406630367040634,-0.21339620649814606,-0.11788739264011383
1782952304435488800,5.98548876953125,-0.13616687059402466,-0.17553186416625977,-0.12942826747894287
1782952304445415700,5.995415771484375,-0.19186900556087494,-0.11799533665180206,-0.10392982512712479
1782952304455342800,6.0053427734375,-0.2356441468000412,-0.032681092619895935,-0.0373634472489357
1782952304465269800,6.015269775390625,-0.2626084089279175,0.07419636100530624,0.04451863467693329
1782952304475197700,6.02519775390625,-0.28650328516960144,0.16287177801132202,0.11560556292533875
1782952304485124900,6.035124755859375,-0.3018108904361725,0.20275181531906128,0.1642567217350006
1782952304495051800,6.0450517578125,-0.31139543652534485,0.19220764935016632,0.17715030908584595
1782952304504979000,6.05497900390625,-0.32425954937934875,0.12854425609111786,0.1642845720052719
1782952304514907000,6.064906982421875,-0.3371671736240387,0.03343848139047623,0.11105213314294815
1782952304524833800,6.074833740234375,-0.35021212697029114,-0.08366257697343826,0.0429053008556366
1782952304534760700,6.0847607421875,-0.3711208403110504,-0.18240603804588318,-0.022658824920654297
1782952304544687900,6.09468798828125,-0.39957085251808167,-0.24177002906799316,-0.06963565200567245
1782952304554615800,6.10461572265625,-0.4351743161678314,-0.28280067443847656,-0.09654474258422852
1782952304564542700,6.114542724609375,-0.4730721712112427,-0.2769278585910797,-0.10196267813444138
1782952304574470000,6.124469970703125,-0.5103678107261658,-0.24125824868679047,-0.07766731083393097
1782952304584396800,6.134396728515625,-0.5334670543670654,-0.18944485485553741,-0.04319481924176216
1782952304594324700,6.14432470703125,-0.5429483652114868,-0.1457466185092926,-0.01104748249053955
1782952304604252000,6.154251953125,-0.5428317189216614,-0.12465783953666687,0.010866604745388031
1782952304614178800,6.1641787109375,-0.5515730977058411,-0.12006354331970215,0.019721385091543198
1782952304624105700,6.174105712890625,-0.5672186613082886,-0.12564153969287872,0.005511290393769741
1782952304634033700,6.18403369140625,-0.5992058515548706,-0.15932944416999817,-0.029058463871479034
1782952304643960800,6.1939609375,-0.6328442692756653,-0.19471752643585205,-0.09192131459712982
1782952304653887700,6.2038876953125,-0.6700352430343628,-0.22433145344257355,-0.1829313039779663
1782952304663814700,6.213814697265625,-0.6984341144561768,-0.23109561204910278,-0.2765912115573883
1782952304673742800,6.223742919921875,-0.7182324528694153,-0.21323652565479279,-0.34973007440567017
1782952304683669800,6.233669677734375,-0.723258376121521,-0.18853729963302612,-0.3845357298851013
1782952304693597000,6.243596923828125,-0.7066633105278015,-0.1524415761232376,-0.3711949288845062
1782952304703523800,6.25352392578125,-0.6738696694374084,-0.09931790828704834,-0.3213280439376831
1782952304713451800,6.26345166015625,-0.6393592357635498,-0.051863498985767365,-0.2619161903858185
1782952304723379000,6.27337890625,-0.5989513397216797,-0.012650849297642708,-0.2157881259918213
1782952304733305600,6.2833056640625,-0.5628658533096313,0.01948658563196659,-0.1913745403289795
1782952304743232300,6.293232177734375,-0.5354642868041992,0.0312175415456295,-0.2001217007637024
1782952304753159200,6.3031591796875,-0.5102723836898804,0.02280447818338871,-0.23215237259864807
1782952304763087400,6.31308740234375,-0.48992103338241577,-0.0023831678554415703,-0.2803039252758026
1782952304773014000,6.323013916015625,-0.4830033481121063,-0.04824686422944069,-0.34018227458000183
1782952304782941200,6.332941162109375,-0.4882756173610687,-0.09932363033294678,-0.3926880955696106
1782952304792868000,6.3428681640625,-0.49990835785865784,-0.1378505527973175,-0.4252983033657074
1782952304802796000,6.352796142578125,-0.5053369998931885,-0.16148024797439575,-0.4377448558807373
1782952304812723200,6.36272314453125,-0.5081047415733337,-0.14703617990016937,-0.4243931472301483
1782952304822650000,6.372650146484375,-0.5055179595947266,-0.11843009293079376,-0.39921748638153076
1782952304832577300,6.382577392578125,-0.5049911141395569,-0.07505512982606888,-0.35902851819992065
1782952304842505200,6.392505126953125,-0.4963235855102539,-0.0017132714856415987,-0.3230462968349457
1782952304852432100,6.40243212890625,-0.49029916524887085,0.0629214197397232,-0.2829087972640991
1782952304862359000,6.412359130859375,-0.47694259881973267,0.10276950150728226,-0.23936344683170319
1782952304872286200,6.4222861328125,-0.44989630579948425,0.11730612814426422,-0.20241965353488922
1782952304882214100,6.432214111328125,-0.41325122117996216,0.10885964334011078,-0.17901578545570374
1782952304892141000,6.44214111328125,-0.3584539294242859,0.06890241801738739,-0.16235202550888062
1782952304902068200,6.452068115234375,-0.2905829846858978,0.017944954335689545,-0.13571402430534363
1782952304911995100,6.4619951171875,-0.21562637388706207,-0.024617908522486687,-0.10000880807638168
1782952304921923000,6.471923095703125,-0.13934092223644257,-0.048435624688863754,-0.06214851513504982
1782952304931850200,6.481850341796875,-0.07648548483848572,-0.05188119411468506,-0.04238690808415413
1782952304941777200,6.491777099609375,-0.022316252812743187,-0.057103388011455536,-0.04481251537799835
1782952304951704300,6.501704345703125,0.01872328296303749,-0.07063999027013779,-0.0760895237326622
1782952304961631000,6.511630859375,0.051906537264585495,-0.10897219926118851,-0.11522174626588821
1782952304971559200,6.52155908203125,0.07667487114667892,-0.15498915314674377,-0.15416426956653595
1782952304981486000,6.531486083984375,0.10198555141687393,-0.22218044102191925,-0.17427405714988708
1782952304991413000,6.5414130859375,0.13140429556369781,-0.26060420274734497,-0.14292071759700775
1782952305001340200,6.551340087890625,0.1568683683872223,-0.24739970266819,-0.06115742027759552
1782952305011268000,6.56126806640625,0.18443621695041656,-0.1762920469045639,0.06405648589134216
1782952305021195300,6.5711953125,0.21368758380413055,-0.059621620923280716,0.1947990506887436
1782952305031122200,6.5811220703125,0.23999063670635223,0.07786265015602112,0.3071349263191223
1782952305041049300,6.59104931640625,0.27191635966300964,0.2142828106880188,0.36818549036979675
1782952305050977300,6.600977294921875,0.30208340287208557,0.2914890646934509,0.3728408217430115
1782952305060904200,6.610904296875,0.32140329480171204,0.2828527092933655,0.3261297941207886
1782952305070831000,6.6208310546875,0.33569350838661194,0.2131367325782776,0.2655947506427765
1782952305080758000,6.630758056640625,0.35349753499031067,0.11243969202041626,0.1993510127067566
1782952305090686200,6.640686279296875,0.3735957145690918,0.014513429254293442,0.14145879447460175
1782952305100613000,6.650613037109375,0.39674150943756104,-0.040526654571294785,0.10828059911727905
1782952305110540000,6.6605400390625,0.41911283135414124,-0.06209946796298027,0.09428102523088455
1782952305120467200,6.67046728515625,0.4402655065059662,-0.03927697613835335,0.11279479414224625
1782952305130395100,6.68039501953125,0.4562039077281952,0.028817068785429,0.1669464111328125
1782952305140322300,6.690322265625,0.4764271378517151,0.1053864136338234,0.24827349185943604
1782952305150249200,6.700249267578125,0.5042290687561035,0.158498153090477,0.3252505958080292
1782952305160176400,6.71017626953125,0.5473389625549316,0.19147181510925293,0.3744088113307953
1782952305170104300,6.720104248046875,0.5956012606620789,0.20642141997814178,0.39700037240982056
1782952305180031000,6.730031005859375,0.6357846260070801,0.20165516436100006,0.39129772782325745
1782952305189958100,6.739958251953125,0.6771782040596008,0.18564549088478088,0.3764475882053375
1782952305199885000,6.749885009765625,0.7077760696411133,0.16636979579925537,0.3602457046508789
1782952305209813000,6.75981298828125,0.7285038828849792,0.13062426447868347,0.34694644808769226
1782952305219740200,6.769740234375,0.7358297109603882,0.10693810135126114,0.3197787404060364
1782952305229667000,6.7796669921875,0.7233743071556091,0.12087413668632507,0.279658704996109
1782952305239594200,6.78959423828125,0.6997110843658447,0.14014770090579987,0.2320360541343689
1782952305249521200,6.799521240234375,0.6750125288963318,0.1385623961687088,0.19900517165660858
1782952305259449300,6.809449462890625,0.6533098816871643,0.14841876924037933,0.21183869242668152
1782952305269376300,6.819376220703125,0.6339288353919983,0.16259747743606567,0.24453191459178925
1782952305279303200,6.82930322265625,0.6268208622932434,0.16860263049602509,0.2727145552635193
1782952305289230000,6.83922998046875,0.6363142728805542,0.14518257975578308,0.2745576500892639
1782952305299158000,6.849157958984375,0.6840237379074097,0.08634428679943085,0.2906956076622009
1782952305309085200,6.859085205078125,0.7182776927947998,-0.024743463844060898,0.2504541575908661
1782952305319012000,6.86901220703125,0.7607835531234741,-0.12345379590988159,0.20111003518104553
1782952305328939300,6.878939208984375,0.7929165363311768,-0.21944087743759155,0.16721919178962708
1782952305338867200,6.8888671875,0.7766520977020264,-0.3108341693878174,0.15450605750083923
1782952305348794000,6.898794189453125,0.7210264205932617,-0.336090624332428,0.1488092690706253
1782952305358721300,6.90872119140625,0.6292546987533569,-0.2928195893764496,0.145733043551445
1782952305368648000,6.91864794921875,0.520527720451355,-0.20211352407932281,0.13582004606723785
1782952305378576400,6.928576416015625,0.4082237482070923,-0.08969670534133911,0.13423334062099457
1782952305388503000,6.9385029296875,0.31282058358192444,0.04062708839774132,0.16021649539470673
1782952305398430200,6.94843017578125,0.22633865475654602,0.14808085560798645,0.20174743235111237
1782952305408357000,6.958357177734375,0.15454228222370148,0.2091095894575119,0.2430104911327362
1782952305418285000,6.96828515625,0.11082649230957031,0.23306578397750854,0.2599678933620453
1782952305428212200,6.978212158203125,0.09902193397283554,0.2238827645778656,0.24499282240867615
1782952305438139100,6.98813916015625,0.11316758394241333,0.19785596430301666,0.22554482519626617
1782952305448066300,6.99806640625,0.14154280722141266,0.1657503843307495,0.21788325905799866
1782952305457993200,7.0079931640625,0.16875632107257843,0.11359663307666779,0.21735940873622894
1782952305467921200,7.017921142578125,0.18885192275047302,0.033575527369976044,0.23880137503147125
1782952305477848000,7.02784814453125,0.1910913735628128,-0.039530374109745026,0.26074397563934326
1782952305487775000,7.03777490234375,0.15753217041492462,-0.07553893327713013,0.2729678153991699
1782952305497702100,7.0477021484375,0.10211524367332458,-0.08524908870458603,0.26635250449180603
1782952305507630000,7.057630126953125,0.021361637860536575,-0.05513041839003563,0.23347193002700806
1782952305517557200,7.06755712890625,-0.07372972369194031,0.0027912049554288387,0.16166645288467407
1782952305527484200,7.077484130859375,-0.18605467677116394,0.09110188484191895,0.0602656789124012
1782952305537411300,7.087411376953125,-0.30420100688934326,0.17866556346416473,-0.05970706418156624
1782952305547339300,7.09733935546875,-0.42607057094573975,0.1977999210357666,-0.1956687569618225
1782952305557266200,7.10726611328125,-0.5389909744262695,0.14546002447605133,-0.3272302448749542
1782952305567193300,7.117193359375,-0.6425729990005493,0.05936231464147568,-0.43842166662216187
1782952305577120000,7.1271201171875,-0.7441427707672119,-0.01986086741089821,-0.5155758857727051
1782952305587048000,7.1370478515625,-0.8372563123703003,-0.042956408113241196,-0.5485911965370178
1782952305596975000,7.14697509765625,-0.8860020041465759,-0.00886688195168972,-0.531752347946167
1782952305606902000,7.156902099609375,-0.8915637135505676,0.07426648586988449,-0.4640852212905884
1782952305616829200,7.1668291015625,-0.8590726256370544,0.23547641932964325,-0.35496780276298523
1782952305626757000,7.176757080078125,-0.8030384182929993,0.39745014905929565,-0.22148872911930084
1782952305636684300,7.186684326171875,-0.722065806388855,0.4852431118488312,-0.11663155257701874
1782952305646611200,7.196611083984375,-0.639724612236023,0.4913201630115509,-0.05445435643196106
1782952305656538400,7.206538330078125,-0.5768077373504639,0.3961835503578186,-0.03710252791643143
1782952305666466300,7.21646630859375,-0.5356910824775696,0.21021372079849243,-0.06809347867965698
1782952305676393200,7.226393310546875,-0.5186172723770142,-0.017794683575630188,-0.11840005964040756
1782952305686320000,7.236320068359375,-0.5208197832107544,-0.2276284098625183,-0.16762910783290863
1782952305696247000,7.2462470703125,-0.5449422001838684,-0.3596348762512207,-0.1983974128961563
1782952305706175000,7.256175048828125,-0.5942902565002441,-0.3981013298034668,-0.21255004405975342
1782952305716102100,7.26610205078125,-0.6506584882736206,-0.36693355441093445,-0.19276754558086395
1782952305726029000,7.276029052734375,-0.7021654844284058,-0.25630179047584534,-0.1428653448820114
1782952305735955500,7.28595556640625,-0.7342028021812439,-0.12783436477184296,-0.07489348948001862
1782952305745882600,7.295882568359375,-0.752362847328186,-0.03289398178458214,-0.037162043154239655
1782952305755810600,7.305810546875,-0.7663577795028687,-0.0005573476664721966,-0.024890996515750885
1782952305765737500,7.315737548828125,-0.7740566730499268,-0.021453162655234337,-0.04454419016838074
1782952305775664600,7.32566455078125,-0.7805883288383484,-0.07671455293893814,-0.0980396419763565
1782952305785591600,7.335591552734375,-0.7891800403594971,-0.14373275637626648,-0.1516733467578888
1782952305795519500,7.34551953125,-0.7961724400520325,-0.2005254626274109,-0.2015058845281601
1782952305805446700,7.35544677734375,-0.8004071712493896,-0.2283180058002472,-0.2177571803331375
1782952305815373600,7.36537353515625,-0.7978460192680359,-0.23290343582630157,-0.20421767234802246
1782952305825300500,7.375300537109375,-0.776182234287262,-0.20286110043525696,-0.15186451375484467
1782952305835228400,7.385228515625,-0.7447028756141663,-0.14414186775684357,-0.09933365881443024
1782952305845155600,7.395155517578125,-0.7042165398597717,-0.09625546634197235,-0.05275499075651169
1782952305855082500,7.40508251953125,-0.6621580123901367,-0.053983643651008606,-0.029192142188549042
1782952305865009700,7.415009765625,-0.6235508322715759,-0.01091837603598833,-0.025680623948574066
1782952305874937600,7.4249375,-0.5854412317276001,0.03468159958720207,-0.054359935224056244
1782952305884864500,7.434864501953125,-0.5544920563697815,0.06039363518357277,-0.11030597984790802
1782952305894791700,7.444791748046875,-0.516044020652771,0.08196737617254257,-0.17479895055294037
1782952305904718600,7.454718505859375,-0.5143288373947144,0.1054622232913971,-0.24713560938835144
1782952305914646500,7.464646484375,-0.5253183841705322,0.10162913799285889,-0.3253007233142853
1782952305924573400,7.474573486328125,-0.5549177527427673,0.08244868367910385,-0.3971812129020691
1782952305934500400,7.484500244140625,-0.5828849673271179,0.06255433708429337,-0.45769304037094116
1782952305944427500,7.494427490234375,-0.6017243266105652,0.05365624651312828,-0.4968303442001343
1782952305954354400,7.5043544921875,-0.6024590730667114,0.061078209429979324,-0.5266313552856445
1782952305964282600,7.51428271484375,-0.5883512496948242,0.08923112601041794,-0.5454060435295105
1782952305974209500,7.52420947265625,-0.5567470192909241,0.11275376379489899,-0.5489251613616943
1782952305984136700,7.53413671875,-0.5134015083312988,0.12697605788707733,-0.5246185660362244
1782952305994063600,7.544063720703125,-0.4656880497932434,0.13555462658405304,-0.4948452413082123
1782952306003991600,7.553991455078125,-0.407324880361557,0.13445594906806946,-0.44624462723731995
1782952306013918700,7.563918701171875,-0.341011643409729,0.09962660074234009,-0.38080915808677673
1782952306023845400,7.573845458984375,-0.28002092242240906,0.07228181511163712,-0.30913546681404114
1782952306033772500,7.5837724609375,-0.22060075402259827,0.06660501658916473,-0.252849817276001
1782952306043700500,7.593700439453125,-0.16433431208133698,0.06320534646511078,-0.21342691779136658
1782952306053627400,7.60362744140625,-0.11239416152238846,0.07023156434297562,-0.18903662264347076
1782952306063554600,7.613554443359375,-0.049558788537979126,0.09123268723487854,-0.17810408771038055
1782952306073481500,7.6234814453125,0.01248300913721323,0.09440264850854874,-0.19012372195720673
1782952306083409700,7.63340966796875,0.08051776140928268,0.06979027390480042,-0.2109910249710083
1782952306093336600,7.643336669921875,0.13679303228855133,0.024479251354932785,-0.2273966372013092
1782952306103263700,7.653263671875,0.18132434785366058,-0.02879231795668602,-0.2235558032989502
1782952306113190700,7.663190673828125,0.21279066801071167,-0.048806507140398026,-0.20218420028686523
1782952306123118600,7.67311865234375,0.2505486309528351,-0.03297751396894455,-0.13615308701992035
1782952306133045500,7.68304541015625,0.29235437512397766,-0.003379406873136759,-0.0335252471268177
1782952306142972400,7.692972412109375,0.3546343147754669,0.05585303530097008,0.07134652137756348
1782952306152899600,7.702899658203125,0.4248583912849426,0.1235274225473404,0.16539232432842255
1782952306162827500,7.71282763671875,0.49046361446380615,0.17168475687503815,0.24106787145137787
1782952306172754400,7.72275439453125,0.5304520130157471,0.1949370801448822,0.28006240725517273
1782952306182681600,7.732681640625,0.5523232817649841,0.19385477900505066,0.28746283054351807
1782952306192608500,7.7426083984375,0.5605681538581848,0.1326526701450348,0.2462775856256485
1782952306202536700,7.75253662109375,0.5603381991386414,0.03902796655893326,0.17845293879508972
1782952306212463600,7.762463623046875,0.5628108978271484,-0.02768794819712639,0.11069893836975098
1782952306222390500,7.772390625,0.5677185654640198,-0.07011039555072784,0.06795310229063034
1782952306232317400,7.7823173828125,0.5845910310745239,-0.08188822865486145,0.047687772661447525
1782952306242245400,7.792245361328125,0.5976881980895996,-0.06530389934778214,0.048140399158000946
1782952306252172500,7.802172607421875,0.6190403699874878,0.009190311655402184,0.06910267472267151
1782952306262099500,7.812099365234375,0.6365587115287781,0.10285106301307678,0.10932273417711258
1782952306272026600,7.822026611328125,0.664943516254425,0.1903068721294403,0.15181612968444824
1782952306281953500,7.83195361328125,0.6886994242668152,0.2615587115287781,0.21104750037193298
1782952306291881500,7.841881591796875,0.7151315808296204,0.32337865233421326,0.27977702021598816
1782952306301808600,7.85180859375,0.7449295520782471,0.3539794981479645,0.33591628074645996
1782952306311735600,7.861735595703125,0.7910168766975403,0.35499975085258484,0.3703134059906006
1782952306321662500,7.871662353515625,0.8437402844429016,0.3245463967323303,0.39277756214141846
1782952306331590700,7.881590576171875,0.9011535048484802,0.27018433809280396,0.39892467856407166
1782952306341517600,7.891517578125,0.9494359493255615,0.18177840113639832,0.37895089387893677
1782952306351444500,7.901444580078125,0.9808162450790405,0.036081913858652115,0.32002687454223633
1782952306361371400,7.911371337890625,0.9909253716468811,-0.11716250330209732,0.2382369339466095
1782952306371299600,7.921299560546875,0.9773762226104736,-0.2593955397605896,0.1605309545993805
1782952306381226500,7.9312265625,0.9466385841369629,-0.3546889126300812,0.09827803820371628
1782952306391153700,7.941153564453125,0.8874005675315857,-0.4018135368824005,0.043811339884996414
1782952306401080600,7.95108056640625,0.8141925930976868,-0.3753201961517334,0.01436344813555479
1782952306411008500,7.961008544921875,0.7286092042922974,-0.2895030379295349,0.016546709463000298
1782952306420935700,7.970935791015625,0.6368047595024109,-0.14351612329483032,0.03648326173424721
1782952306430862300,7.9808623046875,0.5440857410430908,0.031754493713378906,0.054876383394002914
1782952306440789500,7.99078955078125,0.45456868410110474,0.1576707661151886,0.052215322852134705
1782952306450717400,8.000717529296875,0.38013359904289246,0.2156941145658493,0.040125101804733276
1782952306460644600,8.01064453125,0.3336668610572815,0.2394077479839325,0.011844669468700886
1782952306470571500,8.020571533203125,0.36150115728378296,0.2300560623407364,0.06571801751852036
1782952306480498400,8.03049853515625,0.4003201425075531,0.13343922793865204,0.09739786386489868
1782952306490426600,8.040426513671875,0.48503369092941284,0.05268711969256401,0.1363852173089981
1782952306500353500,8.050353515625,0.5902193784713745,-0.049225062131881714,0.19232366979122162
1782952306510280700,8.06028076171875,0.6866912841796875,-0.15736645460128784,0.26175999641418457
1782952306520207600,8.07020751953125,0.7555946111679077,-0.22711870074272156,0.3275233209133148
1782952306530135600,8.080135498046875,0.7809346318244934,-0.26229530572891235,0.3475516140460968
1782952306540062500,8.0900625,0.7805171012878418,-0.23521572351455688,0.3236066997051239
1782952306549989400,8.0999892578125,0.7489533424377441,-0.1791796237230301,0.2565437853336334
1782952306559916500,8.10991650390625,0.6798078417778015,-0.0954308956861496,0.1834043264389038
1782952306569843500,8.119843505859375,0.5975678563117981,-0.04207367077469826,0.12714211642742157
1782952306579771400,8.129771484375,0.5195431113243103,-0.02423872798681259,0.1049114316701889
1782952306589698600,8.139698486328125,0.47036412358283997,-0.020961176604032516,0.1436002403497696
1782952306599625500,8.14962548828125,0.4490211009979248,-0.01013285480439663,0.21350476145744324
1782952306609552600,8.159552734375,0.43782275915145874,-0.003717033891007304,0.27926912903785706
1782952306619480600,8.16948046875,0.4201628565788269,-0.01416672021150589,0.3171037435531616
1782952306629407700,8.17940771484375,0.3849409520626068,-0.04365350306034088,0.3200036585330963
1782952306639334400,8.18933447265625,0.32137352228164673,-0.07904567569494247,0.27938100695610046
1782952306649261600,8.199261474609376,0.2285114973783493,-0.12049777060747147,0.19050732254981995
1782952306659189500,8.209189453125,0.11277179419994354,-0.13404741883277893,0.06048072129487991
1782952306669116400,8.219116455078124,-0.002267705276608467,-0.10573030263185501,-0.0854376032948494
1782952306679043600,8.229043701171875,-0.10781317204236984,-0.028222402557730675,-0.19863846898078918
1782952306688970500,8.238970458984374,-0.1738595813512802,0.08112938702106476,-0.2420613020658493
1782952306698898400,8.2488984375,-0.20485977828502655,0.21423766016960144,-0.2005506157875061
1782952306708825600,8.25882568359375,-0.18617583811283112,0.3259564936161041,-0.09634964913129807
1782952306718752500,8.26875244140625,-0.1415969282388687,0.379693865776062,0.03619861230254173
1782952306728679700,8.2786796875,-0.09377667307853699,0.36539560556411743,0.14293012022972107
1782952306738607000,8.288607177734375,-0.048608481884002686,0.2760840952396393,0.21959006786346436
1782952306748534000,8.298533935546875,-0.011772170662879944,0.13257193565368652,0.25524553656578064
1782952306758461000,8.3084609375,-0.00040864228503778577,-0.03210340067744255,0.2340441197156906
1782952306768388000,8.31838818359375,-0.01204932015389204,-0.1445191502571106,0.16942065954208374
1782952306778316000,8.32831591796875,-0.054300591349601746,-0.20448312163352966,0.08501550555229187
1782952306788243000,8.338242919921875,-0.11674319207668304,-0.22889339923858643,0.01230774074792862
1782952306798170000,8.348170166015626,-0.19777937233448029,-0.2103690803050995,-0.036912523210048676
1782952306808097000,8.358096923828125,-0.29229310154914856,-0.16085770726203918,-0.06959909200668335
1782952306818025200,8.368025146484374,-0.38546743988990784,-0.0990956574678421,-0.10443966090679169
1782952306827952000,8.3779521484375,-0.46314147114753723,-0.049773115664720535,-0.1255505383014679
1782952306837879300,8.38787939453125,-0.523492157459259,-0.02539241500198841,-0.1256563812494278
1782952306847806000,8.397805908203125,-0.555394172668457,-0.017887894064188004,-0.11214003711938858
1782952306857734000,8.40773388671875,-0.5684889554977417,-0.0177918653935194,-0.07404407858848572
1782952306867661000,8.4176611328125,-0.5718780755996704,-0.02025448903441429,-0.03797502443194389
1782952306877588000,8.427587890625,-0.5711270570755005,-0.019988853484392166,0.010215544141829014
1782952306887515100,8.43751513671875,-0.5693094730377197,-0.01707242801785469,0.06313788145780563
1782952306897442000,8.447442138671875,-0.5712380409240723,-0.021585669368505478,0.10256656259298325
1782952306907370000,8.457369873046876,-0.579020082950592,-0.02990484982728958,0.10829262435436249
1782952306917297200,8.467297119140625,-0.5897809863090515,-0.043518438935279846,0.09375955164432526
1782952306927224000,8.47722412109375,-0.6008490920066833,-0.061733394861221313,0.05736132711172104
1782952306937151200,8.487151123046875,-0.6099973917007446,-0.0977575033903122,0.015931611880660057
1782952306947079200,8.4970791015625,-0.6116349697113037,-0.1318877935409546,-0.02465709298849106
1782952306957006000,8.507006103515625,-0.6085965037345886,-0.1726551353931427,-0.05868474021553993
1782952306966933000,8.51693310546875,-0.6038976311683655,-0.19202111661434174,-0.0803745836019516
1782952306976860200,8.526860107421875,-0.6086763739585876,-0.2131548821926117,-0.10579536855220795
1782952306986788000,8.5367880859375,-0.6209309101104736,-0.23178209364414215,-0.12600210309028625
1782952306996715000,8.546715087890625,-0.6369945406913757,-0.23734623193740845,-0.14442163705825806
1782952307006642200,8.55664208984375,-0.6485443711280823,-0.24990862607955933,-0.16870327293872833
1782952307016569000,8.566569091796875,-0.6506085991859436,-0.26391059160232544,-0.19451302289962769
1782952307026497000,8.5764970703125,-0.6503947377204895,-0.269732803106308,-0.23806555569171906
1782952307036424200,8.586424072265626,-0.6490651369094849,-0.2605924606323242,-0.2880152761936188
1782952307046351000,8.59635107421875,-0.6633487343788147,-0.22544750571250916,-0.3433201014995575
1782952307056278000,8.606278076171876,-0.6833970546722412,-0.18434260785579681,-0.3932900130748749
1782952307066206000,8.6162060546875,-0.7144303321838379,-0.14067980647087097,-0.4367717206478119
1782952307076133000,8.626133056640626,-0.7390589118003845,-0.09299309551715851,-0.46755778789520264
1782952307086060000,8.63606005859375,-0.7410704493522644,-0.05327071249485016,-0.47760722041130066
1782952307095987200,8.6459873046875,-0.7256884574890137,-0.027141597121953964,-0.4613009989261627
1782952307105915100,8.6559150390625,-0.691219687461853,0.010802321135997772,-0.40781328082084656
1782952307115842000,8.665842041015624,-0.6312898993492126,0.04178813844919205,-0.31873345375061035
1782952307125769200,8.675769287109375,-0.5556332468986511,0.04838345944881439,-0.20721864700317383
1782952307135696100,8.685696044921874,-0.47955557703971863,0.05278083682060242,-0.09618666768074036
1782952307145624000,8.6956240234375,-0.3984151780605316,0.04972539469599724,-0.012008404359221458
1782952307155551200,8.70555126953125,-0.32265958189964294,0.02480866014957428,0.04279714450240135
1782952307165478000,8.715477783203125,-0.2514098882675171,0.010617474094033241,0.06982184201478958
1782952307175405000,8.725405029296875,-0.19272767007350922,-0.0031428132206201553,0.06939573585987091
1782952307185332000,8.73533203125,-0.14695458114147186,-0.010842544957995415,0.05716516450047493
1782952307195260200,8.74526025390625,-0.10572657734155655,-0.007991024293005466,0.05082358047366142
1782952307205187000,8.75518701171875,-0.07540329545736313,0.009788505733013153,0.04314834997057915
1782952307215114200,8.7651142578125,-0.04048588499426842,0.031682174652814865,0.029587410390377045
1782952307225041200,8.775041259765626,-0.007079991977661848,0.06229308247566223,0.005753715522587299
1782952307234969000,8.784968994140625,0.028778892010450363,0.051318030804395676,-0.02255949005484581
1782952307244896300,8.794896240234374,0.06767382472753525,0.005338555667549372,-0.06618792563676834
1782952307254823000,8.804822998046875,0.10456189513206482,-0.05124345421791077,-0.10527999699115753
1782952307264750000,8.81475,0.13199244439601898,-0.08864142000675201,-0.12603481113910675
1782952307274678000,8.824677978515625,0.1568673998117447,-0.10167336463928223,-0.11738474667072296
1782952307284605000,8.83460498046875,0.18863119184970856,-0.09178051352500916,-0.07343140244483948
1782952307294532000,8.844531982421875,0.2214718759059906,-0.030694298446178436,0.011719604022800922
1782952307304459000,8.854458984375,0.26004454493522644,0.06450891494750977,0.12010706216096878
1782952307314387200,8.86438720703125,0.29872602224349976,0.17621687054634094,0.23145806789398193
1782952307324314000,8.874314208984375,0.3443526327610016,0.2613498866558075,0.31265491247177124
1782952307334241000,8.884240966796876,0.39218559861183167,0.2879434823989868,0.3532843589782715
1782952307344168200,8.894168212890625,0.4328605830669403,0.25527477264404297,0.34700676798820496
1782952307354096000,8.90409619140625,0.46454283595085144,0.1761707365512848,0.3075896203517914
1782952307364023000,8.91402294921875,0.4803018271923065,0.07849796861410141,0.25021207332611084
1782952307373950000,8.923949951171876,0.47773507237434387,0.020643724128603935,0.18643894791603088
1782952307383877000,8.933877197265625,0.46507546305656433,0.01748175360262394,0.14016945660114288
1782952307393805000,8.94380517578125,0.45199790596961975,0.06493856757879257,0.11214514821767807
1782952307403732000,8.95373193359375,0.42945852875709534,0.15253792703151703,0.10939303785562515
1782952307413659100,8.9636591796875,0.4231414794921875,0.21821118891239166,0.1269838660955429
1782952307423586000,8.9735859375,0.44132447242736816,0.2654721736907959,0.16634857654571533
1782952307433514200,8.98351416015625,0.483033150434494,0.27582553029060364,0.21022069454193115
1782952307443441200,8.993441162109375,0.5303453207015991,0.29169532656669617,0.2228885442018509
1782952307453368000,9.0033681640625,0.5871654748916626,0.28960540890693665,0.21358007192611694
1782952307463295000,9.013294921875,0.6548033952713013,0.24385419487953186,0.19889938831329346
1782952307473222100,9.02322216796875,0.7176488041877747,0.17453354597091675,0.18839560449123383
1782952307483150000,9.033150146484376,0.7671372890472412,0.11262542009353638,0.18096618354320526
1782952307493077000,9.043076904296875,0.8036383390426636,0.04390110820531845,0.17062748968601227
1782952307503004200,9.053004150390626,0.8346439599990845,-0.016620025038719177,0.16713662445545197
1782952307512931000,9.06293115234375,0.8481062054634094,-0.04933004081249237,0.15237009525299072
1782952307522859000,9.07285888671875,0.852918803691864,-0.06218511983752251,0.12499306350946426
1782952307532786200,9.0827861328125,0.8432514071464539,-0.06971514225006104,0.10146838426589966
1782952307542713000,9.092713134765624,0.8159359097480774,-0.07111303508281708,0.08705855160951614
1782952307552640300,9.10264013671875,0.7832418084144592,-0.0763472318649292,0.06825711578130722
1782952307562568200,9.112568115234374,0.7432743906974792,-0.07402016222476959,0.03879376873373985
1782952307572495000,9.1224951171875,0.6988968849182129,-0.060391806066036224,-0.0043650739826262
1782952307582422000,9.132422119140625,0.6513980627059937,-0.026275644078850746,-0.055354222655296326
1782952307592349000,9.142348876953125,0.6206244230270386,0.03801332786679268,-0.059771716594696045
1782952307602277000,9.152277099609375,0.5663747787475586,0.07329142093658447,-0.07738133519887924
1782952307612204000,9.1622041015625,0.5167492032051086,0.12395273149013519,-0.10487804561853409
1782952307622131200,9.172131103515625,0.4848508834838867,0.17739145457744598,-0.12662701308727264
1782952307632058000,9.18205810546875,0.47872695326805115,0.18621104955673218,-0.1421831250190735
1782952307641986000,9.191986083984375,0.49573203921318054,0.1632186472415924,-0.13100557029247284
1782952307651913200,9.201913330078124,0.5228697061538696,0.12162448465824127,-0.09327910840511322
1782952307661840100,9.211840087890625,0.5594578385353088,0.06571967154741287,-0.04988529160618782
1782952307671767000,9.22176708984375,0.5912250280380249,-0.0027218724135309458,-0.008154643699526787
1782952307681695000,9.231695068359375,0.6045871376991272,-0.05700188875198364,0.04774803668260574
1782952307691622100,9.2416220703125,0.6000083088874817,-0.09619470685720444,0.104856938123703
1782952307701549000,9.251549072265625,0.5828863382339478,-0.13636928796768188,0.15218929946422577
1782952307711476000,9.26147607421875,0.5551122426986694,-0.14705681800842285,0.18165186047554016
1782952307721404200,9.271404052734376,0.5126750469207764,-0.13461638987064362,0.17012250423431396
1782952307731331000,9.2813310546875,0.46434667706489563,-0.11783899366855621,0.13091787695884705
1782952307741258500,9.291258544921876,0.41019824147224426,-0.09637470543384552,0.08158443123102188
1782952307751185400,9.301185302734375,0.3499281108379364,-0.07842586934566498,0.05215694010257721
1782952307761113300,9.31111328125,0.2814105749130249,-0.07322339713573456,0.04909110814332962
1782952307771040500,9.32104052734375,0.20804040133953094,-0.07825001329183578,0.061708610504865646
1782952307780965400,9.33096533203125,0.12842786312103271,-0.09389075636863708,0.07840875536203384
1782952307790892300,9.340892333984375,0.0499175563454628,-0.1166612058877945,0.07425399124622345
1782952307800820200,9.3508203125,-0.031874511390924454,-0.1439434140920639,0.04640132188796997
1782952307810747400,9.360747314453125,-0.11200205981731415,-0.18089210987091064,-0.013745051808655262
1782952307820674300,9.37067431640625,-0.19238293170928955,-0.2225641906261444,-0.10730323195457458
1782952307830601500,9.3806015625,-0.28272271156311035,-0.2366485893726349,-0.20578910410404205
1782952307840529400,9.390529296875,-0.36668339371681213,-0.2046099603176117,-0.27018222212791443
1782952307850456600,9.40045654296875,-0.43292227387428284,-0.12294811010360718,-0.29569312930107117
1782952307860383500,9.410383544921874,-0.4845849573612213,-0.02386120893061161,-0.25775933265686035
1782952307870310400,9.420310302734375,-0.5040999054908752,0.08601558953523636,-0.1623823642730713
1782952307880238600,9.430238525390624,-0.48673367500305176,0.18352669477462769,-0.025369128212332726
1782952307890165200,9.440165283203125,-0.4559005796909332,0.21247875690460205,0.10716664046049118
1782952307900092400,9.450092529296874,-0.4114939868450165,0.15047210454940796,0.19637560844421387
1782952307910019300,9.460019287109375,-0.37483033537864685,0.02040914259850979,0.23563945293426514
1782952307919947300,9.469947265625,-0.34016290307044983,-0.15998859703540802,0.21636615693569183
1782952307929874400,9.47987451171875,-0.3286098539829254,-0.3403633236885071,0.1441468596458435
1782952307939801300,9.48980126953125,-0.3504807949066162,-0.45122405886650085,0.04472945258021355
1782952307949728500,9.499728515625,-0.4090784788131714,-0.4865797162055969,-0.043426595628261566
1782952307959656400,9.509656494140625,-0.4936482310295105,-0.4731762707233429,-0.10693393647670746
1782952307969583600,9.51958349609375,-0.5972943305969238,-0.40667298436164856,-0.13600753247737885
1782952307979510300,9.52951025390625,-0.7129247784614563,-0.3022879660129547,-0.14139671623706818
1782952307989437400,9.5394375,-0.8113200068473816,-0.17596793174743652,-0.12464552372694016
1782952307999365400,9.549365478515625,-0.8914153575897217,-0.05128619074821472,-0.08546536415815353
1782952308009292300,9.559292236328124,-0.940833330154419,0.054959509521722794,-0.03647725284099579
1782952308019219500,9.569219482421875,-0.9546311497688293,0.11620049178600311,0.0034621756058186293
1782952308029146400,9.579146484375,-0.9355294704437256,0.12650805711746216,0.022438623011112213
1782952308039074300,9.58907421875,-0.8985927700996399,0.1005808562040329,0.011334040202200413
1782952308049001500,9.59900146484375,-0.8530512452125549,0.028254259377717972,-0.03382386267185211
1782952308058928400,9.608928466796876,-0.8021268248558044,-0.07372697442770004,-0.11156952381134033
1782952308068855600,9.61885546875,-0.7644072771072388,-0.15919142961502075,-0.18464002013206482
1782952308078782200,9.6287822265625,-0.7482410669326782,-0.20236526429653168,-0.2459166944026947
1782952308088710400,9.63871044921875,-0.7299527525901794,-0.22419556975364685,-0.27525991201400757
1782952308098637300,9.64863720703125,-0.7096778154373169,-0.20358456671237946,-0.27941232919692993
1782952308108564500,9.658564453125,-0.6947773694992065,-0.1535388082265854,-0.27050289511680603
1782952308118491400,9.668491455078126,-0.6806368231773376,-0.08082492649555206,-0.26389026641845703
1782952308128419300,9.67841943359375,-0.6712902784347534,-0.022623829543590546,-0.24756745994091034
1782952308138346500,9.688346435546874,-0.6671061515808105,0.01285506784915924,-0.24122381210327148
1782952308148273400,9.6982734375,-0.6617436408996582,-0.0006410335190594196,-0.25376009941101074
1782952308158200600,9.70820068359375,-0.6439835429191589,-0.052336186170578,-0.288070410490036
1782952308168128500,9.71812841796875,-0.628508448600769,-0.12522423267364502,-0.339586079120636
1782952308178055400,9.728055419921875,-0.612377941608429,-0.17243781685829163,-0.39165887236595154
1782952308187985400,9.7379853515625,-0.5984780788421631,-0.1888921707868576,-0.42516791820526123
1782952308197912600,9.74791259765625,-0.5802202224731445,-0.1843661218881607,-0.44927698373794556
1782952308207839500,9.757839599609374,-0.5530098676681519,-0.1517408937215805,-0.45489194989204407
1782952308217767400,9.767767333984375,-0.5192587971687317,-0.10257361829280853,-0.4369811415672302
1782952308227694600,9.777694580078125,-0.4839347302913666,-0.06567436456680298,-0.39402562379837036
1782952308237621200,9.787621337890625,-0.44750693440437317,-0.016235971823334694,-0.323154091835022
1782952308247548400,9.79754833984375,-0.4232185184955597,0.03951204940676689,-0.25351980328559875
1782952308257476400,9.807476318359376,-0.4029766321182251,0.0972062349319458,-0.19274619221687317
1782952308267403300,9.8174033203125,-0.3867126405239105,0.13267837464809418,-0.14400793612003326
1782952308277330400,9.827330322265626,-0.36200088262557983,0.14686423540115356,-0.11293844133615494
1782952308287257300,9.83725732421875,-0.3258047103881836,0.1513964682817459,-0.08735233545303345
1782952308297185500,9.847185546875,-0.2727598547935486,0.1503887176513672,-0.06650085002183914
1782952308307112400,9.857112548828125,-0.20399127900600433,0.13518960773944855,-0.05027274042367935
1782952308317039600,9.86703955078125,-0.11765000224113464,0.11622178554534912,-0.044216446578502655
1782952308326966500,9.876966552734375,-0.025445859879255295,0.09983064234256744,-0.042237307876348495
1782952308336894500,9.88689453125,0.062463752925395966,0.07468294352293015,-0.03173273429274559
1782952308346821400,9.8968212890625,0.13414114713668823,0.04859262704849243,-0.02705736830830574
1782952308356748300,9.906748291015624,0.18727333843708038,0.021788708865642548,-0.04053855687379837
1782952308366675500,9.916675537109375,0.21682332456111908,-0.006664595566689968,-0.08360131829977036
1782952308376603400,9.926603271484375,0.22899770736694336,-0.03988087177276611,-0.1433434784412384
1782952308386530300,9.9365302734375,0.2362850457429886,-0.09543075412511826,-0.20166254043579102
1782952308396457500,9.94645751953125,0.2503691613674164,-0.15129241347312927,-0.24310213327407837
1782952308406384400,9.95638427734375,0.2708420753479004,-0.19378362596035004,-0.2603374719619751
1782952308416312600,9.9663125,0.2991301715373993,-0.18440397083759308,-0.21917006373405457
1782952308426239500,9.976239501953126,0.3274519145488739,-0.10798105597496033,-0.11428722739219666
1782952308436166400,9.98616650390625,0.35289841890335083,0.014436731114983559,0.02180376462638378
1782952308446093300,9.99609326171875,0.38345274329185486,0.16322070360183716,0.17188720405101776
1782952308456020500,10.0060205078125,0.4120521545410156,0.285659521818161,0.3032694458961487
1782952308465948400,10.015948486328124,0.4340256452560425,0.3406290113925934,0.3886360228061676
1782952308475875300,10.025875244140625,0.4513188898563385,0.3171367347240448,0.42853844165802
1782952308485802500,10.035802490234374,0.47166454792022705,0.23035921156406403,0.4050150513648987
1782952308495729400,10.0457294921875,0.47820767760276794,0.11414364725351334,0.33179277181625366
1782952308505657300,10.0556572265625,0.4688114523887634,0.03870439529418945,0.2365666925907135
1782952308515584500,10.06558447265625,0.4415004551410675,0.02365141175687313,0.13765688240528107
1782952308525511400,10.075511474609375,0.4137599468231201,0.05730992183089256,0.06886810064315796
1782952308535438300,10.085438232421875,0.3927643895149231,0.12050327658653259,0.05064355581998825
1782952308545366500,10.095366455078125,0.3857335150241852,0.21891818940639496,0.06651041656732559
1782952308555293400,10.10529345703125,0.39711692929267883,0.3075585961341858,0.09771733731031418
1782952308565220400,10.115220458984375,0.4292062819004059,0.35776495933532715,0.142202690243721
1782952308575147300,10.125147216796876,0.4840279817581177,0.3630034029483795,0.1935337781906128
1782952308585075500,10.135075439453125,0.5461757779121399,0.3279920220375061,0.23410269618034363
1782952308595002400,10.14500244140625,0.6061464548110962,0.2768862247467041,0.2569845914840698
1782952308604929500,10.154929443359375,0.6660146713256836,0.2264791578054428,0.26875069737434387
1782952308614856400,10.1648564453125,0.7168810367584229,0.18515408039093018,0.27158138155937195
1782952308624784400,10.174784423828125,0.7428998351097107,0.176075741648674,0.2724032700061798
1782952308634711600,10.184711669921874,0.7613558173179626,0.1735774278640747,0.26453736424446106
1782952308644638200,10.19463818359375,0.7669821381568909,0.1800408661365509,0.25866204500198364
1782952308654565400,10.2045654296875,0.7731215357780457,0.20038475096225739,0.25003954768180847
1782952308664493300,10.214493408203126,0.7870173454284668,0.20849181711673737,0.23785176873207092
1782952308674420500,10.22442041015625,0.8111681938171387,0.20089808106422424,0.21736247837543488
1782952308684347400,10.234347412109376,0.841679573059082,0.16630083322525024,0.17806243896484375
1782952308694274300,10.2442744140625,0.872688889503479,0.07401218265295029,0.13380683958530426
1782952308704202500,10.254202392578126,0.897135317325592,-0.053675778210163116,0.09032360464334488
1782952308714129400,10.26412939453125,0.9114639163017273,-0.1901119202375412,0.06370744109153748
1782952308724056600,10.274056640625,0.9066442847251892,-0.2802325189113617,0.05200764909386635
1782952308733983500,10.2839833984375,0.8762432336807251,-0.30408990383148193,0.05430649220943451
1782952308743912000,10.293911865234374,0.817756712436676,-0.2698856294155121,0.0547475628554821
1782952308753839000,10.303839111328125,0.7470175623893738,-0.1903524398803711,0.08758806437253952
1782952308763766000,10.31376611328125,0.6456112861633301,-0.09485377371311188,0.1119067519903183
1782952308773693000,10.32369287109375,0.5518355369567871,0.005854194052517414,0.12550725042819977
1782952308783621000,10.33362109375,0.46069303154945374,0.07413813471794128,0.1392526924610138
1782952308793547800,10.3435478515625,0.3836653530597687,0.11115900427103043,0.14340242743492126
1782952308803475000,10.353474853515625,0.32551372051239014,0.1197836846113205,0.13928340375423431
1782952308813401900,10.36340185546875,0.2912132740020752,0.11331300437450409,0.12443681806325912
1782952308823330000,10.373330078125,0.2667326033115387,0.09817515313625336,0.10715767741203308
1782952308833257000,10.383257080078126,0.24671655893325806,0.08338422328233719,0.09347222745418549
1782952308843183900,10.393183837890625,0.24344544112682343,0.06419870257377625,0.1050122007727623
1782952308853111000,10.403111083984374,0.25287461280822754,0.026167163625359535,0.14042851328849792
1782952308863038000,10.413037841796875,0.26344066858291626,-0.00800894945859909,0.18321433663368225
1782952308872966100,10.422966064453124,0.26497626304626465,-0.028509430587291718,0.22762708365917206
1782952308882892800,10.432892822265625,0.2593064308166504,-0.04087991267442703,0.2593340575695038
1782952308892820000,10.442820068359374,0.23200182616710663,-0.048287492245435715,0.2762871980667114
1782952308902747000,10.452746826171875,0.18513844907283783,-0.0703338086605072,0.26225829124450684
1782952308912674800,10.4626748046875,0.12712042033672333,-0.10695333778858185,0.21419541537761688
1782952308922602000,10.47260205078125,0.05215004086494446,-0.16122470796108246,0.1442912369966507
1782952308932529000,10.48252880859375,-0.02607792057096958,-0.22605963051319122,0.05457254871726036
1782952308942456000,10.4924560546875,-0.09964960813522339,-0.2884231209754944,-0.02790171653032303
1782952308952384000,10.502384033203125,-0.16534845530986786,-0.3151599168777466,-0.08897678554058075
1782952308962311000,10.512310791015626,-0.2418951541185379,-0.31991222500801086,-0.09397280216217041
1782952308972238000,10.522238037109375,-0.3116748034954071,-0.27110740542411804,-0.06014346331357956
1782952308982164700,10.532164794921876,-0.35628780722618103,-0.22277554869651794,-0.0029379641637206078
1782952308992093000,10.542093017578125,-0.38141605257987976,-0.15191122889518738,0.06032702326774597
1782952309002019800,10.552019775390624,-0.3877354562282562,-0.05070178210735321,0.12248121201992035
1782952309011947000,10.561947021484375,-0.3840794861316681,0.05623532086610794,0.1620781570672989
1782952309021874000,10.5718740234375,-0.37419840693473816,0.0975056067109108,0.18166504800319672
1782952309031801900,10.5818017578125,-0.36074864864349365,0.06886650621891022,0.16562987864017487
1782952309041729000,10.59172900390625,-0.36118197441101074,-0.002248275326564908,0.11277724802494049
1782952309051656000,10.601656005859375,-0.3791242241859436,-0.08715624362230301,0.025372033938765526
1782952309061583000,10.6115830078125,-0.4152073860168457,-0.15169689059257507,-0.07584177702665329
1782952309071511000,10.621510986328126,-0.4571804106235504,-0.2047334760427475,-0.16516445577144623
1782952309081438000,10.63143798828125,-0.49654316902160645,-0.22304825484752655,-0.21327655017375946
1782952309091364900,10.64136474609375,-0.5363600850105286,-0.23281539976596832,-0.23859336972236633
1782952309101291800,10.651291748046875,-0.5892421007156372,-0.24066486954689026,-0.25575318932533264
1782952309111220000,10.661219970703126,-0.6389068365097046,-0.22902579605579376,-0.2680884301662445
1782952309121147000,10.67114697265625,-0.6867710947990417,-0.18682870268821716,-0.27145007252693176
1782952309131074000,10.681073974609374,-0.7240250110626221,-0.13147570192813873,-0.27105724811553955
1782952309141001000,10.6910009765625,-0.7593544125556946,-0.07886528223752975,-0.27336686849594116
1782952309150929000,10.700928955078124,-0.7771024703979492,-0.043127529323101044,-0.2773887813091278
1782952309160856000,10.71085595703125,-0.787795901298523,-0.04608539864420891,-0.2895369827747345
1782952309170783000,10.720782958984374,-0.780328631401062,-0.09110746532678604,-0.2869531810283661
1782952309180710000,10.7307099609375,-0.7861331701278687,-0.1720689833164215,-0.2746279537677765
1782952309190638000,10.74063818359375,-0.8205643892288208,-0.2756102979183197,-0.255089670419693
1782952309200564700,10.750564697265625,-0.8685899972915649,-0.3826797604560852,-0.2401951551437378
1782952309210492000,10.760491943359375,-0.917605459690094,-0.4591890275478363,-0.24173612892627716
1782952309220418800,10.770418701171875,-0.9463013410568237,-0.4980213940143585,-0.27027130126953125
1782952309230346000,10.780345947265625,-0.9492220282554626,-0.4409772753715515,-0.3079073429107666
1782952309240274000,10.79027392578125,-0.9491145610809326,-0.2521612048149109,-0.35724079608917236
1782952309250201000,10.800201171875,-0.934739887714386,-0.05134395882487297,-0.39883697032928467
1782952309260128000,10.8101279296875,-0.9502163529396057,0.15721292793750763,-0.4506782591342926
1782952309270055200,10.82005517578125,-1.003365159034729,0.2633630931377411,-0.5565077662467957
1782952309279983000,10.829983154296874,-1.01883864402771,0.21880927681922913,-0.6515577435493469
1782952309289909800,10.83990966796875,-1.0229729413986206,0.19440273940563202,-0.7001945376396179
1782952309299837000,10.8498369140625,-1.0286071300506592,0.19419549405574799,-0.696483314037323
1782952309309763800,10.859763916015625,-1.056038498878479,0.0759655237197876,-0.7009276151657104
1782952309319691800,10.86969189453125,-1.0868613719940186,-0.13717399537563324,-0.7257193922996521
1782952309329619000,10.879618896484375,-1.1141777038574219,-0.37782976031303406,-0.7631365060806274
1782952309339545900,10.8895458984375,-1.1415456533432007,-0.602056086063385,-0.8147083520889282
1782952309349473000,10.89947314453125,-1.1689757108688354,-0.792429506778717,-0.8536501526832581
1782952309359401000,10.90940087890625,-1.1849143505096436,-0.845511257648468,-0.8458927869796753
1782952309369328000,10.919328125,-1.2135164737701416,-0.7784408926963806,-0.8250122666358948
1782952309379255000,10.929255126953125,-1.2313628196716309,-0.622599184513092,-0.791925311088562
1782952309389182000,10.939181884765626,-1.2184875011444092,-0.43437281250953674,-0.7517361044883728
1782952309399110000,10.94910986328125,-1.1581416130065918,-0.2972382605075836,-0.6869267225265503
1782952309409036800,10.959036865234374,-1.072141170501709,-0.19923315942287445,-0.5756771564483643
1782952309418964000,10.9689638671875,-0.9679780602455139,-0.13851991295814514,-0.393901526927948
1782952309428891000,10.978890869140624,-0.8611405491828918,-0.13110248744487762,-0.15814493596553802
1782952309438818800,10.98881884765625,-0.7346982359886169,-0.12944559752941132,0.07766313850879669
1782952309448746000,10.99874609375,-0.6138013601303101,-0.08410768210887909,0.1978558599948883
1782952309458673000,11.0086728515625,-0.4929388165473938,-0.09083347022533417,0.20851626992225647
1782952309468600000,11.01860009765625,-0.3738217353820801,-0.07570618391036987,0.14944522082805634
1782952309478528000,11.028528076171876,-0.26388871669769287,-0.06008867174386978,0.057740360498428345
1782952309488455200,11.038455078125,-0.1605258285999298,-0.048436008393764496,-0.03861920163035393
1782952309498381800,11.0483818359375,-0.06720245629549026,-0.05420490354299545,-0.12146647274494171
1782952309508309000,11.05830908203125,0.0290087703615427,-0.06032058969140053,-0.17168596386909485
1782952309518237000,11.06823681640625,0.07810626924037933,-0.046136729419231415,-0.21532924473285675
1782952309528163800,11.078163818359375,0.0888420045375824,-0.05358852073550224,-0.1943427324295044
1782952309538091000,11.088091064453126,0.09225427359342575,-0.028886253014206886,-0.13970623910427094
1782952309548018000,11.098017822265625,0.10292023420333862,0.0536043606698513,-0.06793352216482162
1782952309557945900,11.10794580078125,0.14733053743839264,0.14677555859088898,-0.002405003411695361
1782952309567873000,11.117873046875,0.20589584112167358,0.23337996006011963,0.03621935471892357
1782952309577800000,11.127800048828124,0.27865660190582275,0.32010218501091003,0.04697301238775253
1782952309587727000,11.13772705078125,0.3427770137786865,0.36842313408851624,0.02040771394968033
1782952309597653800,11.14765380859375,0.37841320037841797,0.35337769985198975,-0.042624954134225845
1782952309607582000,11.15758203125,0.39573174715042114,0.26792725920677185,-0.11654071509838104
1782952309617508900,11.1675087890625,0.4106840193271637,0.16185766458511353,-0.180193230509758
1782952309627436000,11.17743603515625,0.42962950468063354,0.10315918922424316,-0.22853919863700867
1782952309637363000,11.187363037109375,0.46811458468437195,0.09585614502429962,-0.24046197533607483
1782952309647291000,11.197290771484376,0.5271877646446228,0.11543277651071548,-0.1987006813287735
1782952309657218000,11.207218017578125,0.5880717039108276,0.19197288155555725,-0.07657627761363983
1782952309667145000,11.21714501953125,0.5939314961433411,0.2843182682991028,0.11921826004981995
1782952309677072100,11.227072021484375,0.6029106974601746,0.1942434161901474,0.16904442012310028
1782952309687000000,11.237,0.6721118688583374,0.21925422549247742,0.15772438049316406
1782952309696927000,11.246927001953125,0.77602219581604,0.23336827754974365,0.16100725531578064
1782952309706854000,11.25685400390625,0.8394163250923157,0.21684283018112183,0.16372953355312347
1782952309716780800,11.26678076171875,0.867831289768219,0.22560879588127136,0.170111283659935
1782952309726709000,11.276708984375,0.8796495795249939,0.21442697942256927,0.17949040234088898
1782952309736636000,11.286635986328125,0.8708282709121704,0.13211975991725922,0.16582995653152466
1782952309746563000,11.29656298828125,0.8758752346038818,0.029524151235818863,0.11965740472078323
1782952309756490200,11.306490234375,0.877325713634491,-0.027929510921239853,0.054503366351127625
1782952309766418200,11.316418212890625,0.8423948884010315,-0.003875040914863348,0.006682580336928368
