time,seconds_elapsed,z,y,x
1782952406250005000,0.0610048828125,-10.269392599189281,-1.6693277353189884,0.6557809532582759
1782952406259932200,0.07093212890625,-13.57955525805354,-1.799587123261392,0.6343597603712231
1782952406269859000,0.080859130859375,-15.681590665912628,-1.9220950202941893,0.24947584221437571
1782952406279786000,0.090785888671875,-16.285488287198543,-1.8943973044209181,-0.4656512531775981
1782952406289714200,0.100714111328125,-15.964920116281508,-1.7419097180575132,-0.946080607965961
1782952406299641000,0.11064111328125,-15.472116725349425,-1.3979044113211332,-1.01455647055991
1782952406309568300,0.120568359375,-14.932762011122703,-1.0967159175261854,-1.0663667372960597
1782952406319496200,0.13049609375,-14.221749584507942,-1.0341174225330352,-1.2021730187758803
1782952406329423000,0.140423095703125,-13.302392513620852,-1.0700606964431703,-1.3105427926018833
1782952406339350000,0.15035009765625,-12.032485975050925,-0.9124608816325664,-1.6826218089170752
1782952406349277000,0.16027685546875,-10.248331106460094,-0.9444031032077967,-1.9066586739704012
1782952406359205000,0.170205078125,-7.260899349504709,-2.204952907628566,-1.7145754286691546
1782952406369132000,0.180132080078125,-5.270735001590848,-2.18992704180181,-1.7944862929910421
1782952406379059200,0.19005908203125,-4.303572223433852,-1.2956998821265995,-1.825644816842675
1782952406388986000,0.199986083984375,-3.2154981697857377,-0.5830867423169315,-1.0716962617557495
1782952406398914000,0.2099140625,-2.049365893945098,-0.3468368769004941,-0.404895536506921
1782952406408841200,0.21984130859375,-0.8203957613974809,-0.26040230989828705,-0.3199938050951808
1782952406418768100,0.22976806640625,0.5641776053160429,-0.32838191340789197,-0.3465028226405382
1782952406428696000,0.239696044921875,1.895623777475953,-0.5593972391717136,-0.3933149157632142
1782952406438623200,0.249623291015625,2.913663340911269,-0.6707811001218855,-0.40546230354420837
1782952406448550000,0.2595498046875,3.6813434111654755,-0.6665066376730799,-0.37784981826897707
1782952406458477000,0.26947705078125,4.352874306741357,-0.5954109479695558,-0.054614985425956546
1782952406468405000,0.279405029296875,4.853684478518367,-0.43742914810404177,0.3409554541790858
1782952406478332200,0.289332275390625,5.257994177961349,-0.279180221734941,0.3334927536156028
1782952406488259000,0.299259033203125,5.5105362758785486,0.022715543546527623,-0.28163331397548313
1782952406498186000,0.30918603515625,5.816559788614511,0.351417482689023,-0.7802664339743555
1782952406508114200,0.3191142578125,6.253940567532181,0.4324829238735139,-0.7244092299349606
1782952406518041000,0.329041015625,6.715198481121659,0.3315652196191251,-0.18005681701879947
1782952406527968300,0.33896826171875,6.973750633108615,0.41958018768057226,0.8229173888295889
1782952406537896200,0.348896240234375,7.0373132969588035,0.7667658780187367,2.1997265512824056
1782952406547823000,0.358822998046875,7.244215925729274,1.1435934040352702,1.424403857320547
1782952406557750000,0.36875,7.212324411427974,0.923570450798422,0.558403734622337
1782952406567677000,0.378677001953125,6.440147029754519,0.607284194984287,0.8055452521376312
1782952406577605000,0.388605224609375,5.6001867361873385,0.396105788590759,0.8240069376319646
1782952406587532000,0.398531982421875,5.221797659942507,0.2613153330899775,0.5989198328733444
1782952406597459200,0.408459228515625,4.953048523589969,0.15322642203196882,0.10724654194973408
1782952406607386000,0.41838623046875,4.73614589433074,0.17961466274186969,-0.4711036733645946
1782952406617314000,0.42831396484375,4.738777411878108,0.13624284626618027,-0.6495169244274497
1782952406627241200,0.4382412109375,4.688490409186482,0.3004134177692234,-0.49467751424089074
1782952406637168000,0.448168212890625,4.6615807749509806,0.6527168895125389,-0.32151948029249905
1782952406647096000,0.458095947265625,3.9187177505671977,1.0695393029175697,0.0006415127739310264
1782952406657023200,0.468023193359375,2.609430803245306,1.3769444792702794,0.4080426023609936
1782952406666950000,0.477949951171875,0.9087702104210853,1.5615494976453481,0.6817509685561061
1782952406676877000,0.487876953125,-0.5503010556548833,1.6647181956969201,0.6486478865079581
1782952406686805000,0.497804931640625,-1.001432127505541,1.6971826875805853,0.4315316875632852
1782952406696732200,0.507732177734375,-0.917635069400072,1.6694330953896044,0.3488718898594379
1782952406706659000,0.5176591796875,-0.4567185165941715,1.613696302859485,0.44107305756434795
1782952406716586200,0.527586181640625,0.39570027652978895,1.5087204092554747,0.4536422509539872
1782952406726514200,0.53751416015625,1.4209399806022642,1.4410845046170055,0.4933799487110227
1782952406736441000,0.547441162109375,2.5148703590631483,1.344481010299921,0.6047277884997427
1782952406746368300,0.5573681640625,3.797336519476771,0.9373287809073925,0.48534664518535137
1782952406756296200,0.567296142578125,4.729812015134096,0.6176715873554348,0.4556603127781301
1782952406766223000,0.57722314453125,5.3051762003749605,0.5903688621491193,0.6728842098809779
1782952406776150000,0.58714990234375,5.523081284675002,0.7025101173378526,0.9003558716885744
1782952406786077000,0.597076904296875,5.199678767114877,0.761439860690385,0.8755708283916115
1782952406796005000,0.607005126953125,4.391272134196758,0.6648131316281854,0.7584919706702232
1782952406805932000,0.61693212890625,3.6773505421370265,0.471244177813828,0.40048707241490483
1782952406815859200,0.626859130859375,3.4671026945918797,0.3827605693273246,0.16379110719878226
1782952406825786000,0.6367861328125,3.380933646658063,0.13307795249447227,-0.5767915876954793
1782952406835714800,0.64671484375,3.0295792923331257,0.3751650726970285,-0.6691536450505257
1782952406845641700,0.656641845703125,3.246542711868882,0.6628635319303721,-0.010472221110388636
1782952406855568600,0.666568603515625,3.1939784118950367,0.7286419721338897,0.6641549599803984
1782952406865495800,0.676495849609375,2.7832348800122735,0.9380213662814348,1.168269580130279
1782952406875423700,0.686423828125,2.0485154145956037,1.0936128369443119,1.2452318237796425
1782952406885350700,0.6963505859375,1.2613006227880716,0.7815838732484728,0.41641598802860824
1782952406895277800,0.70627783203125,0.7892980278223752,0.11680354791134595,-0.5702568886971101
1782952406905205800,0.716205810546875,0.5845850180506705,-0.500108745509386,-0.8898485061995685
1782952406915132700,0.726132568359375,0.26241701072156426,-0.9060333328031003,-0.7996621854484081
1782952406925059800,0.736059814453125,-0.20261399166584013,-1.0399500742092729,-0.6771103031434118
1782952406934986800,0.74598681640625,-0.8226964395552873,-1.0197579847257583,-0.5094643471473828
1782952406944915000,0.7559150390625,-1.766684678351879,-0.9929918506141752,-0.14014770821761338
1782952406954841600,0.765841552734375,-3.41698929490149,-1.019830246244371,0.008024791425652801
1782952406964768800,0.775768798828125,-5.591462746983766,-1.0178954787895083,0.15920706734415144
1782952406974695700,0.78569580078125,-8.13748812276721,-0.8094146409168839,0.5287496239842847
1782952406984623600,0.79562353515625,-10.914354052269458,-0.6223973007030785,0.684418872591108
1782952406994550800,0.80555078125,-13.632490729427337,-0.6096777390573174,0.5464159943824634
1782952407004477700,0.815477783203125,-15.294323871207236,-0.678016677398607,0.30440256047062575
1782952407014405600,0.825405517578125,-15.73039122943878,-0.8025865484625101,0.13444883898887783
1782952407024332800,0.835332763671875,-15.108658676254748,-0.9173224232543259,-0.049802653240785
1782952407034259700,0.845259765625,-14.155441421341894,-0.9331192003883421,-0.18647859369460493
1782952407044187000,0.855186767578125,-13.07740302401781,-0.7544562854133546,-0.3048173518165946
1782952407054114800,0.86511474609375,-11.878643320816755,-0.5339773320373148,-0.4893447749108076
1782952407064041700,0.875041748046875,-10.870221480554342,-0.5239535853467882,-0.6758567959509789
1782952407073968600,0.88496875,-10.024192680728435,-0.7348385617516935,-0.7280190179299563
1782952407083895800,0.894895751953125,-9.082162590262293,-0.9227085002068429,-0.7548560983859002
1782952407093823700,0.90482373046875,-7.808699235993624,-0.9118644501093774,-0.6408446654111146
1782952407103750700,0.914750732421875,-6.34156098331809,-0.8882661323789507,-0.5245722287017852
1782952407113677800,0.924677734375,-4.982392691496014,-0.8192989791367202,-0.4720460322486236
1782952407123605800,0.934605712890625,-3.7450428531378503,-0.7945605514604598,-0.44385030372533946
1782952407133532700,0.94453271484375,-2.6695740140408275,-0.8351206715162843,-0.5210065355768427
1782952407143459800,0.9544599609375,-1.6073025101691483,-0.8909125552345066,-0.6575618453256785
1782952407153386800,0.96438671875,-0.5001502465635538,-0.8469301325798034,-0.7438521815516054
1782952407163315000,0.97431494140625,0.5948503914773464,-0.6779859899993985,-0.7087563913162798
1782952407173241600,0.98424169921875,1.6852935123443602,-0.5317823792763055,-0.560779852636531
1782952407183168800,0.994168701171875,2.750964595526457,-0.4196919044267386,-0.529954433196783
1782952407193095700,1.004095703125,3.8563375744998454,-0.34734175768271086,-0.6362325685057789
1782952407203023600,1.014023681640625,4.722563943701982,-0.20321904488690196,-0.7262373221449554
1782952407212950800,1.02395068359375,5.283694436407089,0.02745477396287024,-0.7132249880976974
1782952407222877700,1.033877685546875,5.498662882733345,0.16496311012022197,-0.5448949953602626
1782952407232804900,1.043804931640625,5.503995475932955,0.29203027789257463,-0.30452191253397615
1782952407242732800,1.05373291015625,5.466932111951708,0.42860191772170364,-0.0010663505898788571
1782952407252659700,1.06365966796875,5.377473374822736,0.5618127028156071,0.3162703275926411
1782952407262587000,1.0735869140625,5.281251719430089,0.6844466373808682,0.563880996989645
1782952407272514800,1.083514892578125,5.358840570545196,0.7767205780610442,0.5848511947061866
1782952407282441700,1.093441650390625,5.470877050185203,0.8880876340068876,0.43923480928651987
1782952407292368600,1.10336865234375,5.514975719630718,0.8981944558709859,0.12049294048119336
1782952407302295800,1.1132958984375,5.601776635727286,0.8475656540043651,-0.18733342042565346
1782952407312223700,1.1232236328125,5.718849355968833,0.794511086295545,-0.2334733133751899
1782952407322150700,1.133150634765625,5.678759922164678,0.709802758564055,-0.0890550516989082
1782952407332077800,1.143077880859375,5.623915402299166,0.6767177966944873,0.029758776588924226
1782952407342004700,1.153004638671875,5.610837894061207,0.6465348398767411,0.16307945179808883
1782952407351932700,1.1629326171875,5.1608080614507195,0.568851150085032,0.35807409103401006
1782952407361859800,1.17285986328125,4.300049310004711,0.5524187784612179,0.38980062403194604
1782952407371786800,1.182786865234375,3.345228127026558,0.5297985119827091,0.23593301801960914
1782952407381713700,1.192713623046875,2.607908708244562,0.5810498296618462,0.1636112571198493
1782952407391641600,1.2026416015625,1.9995137755393981,0.7655750607989728,0.12544603284392505
1782952407401568800,1.21256884765625,1.6420044057160614,0.9654451605841516,0.0925769422147423
1782952407411495700,1.22249560546875,1.310702074816823,1.0201496874570846,0.0593605725178495
1782952407421423600,1.232423583984375,0.7051052483975887,0.989373587051779,0.07216481677237897
1782952407431350800,1.242350830078125,-0.04442307909429073,0.975606050723046,0.19381441647540776
1782952407441277700,1.252277587890625,-0.7312164257317781,1.007357572031766,0.3899159209746867
1782952407451204900,1.262204833984375,-1.0197171412587165,1.0003905094981194,0.40784627607129514
1782952407461132800,1.2721328125,-0.824455850443244,0.9248281957745551,0.34922592746149744
1782952407471059700,1.282059814453125,-0.04865910922884941,0.9014102030470966,0.4331557816337794
1782952407480987000,1.29198681640625,1.1872317624926567,0.8795343251951039,0.5438111821789294
1782952407490913500,1.30191357421875,2.400098901501298,0.9829152046926319,0.6966897406212985
1782952407500841700,1.311841796875,3.2174329372406003,1.043221789356321,0.7172006137304008
1782952407510768600,1.3217685546875,3.824827168470621,1.0073219161964952,0.39957857926785945
1782952407520695800,1.33169580078125,4.475897459819913,0.8978760375715792,0.10424178890949115
1782952407530622700,1.341622802734375,4.997182848870754,0.8358696632526814,-0.04461911312304437
1782952407540550700,1.351550537109375,5.319717351424694,0.8491863870739936,-0.06085497579406947
1782952407550477800,1.361477783203125,5.458742960277199,0.8559516434252261,0.07164358764356002
1782952407560404700,1.37140478515625,4.8374967293053865,0.9139970051586628,0.264996798081696
1782952407570332700,1.381332763671875,4.049236227837205,0.8993762130014598,0.39752442321702836
1782952407580259800,1.391259765625,3.381537457770109,0.9466346616521477,0.1614858259310946
1782952407590186800,1.401186767578125,3.124783879637718,1.1042147488489746,-0.10100659724739379
1782952407600113700,1.41111376953125,3.1189123572558164,1.187264787979424,-0.07880493977344595
1782952407610041600,1.42104150390625,3.119882663592696,1.0897370184242725,0.05690822919597849
1782952407619968800,1.43096875,2.893319641062617,0.9092943804256618,0.42948644547127185
1782952407629895700,1.440895751953125,2.531411744019389,0.9594874212235212,0.5752606518011539
1782952407639822800,1.45082275390625,2.255491108602285,1.193451806051284,-0.10627724025985226
1782952407649750800,1.460750732421875,2.4413930349200963,0.9401254258885979,-0.64027051878497
1782952407659677700,1.470677734375,3.4909453424721955,0.6640184741191566,-0.8282552427262068
1782952407669604900,1.48060498046875,4.24178942873776,0.42255204309821126,-0.45205454337112605
1782952407679531800,1.49053173828125,3.979506858050823,0.29502631790339945,0.14763128717234358
1782952407689459700,1.500459716796875,3.1175229487240315,0.19362638309001923,0.09551224674796685
1782952407699387000,1.510386962890625,2.008877816212177,0.2655067934304476,0.06945687298793345
1782952407709313500,1.5203134765625,0.46838323542475696,0.18024302377328275,-0.014022214342700316
1782952407719241700,1.53024169921875,-1.7474550772249697,0.17159969859048724,-0.06875703588919714
1782952407729168600,1.540168701171875,-4.012944432750344,-0.40004064382165666,0.25765728550646455
1782952407739095800,1.550095703125,-6.043837096893787,-1.4253734330050647,0.5129489743927493
1782952407749022700,1.560022705078125,-7.634117745113373,-1.9274676532432435,0.4941996675960719
1782952407758950700,1.56995068359375,-8.73611569469571,-2.016193984444439,0.6220039174713194
1782952407768877800,1.5798779296875,-9.664495445472001,-2.1424403373531997,0.8532121354587375
1782952407778804700,1.5898046875,-10.834524728751182,-2.4109338915094733,0.9642079469393938
1782952407788732000,1.59973193359375,-12.266692205810546,-2.6361498833447694,1.110861785648018
1782952407798659800,1.609659912109375,-13.87846221678257,-2.5281004275143144,1.168240500166267
1782952407808586800,1.619586669921875,-15.646722766149043,-2.166085270704329,1.0461625189833343
1782952407818513700,1.629513671875,-16.838609660971162,-2.051395207815617,0.7637623122885823
1782952407828440600,1.639440673828125,-16.581146473264692,-1.8028949326351285,0.05461591700771823
1782952407838368500,1.649368408203125,-15.223910026288031,-1.3425113176621495,-0.49995698901377617
1782952407848295400,1.65929541015625,-13.164171791410446,-1.0980118025556207,-0.7744594281960279
1782952407858222600,1.66922265625,-10.850708970832825,-1.094131015599519,-1.0365496911812573
1782952407868150500,1.679150634765625,-8.594950151205062,-1.0934563312083483,-1.1575205148398875
1782952407878077400,1.689077392578125,-6.801201524838805,-1.1745178268700838,-0.9037618076745421
1782952407888004600,1.699004638671875,-5.265317652717233,-1.0500174408458172,-0.8370786006510257
1782952407897931500,1.708931640625,-3.9302176342248916,-0.7822288200885057,-0.8041269828375428
1782952407907859500,1.718859375,-2.908468110355735,-0.686053634186089,-0.6491930993005633
1782952407917786600,1.72878662109375,-1.9093021742165088,-0.5206735407628119,-0.5285609330117702
1782952407927713300,1.73871337890625,-1.012532198190689,-0.21001316200643777,-0.5489003220114856
1782952407937640400,1.748640380859375,-0.07448503988087177,0.18102935184538363,-0.47113731990586966
1782952407947568400,1.758568359375,1.1163485464960337,0.6224817641161382,-0.6098438894044608
1782952407957495600,1.76849560546875,2.2897937756985423,0.8227356025218963,-0.6994387470684945
1782952407967422500,1.77842236328125,3.3910534741342064,0.8937509204655886,-0.8942262828923762
1782952407977349600,1.788349609375,4.855570146134496,0.9315260859780014,-0.8997177929807454
1782952407987277600,1.798277587890625,6.194383632192015,0.968771674658358,-0.49651061141956593
1782952407997204500,1.80820458984375,7.202358897730708,0.6039319619469344,-0.26695538480356334
1782952408007131600,1.818131591796875,7.965560945788026,0.47703109065219756,-0.23570235106889156
1782952408017058600,1.82805859375,8.597525554651021,0.5963629879973829,-0.31752171589322387
1782952408026986500,1.837986572265625,8.74909967943132,0.981661697500199,-0.296773563429527
1782952408036913400,1.847913330078125,8.386869710826874,1.3451421045571565,-0.3206098546342924
1782952408046840300,1.85784033203125,7.959988698613643,1.2863735431157053,-0.3367413801480085
1782952408056768500,1.8677685546875,7.413219908738136,1.0510212110608816,-0.41152109212651844
1782952408066695400,1.8776953125,6.903493440055847,0.9951163684874772,-0.635488837466389
1782952408076622600,1.88762255859375,6.354241016671061,1.125589691441506,-0.5354502541340888
1782952408086549500,1.897549560546875,5.816741574922204,0.9795902980536222,0.03126278794370591
1782952408096477400,1.9074775390625,5.209622653502225,0.7608128148332238,0.24896369144115596
1782952408106404600,1.917404541015625,4.735577154532074,0.43161052495315666,0.15996804177928714
1782952408116331500,1.92733154296875,4.3610500144124025,0.02912292637079954,0.14461802203208207
1782952408126258700,1.9372587890625,4.166932632935047,-0.04209171353727579,0.17319175355490296
1782952408136186600,1.9471865234375,3.9116637404024597,0.1570174848780036,0.5990656345522031
1782952408146113300,1.95711328125,3.8473639944493767,0.2573749249011278,0.7635933854624628
1782952408156040400,1.96704052734375,3.708033265170455,0.16491379108577967,0.5354158038752154
1782952408165967400,1.97696728515625,3.5092180812656877,-0.013682488393783568,0.3207718402629718
1782952408175895600,1.9868955078125,2.9781805290073153,0.04391118404939771,-0.006693469756655394
1782952408185822500,1.996822509765625,1.3392998082697392,0.3305437676168978,0.25324370684791353
1782952408195749600,2.00674951171875,-1.1356190641552208,0.5551062639795243,0.3539765195220709
1782952408205677600,2.016677490234375,-3.6524382191985842,0.7646601379111408,0.357962155092135
1782952408215604500,2.0266044921875,-4.9741316436290735,0.9465880460314452,0.5355096927037463
1782952408225531600,2.03653173828125,-4.5068584152728315,1.0418398334786296,0.6941848451282828
1782952408235458600,2.04645849609375,-3.1685926262259483,0.7830101797245442,0.7897602385066449
1782952408245386500,2.056386474609375,-1.8604829059898853,0.5663119869962334,0.7763914922371506
1782952408255313400,2.0663134765625,-0.5943856965750456,0.7688634348198771,0.4705884538514539
1782952408265240300,2.076240234375,0.689267043274641,1.008318964409828,0.138443826909177
1782952408275167500,2.08616748046875,2.2049188592284916,1.091938620121777,-0.06485832968391478
1782952408285095400,2.096095458984375,3.47676308786273,1.085919359832257,-0.04572195979841053
1782952408295022600,2.106022705078125,4.313746995967627,1.0433730343952774,-0.02169646616447717
1782952408304949500,2.115949462890625,4.621096788871288,0.9648810969606041,0.2727949411446228
1782952408314876700,2.125876708984375,4.446852567121386,0.724441963160783,0.5703191768109798
1782952408324804600,2.1358046875,4.139495175433159,0.5321268087998032,0.6111418202605098
1782952408334731500,2.1457314453125,3.9563761578321452,0.6049906772196293,0.5292337177067995
1782952408344658700,2.15565869140625,3.7520401646792885,0.7157220656104385,0.42262196652926504
1782952408354586600,2.165586669921875,3.691378482967615,0.8274420266471803,0.3172156090861186
1782952408364513300,2.17551318359375,3.70912398301661,0.8837048888780176,0.2264559088937938
1782952408374440400,2.1854404296875,3.68152169034183,0.8221287226699292,0.18424502595625816
1782952408384367400,2.195367431640625,3.6406431519865987,0.7171357318006455,0.21353848658837377
1782952408394295600,2.205295654296875,3.8295764088243245,0.6305319457113743,0.17466668494567275
1782952408404222500,2.215222412109375,4.277487349584699,0.5545680654495955,0.1586171934259124
1782952408414149600,2.225149658203125,4.513861572033167,0.47449455791190265,0.20709751202175392
1782952408424076500,2.23507666015625,4.26310518848896,0.3533886366315186,0.16510471054799855
1782952408434004500,2.24500439453125,3.911279124999046,0.14313406708464024,0.11149437211994082
1782952408443931600,2.254931640625,3.8324370589524506,-0.0319816768027842,-0.010057758557982742
1782952408453858600,2.264858642578125,4.09324020473659,-0.04263298080712557,-0.20346368556404484
1782952408463785500,2.274785400390625,4.5559781277507545,0.13082754321917892,-0.30219388971151784
1782952408473713400,2.28471337890625,4.792781973788142,0.3269137405514717,-0.4588672921258956
1782952408483640300,2.294640380859375,4.100152176082134,0.1862988166809082,-0.5147651204366237
1782952408493567500,2.3045673828125,2.5363369254618884,-0.2087928264312446,-0.39408703264687206
1782952408503495400,2.314495361328125,-0.20718378379940985,-0.6517540358297527,0.22430074015390128
1782952408513422600,2.324422607421875,-4.0142262892544265,-1.2347545611679553,1.021141036581993
1782952408523349500,2.334349609375,-7.931691409412026,-1.897352793225646,1.3321937756568192
1782952408533276700,2.344276611328125,-11.22239241195917,-2.4385024280451235,1.2425310403883456
1782952408543204600,2.35420458984375,-13.860302290713786,-2.772690689644217,1.0006405387364328
1782952408553131500,2.364131591796875,-15.299153191059826,-2.828266446393728,0.7882091366071253
1782952408563058700,2.37405859375,-15.797733996349573,-2.539964760570228,0.6124994454145432
1782952408572985300,2.3839853515625,-15.802695418149233,-2.1606343118220566,0.44832478225827216
1782952408582913300,2.393913330078125,-15.724641872131823,-1.9058315754964947,0.2822612000828609
1782952408592840400,2.40384033203125,-15.48842488607168,-1.8245768953502177,0.008201024775393306
1782952408602767400,2.413767333984375,-14.622494284945725,-1.6835908000797033,-0.33648240041825916
1782952408612694500,2.423694580078125,-13.46108903762698,-1.1602784352459012,-0.7730829522110522
1782952408622622500,2.43362255859375,-11.59819322527647,-0.8893195138894021,-1.0923424516823141
1782952408632549600,2.443549560546875,-9.727799750646948,-0.9666583357661962,-1.2526178423777221
1782952408642476500,2.4534765625,-7.807191169518232,-0.9052705317370593,-1.5422408399328589
1782952408652403700,2.46340380859375,-6.0816357894122595,-0.7298005675844847,-1.7185158368580042
1782952408662331600,2.47333154296875,-4.815465514761209,-0.5885504145503043,-1.5675881932877003
1782952408672258600,2.483258544921875,-3.6571015348345037,-0.508828496929258,-1.4699730377100406
1782952408682185500,2.493185546875,-2.3053040640413758,-0.5719109760470688,-1.391439745351672
1782952408692113400,2.503113525390625,-1.0133072742164135,-0.46774347621649504,-1.1280909336727112
1782952408702040300,2.513040283203125,0.29053835883438583,-0.18507453558295964,-0.8828605470083654
1782952408711967500,2.522967529296875,1.5446142910659313,-0.11920125670284032,-0.7107171699952334
1782952408721894400,2.532894287109375,2.582147075000405,-0.00646978053599596,-0.8565688985407351
1782952408731822600,2.542822509765625,3.282817555820942,0.0755674282900989,-0.8995809417933225
1782952408741749500,2.55274951171875,3.918634748458862,0.15867460443526504,-0.767982414201647
1782952408751676700,2.5626767578125,4.5816912456780665,0.3893918240353465,-0.5617262666411698
1782952408761603600,2.572603515625,5.222946829977631,0.670942428163439,-0.331237668165192
1782952408771531500,2.582531494140625,5.863161380791664,0.6854511382482945,-0.2951595158290118
1782952408781458700,2.592458740234375,6.343672860905528,0.6776428025849163,-0.17727834701510145
1782952408791385300,2.60238525390625,6.487081214886904,0.7413001589812338,0.07012794064991176
1782952408801312500,2.6123125,6.496630548998713,0.8411503801345824,0.15523080239063128
1782952408811240400,2.622240478515625,6.451908779218792,0.788927440944314,0.010242529123916756
1782952408821167400,2.63216748046875,6.2724991375297305,0.6487463784463703,-0.24601565529052166
1782952408831094300,2.64209423828125,5.821968954181671,0.5874170266062021,-0.24223655687691642
1782952408841022200,2.652022216796875,5.088150821518898,0.6691760030128061,0.07918090607952326
1782952408850949400,2.661949462890625,4.496861337393522,0.7738323092736303,0.4381314511545002
1782952408860876300,2.671876220703125,4.2861189843297005,0.71472165639624,0.7510748262815177
1782952408870803500,2.681803466796875,4.384729580685496,0.5485163641951978,0.8157104531254619
1782952408880731400,2.6917314453125,4.364966311073303,0.4151271537944674,0.7381061121802777
1782952408890658300,2.701658203125,4.279819591924548,0.37207346335723995,0.45566732704080637
1782952408900585500,2.71158544921875,4.418613145586848,0.443984268835932,-0.06391253673378378
1782952408910512400,2.721512451171875,4.812788989028334,0.48311976291611786,-0.5947844866342842
1782952408920440300,2.7314404296875,4.822332477921247,0.5429537616319954,-0.8880525626935064
1782952408930367200,2.7413671875,4.5987575312912465,0.6180035957887768,-0.8267322709426284
1782952408940294100,2.751294189453125,3.320637291127443,0.5853633089467882,-0.44724783720914274
1782952408950221300,2.76122119140625,0.6542489213854074,0.5212636156104504,0.14691614290662108
1782952408960149200,2.771149169921875,-3.1403385916441677,0.4531646235048771,0.6743157039888202
1782952408970076400,2.781076416015625,-5.8528556753546,0.3791773040130734,0.6667706223715096
1782952408980003300,2.79100341796875,-5.9535635362505905,0.3124205202966928,0.5351156153522432
1782952408989930500,2.800930419921875,-4.278157796192169,0.20964301351979373,0.42248664971180255
1782952408999858400,2.8108583984375,-2.004286396768689,0.1831819998346269,-0.14846052280440925
1782952409009785300,2.820785400390625,0.1336871704339981,0.46246232094317674,-0.7331969320245086
1782952409019712500,2.83071240234375,1.853981853532791,0.8295806461110711,-0.7962094146460295
1782952409029640400,2.840640380859375,3.209449537271261,0.9939854647614061,-0.5829114953478798
1782952409039567400,2.8505673828125,4.188304506787658,1.0437558962330222,-0.34176150986496356
1782952409049494300,2.860494384765625,4.988379949212074,0.9265789849646389,-0.18208297081785277
1782952409059421200,2.870421142578125,5.439145694881677,0.7186037585265934,0.08799085653349757
1782952409069349400,2.880349365234375,5.428161359530687,0.6597454729750752,0.3735788264188915
1782952409079276300,2.8902763671875,5.172608389359712,0.7113133092574775,0.5137214200699701
1782952409089203500,2.900203369140625,4.931353993654251,0.729055886697024,0.5499728100812062
1782952409099130400,2.91013037109375,4.643313296854496,0.6718801474049687,0.47525524008609354
1782952409109058300,2.920058349609375,4.282574443590641,0.6852493320658802,0.31589619705062355
1782952409118985500,2.9299853515625,3.9177725786715745,0.7022671023622155,0.1660884791546501
1782952409128912400,2.939912353515625,3.9130964035540816,0.6784948893696069,0.21092523535005747
1782952409138839300,2.94983935546875,4.248208063608407,0.688509795166552,0.2690692716849968
1782952409148767200,2.959767333984375,4.520856545487046,0.611772300183773,0.18050605862364172
1782952409158694100,2.969694091796875,4.267387395852804,0.37830271313562985,0.006382650241814554
1782952409168621300,2.979621337890625,3.930641997116804,0.4315240157134831,-0.19644717613179236
1782952409178549200,2.98954931640625,3.7722938481569286,0.538962500038743,-0.07103866228666156
1782952409188476400,2.999476318359375,3.6053467976778744,0.6495487808704375,0.11478059071637689
1782952409198403300,3.0094033203125,3.2373341540187597,0.692687373112142,0.16017587584368884
1782952409208330500,3.01933056640625,2.968589693841338,0.6411459864452481,0.04598475718675181
1782952409218258400,3.029258544921875,2.8873873284041878,0.44558103650808334,-0.17292634408436713
1782952409228185300,3.039185302734375,2.736107218134403,0.1098093051098287,-0.4773595919542014
1782952409238112500,3.049112548828125,2.6902999912053347,-0.08206585039868951,-0.5536834281021729
1782952409248039200,3.0590390625,2.374542435440421,-0.16220058660432696,-0.30919732046648857
1782952409257967400,3.06896728515625,1.5762784263521432,-0.2489328213788569,0.02291268497026758
1782952409267894300,3.078894287109375,-0.07915069360435009,-0.33503158055543897,0.6233109084166586
1782952409277821200,3.0888212890625,-3.0323867509692906,-0.41537250685766336,1.341428052470088
1782952409287748400,3.098748291015625,-6.924535059040784,-0.5684402311965823,1.6065309412747621
1782952409297676300,3.10867626953125,-9.970606051969527,-1.0226553866676986,1.456685247722268
1782952409307603500,3.118603515625,-11.802462582933902,-1.4735565952852367,1.182092280712351
1782952409317530400,3.1285302734375,-12.89920217359662,-1.5998444492481647,0.7486160349525511
1782952409327457500,3.13845751953125,-13.354537711399793,-1.5101888743728398,0.3534637476943433
1782952409337385500,3.148385498046875,-13.483690161013602,-1.3736241026759146,0.06068451459798962
1782952409347312400,3.1583125,-13.188293840754032,-1.2471423335760832,-0.18708287973068655
1782952409357239300,3.1682392578125,-12.68168638087511,-1.0828482818238436,-0.3583790287973359
1782952409367167200,3.178167236328125,-12.08749649913311,-0.8895524458624422,-0.5123820612249895
1782952409377094100,3.18809423828125,-11.473861912208795,-0.7681307366311549,-0.6460532669048756
1782952409387021300,3.198021240234375,-11.229953787124156,-0.763311353650689,-0.7312711515937
1782952409396948200,3.2079482421875,-10.886489893788099,-0.7050172778531909,-0.7116700868058949
1782952409406876400,3.21787646484375,-10.018520480310917,-0.5969891570717096,-0.5884907567849382
1782952409416803300,3.22780322265625,-8.815081679382919,-0.5153026613794267,-0.46922578719612207
1782952409426730500,3.23773046875,-7.533406961607932,-0.5291045383691787,-0.41336467416658995
1782952409436657400,3.247657470703125,-6.190758427432179,-0.5763318612292408,-0.46926820156574245
1782952409446585300,3.25758544921875,-4.909802087059616,-0.5905699376791715,-0.4546960708558559
1782952409456512500,3.267512451171875,-3.667980071723461,-0.5260923509411514,-0.3482281485958025
1782952409466439200,3.277439208984375,-2.4615257223665714,-0.44555312558785076,-0.189285157281626
1782952409476366300,3.287366455078125,-1.379445940697193,-0.3628631519414484,-0.1179872778031975
1782952409486294300,3.297294189453125,-0.4696276825278997,-0.33320801839008923,-0.11888703965451568
1782952409496221200,3.30722119140625,0.35176410416960713,-0.26444208680838344,-0.18773118757158516
1782952409506148400,3.3171484375,1.1997878772050141,-0.13540771061629056,-0.20515450646150857
1782952409516076300,3.327076171875,2.0956097587257623,-0.01082592991888523,-0.24659736416861414
1782952409526003500,3.33700341796875,2.953247747802734,0.12369038481563328,-0.25996947143897414
1782952409535930400,3.346930419921875,3.7134926996201276,0.2867527028158307,-0.21782924258485434
1782952409545857500,3.356857421875,4.562913479971885,0.36498584318384525,-0.15865485855517908
1782952409555785500,3.366785400390625,5.386255816215276,0.41797932835519314,-0.27213750014919785
1782952409565712400,3.37671240234375,6.05804273237884,0.4504958426870405,-0.3423870213521644
1782952409575639300,3.386639404296875,6.492898376733065,0.5019220785416663,-0.2489964611995965
1782952409585566200,3.396566162109375,6.604386574840546,0.6101956985168159,-0.08581654470171779
1782952409595494100,3.406494140625,6.509054561764001,0.7022768931038678,0.1073387320115231
1782952409605421300,3.41642138671875,6.2817188012957565,0.7874496234767139,0.27948245608452704
1782952409615348200,3.42634814453125,6.239463129368424,0.7658632300905883,0.36585188542865216
1782952409625275400,3.436275390625,6.225042974349856,0.6250709038265049,0.4962464440580457
1782952409635203300,3.446203369140625,5.983155541437864,0.5891705922752618,0.5362469574697315
1782952409645130500,3.456130615234375,5.338724834233522,0.7449870308004319,0.09195840845759957
1782952409655057400,3.466057373046875,4.780922024646401,0.6082943949401378,-0.1508098806758411
1782952409664984300,3.475984375,4.448161311632394,0.49775765233859415,-0.3058184734168462
1782952409674912500,3.48591259765625,4.304968061706424,0.5704188377931714,-0.49722570088636125
1782952409684839200,3.495839111328125,4.330557260993123,0.5567806269325316,-0.59025334601067
1782952409694766300,3.505766357421875,4.299308136248588,0.4127053334750235,-0.4606773006899282
1782952409704694300,3.5156943359375,3.869288826009631,0.3666409169144928,-0.293085376436077
1782952409714621200,3.52562109375,3.4461347253650425,0.4831982349798083,-0.2582374600145966
1782952409724548400,3.53554833984375,3.0943069083094596,0.7122833233334124,-0.1842208778956905
1782952409734475300,3.545475341796875,2.5672698238641023,0.8421563423067331,-0.10223784694224596
1782952409744403500,3.555403564453125,1.7625643835514784,0.8178947383619845,0.004676028987020254
1782952409754330400,3.565330322265625,0.6021195056974887,0.7567528719179332,0.08915325137637554
1782952409764257500,3.575257568359375,-0.9884656784266233,0.7094299797289073,0.18925551106203348
1782952409774184200,3.58518408203125,-2.4690321524739263,0.6345889660172164,0.29447120477128774
1782952409784112400,3.5951123046875,-3.0865374433517454,0.5243699110627174,0.40838301329649984
1782952409794039300,3.605039306640625,-2.7115578832894562,0.4424903770163655,0.42686636263336986
1782952409803966200,3.61496630859375,-1.6728689150571823,0.566399519149214,0.3735132503693923
1782952409813893400,3.624893310546875,-0.2842401354730129,0.7440887667864561,0.3272963831935078
1782952409823821300,3.6348212890625,1.1973954291105269,0.7811867636896669,0.158981989884004
1782952409833748700,3.644748779296875,2.428916415184736,0.7955356070376932,-0.050508901813998815
1782952409843676000,3.654676025390625,3.555837209099531,0.8901188475735485,-0.1732382413114421
1782952409853603800,3.664603759765625,4.547514835309982,0.9853756034567952,-0.1981567199960351
1782952409863530800,3.67453076171875,5.470065733802318,1.0250888974249361,-0.13579565048795192
1782952409873458000,3.6844580078125,6.170168643867969,0.9268955035679042,-0.006461030973959714
1782952409883384800,3.694384765625,6.365409476417303,0.8228454926371573,0.2595128867778927
1782952409893313000,3.70431298828125,5.690121858656406,0.8181944519609212,0.5356412101289257
1782952409903239700,3.71423974609375,4.329565911868214,0.8388304127544164,0.7635398286443204
1782952409913166800,3.724166748046875,2.894813679012656,0.8557830088600515,0.8414782238494605
1782952409923093800,3.73409375,1.7674124081045388,0.7890709410682321,0.671412018436566
1782952409933021700,3.744021728515625,1.4616098446428776,0.7760342032320797,0.37040483602527524
1782952409942948900,3.753948974609375,1.8312205711483955,0.8130300549350679,0.030985541904903945
1782952409952875800,3.763875732421875,2.6298516599833963,0.7334560213521123,-0.2879546807504259
1782952409962803000,3.773802978515625,3.5501498111128806,0.6246783973775804,-0.5158776847884059
1782952409972731000,3.78373095703125,4.410257405173779,0.47557285466790195,-0.7565194284882396
1782952409982657800,3.79365771484375,5.082171162587404,0.25147373803332446,-0.8317088903114199
1782952409992585000,3.8035849609375,5.2729725513845676,0.0901142784282565,-0.3950815966421738
1782952410002511600,3.81351171875,5.088138546559215,0.029855478429049252,-0.02681627969651017
1782952410012439800,3.823439697265625,4.338829999297857,-0.07746683217063546,0.16874807201903314
1782952410022366700,3.83336669921875,3.008862082996964,-0.12831029970124364,0.491972639196366
1782952410032294000,3.8432939453125,1.0913006144791841,-0.15691577806919813,0.8572090230751782
1782952410042220800,3.853220703125,-1.1691039851278067,-0.4288201635822654,0.9834795605771243
1782952410052148700,3.863148681640625,-3.190096017503738,-0.8722954599827527,0.8267248182885348
1782952410062076000,3.873075927734375,-4.767690787151456,-1.2331541402339934,0.7548292834442109
1782952410072002800,3.8830029296875,-6.075655545958877,-1.527089448030293,0.7728514084775
1782952410081930800,3.8929306640625,-7.827139732569456,-1.8230561155237257,0.7963236886754631
1782952410091858000,3.90285791015625,-10.038179120504855,-1.9674398904085157,0.5121239217454567
1782952410101784800,3.912784912109375,-11.784610115379094,-1.9589869732312857,0.18423439496438948
1782952410111711700,3.922711669921875,-12.94993049031496,-1.7872383676894008,0.002098543181829154
1782952410121639700,3.9326396484375,-14.270309325015544,-1.420883720370382,0.007592939347028732
1782952410131566800,3.94256689453125,-14.661368497741222,-1.145299477300793,0.056325661801360546
1782952410141493800,3.95249365234375,-14.114274713695048,-1.30844143640846,0.07607124962639063
1782952410151421000,3.9624208984375,-13.768242431175707,-1.5873307123728095,-0.1437290007704869
1782952410161348900,3.972348876953125,-13.478387378430366,-1.6285596716009079,-0.39043125008568164
1782952410171275800,3.98227587890625,-12.653074034374951,-1.50191701285094,-0.5511811264250427
1782952410181203000,3.992202880859375,-11.592841342854499,-1.3036720300495623,-0.7570984704852104
1782952410191131000,4.002130859375,-10.278165103709696,-1.0094104129083454,-1.0201979105129837
1782952410201057800,4.012057861328125,-8.6458883112818,-0.9130264065608382,-1.2890056451849639
1782952410210985000,4.02198486328125,-7.284390115207433,-0.6786945035949349,-1.561115928533673
1782952410220911600,4.03191162109375,-5.896600124534964,-0.6099145434878767,-1.4990378041528165
1782952410230838800,4.0418388671875,-4.5257063236057755,-0.6074931615598499,-1.286912033906579
1782952410240766700,4.0517666015625,-3.3633336925596,-0.5823075746379792,-1.1976194471247494
1782952410250694000,4.06169384765625,-2.538807699489593,-0.505713141387701,-1.058037738759443
1782952410260620800,4.071620849609375,-1.9194787003159521,-0.3963993647098541,-0.9353278894137591
1782952410270548700,4.081548828125,-1.2286235110670327,-0.35479923408180475,-0.8323168661419301
1782952410280476000,4.091475830078125,-0.30324411115050315,-0.3047936786800623,-0.6852678175706416
1782952410290402800,4.10140283203125,0.920910145547986,-0.12847513487413526,-0.4659462175361812
1782952410300330000,4.111330078125,2.28097684751451,0.1710372424021363,-0.30974286205265666
1782952410310258000,4.1212578125,3.648955053257942,0.41110651997625824,-0.3033408860558644
1782952410320184800,4.131184814453125,5.0396033559709785,0.6890460940003394,-0.10465875394623726
1782952410330111700,4.14111181640625,6.372658132371306,0.830512227872759,-0.010561324165947735
1782952410340038700,4.15103857421875,7.336010996851325,0.7718073793172836,-0.03683777506444603
1782952410349966800,4.160966796875,7.633177833914757,0.7564018665231764,-0.09246873259991407
1782952410359893800,4.170893798828125,7.665245873826742,0.7325111417174339,-0.09384539124798029
1782952410369821000,4.180821044921875,7.564435137078165,0.734675187883526,-0.06990286318976431
1782952410379747800,4.190747802734375,7.495458046963811,0.7786931933082639,-0.03810061634080484
1782952410389675800,4.20067578125,7.5600670049965375,0.8727341436609626,-0.04265964961834252
1782952410399603000,4.21060302734375,7.563598686254024,0.9562688975684345,-0.0937438853685744
1782952410409529900,4.22052978515625,7.424752525621652,1.0151679535217581,-0.15694949767570943
1782952410419457800,4.230457763671875,7.1764335983574385,0.9744146489813923,-0.16512447469439356
1782952410429385000,4.240385009765625,6.877498582577705,0.881392374151945,-0.06710741465180181
1782952410439311600,4.2503115234375,6.452448292922973,0.7727795853503048,0.17763232981823385
1782952410449238800,4.26023876953125,5.99121902090609,0.6866884249582886,0.35503008369561284
1782952410459166700,4.270166748046875,5.706165230962633,0.6636971332103013,0.3223410623410716
1782952410469094000,4.280093994140625,5.6076236081898205,0.6269575943559408,0.26504144094102083
1782952410479020800,4.290020751953125,5.761047744750976,0.5808855790108441,0.1818898411322385
1782952410488948000,4.299947998046875,5.529222271648049,0.6108084235876798,0.06096489330879412
1782952410498876000,4.3098759765625,4.789199439126253,0.6812187613755464,-0.10514967926833778
1782952410508802800,4.319802734375,4.264199413466454,0.7427095873877406,-0.11290507916808128
1782952410518730000,4.32972998046875,3.6488475012302395,0.8217743562743067,0.06097430959111079
1782952410528657000,4.339656982421875,2.17508193936944,0.9743465521812439,0.2586511188494041
1782952410538584800,4.349584716796875,-0.0035158991664648053,1.2679513128489255,0.3046542336767539
1782952410548511700,4.35951171875,-1.8996867891311644,1.463230285451561,0.09615878275688737
1782952410558438700,4.369438720703125,-2.444125674754381,1.5173198952965437,-0.14990834699254482
1782952410568366800,4.379366943359375,-1.8199620950311421,1.560714508125931,-0.15733122700229285
1782952410578293800,4.389293701171875,-0.6516741024613381,1.604295145046711,0.0840911091485992
1782952410588221000,4.399220947265625,0.6188450150489807,1.6923030988454817,0.24463614709824322
1782952410598147800,4.40914794921875,1.8377485116124153,1.6884785721212625,0.2590674810979515
1782952410608075800,4.41907568359375,2.818857397535443,1.5121601744458077,0.3206116081999615
1782952410618003000,4.4290029296875,3.442088664844632,1.2419443265415728,0.4920288994282484
1782952410627929900,4.438929931640625,3.7848014475524425,1.051256334991008,0.6782957135356962
1782952410637857000,4.44885693359375,3.827795955148339,1.0085222318969667,0.7574763638868928
1782952410647785000,4.458784912109375,3.3224358649820087,1.071074695791304,0.808110864841938
1782952410657711900,4.4687119140625,2.494934655493498,1.1671044818736611,0.6948059727013111
1782952410667638800,4.478638671875,1.9626374585628508,1.2061511286266147,0.3530066515766084
1782952410677565700,4.488565673828125,1.535901407778263,1.1437789897352457,-0.093683442151919
1782952410687494000,4.498493896484375,1.023075219514966,0.9985894514255225,-0.4969921843914315
1782952410697420800,4.5084208984375,1.04352705591321,0.8631976690307259,-0.6306308760412037
1782952410707348000,4.518347900390625,1.7364900310963391,0.6711389736488461,-0.4986376135108992
1782952410717275000,4.52827490234375,2.5020120465338227,0.3950060106553137,-0.3098268140090629
1782952410727202800,4.538202880859375,3.0642958009272814,0.1798104775749147,-0.1872176120262593
1782952410737130000,4.5481298828125,3.10683905762434,0.11720891384184359,-0.10145393002294004
1782952410747057000,4.558056884765625,2.654249019137025,0.07294993926808238,0.0018518932106904684
1782952410756984800,4.56798486328125,2.081111277773976,0.01917246411219239,0.23879253563657402
1782952410766911700,4.577911865234375,1.9022271212637423,0.06924743148833513,0.2928350549368188
1782952410776838700,4.587838623046875,2.481636197981238,0.15141995713189244,0.14901981892129407
1782952410786765800,4.597765869140625,3.476168044579029,0.16380802180096507,-0.09986582058127969
1782952410796693800,4.60769384765625,3.8803152469366786,0.2674593888029456,-0.32757048742715267
1782952410806621000,4.617620849609375,3.3625691379278897,0.34609146536067126,-0.3546505463261157
1782952410816547800,4.6275478515625,1.8135212483286856,0.3056507339008152,-0.18370162152824923
1782952410826475000,4.63747509765625,-0.32554303672015666,0.10132730796858667,-0.03215427515702322
1782952410836402000,4.64740185546875,-2.7014491617292165,-0.2875764402888715,-0.030079825236834584
1782952410846329000,4.6573291015625,-5.004516845020651,-0.8036902719207107,0.24516102948887272
1782952410856255700,4.667255859375,-7.593326885041594,-1.2703212568506597,0.7878187490500509
1782952410866183000,4.677182861328125,-10.777288345313071,-1.7407294222317635,1.4131889280840753
1782952410876110800,4.68711083984375,-14.326153377312421,-2.019756645362079,1.8163325063571334
1782952410886037800,4.697037841796875,-17.43282759976387,-1.8070291098304092,1.830844723573327
1782952410895965000,4.70696484375,-19.224796356976032,-1.3857301355332134,1.5126340755678713
1782952410905892900,4.716892822265625,-18.98812695097327,-1.2532282293610275,0.6161592830963433
1782952410915819800,4.72681982421875,-17.534143947947026,-1.4073723507598042,-0.21811839825715867
1782952410925747000,4.736746826171875,-15.772652162063121,-1.5221191122718154,-0.6795047970645129
1782952410935673900,4.746673828125,-13.659797254025936,-1.5766303085297346,-0.9376871658910065
1782952410945602000,4.75660205078125,-11.294863773930071,-1.6628617541752755,-0.9232157190766185
1782952410955529000,4.766529052734375,-9.018484191077947,-1.723344572188705,-0.848696119339019
1782952410965456000,4.776455810546875,-6.93528617015779,-1.6972395323343574,-0.7904564040772616
1782952410975382800,4.7863828125,-5.125138782176375,-1.5776277951344846,-0.7511841318748891
1782952410985310700,4.796310791015625,-3.4477000749856233,-1.3877845838449894,-0.7006241574607789
1782952410995238000,4.80623779296875,-1.8016168755233286,-1.2284526845447719,-0.712036435900256
1782952411005164800,4.816164794921875,-0.35389351741373537,-1.0861455698035656,-0.7244272039830684
1782952411015092000,4.826092041015625,0.9675696053922176,-0.9020248278141021,-0.7765935906805098
1782952411025020000,4.83602001953125,2.0406033262968064,-0.6683356066659093,-0.6630469987384975
1782952411034946800,4.84594677734375,2.9774405242949724,-0.4233252194277942,-0.6911141324460506
1782952411044874000,4.8558740234375,3.847873113015294,-0.21578312371000646,-0.7686313796296715
1782952411054801000,4.86580078125,4.725056929561496,0.020271949786692858,-0.6346911112174392
1782952411064729000,4.87572900390625,5.510361503833532,0.26836568999290467,-0.5691257292427122
1782952411074655700,4.88565576171875,6.012026831135153,0.41783553597033024,-0.3763969160469249
1782952411084583000,4.8955830078125,6.092089963409304,0.5508902537196875,-0.13020199519935993
1782952411094510800,4.9055107421875,5.923553597912192,0.716498895201832,0.034472781232465055
1782952411104437800,4.915437744140625,5.904304123041033,0.7658813502691686,0.024063103964272886
1782952411114365000,4.925364990234375,5.983377659755945,0.733033119764924,-0.056646856579743325
1782952411124291800,4.935291748046875,6.1461500548988575,0.7198366613224149,-0.14081223654095082
1782952411134219800,4.9452197265625,6.187372292125224,0.7833408729836344,-0.231275401472114
1782952411144147000,4.95514697265625,6.013398704010248,0.870656606734544,-0.3686032299634069
1782952411154073900,4.965073974609375,5.494242728203535,0.7699021302178501,-0.28938268599323924
1782952411164001000,4.9750009765625,4.890340430742502,0.5815021034739911,0.07473718801103532
1782952411173929000,4.984928955078125,4.299692167130113,0.6572162467584014,0.2889562042094767
1782952411183855900,4.99485595703125,3.845048118722439,0.5931789511337876,0.24751681710109114
1782952411193782800,5.00478271484375,3.6369606640815735,0.1744360910601914,0.11674630129877477
1782952411203710000,5.0147099609375,3.710011871767044,-0.08398468963205814,-0.07747983778268099
1782952411213638000,5.024637939453125,3.5793501866340636,-0.10311696786433458,-0.10780143588613718
1782952411223564800,5.034564697265625,3.0861563350796697,-0.09244111394062637,0.06755640966147183
1782952411233492000,5.044491943359375,2.8185248045802114,-0.07150237080827355,0.18497684736214576
1782952411243420000,5.054419921875,2.844760485076904,-0.04506809899955987,0.37193131494019177
1782952411253346800,5.064346923828125,2.5115987900465724,0.018558569997549054,0.5537064071189611
1782952411263274000,5.07427392578125,1.9967326203882694,-0.011124766734987497,0.5379998655516653
1782952411273201000,5.084200927734375,0.21599369772076604,-0.0004867606036365032,0.711197062466666
1782952411283129000,5.094129150390625,-2.1773282569915056,0.15376476669237016,0.9223434662867337
1782952411293055700,5.1040556640625,-3.405907344394922,0.48526174338087436,0.9103571873515843
1782952411302983000,5.11398291015625,-3.486391332429647,0.7144352406702935,0.660942793000862
1782952411312909800,5.123909912109375,-2.8531729241132733,0.7691223780170082,0.3691394557319581
1782952411322837800,5.133837646484375,-1.7344114712566137,0.8170772844992578,0.045644729843735694
1782952411332765000,5.143764892578125,-0.5630336959779262,0.9800374572992324,-0.13177337270192802
1782952411342691800,5.15369189453125,0.6169236915975809,1.0838134735941887,-0.1658870200321078
1782952411352619000,5.163618896484375,1.8142910636574028,0.9792077284768224,-0.09360672365389763
1782952411362547000,5.173546875,2.9978222180664535,0.7832299599550664,0.014634090030193328
1782952411372473900,5.183473876953125,4.010384811395406,0.823842102459073,0.011852423422411083
1782952411382401000,5.193401123046875,4.89414800633192,1.0220846010424196,0.08691581118050962
1782952411392327700,5.20332763671875,5.644060949227214,1.207139701272547,0.17297606497760862
1782952411402256000,5.213255859375,6.102997726392745,1.2739736418783665,0.27370091354101894
1782952411412182800,5.223182861328125,6.048795011562109,1.2284291575387118,0.36371728455275293
1782952411422110000,5.23310986328125,5.738794411888718,1.0970924957536161,0.43342499049659816
1782952411432036900,5.243036865234375,5.398944032874703,0.9695869365639984,0.4725472232364118
1782952411441964800,5.25296484375,4.839688101869822,0.8301505549535155,0.47365606126114723
1782952411451892000,5.26289208984375,3.9222909328788518,0.7181580605857074,0.5882897908527404
1782952411461819000,5.27281884765625,3.158699008721113,0.6322776203349232,0.7220850978363305
1782952411471746800,5.282746826171875,2.7014345486819744,0.5885550907254219,0.876863352420181
1782952411481674000,5.292674072265625,2.6972195613354444,0.5345585659913719,0.8346306960422545
1782952411491601000,5.302600830078125,2.9884628535687923,0.5275633002765476,0.6037477279538288
1782952411501526800,5.31252685546875,3.3643840783953665,0.525402907372266,0.2972152427824214
1782952411511454000,5.322453857421875,3.742220781454444,0.5214173448674381,0.00012976385951042174
1782952411521380900,5.332380859375,4.074489327037334,0.5312684384047984,-0.10472604702878743
1782952411531308000,5.34230810546875,4.184779255270958,0.478415092356503,-0.11257551842015236
1782952411541236000,5.352236083984375,4.071190870013833,0.35565380508452654,-0.13678774853153153
1782952411551163000,5.362162841796875,3.7096634967207907,0.2614947813101113,-0.3068087813621387
1782952411561090000,5.372090087890625,2.6568115631014106,0.12982143491655587,-0.3234005082661286
1782952411571016700,5.3820166015625,0.8027110516250133,-0.09024360389634967,-0.11241499409619718
1782952411580945000,5.39194482421875,-1.5045833094507455,-0.4224645109452307,0.23687804378475993
1782952411590871800,5.401871826171875,-4.264012950983643,-0.8214223279662429,0.6979735698867588
1782952411600798700,5.411798828125,-7.582299295070767,-1.012566831112653,1.0255004739005118
1782952411610726000,5.421725830078125,-10.722974571323395,-1.234766982258111,1.1081954159829766
1782952411620653800,5.43165380859375,-13.149240764260291,-1.51927117549479,0.7692316105451434
1782952411630581000,5.4415810546875,-14.702919820791482,-1.6996039233781397,0.3030322584981099
1782952411640508000,5.4515078125,-15.080545511448383,-1.3669497394785284,-0.15316986953914163
1782952411650435800,5.461435791015625,-14.885167900776862,-1.1534968122817575,-0.609623232391104
1782952411660363000,5.471363037109375,-14.297926815259455,-1.170651945222169,-1.0428392928447574
1782952411670290000,5.4812900390625,-13.440096518480777,-1.2912123614490032,-1.2514053978480397
1782952411680216800,5.491216796875,-12.675724257600306,-1.3200778059273957,-1.0855779259834437
1782952411690144800,5.501144775390625,-11.879818209815024,-1.2632961805194616,-0.8233722929902374
1782952411700072000,5.511072021484375,-10.817293023443222,-1.2768582574039697,-0.6896168796256185
1782952411709998800,5.520998779296875,-9.377606841316819,-1.2123594817474483,-0.5791365799190477
1782952411719925800,5.53092578125,-7.782175970727205,-1.1273476410247385,-0.5027811065237969
1782952411729854000,5.54085400390625,-6.13075959354341,-1.1488557815428821,-0.49058564181737596
1782952411739780900,5.55078076171875,-4.596566158726811,-1.1322203616276383,-0.5164356109321117
1782952411749708000,5.5607080078125,-3.1936580938994883,-1.0181380553737283,-0.5527731448568404
1782952411759635000,5.570635009765625,-1.8625357468664645,-0.8697014979667961,-0.5972509498130529
1782952411769563000,5.58056298828125,-0.6336363414674997,-0.6767784408405423,-0.665027505031228
1782952411779490000,5.590489990234375,0.5193903690844774,-0.4048771240673959,-0.7200916589967906
1782952411789416700,5.600416748046875,1.521915552523732,-0.16287855893112718,-0.7875656510718166
1782952411799343900,5.61034375,2.4405770423620936,0.01412299870289862,-0.8628828309278934
1782952411809271800,5.620271728515625,3.1822961574077606,0.13196809155642986,-0.8686440978683531
1782952411819198700,5.63019873046875,3.6880280034959316,0.2393826104842126,-0.8641610341701657
1782952411829126000,5.6401259765625,4.11599213477075,0.33199623144753276,-0.8700599560156465
1782952411839054300,5.650054443359375,4.477082870212197,0.5127527577009052,-0.7288841103266924
1782952411848983300,5.6599833984375,4.802572715440392,0.6694809042435139,-0.4742099688168615
1782952411858910200,5.66991015625,5.200055199211835,0.7598937272269278,-0.3705602092500776
1782952411868837400,5.67983740234375,5.471320702299475,0.8694124518923461,-0.26956067193113264
1782952411878764300,5.689764404296875,5.470816844430566,0.9692862731169909,-0.12180479939789511
1782952411888692500,5.6996923828125,5.341550413048267,0.9570422200284898,-0.11493391811456531
1782952411898619400,5.709619384765625,5.182418420234322,0.936835444432497,-0.1299213607602287
1782952411908546600,5.719546630859375,5.001692435249686,0.9033774114668369,-0.06356640844354405
1782952411918473500,5.729473388671875,4.84806488507092,0.744867496073991,-0.09374799528811126
1782952411928401400,5.7394013671875,4.932413731840253,0.5426723143421113,-0.28402282119421285
1782952411938328600,5.74932861328125,5.195033571657538,0.36462606996074315,-0.377062028892152
1782952411948255200,5.759255126953125,5.402895985370874,0.18418664683252572,-0.46067499913498755
1782952411958183200,5.76918310546875,5.251872480210662,-0.0007468728445470333,-0.46935788914319126
1782952411968110300,5.7791103515625,4.981145321783423,-0.1760395807340741,-0.41183804912120103
1782952411978037200,5.789037353515625,4.54789126740694,-0.2239903955630958,-0.19815642773509023
1782952411987964400,5.79896435546875,3.590636719802022,-0.16681334109678864,0.07668722610026597
1782952411997892400,5.808892333984375,2.764123936828971,-0.12869915288835762,0.11283961271643637
1782952412007819500,5.818819580078125,2.253303243169188,-0.09611614919155835,0.082383830306679
1782952412017746400,5.828746337890625,1.6863988432377577,-0.08057473505809902,-0.020130641619861125
1782952412027673600,5.838673583984375,0.6954302420794963,-0.06855331174433231,-0.10380553465038538
1782952412037601500,5.8486015625,-0.7234253334641456,-0.026321605214476584,0.03759038353003561
1782952412047528400,5.858528564453125,-2.2826094171524045,-0.0023508009098470208,0.1982258031768724
1782952412057455400,5.868455322265625,-3.2126901266276833,0.13330153211727738,0.33907997916340826
1782952412067382300,5.87838232421875,-3.144836487585306,0.3771487207949161,0.5670022342827171
1782952412077310200,5.888310302734375,-2.347895251533389,0.5220265628069639,0.6652433397389947
1782952412087237400,5.8982373046875,-1.2210825941681862,0.5843737133875488,0.6071737934123724
1782952412097164300,5.908164306640625,0.0431914914727211,0.8100105609834194,0.6094033060301095
1782952412107091500,5.918091552734375,1.1931792727202177,0.8397615561246872,0.48468661037404087
1782952412117019400,5.928019287109375,2.187923885285854,0.9076317079104482,0.4046219437299296
1782952412126946600,5.937946533203125,2.985253828394413,0.9083794575378298,0.38405897510740905
1782952412136873500,5.94787353515625,3.6134611305505033,0.9388356783390045,0.3508510444452986
1782952412146801400,5.957801513671875,4.0482904714196914,0.9541552664153278,0.4113660476952791
1782952412156728300,5.967728271484375,4.321698247233033,0.8594459152817726,0.3242396259713918
1782952412166655200,5.9776552734375,4.423686795589328,0.6745660254880785,0.22341204768586903
1782952412176582400,5.98758251953125,4.479761734032631,0.5130909766793251,0.09926047509927302
1782952412186510300,5.99751025390625,4.267906451290846,0.5372182867199182,0.018134864692762494
1782952412196437200,6.007437255859375,3.8761031821995973,0.6344812678590417,0.14095548093654214
1782952412206364400,6.017364501953125,3.370814403703809,0.6783717744465917,0.246405659255106
1782952412216291300,6.027291259765625,2.661876445275545,0.7106295647770166,0.2793821740478277
1782952412226219500,6.037219482421875,1.9675509495675563,0.7171366816487162,0.35219756368342786
1782952412236146400,6.047146484375,1.3064619530290364,0.7388117031663656,0.760258030494675
1782952412246073600,6.057073486328125,0.7052595621764659,0.7945884623806924,1.2508581392288207
1782952412256000300,6.067000244140625,0.749338942399621,0.6640007923319935,1.1116166226033122
1782952412265928200,6.07692822265625,1.1588088010847568,0.5529166449807584,0.3932693961210549
1782952412275855400,6.08685546875,1.939125065550208,0.5459275898110121,-0.14080401670187712
1782952412285782300,6.0967822265625,2.9046529359817503,0.5156542512960731,-0.4169795401955023
1782952412295710200,6.106710205078125,3.7465082495152946,0.39850466642603277,-0.5203308648049831
1782952412305637400,6.116637451171875,4.210441519793868,0.4290918931957334,-0.4204370967708528
1782952412315564300,6.126564208984375,4.268474606567621,0.4969607298072427,-0.1752990280324593
1782952412325491500,6.136491455078125,3.9850276672989127,0.5282157728359103,-0.017063691797293723
1782952412335419400,6.14641943359375,3.231199012264609,0.5570186004068702,0.2201612657289952
1782952412345346600,6.1563466796875,1.8260896380007265,0.5814566568970679,0.6493081039823592
1782952412355273500,6.1662734375,0.6436608918756246,0.6098500999495386,0.7752006019521505
1782952412365200400,6.176200439453125,-0.1738584373027086,0.624377806995809,0.579226121366024
1782952412375128300,6.18612841796875,-0.8425234220534562,0.41386546329557894,0.2610831317692995
1782952412385055200,6.19605517578125,-1.5022633420705795,0.06966521850898862,0.06846877526603638
1782952412394982400,6.205982421875,-2.1890724707990885,-0.25803674981072544,-0.10530614847168326
1782952412404909300,6.215909423828125,-3.1190111414551733,-0.6099202425763011,-0.34915231423601506
1782952412414837200,6.225837158203125,-4.834589317426085,-0.9925317588217556,-0.25948672942332923
1782952412424764400,6.235764404296875,-8.0534496571213,-1.3251217914439737,0.16604805581271648
1782952412434691300,6.24569140625,-12.6969213594079,-1.4471687929667532,0.3095101858079433
1782952412444619500,6.25561962890625,-16.497868470597265,-1.3516206529214978,0.20388185617718843
1782952412454546400,6.26554638671875,-17.7395274043262,-1.0817110944874584,0.036569150723516936
1782952412464473600,6.2754736328125,-16.710336332279443,-0.8833313793905079,-0.1479377410393208
1782952412474400300,6.285400146484375,-14.64656372731924,-0.895130099864304,-0.44401557728964836
1782952412484328200,6.295328125,-12.68220777440071,-1.0191060236230491,-0.8517704122178256
1782952412494255400,6.30525537109375,-11.16051375567317,-1.126861903334409,-1.0916774119023234
1782952412504182300,6.315182373046875,-9.853502936589717,-1.0963948688782752,-1.0324947897672652
1782952412514109400,6.325109375,-8.698326939049362,-1.0316799662530423,-0.8519998370595275
1782952412524037400,6.335037353515625,-7.852199939545988,-1.0227911418765783,-0.750673259743303
1782952412533964300,6.34496435546875,-7.0020292176097625,-1.0545471932299435,-0.7401600490354001
1782952412543891500,6.354891357421875,-6.026677287778258,-1.053224127932638,-0.7453218157127499
1782952412553818400,6.364818359375,-4.9998330711185925,-0.9996780503798276,-0.7437863497737794
1782952412563746600,6.37474658203125,-3.939809638434648,-0.9403291317671537,-0.7537506213620304
1782952412573673500,6.384673583984375,-2.9794805056899785,-0.7881952542122453,-0.7039537402749061
1782952412583600400,6.394600341796875,-2.0054139394938946,-0.604708499277383,-0.6872310804676264
1782952412593528300,6.4045283203125,-0.9585095161020755,-0.43922202287018297,-0.6967775650352239
1782952412603455200,6.414455322265625,0.17529636115133762,-0.2838836501855403,-0.8138224474217742
1782952412613382400,6.42438232421875,1.3604115698814392,-0.07175364215560256,-0.9143910459775477
1782952412623309300,6.434309326171875,2.5398347044497727,0.10066168366670608,-0.9167775757879019
1782952412633237200,6.4442373046875,3.6342397146850822,0.28935981657430526,-0.9052872636761515
1782952412643164400,6.454164306640625,4.631577850875258,0.482345563673228,-0.9695484311845153
1782952412653091300,6.46409130859375,5.528047967171669,0.6161337102636695,-1.0531829922046512
1782952412663018500,6.4740185546875,6.345735054132342,0.7889256873786449,-1.043313997684419
1782952412672946400,6.483946533203125,7.074267939868569,0.9815547299943864,-0.962532341877371
1782952412682873600,6.49387353515625,7.474097279027104,1.1786686629392207,-0.7009396531507373
1782952412692800300,6.50380029296875,7.523463075220584,1.333847534213215,-0.3614648294508457
1782952412702727400,6.5137275390625,7.276642862081527,1.3297786773391067,-0.04591897107469849
1782952412712655400,6.5236552734375,6.689454383534192,1.2111178111232817,0.3420405460020527
1782952412722582300,6.533582275390625,5.5977405120790005,1.0310213562138377,0.8481216804519295
1782952412732509400,6.543509521484375,4.695222347790002,0.8511405898816883,1.1715411491468548
1782952412742436400,6.553436279296875,4.551661433595418,0.5886500755324959,1.046749817351997
1782952412752364300,6.5633642578125,4.937786072528362,0.5105639424197376,0.8600356248032301
1782952412762291500,6.57329150390625,5.556427089437842,0.48301907902061936,0.7830968350946903
1782952412772218400,6.58321826171875,6.11751900369823,0.3784568807840347,0.6310473478876054
1782952412782146600,6.593146484375,5.895921494621038,0.404263376083225,0.5956463641606271
1782952412792073500,6.603073486328125,5.062796600031852,0.5756793886698782,0.47653143403436987
1782952412802000400,6.61300048828125,3.999256099137664,0.7341042561277746,0.37579536995720114
1782952412811927300,6.62292724609375,2.4160230313420294,0.9298997999504208,0.2906251238023862
1782952412821855200,6.632855224609375,0.5843541319042443,0.9629073126696049,0.3470334223859012
1782952412831782400,6.642782470703125,-1.3480495164364577,1.189618365368247,0.08532419460751116
1782952412841708800,6.652708740234375,-2.8740567221879956,1.4161736429832874,-0.04238558191731572
1782952412851636000,6.662635986328125,-3.0987001748323437,1.0652345914609729,0.11496712626442313
1782952412861564000,6.67256396484375,-2.577704708638787,0.6194383047670126,0.27566432256847617
1782952412871491000,6.682490966796875,-1.836294221150875,0.47792526301294563,0.21013781129941342
1782952412881418000,6.69241796875,-0.983438205653429,0.49587987576797604,0.2066926392816007
1782952412891345200,6.70234521484375,-0.03961947820484638,0.5466571461945772,0.12917327320612967
1782952412901273000,6.712273193359375,0.9286188202291726,0.5539620623804629,-0.07009133496657013
1782952412911200000,6.722199951171875,1.7496768449276685,0.5029230722777546,-0.1812822306279093
1782952412921127200,6.732127197265625,2.3395558777332304,0.4353375826522708,-0.19101240119934082
1782952412931053800,6.7420537109375,2.9207600211739537,0.38577787132188673,-0.1573814958848059
1782952412940981800,6.751981689453125,3.389060839012265,0.3568776477910578,-0.06084602530263364
1782952412950909000,6.761908935546875,3.79745050124526,0.35338775984868404,0.05169960943590849
1782952412960835800,6.7718359375,4.1084406964778895,0.42018604461923237,0.1486497982988134
1782952412970764000,6.781763916015625,4.331201404115557,0.5669682589478791,0.17954831950739025
1782952412980691000,6.79169091796875,4.550598188278078,0.7323509827196598,0.21062676386013626
1782952412990618000,6.8016181640625,4.7403497757613655,0.9341624258309602,0.31075477904155846
1782952413000545000,6.811544921875,4.922136083453894,1.1217848923310636,0.40017354948632416
1782952413010473000,6.821472900390625,5.1275575337558985,1.2563235650278628,0.4772405321517959
1782952413020400000,6.831400146484375,5.4390615237295625,1.2310006154619157,0.4635235569665208
1782952413030327000,6.8413271484375,5.657536516872048,1.1249189525730907,0.5066970378585159
1782952413040254000,6.85125390625,5.387422521907091,1.0072427134804427,0.5601383033299818
1782952413050182000,6.861181884765625,4.618505018812418,0.8287070781469345,0.4939220562310889
1782952413060108800,6.87110888671875,3.5096658250331876,0.7510213425286114,0.7330552585314959
1782952413070036000,6.881035888671875,2.757806424245238,0.784655608844012,1.1402972120340913
1782952413079963000,6.890962890625,2.7718694363892076,0.6624567777603865,0.9573406184531748
1782952413089891000,6.90089111328125,3.4446617302030322,0.6467110732264817,0.5537130195228382
1782952413099818000,6.91081787109375,4.168632422590256,0.5874547282680869,0.22176585138142108
1782952413109745200,6.9207451171875,4.717799505779147,0.4240503188319504,-0.006597315905801951
1782952413119673000,6.930673095703125,4.924395845079422,0.3264750568732619,-0.2906411616217345
1782952413129600000,6.94060009765625,4.319194739979506,0.39036885237395763,-0.3308404124759137
1782952413139527200,6.950527099609375,3.021240503054857,0.3628299803242087,-0.0628784809783101
1782952413149453800,6.960453857421875,1.230764030227065,0.2814667252369225,0.18775814864374696
1782952413159381800,6.9703818359375,-0.887875306430459,0.0834369926214218,0.16280746645629404
1782952413169309000,6.980308837890625,-3.438336034312844,-0.2646042916327715,0.015284882089123129
1782952413179235800,6.99023583984375,-6.0537464964896435,-0.8010843272060155,-0.1814078297689557
1782952413189163000,7.0001630859375,-8.331814178559183,-1.362828129503876,-0.16970095229707657
1782952413199091000,7.010091064453125,-10.208334611636399,-1.800919687039405,0.1586086995922029
1782952413209018000,7.02001806640625,-11.244502536958455,-1.9757051760591566,0.6170191147960722
1782952413218945000,7.029945068359375,-11.654788972723484,-1.8182003460556269,0.8992243103753775
1782952413228872000,7.039871826171875,-11.643681887775658,-1.644392177635431,0.688879943653196
1782952413238800100,7.049800048828125,-11.643033068478108,-1.728303948161751,0.10271284404285251
1782952413248727000,7.05972705078125,-11.877606378984451,-1.8557824732139705,-0.4803461334843188
1782952413258654000,7.069654052734375,-12.111408120596408,-1.811960721013695,-0.6904340412274003
1782952413268582000,7.079581787109375,-12.284642873042822,-1.8414730850934982,-0.9534187688343226
1782952413278508800,7.0895087890625,-12.13173311574459,-1.7433010262854396,-1.3163299977011977
1782952413288436000,7.09943603515625,-11.667952405679225,-1.5092429718248546,-1.5370526236400008
1782952413298363000,7.10936279296875,-10.883265671044587,-1.3176606617830693,-1.6936350781016052
1782952413308291000,7.119291015625,-9.784035432609915,-1.2648036624729633,-1.8130090610228478
1782952413318218000,7.129218017578125,-8.632865748101473,-1.30224053594172,-1.8275950741276143
1782952413328145200,7.139145263671875,-7.310305477708578,-1.3038093926936387,-1.6752628244563936
1782952413338072000,7.149072021484375,-5.973823064947128,-1.3101476558044551,-1.3987185041829944
1782952413348000000,7.159,-4.876477909606695,-1.2917793476819992,-1.1558466633435338
1782952413357927200,7.16892724609375,-4.032951447990537,-1.2314420756191014,-0.9797525759432464
1782952413367853800,7.178853759765625,-3.204311589860916,-1.044291318283975,-0.7476385682225227
1782952413377781000,7.188781005859375,-2.2107167318522927,-0.832283183068037,-0.5118478082178161
1782952413387709000,7.198708984375,-1.1374696604579686,-0.5711072584487498,-0.30390063883047547
1782952413397635800,7.2086357421875,-0.0001993219643831253,-0.3633315001055598,-0.17139595617931336
1782952413407563000,7.21856298828125,1.1506944682121276,-0.1896985421217978,-0.16935725342594085
1782952413417491000,7.228490966796875,2.2755518998563287,0.04779430909305811,-0.1463184875407256
1782952413427418000,7.238418212890625,3.397981227570772,0.27736381996273995,-0.12924253905005753
1782952413437345000,7.248344970703125,4.373034466716647,0.3689449560731649,-0.3164285503616556
1782952413447272000,7.25827197265625,5.267127332487702,0.522129877050966,-0.3529677808709442
1782952413457200000,7.2682001953125,6.295833251366019,0.6652199588634073,-0.38833102640341965
1782952413467127000,7.278126953125,7.129549097585678,0.7413282160319388,-0.38928945963941514
1782952413477054000,7.288053955078125,7.650807598629593,0.7733307894922793,-0.3420621733119711
1782952413486980900,7.29798095703125,7.726669187560677,0.8268526824519038,-0.29400685692885886
1782952413496908800,7.30790869140625,7.277056119057535,0.9182200296811759,-0.1467908634259831
1782952413506836000,7.3178359375,6.440223017600179,0.9921991658665239,-0.1306377197355032
1782952413516763000,7.327762939453125,5.551194449481367,1.0802766777701676,-0.060519405430462206
1782952413526690000,7.33768994140625,4.88031061963737,1.2214286311268805,0.09767506907135248
1782952413536618000,7.347617919921875,4.1313545390754935,1.3445933846332132,0.42917522409763187
1782952413546545200,7.357545166015625,3.641230596485734,1.3745198824718594,0.48523807024434207
1782952413556472000,7.36747216796875,3.943413800406456,1.2948676690861582,0.2500264618344605
1782952413566399000,7.37739892578125,4.590782314628362,1.109025948522985,0.17383987873271106
1782952413576327200,7.3873271484375,5.22045033698678,0.9161058140061795,0.09855093859042972
1782952413586253800,7.39725390625,5.930944877207279,0.8335542259171604,-0.03156933314222842
1782952413596181000,7.407180908203125,6.301342370176315,0.8723086117252707,0.0573083161631599
1782952413606109000,7.41710888671875,6.474140484771132,0.9773338974289596,0.13899791712798176
1782952413616035800,7.427035888671875,6.472351847788691,0.8975207943931222,-0.19637487808056175
1782952413625963000,7.436962890625,6.042982525891065,0.7905902595899998,-0.4604902902178466
1782952413635890000,7.446889892578125,4.734062073794007,0.7195595979467034,-0.31722503450158984
1782952413645818000,7.456818115234375,2.9386382076919078,0.661831777729839,-0.13109846911504863
1782952413655745000,7.4667451171875,1.097766595622897,0.5569802411578595,0.06167962658256292
1782952413665672000,7.476671875,-0.16954057410359383,0.6332829979851842,0.3368646412014961
1782952413675598800,7.486598876953125,-0.7735200284540653,0.909543679011613,0.6553287525113671
1782952413685527000,7.496527099609375,-0.4456991099298,1.2825970933169126,0.8558601657494902
1782952413695454000,7.506453857421875,0.3986187943249941,1.518081381188333,1.0560673885345457
1782952413705380900,7.516380859375,1.2878215499669312,1.5750741651289164,1.1036126913025974
1782952413715308000,7.52630810546875,2.005820766729116,1.4975937428243458,0.9234251240435987
1782952413725236000,7.536236083984375,2.7351684759795662,1.32566948845461,0.6184346076171845
1782952413735163000,7.546162841796875,3.6753240047454834,1.1551645993635058,0.41920952773727477
1782952413745090000,7.556090087890625,4.1490667213767765,1.0714980357699095,0.29063005570583045
1782952413755018000,7.56601806640625,4.222120851671695,0.8108800372943281,0.11833711415417492
1782952413764945200,7.575945068359375,3.748537709516287,0.4313151952683925,-0.11164002766832709
1782952413774872000,7.5858720703125,2.4889801310032604,0.14159677451476455,-0.08688559870533645
1782952413784799000,7.595799072265625,1.0482932474017144,0.2067075445897877,0.40974710472393777
1782952413794727200,7.60572705078125,0.04571019629538059,0.38935185735113914,0.8119490547653287
1782952413804653800,7.61565380859375,-0.12987725675702094,0.48615416217595336,0.8343651039086282
1782952413814581000,7.6255810546875,0.3929156142473221,0.3500118536747992,0.5027289379451424
1782952413824508000,7.6355078125,1.0448083278954028,0.409908323167637,0.28617870232015846
1782952413834435800,7.645435791015625,1.4808599040359258,0.2874212497271597,0.2697697115719318
1782952413844363000,7.655363037109375,1.466148072594404,-0.04197239800654352,0.22759090427309273
1782952413854290000,7.6652900390625,1.4922013822615146,-0.3551709900036454,-0.3078078388694674
1782952413864217000,7.675217041015625,1.724785564777255,-0.4164449583947658,-0.6843637814030051
1782952413874145000,7.68514501953125,1.808387977093458,-0.37587906618528066,-0.6922311537772416
1782952413884072200,7.695072265625,1.677257505404949,-0.402185327700153,-0.5588273303292691
1782952413893998800,7.704998779296875,1.3175567630171776,-0.3651932023242116,-0.18379677073210476
1782952413903927000,7.714927001953125,0.7375497204065322,-0.2846126951124519,0.3323456294070929
1782952413913854000,7.72485400390625,0.41712767996191974,-0.038740211152285334,0.5924067246522754
1782952413923780900,7.73478076171875,0.6887438961833715,0.35413360977992414,0.6475033926479518
1782952413933708000,7.7447080078125,1.0782786358207463,0.5264886567823589,0.5353809152249247
1782952413943636000,7.754635986328125,0.7874053459435701,0.5391214899927378,0.44858080284595486
1782952413953563000,7.76456298828125,-0.9543161560654639,0.40277730224393304,0.3248241478610784
1782952413963490000,7.774489990234375,-3.5329204438924786,0.02400631400942802,0.19402109976233914
1782952413973417000,7.7844169921875,-6.274813259690999,-0.44194436050616204,0.14902750903740525
1782952413983345200,7.79434521484375,-8.915035507041216,-0.8724765887033193,0.2581514804978855
1782952413993272000,7.80427197265625,-11.09643028281927,-1.1076770911972968,0.5276729711961001
1782952414003199000,7.814198974609375,-12.55316638394594,-1.0452677621006965,0.8268040940698236
1782952414013126000,7.8241259765625,-13.339597331899403,-0.869753447349742,0.9089054541733116
1782952414023053800,7.8340537109375,-13.847694153553247,-0.7797504472762345,0.5611963244829327
1782952414032981000,7.84398095703125,-14.154040906894206,-0.7595902873009442,0.068880022948049
1782952414042908000,7.853907958984375,-14.199293422549962,-0.8343906036760658,-0.37578119530137627
1782952414052835800,7.8638359375,-13.675371255254746,-1.0284822661902755,-0.7970842977844178
1782952414062763000,7.873762939453125,-12.569271131050586,-1.247537031982094,-1.1607264712743461
1782952414072690000,7.88368994140625,-11.066396379083395,-1.3672478456422685,-1.3274312374301254
1782952414082617000,7.8936171875,-9.215194511657952,-1.391940534480661,-1.4036251270554958
1782952414092545000,7.903544921875,-7.230693596333265,-1.3346778475575147,-1.311258978047222
1782952414102472200,7.91347216796875,-5.468593907684087,-1.1771423301547765,-0.9652677581906318
1782952414112398800,7.92339892578125,-3.9339825397163626,-1.0334599815376102,-0.6918896468631923
1782952414122326000,7.933325927734375,-2.564655257451534,-0.9650069883625954,-0.6267911517478525
1782952414132254000,7.94325390625,-1.3992910433739423,-0.8998615853656082,-0.6480442215263843
1782952414142180900,7.953180908203125,-0.4384136290967464,-0.832271054238826,-0.7087555875986814
1782952414152108000,7.96310791015625,0.365718395242095,-0.7057677308943122,-0.6985370489884167
1782952414162035000,7.973034912109375,1.1770657577872277,-0.48490116644017395,-0.5499640057202428
1782952414171963000,7.982962890625,1.9342256030708551,-0.4907080260880291,-0.8539229871418327
1782952414181890000,7.99289013671875,2.817214306503534,-0.4539789355624467,-0.993345632487908
1782952414191817000,8.00281689453125,3.7393624694138765,-0.27473325226344164,-0.9343933119773864
1782952414201744100,8.012744140625,4.640324636432529,-0.03299187675863504,-0.7790256401330232
1782952414211672000,8.022672119140625,5.20515749078691,0.025601839572563765,-0.7147218025267124
1782952414221599000,8.032598876953125,5.500561409831047,0.10685798102356493,-0.6134012165598571
1782952414231526000,8.04252587890625,5.664244490078091,0.24562062809094784,-0.39943756336197256
1782952414241453800,8.052453857421876,5.719747181591392,0.44758404689356684,-0.07515216202009468
1782952414251381000,8.062381103515625,5.791092754402756,0.6086132516309618,0.29872524548657237
1782952414261308000,8.072307861328126,5.843797924152017,0.6566720568791031,0.6119044751960784
1782952414271235000,8.082235107421875,5.651875422370433,0.6796284234441816,0.722308092937246
1782952414281163000,8.0921630859375,5.235859503042698,0.7161813536852598,0.6361942092567682
1782952414291090000,8.10208984375,4.863474051126837,0.6225725111395121,0.49984359176717696
1782952414301017000,8.11201708984375,4.403935800936818,0.7057134434238076,0.27938301429804413
1782952414310944000,8.121944091796875,3.8502585468471047,1.0332960231475532,-0.014690514658857136
1782952414320872200,8.1318720703125,3.842428876134753,1.1275666906028985,-0.10940845095766707
1782952414330798800,8.141798828125,4.122887154981494,1.102723633508384,-0.01726768993679434
1782952414340726000,8.15172607421875,4.01302568129301,1.0400666863262653,0.08171970384214072
1782952414350654000,8.161654052734375,3.4187212332606314,0.9419730995818972,0.06624978404231369
1782952414360580900,8.171580810546875,2.494564653137326,0.9791995451703667,0.12647245328221468
1782952414370508000,8.181508056640626,2.0264257478624583,1.132365469186753,0.10345376207064837
1782952414380435000,8.19143505859375,2.025635474267602,1.3445190042227506,0.05972520457915961
1782952414390363000,8.20136279296875,2.144760450863838,1.3743046322859822,0.03813493873551488
1782952414400290000,8.2112900390625,2.1212311067163943,1.3378516552880406,-0.11837832294739782
1782952414410217000,8.221217041015626,1.9006173479795454,1.3622114589102565,-0.27035452572256324
1782952414420144000,8.23114404296875,1.5186246942847965,1.2398578756563365,-0.268624706255272
1782952414430072000,8.241072021484374,1.1271581098020076,0.9909897900767624,-0.2764683324277401
1782952414439999000,8.2509990234375,0.6847311534106731,0.8536118023008108,-0.23450996294654905
1782952414449926000,8.26092578125,0.5025748433619738,0.8579863641232252,-0.2194545056991279
1782952414459853000,8.27085302734375,1.010846437060833,0.934375484059751,-0.09922646323181689
1782952414469781000,8.280781005859374,1.845253772675991,0.9624490475080907,0.16417733003739265
1782952414479708000,8.2907080078125,2.8129706775844094,0.9350736954569816,0.3530276212994009
1782952414489635000,8.300635009765625,3.772075236970186,0.9660755674421787,0.38508802589420227
1782952414499562000,8.31056201171875,4.71134229246378,1.049039681854844,0.227534497910738
1782952414509490000,8.320489990234375,5.504717944988608,1.1351922170452773,-0.017516623196564614
1782952414519417000,8.3304169921875,6.287417889720201,1.185196457272768,-0.22811118355384094
1782952414529344000,8.340343994140625,6.988939434412122,1.1156759079314769,-0.27519723477968944
1782952414539272200,8.350272216796874,7.323491122496128,0.9066991032354533,-0.0649043105503777
1782952414549198800,8.36019873046875,6.784438021564483,0.6453023754723369,0.3213943195428699
1782952414559126000,8.3701259765625,5.339788079550862,0.46652387129366396,0.765493008538708
1782952414569053000,8.380052978515625,3.6673289143383503,0.3149181823313236,0.8156525854583829
1782952414578980900,8.38998095703125,2.3690485141992568,0.1762083614297211,0.6972504432439803
1782952414588908000,8.399907958984375,1.5751754335463046,0.06273644215911627,0.668900108680874
1782952414598835000,8.4098349609375,1.7196090389221905,0.025071678218618033,0.31448724356815216
1782952414608762000,8.41976220703125,1.9193173722743986,0.22845658119171858,0.08373981149289757
1782952414618690000,8.42968994140625,1.776071515378356,0.20466990128234028,-0.16339111156314612
1782952414628617000,8.439616943359376,1.7556892370849846,0.07669438649341463,-0.6114681296054274
1782952414638544100,8.449544189453125,1.9394599965929984,-0.016095979276299476,-0.8712532574534416
1782952414648472000,8.45947216796875,2.0066881972134114,-0.06873254076875746,-0.6967151673234999
1782952414658399000,8.46939892578125,1.4280799154847859,0.09704963064938783,-0.09965017766975798
1782952414668326000,8.479325927734376,0.5763035119175911,0.4383857912417501,0.11801561798169277
1782952414678253000,8.489253173828125,-0.05501110860407352,0.4846221303030848,0.2728492103488184
1782952414688181000,8.499180908203124,-0.46619303190410133,0.33673407362438734,0.3889925590520724
1782952414698108000,8.50910791015625,-0.989952702113986,0.21682802965305745,0.6060688278451561
1782952414708035000,8.51903515625,-2.2272300597578285,0.03882803556621074,1.02259693447873
1782952414717962000,8.5289619140625,-4.471524067041278,-0.40161797614097594,1.366369016981125
1782952414727890000,8.538889892578124,-7.425443430495262,-0.8928161968987435,1.6820803955167531
1782952414737817000,8.548817138671875,-10.617473046410083,-1.2090155050817877,1.968125096193701
1782952414747744000,8.558743896484375,-13.725995527076721,-1.2612936085253954,1.8922202526427805
1782952414757671000,8.5686708984375,-16.043596762633324,-1.2134020496029405,1.4868117981776594
1782952414767598800,8.578598876953125,-17.118341963630915,-1.2756962278872728,0.9829548791158944
1782952414777526000,8.588526123046876,-17.312936314970255,-1.4411588850274681,0.42855077205635606
1782952414787453000,8.598452880859375,-16.817181088495254,-1.3365551857367157,-0.16059561735941097
1782952414797380000,8.608380126953126,-15.388500869029759,-1.0573384313836693,-0.5131703255258501
1782952414807308000,8.61830810546875,-13.282261579740046,-0.9715312024995684,-0.7028781469326466
1782952414817235000,8.62823486328125,-11.22476206369996,-0.9155800365664064,-0.8294736055400223
1782952414827162000,8.638162109375,-9.431735906389354,-0.7866076196946203,-0.7281246702615172
1782952414837090000,8.648090087890624,-7.920986475524306,-0.7893780342560262,-0.5011471486464143
1782952414847017000,8.658016845703125,-6.661116762322187,-0.7803170681830495,-0.36571817604638635
1782952414856944000,8.667944091796874,-5.595922649002075,-0.6263581671580671,-0.2911410374352708
1782952414866871000,8.67787109375,-4.527366950294375,-0.5039280115365982,-0.3848865119727328
1782952414876799200,8.68779931640625,-3.371936685732007,-0.615686843279004,-0.49420832582656293
1782952414886726100,8.69772607421875,-2.067764304944873,-0.7527223012275993,-0.6483729420240968
1782952414896653000,8.707653076171875,-0.720716659027338,-0.652177668069303,-0.9743529819220303
1782952414906580200,8.717580322265626,0.7213865211129188,-0.47112661584876475,-1.2231742326851933
1782952414916508200,8.727508056640625,2.263939787995815,-0.23937333119921383,-1.28732967479676
1782952414926435300,8.737435302734376,3.7187878834187984,-0.05426197073720395,-1.4445527652494607
1782952414936362000,8.747362060546875,4.947473938328027,0.04894771691188216,-1.5181287274613975
1782952414946290200,8.757290283203124,5.947980183160305,0.05880757827758789,-1.289723438065499
1782952414956217000,8.767217041015625,6.409717404699325,0.035467400026693935,-1.2573802344739435
1782952414966144000,8.77714404296875,6.355488386383652,0.19006620639041066,-1.1912780422087759
1782952414976071200,8.7870712890625,6.07320523019731,0.38732356639392673,-0.9037766399174928
1782952414985999000,8.7969990234375,5.773165468046069,0.6745480514399707,-0.5466685443714261
1782952414995926000,8.806926025390625,5.779733740520477,0.8163011855602264,-0.17150745372977108
1782952415005853200,8.816853271484375,5.710515827387571,0.3961009662851691,-0.05368603401277214
1782952415015780000,8.826780029296875,5.340322332558036,0.18329393577650188,-0.18262801921367644
1782952415025708300,8.836708251953125,4.842607204186916,0.1734418193258345,-0.24965788425039498
1782952415035635200,8.84663525390625,4.435165051937103,0.13334595578089356,-0.015845383782405405
1782952415045562000,8.85656201171875,4.05661172504127,0.4279971567615866,0.06611250359662808
1782952415055489000,8.866489013671876,3.7855584033995866,0.9320392961971461,-0.03656831960645504
1782952415065417000,8.8764169921875,3.8150942944854496,1.29388055774495,-0.1402715811924543
1782952415075344100,8.88634423828125,4.053322035846114,1.3771684972845017,-0.1571110266466625
1782952415085271000,8.89627099609375,4.547399684497714,1.1094411051951347,-0.12756339032407848
1782952415095199200,8.90619921875,4.778782674530148,0.7927662884548305,-0.17232012181952594
1782952415105126100,8.916126220703125,4.317748048302531,0.812026430850476,-0.2971388896105811
1782952415115053000,8.926052978515624,3.209934690439701,1.002357864048332,-0.19205964522995053
1782952415124980200,8.935980224609375,2.0235452239900824,0.9825099848926067,0.19654219747148452
1782952415134908200,8.945908203125,1.1086334420740604,1.3176561317384243,0.3519513703700155
1782952415144835300,8.95583544921875,0.5047364053100347,1.5812975696884095,0.3877151229947805
1782952415154762000,8.965761962890625,0.15151099641621113,1.623112219849974,0.6394192357178777
1782952415164689200,8.975689208984376,0.3152536978960037,1.7199534684456883,0.6548178073145449
1782952415174617000,8.9856171875,1.006485903763771,1.705167548854649,0.3513737166125327
1782952415184544000,8.9955439453125,2.0119173300385476,1.4962053572058678,0.15534421790353953
1782952415194471200,9.00547119140625,2.7845512233078478,1.2896335678249597,-0.01912095312066376
1782952415204398000,9.015398193359376,3.489713170328736,1.2006634909957647,-0.13256876086331904
1782952415214326000,9.025325927734375,4.224817835670709,1.0832391808375716,0.11100384865663945
1782952415224253200,9.035253173828124,4.880898648658395,1.0322831928431988,0.5664807676918804
1782952415234180000,9.04518017578125,5.435785863059759,0.9874860197395086,0.8642181711848824
1782952415244108300,9.0551083984375,5.81458468914926,1.0054482312791049,1.0828243164263665
1782952415254035200,9.06503515625,6.084180797719955,1.2097589438602327,1.3022016652360557
1782952415263962000,9.074962158203125,6.097240185779333,1.4412461249195039,1.5801237036034463
1782952415273889000,9.084888916015625,5.9880988430589435,1.5608376961141823,1.5604460664480924
1782952415283817000,9.09481689453125,5.8293853679180145,1.5443606085658073,1.121927807933092
1782952415293744000,9.104744140625,5.414314620485902,1.549255541000515,0.7875085140570998
1782952415303671000,9.114671142578125,4.676432307124138,1.6042982137866317,0.6282724763467907
1782952415313598200,9.12459814453125,3.8770892706274984,1.513455328822881,0.4830204307274893
1782952415323526100,9.134526123046875,3.2420565063655373,1.1499291829280553,0.4553021469902247
1782952415333453000,9.144453125,2.689347805047035,0.6237354174390435,0.5094093655571341
1782952415343380200,9.154380126953125,2.243479183769226,0.11938655014187097,0.5000583670290186
1782952415353307100,9.16430712890625,1.8707663995951413,-0.13771657208055257,0.5209931646386161
1782952415363235300,9.1742353515625,1.6305927848637103,-0.25583953202739357,0.6703993342626839
1782952415373162000,9.184161865234374,1.451207693094015,-0.34899215523824095,0.8695533216677606
1782952415383089200,9.194089111328125,1.4015531430870294,-0.3024437545530498,0.9434664068795741
1782952415393017000,9.20401708984375,1.4707745633512734,-0.21954525272250175,0.7723461623691021
1782952415402944000,9.213944091796876,1.2295026319891214,-0.24405834721028805,0.2623868347790092
1782952415412871200,9.22387109375,0.5189058004379272,-0.42886429498493667,-0.28190708941556514
1782952415422798000,9.233798095703126,-0.4030605761647224,-0.7217574002519249,-0.5562490773390978
1782952415432726300,9.243726318359375,-1.8669097241669892,-0.9282759981408715,-0.2753460321332328
1782952415442653200,9.253653076171876,-3.8426480718433855,-1.0967430977940558,0.20339292188277466
1782952415452580000,9.263580078125,-5.663221576771139,-1.284696111422777,0.525130848965235
1782952415462507300,9.27350732421875,-7.3779545340895645,-1.4244598252914844,0.9008196167428046
1782952415472435200,9.283435302734375,-9.458690548810361,-1.514459683559835,1.162487781858444
1782952415482362000,9.293362060546874,-11.377379560053347,-1.5753260940633713,1.3107843462727964
1782952415492289000,9.3032890625,-13.041971645152568,-1.5449807862907647,1.2664032066240907
1782952415502215200,9.313215087890624,-14.334163665288687,-1.3801876989752053,1.0328630385577677
1782952415512142000,9.32314208984375,-15.296449192798137,-1.2917056979238986,0.5806208636600524
1782952415522069200,9.3330693359375,-15.96325656698346,-1.0619004055369645,-0.04472102086124941
1782952415531996200,9.34299609375,-16.15168070525527,-0.7618694842793047,-0.7220924043599516
1782952415541924400,9.35292431640625,-15.458048452508448,-0.6298590148858726,-1.3709873244315385
1782952415551851000,9.36285107421875,-13.960356071615218,-0.6020456367436796,-1.6863760468840598
1782952415561778200,9.372778076171874,-11.959290974980592,-0.5363737256545573,-1.7318793224304914
1782952415571706000,9.3827060546875,-9.722375972032546,-0.42818822235427795,-1.5970900359734892
1782952415581633000,9.392633056640625,-7.509491248491406,-0.388157533000037,-1.3404428408250213
1782952415591560200,9.402560302734376,-5.456431176203489,-0.36074002230763436,-1.0150520720571279
1782952415601487000,9.412487060546875,-3.6157296600043773,-0.37555699462406333,-0.7646097959633916
1782952415611415000,9.4224150390625,-2.0685206762701274,-0.4312757400408387,-0.5561932554986327
1782952415621342200,9.43234228515625,-0.8461632398605347,-0.4516091376911848,-0.5097691387802362
1782952415631269000,9.44226904296875,0.14984510903060436,-0.3754094759121537,-0.5115607714373618
1782952415641196300,9.4521962890625,1.0518863034576178,-0.3462451215524226,-0.4342395582824945
1782952415651124200,9.462124267578124,1.8735230048269031,-0.33671507666297257,-0.3796219059754163
1782952415661051100,9.472051025390625,2.6419290512681006,-0.35080826474949717,-0.46451808442920445
1782952415670978000,9.48197802734375,3.2600147723823785,-0.31984913592748343,-0.4897560591254383
1782952415680905200,9.4919052734375,3.7117654374361035,-0.254543500867486,-0.47487263397667556
1782952415690833200,9.501833251953125,4.124304620563984,-0.19173114392794668,-0.3997340986231342
1782952415700760000,9.511760009765625,4.477091638040543,-0.07178374503292143,-0.288752187803667
1782952415710687200,9.521687255859375,4.671767237922549,0.16557890393100677,-0.1404039297346957
1782952415720615200,9.531615234375,4.727862050110102,0.37620574085637926,-0.029429635966103523
1782952415730542000,9.5415419921875,4.967027949103713,0.4825226007405668,-0.1093074017359875
1782952415740469200,9.55146923828125,5.362447070604563,0.502707675961405,-0.19242635965049265
1782952415750396200,9.561396240234375,5.558838826754689,0.4530810368746519,-0.19464007191089913
1782952415760324400,9.571324462890624,5.409632015627622,0.40591676931343973,-0.1885931198968552
1782952415770251000,9.5812509765625,5.153651175433397,0.12460121605023741,-0.09167163653862662
1782952415780178200,9.59117822265625,4.996358088484406,0.04415113028511405,-0.20860336827374992
1782952415790105000,9.60110498046875,4.6912107740610836,0.31552126279100773,-0.2859880020536482
1782952415800033000,9.611032958984374,4.45022233581543,0.439619205494225,0.031263194369082335
1782952415809960200,9.620960205078125,4.114699756872653,0.5655234669670463,0.3985341847814619
1782952415819887000,9.63088720703125,3.9415228720933198,0.5238537782341242,0.3465888204235583
1782952415829814300,9.640814208984375,3.8894022242337463,0.26595219911038875,-0.0559422337080352
1782952415839742200,9.6507421875,3.4506484033972025,0.22450506708696483,-0.4923802701491862
1782952415849668900,9.6606689453125,3.2094249873518943,0.4192094546720385,-0.6949811100725084
1782952415859595800,9.670595703125,2.857265161862969,0.3713388654723763,-0.5058672359708696
1782952415869523700,9.680523681640626,2.499725396901369,0.3167272775799036,-0.12225173031464219
1782952415879451000,9.690450927734375,2.331259174031019,0.47159109155535694,0.17824012298565356
1782952415889377800,9.700377685546876,2.051547914159298,0.6395648547336459,0.22735044658072293
1782952415899304700,9.7103046875,1.5207172826498745,0.7344657829165459,0.20159546227306127
1782952415909232600,9.720232666015624,0.877722161206603,0.8624193781346082,0.08311703995205462
1782952415919159600,9.73015966796875,0.055907765182852745,0.9452405769452452,-0.008621478677168488
1782952415929086700,9.740086669921874,-0.7355190913617611,0.9177057965487241,0.018749416394531725
1782952415939013600,9.750013671875,-1.3918050715327261,0.8466092300623654,0.1679324082545936
1782952415948941800,9.75994189453125,-1.6941823367208242,0.7696914100766181,0.30355156966447827
1782952415958868700,9.76986865234375,-1.4738625924944877,0.6166412213943898,0.32720519777871665
1782952415968796000,9.7797958984375,-0.8148124083071947,0.576679505623132,0.2460239481948316
1782952415978722800,9.789722900390625,0.031660628154873846,0.557660040115565,0.4802155659072101
1782952415988650800,9.799650634765625,0.8903443268924951,0.41699382444918154,0.6610774522311985
1782952415998578000,9.809577880859376,1.7536568544745443,0.24679537095874546,0.5718960707388818
1782952416008504600,9.819504638671875,2.553337160101533,0.18626608345508575,0.5332525979593395
1782952416018432500,9.8294326171875,3.389306922727823,0.16723478137925266,0.6023460809949785
1782952416028359700,9.839359619140625,4.160820872056484,0.17326061754003166,0.7278719376094639
1782952416038286600,9.84928662109375,4.7416754714071745,0.2308547283746302,0.79520593669191
1782952416048213800,9.8592138671875,5.124782223823666,0.4103580396965146,0.8092585735723375
1782952416058141700,9.8691416015625,5.44206830433011,0.6262991304472089,0.8315538458801806
1782952416068068900,9.87906884765625,5.559875768586993,0.7363403446167707,0.8569624279029667
1782952416077995800,9.888995849609374,5.454104194560647,0.7751299478687346,0.7969664435584097
1782952416087922700,9.898922607421875,5.287315549513697,0.573121959272027,0.960992857350409
1782952416097851000,9.908850830078125,4.9956905644863845,0.26634645912498234,0.9055600162029266
1782952416107777800,9.91877783203125,4.241545098587871,0.2170795932613313,0.8657637931916862
1782952416117704700,9.92870458984375,3.546430498328805,0.2533716806091368,1.0135312922306359
1782952416127631600,9.938631591796875,3.1986727071911094,-0.13022241693288086,1.096121751025319
1782952416137559600,9.9485595703125,2.812301984542608,-0.4003910646945238,0.38442572606056924
1782952416147486700,9.95848681640625,1.9161884265989064,0.028876623459532857,-0.11952807750441133
1782952416157413600,9.96841357421875,0.8323293602973222,0.4511686273820698,-0.170081987503916
1782952416167341800,9.978341796875,-0.012284896555542945,0.2844122041042894,-0.07134754557274281
1782952416177268700,9.988268798828125,-0.7592138552039861,-0.06485226526930928,-0.1647621807206422
1782952416187196000,9.99819580078125,-0.9797896200180053,0.0037747692983597513,-0.1795270575236529
1782952416197122800,10.008122802734375,-0.36710780377387997,0.2581663675397634,-0.14177300786450506
1782952416207050800,10.01805078125,0.10689268701076507,0.37735659139193595,-0.3078774700395763
1782952416216978000,10.02797802734375,-0.9339619348227978,0.42558366587907076,-0.6356235697619617
1782952416226904600,10.037904541015624,-2.9643887350201603,0.4706023727789521,-0.7126482111230492
1782952416236831700,10.047831787109375,-4.8626487062186,0.4775792260542512,-0.4534073462195694
1782952416246759700,10.057759765625,-6.377408541768789,0.22874314304813742,-0.6257005800321698
1782952416256686600,10.0676865234375,-7.746167668756843,-0.12528539892211557,-0.9969499405901878
1782952416266613800,10.07761376953125,-9.099645055460929,-0.2530037240795791,-1.0031216149624436
1782952416276540700,10.087540771484376,-10.211733021903038,-0.20833120026886462,-0.6991643871065228
1782952416286468900,10.09746875,-10.836314534777403,-0.2903206244304776,-0.6161426242224872
1782952416296395800,10.107395751953124,-10.800054303872585,-0.4509559344794601,-0.9037372577551752
1782952416306322700,10.11732275390625,-10.078780010962486,-0.521869618679583,-1.0574013405520468
1782952416316251000,10.1272509765625,-9.031615475329756,-0.4993409760072827,-0.9052057228725403
1782952416326177800,10.137177734375,-7.914008453205227,-0.5262354857388883,-0.7269493428718298
1782952416336104700,10.147104736328124,-6.877464680308103,-0.5789260424409062,-0.7823259968526661
1782952416346031600,10.157031494140625,-5.965667815542221,-0.5848650040358304,-0.7627819229491054
1782952416355959600,10.16695947265625,-5.065012522515654,-0.31113245324753225,-0.5002160052761435
1782952416365886700,10.17688671875,-4.414759392768144,-0.10087437656931579,-0.3806908503811806
1782952416375813600,10.186813720703125,-3.976644454357028,-0.08928608397580683,-0.47609432125873863
1782952416385740800,10.19674072265625,-3.5364661536753177,-0.1387218036003411,-0.5030785551004111
1782952416395668700,10.206668701171875,-2.9790917986333367,-0.2936345712840557,-0.6165965054698288
1782952416405596000,10.216595947265626,-2.2495804232537746,-0.4488613733530044,-0.7976630475204437
1782952416415522800,10.226522705078125,-1.4103677331835032,-0.4236871115427464,-0.8688524068567901
1782952416425450800,10.23645068359375,-0.6791951465934515,-0.3890552855573594,-0.8427326078247278
1782952416435378000,10.2463779296875,-0.06567687952518463,-0.49394189344272016,-0.8303418397419154
1782952416445304600,10.2563046875,0.5865250462025403,-0.6240449217796326,-0.7330797353856265
1782952416455231700,10.266231689453125,1.397073951846361,-0.7018497537329793,-0.6220994868002832
1782952416465159700,10.27615966796875,2.2327046917766333,-0.7444568694464861,-0.5409719036323949
1782952416475086600,10.286086669921875,3.02446180318892,-0.8102348712585866,-0.47447453803718087
1782952416485013800,10.296013671875,3.758320852383971,-0.8893211213245987,-0.42452516980208455
1782952416494940700,10.305940673828125,4.298494481778144,-0.8839013612981885,-0.3364474387027323
1782952416504868900,10.315868896484375,4.594433238351344,-0.7598252651005983,-0.17835847040200606
1782952416514795800,10.325795654296876,4.758256019330024,-0.6085570644643158,-0.33046248254161326
1782952416524722700,10.33572265625,4.447501970940828,0.06179737121071666,-0.22251637748777864
1782952416534649600,10.345649658203126,4.026503002503514,0.4428641787648201,-0.31381876972205935
1782952416544577800,10.355577880859375,3.6455274168968197,0.431915280053392,-0.46230870128404344
1782952416554504700,10.365504638671876,3.348334276348352,0.2776048621769994,-0.36786505188196894
1782952416564431600,10.375431640625,3.346936099988222,0.06433269837461411,-0.19853399234320968
1782952416574358800,10.38535888671875,3.7249960904091592,-0.06219678232446312,-0.0024718334736302493
1782952416584286700,10.39528662109375,4.07985056180954,-0.04593362978771329,0.1439742442358285
1782952416594213600,10.405213623046874,4.235595250272751,0.09232486714981496,0.17075809666719285
1782952416604140800,10.415140869140625,3.9153047272533175,0.29776984445787963,0.18652002168353646
1782952416614068700,10.42506884765625,3.6253836235344408,0.45112982974164184,-0.04123107811994851
1782952416623996000,10.434995849609376,2.9883126314431427,0.5247422515064477,-0.19209760262016207
1782952416633922800,10.4449228515625,2.1450860295563934,0.5931105620726943,-0.2763968380941078
1782952416643849700,10.454849609375,1.291481241518259,0.7340394472632557,-0.17649057590458542
1782952416653778000,10.46477783203125,0.4399918381989002,0.865767519518733,0.1764531117047183
1782952416663704600,10.47470458984375,-0.6056921034872531,0.869722613820061,0.30834720644317565
1782952416673631700,10.4846318359375,-1.2831757699877022,0.6510002948530018,0.213424888412375
1782952416683558700,10.49455859375,-1.6783201662003993,0.42511297962740063,0.2403434000740759
1782952416693486600,10.504486572265625,-1.3834820643454788,0.27973946305289865,0.045881388143822546
1782952416703413800,10.514413818359374,-0.8231593808919191,0.4367964031584561,-0.17174405723093075
1782952416713340700,10.524340576171875,-0.2912812861561775,0.6422156615033745,-0.2820031702011824
1782952416723268900,10.534268798828125,0.37997079247832294,0.6757398915730416,-0.16207884165449066
1782952416733195800,10.54419580078125,0.9868675955802202,0.7921722680844366,0.07896346393655986
1782952416743123000,10.554123046875,1.3601876979976892,0.815314366479963,0.13703872761791572
1782952416753049600,10.564049560546875,1.613620022752881,0.5603320358037949,0.1542939599319361
