time,seconds_elapsed,z,y,x
1782952406254968000,0.065968017578125,0.20149743556976318,-0.7698546051979065,-0.21502283215522766
1782952406264896300,0.075896240234375,0.21965140104293823,-0.5061169862747192,-0.430891215801239
1782952406274823200,0.0858232421875,0.2239111214876175,-0.29126301407814026,-0.6474650502204895
1782952406284750000,0.09575,0.2407931685447693,-0.10991878062486649,-0.761447012424469
1782952406294677000,0.105677001953125,0.25192785263061523,0.027406856417655945,-0.7218431234359741
1782952406304605000,0.11560498046875,0.2452334612607956,0.08298835903406143,-0.5652031898498535
1782952406314532000,0.125531982421875,0.2418626993894577,0.12548388540744781,-0.3439725637435913
1782952406324459000,0.135458984375,0.23650893568992615,0.18266941606998444,-0.12642797827720642
1782952406334386200,0.14538623046875,0.20628713071346283,0.24892885982990265,0.04668521508574486
1782952406344314000,0.155314208984375,0.11874689161777496,0.10606571286916733,0.07879654318094254
1782952406354241000,0.165240966796875,-0.01059352234005928,0.011534949764609337,0.07486598193645477
1782952406364168200,0.175168212890625,-0.1504528820514679,0.08636950701475143,0.07073355466127396
1782952406374096100,0.18509619140625,-0.20298773050308228,0.1964842975139618,0.09935055673122406
1782952406384023300,0.195023193359375,-0.1873893290758133,0.27864813804626465,0.08371433615684509
1782952406393950000,0.204949951171875,-0.17247723042964935,0.3102244436740875,0.051781173795461655
1782952406403877000,0.214877197265625,-0.20529669523239136,0.3363068997859955,0.020730579271912575
1782952406413805000,0.22480517578125,-0.27508270740509033,0.30392205715179443,-0.02683241292834282
1782952406423732000,0.23473193359375,-0.3471294641494751,0.24552907049655914,-0.0965433195233345
1782952406433659100,0.2446591796875,-0.40862399339675903,0.2135639488697052,-0.14692792296409607
1782952406443586000,0.2545859375,-0.4443180561065674,0.1949457824230194,-0.1886570006608963
1782952406453514000,0.264513916015625,-0.4467111825942993,0.16967637836933136,-0.19831602275371552
1782952406463441200,0.274441162109375,-0.43008214235305786,0.12973935902118683,-0.17585837841033936
1782952406473368000,0.2843681640625,-0.4444746673107147,0.12264256179332733,-0.14487676322460175
1782952406483296300,0.294296142578125,-0.48161962628364563,0.11896900087594986,-0.09730871021747589
1782952406493223200,0.30422314453125,-0.5085402131080627,0.12082468718290329,-0.02058570273220539
1782952406503150000,0.314150146484375,-0.48841041326522827,0.09306789189577103,0.0512717105448246
1782952406513077000,0.324076904296875,-0.4088796377182007,0.05251460522413254,0.10006748139858246
1782952406523005000,0.3340048828125,-0.18968604505062103,0.06788823753595352,0.13844603300094604
1782952406532932000,0.34393212890625,0.0019736685790121555,0.025800971314311028,0.13821779191493988
1782952406542859000,0.35385888671875,0.032218921929597855,-0.10861382633447647,0.0833771824836731
1782952406552786200,0.3637861328125,0.013362676836550236,-0.22660544514656067,0.07295356690883636
1782952406562714000,0.373714111328125,0.02081899531185627,-0.23101404309272766,0.15710626542568207
1782952406572641000,0.38364111328125,0.04357144609093666,-0.22878843545913696,0.26928526163101196
1782952406582568200,0.393568115234375,0.08669015020132065,-0.28442561626434326,0.4012795090675354
1782952406592496000,0.40349609375,0.09557019919157028,-0.30636897683143616,0.48734036087989807
1782952406602423300,0.41342333984375,0.06139811500906944,-0.34569427371025085,0.4981434643268585
1782952406612350000,0.423349853515625,0.05010764300823212,-0.3165084421634674,0.4201224446296692
1782952406622277000,0.433277099609375,0.05681561306118965,-0.2959027588367462,0.22830693423748016
1782952406632205000,0.443205078125,0.07461564987897873,-0.30456364154815674,-0.005904760677367449
1782952406642132000,0.453132080078125,0.10609900206327438,-0.3279259502887726,-0.23742613196372986
1782952406652059100,0.46305908203125,0.14438115060329437,-0.40342843532562256,-0.4331913888454437
1782952406661986000,0.472986083984375,0.19897328317165375,-0.4035605192184448,-0.5296832919120789
1782952406671914000,0.4829140625,0.23083721101284027,-0.38897010684013367,-0.5506924390792847
1782952406681841200,0.492841064453125,0.22882892191410065,-0.2632007300853729,-0.5116896629333496
1782952406691768000,0.50276806640625,0.23996758460998535,-0.010694722644984722,-0.4424794316291809
1782952406701696300,0.5126962890625,0.25631648302078247,0.2383507788181305,-0.365814208984375
1782952406711623200,0.522623046875,0.2607101500034332,0.43293172121047974,-0.32003551721572876
1782952406721550000,0.532550048828125,0.27835890650749207,0.5397689342498779,-0.28945764899253845
1782952406731477000,0.54247705078125,0.270327627658844,0.514663577079773,-0.26846927404403687
1782952406741405000,0.552405029296875,0.22856499254703522,0.4648502469062805,-0.24894671142101288
1782952406751332000,0.56233203125,0.1893099993467331,0.4698125123977661,-0.22323894500732422
1782952406761259000,0.572259033203125,0.18641914427280426,0.5083218216896057,-0.20370572805404663
1782952406771186200,0.582186279296875,0.20167532563209534,0.5451980829238892,-0.21342067420482635
1782952406781114000,0.592114013671875,0.22601795196533203,0.5166977047920227,-0.23511797189712524
1782952406791041000,0.602041015625,0.23539920151233673,0.4241480827331543,-0.2638164758682251
1782952406800968200,0.61196826171875,0.21150025725364685,0.37185797095298767,-0.320347398519516
1782952406810896100,0.621896240234375,0.11397504061460495,0.3345992863178253,-0.38157451152801514
1782952406820823300,0.6318232421875,-0.07127098739147186,0.3401338756084442,-0.374783992767334
1782952406830750700,0.641750732421875,-0.22412684559822083,0.3153294622898102,-0.3744071424007416
1782952406840677600,0.651677734375,-0.29292935132980347,0.24423983693122864,-0.4096391797065735
1782952406850605800,0.661605712890625,-0.2289503663778305,0.14741741120815277,-0.4151625633239746
1782952406860532700,0.67153271484375,-0.05963589996099472,0.04803836718201637,-0.3705042898654938
1782952406870460000,0.6814599609375,0.10885617882013321,-0.06403624266386032,-0.23719018697738647
1782952406880386800,0.69138671875,0.19976957142353058,-0.14798013865947723,-0.00953784491866827
1782952406890314800,0.701314697265625,0.2197696417570114,-0.2161213755607605,0.22635005414485931
1782952406900241700,0.71124169921875,0.2030002474784851,-0.29936912655830383,0.40188273787498474
1782952406910168600,0.72116845703125,0.16265788674354553,-0.324127733707428,0.48156529664993286
1782952406920095700,0.731095703125,0.1239379271864891,-0.2869015336036682,0.4253409206867218
1782952406930023700,0.741023681640625,0.15354961156845093,-0.17050835490226746,0.2445916384458542
1782952406939950600,0.75095068359375,0.22507040202617645,0.019391806796193123,0.011817511171102524
1782952406949877800,0.760877685546875,0.2744097113609314,0.17285673320293427,-0.2254277914762497
1782952406959805700,0.7708056640625,0.3025215268135071,0.2758970856666565,-0.3994041085243225
1782952406969732900,0.78073291015625,0.3427373766899109,0.2792276442050934,-0.44938740134239197
1782952406979659800,0.79065966796875,0.3711272180080414,0.1965804398059845,-0.33088418841362
1782952406989587000,0.8005869140625,0.35037559270858765,-0.0021819279063493013,-0.11001518368721008
1782952406999515000,0.810514892578125,0.2870866358280182,-0.26861947774887085,0.10928867012262344
1782952407009441500,0.820441650390625,0.19656285643577576,-0.463136225938797,0.2361115962266922
1782952407019368700,0.83036865234375,0.09328440576791763,-0.5281240344047546,0.24674560129642487
1782952407029295600,0.840295654296875,-0.00464694993570447,-0.4532060921192169,0.1685091257095337
1782952407039223600,0.8502236328125,-0.0901743695139885,-0.2680668830871582,0.040170054882764816
1782952407049150700,0.860150634765625,-0.1736823171377182,-0.047144077718257904,-0.08841082453727722
1782952407059077600,0.87007763671875,-0.2479245811700821,0.14327460527420044,-0.153117373585701
1782952407069005800,0.880005859375,-0.34385669231414795,0.25481709837913513,-0.13230717182159424
1782952407078932700,0.8899326171875,-0.422227144241333,0.28309935331344604,-0.06913859397172928
1782952407088860000,0.89985986328125,-0.46567848324775696,0.25782808661460876,-0.015670305117964745
1782952407098786800,0.909786865234375,-0.4813586473464966,0.2106829434633255,0.006509032100439072
1782952407108714800,0.91971484375,-0.4787253141403198,0.11844968050718307,-0.0032019184436649084
1782952407118641700,0.9296416015625,-0.4780363440513611,0.01028779149055481,-0.023900005966424942
1782952407128568600,0.939568603515625,-0.46959999203681946,-0.06671138852834702,-0.03352706879377365
1782952407138495700,0.949495849609375,-0.45861685276031494,-0.1127246841788292,-0.039681632071733475
1782952407148423700,0.959423583984375,-0.45193177461624146,-0.1421787142753601,-0.038301315158605576
1782952407158350600,0.9693505859375,-0.4239557981491089,-0.1449558585882187,-0.02334846556186676
1782952407168277800,0.97927783203125,-0.36426129937171936,-0.11402856558561325,0.011036938056349754
1782952407178204700,0.98920458984375,-0.30903586745262146,-0.058386608958244324,0.0608910471200943
1782952407188132900,0.9991328125,-0.24959811568260193,0.00199310970492661,0.09987786412239075
1782952407198059800,1.009059814453125,-0.1647050678730011,0.07084887474775314,0.12184920907020569
1782952407207987000,1.018987060546875,-0.09061644971370697,0.1991615742444992,0.1445569097995758
1782952407217915000,1.028914794921875,-0.037582527846097946,0.3262939453125,0.19302751123905182
1782952407227841500,1.038841552734375,-0.011405253782868385,0.3544297218322754,0.2711601257324219
1782952407237768700,1.048768798828125,-0.0022796657867729664,0.23850737512111664,0.3625326454639435
1782952407247695600,1.058695556640625,0.016748087480664253,0.048466335982084274,0.4766480326652527
1782952407257623600,1.06862353515625,0.04740746319293976,-0.17971836030483246,0.6055477261543274
1782952407267550700,1.07855078125,0.0654921904206276,-0.4023594260215759,0.7246410846710205
1782952407277477600,1.0884775390625,0.0706251710653305,-0.4795586168766022,0.8310391306877136
1782952407287404800,1.09840478515625,0.06111981347203255,-0.407174676656723,0.9065943360328674
1782952407297332700,1.108332763671875,0.05048660933971405,-0.3049415349960327,0.9444615840911865
1782952407307260000,1.118260009765625,0.04183000326156616,-0.18321776390075684,0.9734032154083252
1782952407317186800,1.128186767578125,0.016272978857159615,-0.03316567465662956,0.9928751587867737
1782952407327113700,1.13811376953125,-0.013544304296374321,0.06900356709957123,0.957737147808075
1782952407337041700,1.148041748046875,-0.043175168335437775,0.07063288986682892,0.8495119214057922
1782952407346968600,1.157968505859375,-0.061101436614990234,0.03876736760139465,0.7207869291305542
1782952407356895700,1.167895751953125,-0.06781899183988571,-0.054902128875255585,0.6000810265541077
1782952407366823700,1.17782373046875,-0.06776093691587448,-0.1521162986755371,0.4933447241783142
1782952407376750600,1.18775048828125,-0.040461938828229904,-0.13989824056625366,0.39153367280960083
1782952407386677800,1.197677734375,-0.00012010856153210625,-0.058643072843551636,0.2740589678287506
1782952407396604700,1.207604736328125,0.028841234743595123,0.014512896537780762,0.12154720723628998
1782952407406532900,1.217532958984375,0.044071853160858154,0.07914302498102188,-0.04158339649438858
1782952407416459800,1.227459716796875,0.03877615928649902,0.14444293081760406,-0.18398182094097137
1782952407426387000,1.237386962890625,0.018261561170220375,0.2174289971590042,-0.2601175904273987
1782952407436313600,1.247313720703125,-0.014197311364114285,0.29536426067352295,-0.24461746215820312
1782952407446241500,1.257241455078125,-0.07292240858078003,0.3420864939689636,-0.1713389903306961
1782952407456168700,1.267168701171875,-0.0892459899187088,0.3956586420536041,-0.0634937509894371
1782952407466095600,1.277095703125,-0.08132681250572205,0.4496888518333435,0.05216839537024498
1782952407476023600,1.2870234375,-0.06484131515026093,0.42875853180885315,0.1321798712015152
1782952407485950700,1.29695068359375,-0.04484923183917999,0.31213924288749695,0.17869117856025696
1782952407495877600,1.306877685546875,-0.025296835228800774,0.23196931183338165,0.22870828211307526
1782952407505804800,1.3168046875,-0.011847604997456074,0.23837901651859283,0.24646064639091492
1782952407515732700,1.326732666015625,-0.0096273273229599,0.29906898736953735,0.1956440657377243
1782952407525660000,1.336659912109375,-0.01440983172506094,0.3593187630176544,0.06358030438423157
1782952407535586800,1.3465869140625,-0.01429558265954256,0.4112301468849182,-0.13747796416282654
1782952407545513700,1.356513671875,0.0011579424608498812,0.40795740485191345,-0.3403663635253906
1782952407555441700,1.366441650390625,0.042092859745025635,0.4169040024280548,-0.4745105803012848
1782952407565368600,1.37636865234375,0.08440037071704865,0.3588239252567291,-0.527203381061554
1782952407575295700,1.386295654296875,0.09592333436012268,0.2473496049642563,-0.5145685076713562
1782952407585222700,1.39622265625,0.07217779010534286,0.09705357998609543,-0.48230352997779846
1782952407595150600,1.406150634765625,0.023755131289362907,-0.06890317052602768,-0.47002288699150085
1782952407605077800,1.416077880859375,-0.007729026023298502,-0.22798709571361542,-0.44106900691986084
1782952407615004700,1.426004638671875,0.025068068876862526,-0.327412486076355,-0.35133618116378784
1782952407624931800,1.435931884765625,0.03399018943309784,-0.3776271939277649,-0.19958128035068512
1782952407634859800,1.44585986328125,0.031683892011642456,-0.33066898584365845,-0.007259777281433344
1782952407644787000,1.455786865234375,0.038299717009067535,-0.09114216268062592,0.18011704087257385
1782952407654713600,1.465713623046875,0.04249126836657524,0.2201875001192093,0.2993859052658081
1782952407664641500,1.4756416015625,0.13830594718456268,0.36245834827423096,0.3659113943576813
1782952407674568700,1.485568603515625,0.20618246495723724,0.3317957818508148,0.36035844683647156
1782952407684495600,1.49549560546875,0.2275540679693222,0.22554124891757965,0.3176805078983307
1782952407694422800,1.5054228515625,0.24318042397499084,0.13579218089580536,0.26176103949546814
1782952407704350700,1.515350830078125,0.22955596446990967,0.06527753919363022,0.23716701567173004
1782952407714277600,1.525277587890625,0.19645632803440094,0.02287042886018753,0.26947328448295593
1782952407724204800,1.535204833984375,0.20993272960186005,0.00815087091177702,0.34867170453071594
1782952407734131700,1.545131591796875,0.2309597134590149,0.04099537059664726,0.4164118766784668
1782952407744060000,1.555059814453125,0.2387627810239792,0.15588067471981049,0.39915403723716736
1782952407753986800,1.56498681640625,0.25113874673843384,0.2742576599121094,0.256725013256073
1782952407763913700,1.574913818359375,0.27761003375053406,0.3401634395122528,0.0025574336759746075
1782952407773840600,1.584840576171875,0.2991773784160614,0.29428887367248535,-0.3057266175746918
1782952407783768600,1.5947685546875,0.31594836711883545,0.08755594491958618,-0.5579434037208557
1782952407793695700,1.60469580078125,0.30907928943634033,-0.19414576888084412,-0.6510992050170898
1782952407803622700,1.61462255859375,0.33001387119293213,-0.4492883086204529,-0.5709777474403381
1782952407813550600,1.624550537109375,0.3182288408279419,-0.5684413313865662,-0.36967232823371887
1782952407823477800,1.634477783203125,0.25309085845947266,-0.541338324546814,-0.14175154268741608
1782952407833404400,1.644404296875,0.17093633115291595,-0.3978821337223053,0.030127009376883507
1782952407843331600,1.65433154296875,0.07517677545547485,-0.19357559084892273,0.12608815729618073
1782952407853259500,1.664259521484375,-0.038593463599681854,0.025434520095586777,0.14672765135765076
1782952407863186700,1.674186767578125,-0.09023455530405045,0.1703009009361267,0.15045368671417236
1782952407873113300,1.68411328125,-0.14350496232509613,0.27295005321502686,0.11828616261482239
1782952407883040500,1.69404052734375,-0.22835594415664673,0.29890814423561096,0.049010951071977615
1782952407892968400,1.703968505859375,-0.3239176273345947,0.2847380042076111,-0.018760904669761658
1782952407902895400,1.713895263671875,-0.39527595043182373,0.2503912150859833,-0.07877710461616516
1782952407912822500,1.723822509765625,-0.46205365657806396,0.19757671654224396,-0.11828749626874924
1782952407922750500,1.73375048828125,-0.5300872921943665,0.1467662751674652,-0.11239125579595566
1782952407932677600,1.743677734375,-0.6164608001708984,0.06267483532428741,-0.08071908354759216
1782952407942604500,1.7536044921875,-0.6830763220787048,0.0006351639167405665,-0.01040576957166195
1782952407952531500,1.763531494140625,-0.7588179707527161,-0.052017662674188614,0.09019327908754349
1782952407962458600,1.773458740234375,-0.8501497507095337,-0.07242599874734879,0.12346121668815613
1782952407972386600,1.783386474609375,-0.8401746153831482,-0.122191421687603,0.14775270223617554
1782952407982313500,1.7933134765625,-0.7438925504684448,-0.17837479710578918,0.16895653307437897
1782952407992240400,1.803240478515625,-0.6035487055778503,-0.2661571204662323,0.17848531901836395
1782952408002168300,1.813168212890625,-0.46193620562553406,-0.35024455189704895,0.15860934555530548
1782952408012095500,1.823095458984375,-0.4227944016456604,-0.4083113372325897,0.07255915552377701
1782952408022022400,1.8330224609375,-0.4027184247970581,-0.4783916175365448,-0.013192234560847282
1782952408031949600,1.842949462890625,-0.370859831571579,-0.5483192801475525,-0.0519992858171463
1782952408041877500,1.85287744140625,-0.34338292479515076,-0.5778241753578186,-0.05194335803389549
1782952408051804400,1.862804443359375,-0.33029428124427795,-0.554035484790802,-0.018513763323426247
1782952408061731600,1.872731689453125,-0.3623259961605072,-0.5011235475540161,0.05007515102624893
1782952408071658500,1.882658447265625,-0.3934863209724426,-0.3509673476219177,0.14954447746276855
1782952408081586700,1.892586669921875,-0.40078282356262207,-0.16385124623775482,0.27433913946151733
1782952408091513300,1.902513427734375,-0.39502349495887756,0.004852545913308859,0.40744420886039734
1782952408101440500,1.9124404296875,-0.3690531253814697,0.04211336374282837,0.5234104990959167
1782952408111368400,1.922368408203125,-0.3310557007789612,-0.06011899560689926,0.5913538336753845
1782952408121295400,1.93229541015625,-0.26029202342033386,-0.14412522315979004,0.6115443110466003
1782952408131222500,1.942222412109375,-0.1842457354068756,-0.18484307825565338,0.5316503047943115
1782952408141149400,1.9521494140625,-0.125302255153656,-0.204445019364357,0.43563297390937805
1782952408151077600,1.96207763671875,-0.06381306797266006,-0.19456176459789276,0.3265320360660553
1782952408161004500,1.972004638671875,0.006302104331552982,-0.21473413705825806,0.18522977828979492
1782952408170931500,1.981931396484375,0.08240566402673721,-0.2506292760372162,-0.001745968358591199
1782952408180858600,1.991858642578125,0.14760038256645203,-0.249908909201622,-0.21408912539482117
1782952408190786600,2.00178662109375,0.18084675073623657,-0.224526047706604,-0.33229565620422363
1782952408200713500,2.01171337890625,0.15211816132068634,-0.19006048142910004,-0.3389386534690857
1782952408210640400,2.021640380859375,0.1105470135807991,-0.14205726981163025,-0.3153981566429138
1782952408220567600,2.031567626953125,0.09266575425863266,0.004851214122027159,-0.30849871039390564
1782952408230495500,2.04149560546875,0.12564021348953247,0.17335952818393707,-0.3021065890789032
1782952408240422400,2.05142236328125,0.14570100605487823,0.2844405174255371,-0.2388589233160019
1782952408250349600,2.061349609375,0.13382092118263245,0.3557157516479492,-0.10311386734247208
1782952408260276500,2.0712763671875,0.11842890828847885,0.3827684223651886,0.033302031457424164
1782952408270204700,2.08120458984375,0.10922928154468536,0.3386891186237335,0.10761221498250961
1782952408280131600,2.091131591796875,0.11477185785770416,0.2547406852245331,0.08206131309270859
1782952408290058500,2.10105859375,0.13024401664733887,0.1442868709564209,-0.028620192781090736
1782952408299986700,2.110986572265625,0.17037945985794067,0.04149870574474335,-0.16676342487335205
1782952408309913300,2.120913330078125,0.2126384973526001,-0.02304886095225811,-0.2855803370475769
1782952408319840500,2.130840576171875,0.23333792388439178,-0.03563575819134712,-0.38046106696128845
1782952408329767400,2.140767333984375,0.23753133416175842,-0.003976631909608841,-0.43844738602638245
1782952408339695400,2.1506953125,0.24583852291107178,0.08024397492408752,-0.46807506680488586
1782952408349622500,2.16062255859375,0.24562227725982666,0.1677306741476059,-0.47149962186813354
1782952408359549400,2.170549560546875,0.23000364005565643,0.23721414804458618,-0.4322592616081238
1782952408369476600,2.1804765625,0.2211771309375763,0.2733186185359955,-0.3521716296672821
1782952408379404500,2.190404541015625,0.20400212705135345,0.27972060441970825,-0.23553848266601562
1782952408389331500,2.20033154296875,0.1890207827091217,0.27237585186958313,-0.11940096318721771
1782952408399258600,2.210258544921875,0.1822614222764969,0.23613423109054565,-0.04179991036653519
1782952408409185500,2.220185546875,0.17393611371517181,0.19114118814468384,0.023801470175385475
1782952408419113500,2.230113525390625,0.17092832922935486,0.1821487694978714,0.09501306712627411
1782952408429040400,2.240040283203125,0.1692819744348526,0.13068583607673645,0.16468828916549683
1782952408438967600,2.249967529296875,0.1675703525543213,0.021074658259749413,0.2493957132101059
1782952408448895500,2.2598955078125,0.17586582899093628,-0.09413475543260574,0.3197428584098816
1782952408458822400,2.269822509765625,0.2024202197790146,-0.1721579134464264,0.33126100897789
1782952408468749600,2.27974951171875,0.25928375124931335,-0.20121672749519348,0.25427383184432983
1782952408478676500,2.289676513671875,0.30235958099365234,-0.16012868285179138,0.07173091173171997
1782952408488604700,2.299604736328125,0.33111506700515747,-0.13768276572227478,-0.1856449693441391
1782952408498531600,2.309531494140625,0.3749126195907593,-0.09997692704200745,-0.3806554675102234
1782952408508458500,2.31945849609375,0.39805468916893005,-0.027791418135166168,-0.4496883153915405
1782952408518385400,2.329385498046875,0.3992358148097992,0.034516699612140656,-0.4039869010448456
1782952408528313300,2.339313232421875,0.39961716532707214,0.1091291531920433,-0.3152002990245819
1782952408538240500,2.349240478515625,0.4045368432998657,0.1871347427368164,-0.2621264159679413
1782952408548167400,2.35916748046875,0.42700299620628357,0.23868981003761292,-0.3195313811302185
1782952408558095400,2.369095458984375,0.46969345211982727,0.1698950231075287,-0.45426976680755615
1782952408568022500,2.3790224609375,0.5079612135887146,-0.03356808051466942,-0.5584135055541992
1782952408577949400,2.388949462890625,0.515556275844574,-0.3030778467655182,-0.5307613611221313
1782952408587876600,2.398876708984375,0.5178186297416687,-0.505390465259552,-0.43441829085350037
1782952408597804500,2.408804443359375,0.460631787776947,-0.6961702704429626,-0.32566705346107483
1782952408607731500,2.4187314453125,0.3908076882362366,-0.7246381640434265,-0.2469373494386673
1782952408617658600,2.42865869140625,0.31140634417533875,-0.605426013469696,-0.23768499493598938
1782952408627585500,2.43858544921875,0.22485415637493134,-0.4046116769313812,-0.26821786165237427
1782952408637513500,2.448513427734375,0.11384720355272293,-0.1765819638967514,-0.33352550864219666
1782952408647440400,2.4584404296875,0.008013451471924782,0.01643516682088375,-0.36523497104644775
1782952408657367600,2.468367431640625,-0.07781384140253067,0.16155560314655304,-0.31307217478752136
1782952408667294500,2.47829443359375,-0.16714131832122803,0.2827051877975464,-0.23199301958084106
1782952408677222400,2.488222412109375,-0.24441267549991608,0.3701586127281189,-0.163629412651062
1782952408687149600,2.498149658203125,-0.2848548889160156,0.43606865406036377,-0.11474549025297165
1782952408697076500,2.508076416015625,-0.30102241039276123,0.5026870965957642,-0.10548168420791626
1782952408707003600,2.518003662109375,-0.3291155695915222,0.5886217355728149,-0.10902688652276993
1782952408716931600,2.527931640625,-0.3721908628940582,0.6811697483062744,-0.09493184089660645
1782952408726858500,2.5378583984375,-0.4162837564945221,0.7498005032539368,-0.05415351688861847
1782952408736785400,2.547785400390625,-0.43980854749679565,0.805754542350769,0.006997189484536648
1782952408746713300,2.55771337890625,-0.39785468578338623,0.7913562059402466,0.09118237346410751
1782952408756640500,2.567640625,-0.3312927186489105,0.6952463984489441,0.18884554505348206
1782952408766567400,2.5775673828125,-0.27078357338905334,0.5224397778511047,0.27121207118034363
1782952408776494600,2.58749462890625,-0.19921563565731049,0.34388467669487,0.34138980507850647
1782952408786422500,2.597422607421875,-0.1244676262140274,0.21239668130874634,0.3976954221725464
1782952408796349400,2.607349365234375,-0.06031154468655586,0.13357511162757874,0.4083845615386963
1782952408806276600,2.617276611328125,-0.029315011575818062,0.08704648166894913,0.39265674352645874
1782952408816203500,2.62720361328125,-0.03305355831980705,0.08860203623771667,0.3896276652812958
1782952408826131500,2.63713134765625,-0.032409071922302246,0.13488563895225525,0.44630104303359985
1782952408836058400,2.647058349609375,-0.01050350721925497,0.13210824131965637,0.5349523425102234
1782952408845985500,2.656985595703125,0.025248631834983826,0.05919354781508446,0.6482448577880859
1782952408855912400,2.666912353515625,0.07425478845834732,-0.06452067196369171,0.7557156085968018
1782952408865840400,2.67684033203125,0.13434316217899323,-0.20544396340847015,0.8118811845779419
1782952408875767300,2.686767333984375,0.20115600526332855,-0.31708449125289917,0.8330919146537781
1782952408885694200,2.696694091796875,0.23844826221466064,-0.38325604796409607,0.8165366649627686
1782952408895622100,2.7066220703125,0.21744656562805176,-0.4621489942073822,0.6880934238433838
1782952408905549300,2.71654931640625,0.18586280941963196,-0.5156034231185913,0.5234341621398926
1782952408915476200,2.726476318359375,0.14614228904247284,-0.5732499361038208,0.2542192339897156
1782952408925403400,2.7364033203125,0.12507615983486176,-0.65884929895401,-0.08375401794910431
1782952408935331300,2.746331298828125,0.12425084412097931,-0.8000215888023376,-0.4006190598011017
1782952408945258500,2.756258544921875,0.1230420395731926,-0.7688170671463013,-0.5239620208740234
1782952408955185400,2.766185302734375,0.08870244026184082,-0.6112231612205505,-0.39682111144065857
1782952408965112300,2.7761123046875,0.034029338508844376,-0.4646267890930176,-0.14553003013134003
1782952408975040500,2.78604052734375,-0.0009576727170497179,-0.3496277630329132,0.09561014920473099
1782952408984967200,2.79596728515625,-0.022344985976815224,-0.12200766801834106,0.25737667083740234
1782952408994894300,2.805894287109375,-0.06976709514856339,0.17460456490516663,0.3132133185863495
1782952409004821200,2.8158212890625,-0.1221781075000763,0.4396660625934601,0.30294814705848694
1782952409014749200,2.825749267578125,-0.1557520478963852,0.634128212928772,0.23524713516235352
1782952409024676400,2.83567626953125,-0.15482206642627716,0.7549169659614563,0.14778919517993927
1782952409034603300,2.845603271484375,-0.14720915257930756,0.7708485126495361,0.031047398224473
1782952409044530400,2.855530517578125,-0.14055392146110535,0.6717250943183899,-0.11335904896259308
1782952409054458400,2.865458251953125,-0.12185533344745636,0.516969621181488,-0.2640891671180725
1782952409064385500,2.875385498046875,-0.09186866879463196,0.39328843355178833,-0.4060918390750885
1782952409074312400,2.8853125,-0.054730888456106186,0.28800010681152344,-0.5284830331802368
1782952409084239400,2.8952392578125,-0.02160436101257801,0.1961016058921814,-0.6156836748123169
1782952409094167300,2.905167236328125,-0.00504003232344985,0.12935000658035278,-0.6513974666595459
1782952409104094200,2.91509423828125,-0.010184726677834988,0.06353743374347687,-0.620147168636322
1782952409114021400,2.925021484375,-0.025732262060046196,0.01435230765491724,-0.5465142130851746
1782952409123949300,2.93494921875,-0.048955824226140976,0.011404987424612045,-0.4971226751804352
1782952409133876200,2.944876220703125,-0.0737229585647583,0.0638069435954094,-0.5120430588722229
1782952409143803400,2.954803466796875,-0.13048849999904633,0.1358017772436142,-0.5261109471321106
1782952409153730300,2.964730224609375,-0.18351389467716217,0.27492663264274597,-0.5367931127548218
1782952409163658500,2.974658447265625,-0.2274177074432373,0.3658837080001831,-0.486330509185791
1782952409173585400,2.98458544921875,-0.2287820428609848,0.40262120962142944,-0.363759309053421
1782952409183512600,2.9945126953125,-0.18426518142223358,0.3569011390209198,-0.17642110586166382
1782952409193439200,3.004439208984375,-0.10091330111026764,0.23442235589027405,0.06289827078580856
1782952409203367200,3.0143671875,0.013739247806370258,0.05644569918513298,0.29511579871177673
1782952409213294300,3.02429443359375,0.11744673550128937,-0.12066835910081863,0.472400039434433
1782952409223221200,3.03422119140625,0.18931639194488525,-0.21591445803642273,0.5215420126914978
1782952409233148400,3.0441484375,0.23678991198539734,-0.2282928228378296,0.4231153130531311
1782952409243076400,3.054076416015625,0.28078320622444153,-0.1404189020395279,0.19613994657993317
1782952409253003300,3.064003173828125,0.32382920384407043,-0.040285103023052216,-0.1088484525680542
1782952409262930400,3.073930419921875,0.3789592981338501,0.011690211482346058,-0.3885629177093506
1782952409272858400,3.0838583984375,0.44873517751693726,0.0486903078854084,-0.5088406205177307
1782952409282785500,3.09378564453125,0.5017983913421631,-0.019213108345866203,-0.47345438599586487
1782952409292712400,3.10371240234375,0.545295000076294,-0.10980665683746338,-0.3688336908817291
1782952409302639400,3.113639404296875,0.5732725858688354,-0.11467651277780533,-0.24886281788349152
1782952409312567300,3.1235673828125,0.5887095928192139,-0.08111589401960373,-0.15945011377334595
1782952409322494200,3.133494140625,0.5782316327095032,-0.022890402004122734,-0.09057251363992691
1782952409332421400,3.14342138671875,0.5478774905204773,0.026281138882040977,-0.04627881571650505
1782952409342348300,3.153348388671875,0.49142006039619446,0.03970160707831383,-0.0274481363594532
1782952409352276200,3.163276123046875,0.42049530148506165,0.02948225848376751,-0.032579779624938965
1782952409362203400,3.173203369140625,0.34592679142951965,0.012803146615624428,-0.06820835173130035
1782952409372130300,3.18313037109375,0.2597900331020355,0.02123178541660309,-0.12248144298791885
1782952409382057500,3.193057373046875,0.1641836166381836,0.05007035657763481,-0.15151308476924896
1782952409391985400,3.2029853515625,0.05717620253562927,0.12366601824760437,-0.1628035604953766
1782952409401912600,3.21291259765625,-0.04111814126372337,0.2151208370923996,-0.17607861757278442
1782952409411839200,3.222839111328125,-0.11961401253938675,0.29214611649513245,-0.1792033165693283
1782952409421766400,3.232766357421875,-0.19491435587406158,0.3270559012889862,-0.16524168848991394
1782952409431694300,3.2426943359375,-0.259265661239624,0.32340124249458313,-0.12119966000318527
1782952409441621200,3.252621337890625,-0.3175713121891022,0.2869721055030823,-0.06835322827100754
1782952409451548400,3.26254833984375,-0.35616156458854675,0.22709253430366516,-0.0206951592117548
1782952409461476400,3.272476318359375,-0.37569504976272583,0.13507206737995148,0.008221178315579891
1782952409471403300,3.2824033203125,-0.37581169605255127,0.03727200627326965,0.028012726455926895
1782952409481330400,3.292330322265625,-0.369401752948761,-0.03681101277470589,0.05884227901697159
1782952409491257300,3.30225732421875,-0.3547671437263489,-0.07909934222698212,0.10576345026493073
1782952409501185500,3.312185546875,-0.3329966068267822,-0.09265563637018204,0.15993639826774597
1782952409511112400,3.322112548828125,-0.290167897939682,-0.0818578451871872,0.21609315276145935
1782952409521039400,3.332039306640625,-0.2497970461845398,-0.04355679824948311,0.28612950444221497
1782952409530966300,3.34196630859375,-0.1943148821592331,0.0008114652009680867,0.3707708716392517
1782952409540894200,3.351894287109375,-0.15481621026992798,0.0059961071237921715,0.4453654885292053
1782952409550821400,3.3618212890625,-0.13508085906505585,-0.003945739474147558,0.47498488426208496
1782952409560748300,3.371748291015625,-0.12003639340400696,-0.026632409542798996,0.45299863815307617
1782952409570675500,3.381675537109375,-0.09448442608118057,-0.0814565122127533,0.3808211088180542
1782952409580603400,3.391603271484375,-0.06165830418467522,-0.16939274966716766,0.31046226620674133
1782952409590530300,3.4015302734375,-0.033179789781570435,-0.279703825712204,0.28172117471694946
1782952409600457500,3.41145751953125,-0.007632353343069553,-0.3822411000728607,0.28799715638160706
1782952409610384400,3.42138427734375,0.00914316438138485,-0.4652518332004547,0.2838394343852997
1782952409620312600,3.4313125,0.0468740314245224,-0.5300055146217346,0.26270246505737305
1782952409630239200,3.4412392578125,0.06202981621026993,-0.6293734312057495,0.24567288160324097
1782952409640166400,3.45116650390625,0.06388603895902634,-0.6547099351882935,0.25590047240257263
1782952409650094300,3.46109423828125,0.057613227516412735,-0.5934465527534485,0.2872703969478607
1782952409660021200,3.471021240234375,0.03957111015915871,-0.48768818378448486,0.3182149827480316
1782952409669948400,3.480948486328125,0.014611433260142803,-0.3599478006362915,0.30684277415275574
1782952409679875300,3.490875244140625,-0.00003222424857085571,-0.26916834712028503,0.2543734312057495
1782952409689803300,3.50080322265625,-0.009892578236758709,-0.24933232367038727,0.16061177849769592
1782952409699730400,3.51073046875,-0.017317472025752068,-0.23502449691295624,0.08035236597061157
1782952409709657300,3.5206572265625,-0.012952017597854137,-0.23562930524349213,-0.013409015722572803
1782952409719584300,3.530584228515625,0.0017587515758350492,-0.21475863456726074,-0.11684273183345795
1782952409729512400,3.540512451171875,0.02082858234643936,-0.2049369066953659,-0.23703119158744812
1782952409739439400,3.550439453125,0.04686897248029709,-0.21756267547607422,-0.37288063764572144
1782952409749366300,3.5603662109375,0.06997215747833252,-0.1855163276195526,-0.4715230464935303
1782952409759293400,3.57029345703125,0.07699517905712128,-0.09665197134017944,-0.4874700605869293
1782952409769221400,3.580221435546875,0.07090586423873901,0.004160390235483646,-0.4126938283443451
1782952409779148300,3.590148193359375,0.05296281725168228,0.08164559304714203,-0.2480635941028595
1782952409789075500,3.600075439453125,0.055101603269577026,0.1835850030183792,-0.04831267148256302
1782952409799003400,3.61000341796875,0.06697690486907959,0.29470035433769226,0.1459585428237915
1782952409808930300,3.619930419921875,0.04785460606217384,0.3709953725337982,0.28644320368766785
1782952409818857500,3.629857421875,-0.003786748740822077,0.4201677143573761,0.3492956757545471
1782952409828784000,3.6397841796875,-0.06190917268395424,0.493542343378067,0.3514222204685211
1782952409838712800,3.649712890625,-0.11853570491075516,0.570472002029419,0.3047734797000885
1782952409848639700,3.6596396484375,-0.17523440718650818,0.643014132976532,0.20294645428657532
1782952409858566700,3.669566650390625,-0.2233651727437973,0.6355407238006592,0.009935721755027771
1782952409868493800,3.679493896484375,-0.23873907327651978,0.5536823868751526,-0.27413249015808105
1782952409878421800,3.689421875,-0.2247644066810608,0.4077363610267639,-0.5875625610351562
1782952409888349000,3.699348876953125,-0.1903747320175171,0.19827580451965332,-0.7966574430465698
1782952409898275800,3.70927587890625,-0.14584003388881683,-0.027282221242785454,-0.8275155425071716
1782952409908203000,3.719203125,-0.10073167085647583,-0.22258992493152618,-0.6732316613197327
1782952409918131000,3.729130859375,-0.057309363037347794,-0.3294500708580017,-0.38853761553764343
1782952409928057900,3.739057861328125,-0.02051512897014618,-0.35230743885040283,-0.06750927120447159
1782952409937985000,3.748985107421875,0.018070347607135773,-0.32295942306518555,0.1993514597415924
1782952409947913000,3.758912841796875,0.05151565372943878,-0.21599248051643372,0.3654908835887909
1782952409957839600,3.768839599609375,0.09090966731309891,-0.02894137054681778,0.4423111081123352
1782952409967766800,3.778766845703125,0.10432880371809006,0.16734212636947632,0.4447028934955597
1782952409977693700,3.788693603515625,0.11808935552835464,0.33240270614624023,0.3987465798854828
1782952409987622000,3.798621826171875,0.1736559420824051,0.4695834815502167,0.3254010081291199
1782952409997548800,3.808548828125,0.22736817598342896,0.5407910943031311,0.2389201670885086
1782952410007476000,3.81847607421875,0.2651275396347046,0.4913952946662903,0.13781484961509705
1782952410017403000,3.82840283203125,0.31682321429252625,0.32872462272644043,0.04103798046708107
1782952410027330800,3.838330810546875,0.3555983006954193,0.08195265382528305,0.0044197821989655495
1782952410037258000,3.848258056640625,0.3543418347835541,-0.26928019523620605,0.011901666410267353
1782952410047185000,3.858184814453125,0.3483675718307495,-0.5913021564483643,0.026511235162615776
1782952410057111800,3.86811181640625,0.3726428151130676,-0.7523917555809021,-0.058147724717855453
1782952410067039700,3.878039794921875,0.407550185918808,-0.7329652905464172,-0.2768198847770691
1782952410076966700,3.887966552734375,0.43310803174972534,-0.5329989194869995,-0.5060706734657288
1782952410086893800,3.897893798828125,0.41986092925071716,-0.2920158803462982,-0.6470621228218079
1782952410096820700,3.90782080078125,0.38668593764305115,-0.05012362077832222,-0.657730221748352
1782952410106749000,3.9177490234375,0.30449599027633667,0.003590473672375083,-0.49840712547302246
1782952410116675800,3.92767578125,0.2559548020362854,-0.009757023304700851,-0.22967101633548737
1782952410126603000,3.93760302734375,0.23556192219257355,-0.07711635529994965,-0.02611762098968029
1782952410136531000,3.947531005859375,0.20572306215763092,-0.19078299403190613,0.014208762906491756
1782952410146457900,3.957457763671875,0.1555997133255005,-0.3136303722858429,-0.041121069341897964
1782952410156385000,3.967385009765625,0.07834167778491974,-0.4625186324119568,-0.13234339654445648
1782952410166311700,3.977311767578125,0.005753759294748306,-0.5681113600730896,-0.19516043365001678
1782952410176239600,3.987239501953125,-0.0492788664996624,-0.6150195002555847,-0.20519736409187317
1782952410186166800,3.997166748046875,-0.08281338959932327,-0.5835782289505005,-0.1799362152814865
1782952410196093700,4.00709375,-0.14396436512470245,-0.5355569124221802,-0.15084144473075867
1782952410206020900,4.017020751953125,-0.19846221804618835,-0.4218340516090393,-0.12665621936321259
1782952410215948800,4.02694873046875,-0.2225225567817688,-0.292441189289093,-0.13850967586040497
1782952410225876000,4.0368759765625,-0.2329416424036026,-0.1452820897102356,-0.1853104680776596
1782952410235803000,4.046802978515625,-0.24525876343250275,-0.02641030214726925,-0.2435724437236786
1782952410245730000,4.05672998046875,-0.2492724061012268,0.06596170365810394,-0.2432701736688614
1782952410255658000,4.066657958984375,-0.2546272277832031,0.15959446132183075,-0.15317995846271515
1782952410265585000,4.0765849609375,-0.271750807762146,0.2575417757034302,0.01318131573498249
1782952410275511800,4.08651171875,-0.29474401473999023,0.3294338285923004,0.22691065073013306
1782952410285438700,4.096438720703125,-0.30591437220573425,0.3689812421798706,0.44799748063087463
1782952410295366700,4.10636669921875,-0.3251296281814575,0.3987332582473755,0.6573339104652405
1782952410305293800,4.1162939453125,-0.3353511095046997,0.4336366653442383,0.8225337862968445
1782952410315220700,4.126220703125,-0.32309630513191223,0.43894752860069275,0.9087653756141663
1782952410325149000,4.13614892578125,-0.2991821765899658,0.4000518023967743,0.8811529278755188
1782952410335075800,4.146075927734375,-0.27455219626426697,0.3745136857032776,0.7729446887969971
1782952410345003000,4.1560029296875,-0.25068920850753784,0.3710435926914215,0.6637782454490662
1782952410354930000,4.165929931640625,-0.26373469829559326,0.360210120677948,0.5987641215324402
1782952410364857900,4.17585791015625,-0.27335643768310547,0.36081358790397644,0.5666474103927612
1782952410374785000,4.185784912109375,-0.27007541060447693,0.3508104979991913,0.552605152130127
1782952410384711700,4.195711669921875,-0.2540186941623688,0.30991390347480774,0.5446617007255554
1782952410394638800,4.205638916015625,-0.21966445446014404,0.2724086344242096,0.5455799698829651
1782952410404566800,4.21556689453125,-0.18314345180988312,0.23175866901874542,0.5634188652038574
1782952410414493700,4.22549365234375,-0.14623257517814636,0.21025443077087402,0.5972000360488892
1782952410424420900,4.2354208984375,-0.10964313894510269,0.18501219153404236,0.6295592784881592
1782952410434347800,4.24534765625,-0.06370281428098679,0.16426751017570496,0.6546726226806641
1782952410444276000,4.25527587890625,-0.019944678992033005,0.11894716322422028,0.6519258618354797
1782952410454203000,4.265202880859375,0.011966913938522339,0.0658666342496872,0.5977275967597961
1782952410464130000,4.275130126953125,0.035467714071273804,0.020490095019340515,0.46870169043540955
1782952410474058000,4.28505810546875,0.06621044874191284,-0.06161622703075409,0.2572925090789795
1782952410483985000,4.29498486328125,0.10861622542142868,-0.1672193557024002,0.07568304240703583
1782952410493911800,4.304911865234375,0.1474592238664627,-0.3016842305660248,-0.0646442398428917
1782952410503838700,4.314838623046875,0.1778608113527298,-0.5113993883132935,-0.17449191212654114
1782952410513766700,4.3247666015625,0.21050743758678436,-0.741351842880249,-0.26510968804359436
1782952410523693800,4.33469384765625,0.2587631046772003,-0.7863782048225403,-0.2831994891166687
1782952410533620700,4.344620849609375,0.29662129282951355,-0.616481602191925,-0.1968936175107956
1782952410543548000,4.3545478515625,0.2912699282169342,-0.3809971511363983,-0.06151076406240463
1782952410553475800,4.364475830078125,0.2567492425441742,-0.1585875153541565,0.05964522063732147
1782952410563403000,4.374403076171875,0.21553336083889008,0.025468608364462852,0.11946407705545425
1782952410573330000,4.384329833984375,0.19622783362865448,0.20969916880130768,0.10450617223978043
1782952410583256800,4.3942568359375,0.18072716891765594,0.3366778790950775,0.022416891530156136
1782952410593185000,4.40418505859375,0.1629074215888977,0.4023993909358978,-0.11401738226413727
1782952410603111700,4.414111572265625,0.1310693323612213,0.3533703088760376,-0.2887633442878723
1782952410613038800,4.424038818359375,0.10688170790672302,0.22413110733032227,-0.4897814095020294
1782952410622965800,4.4339658203125,0.07620742172002792,0.11132652312517166,-0.6874175071716309
1782952410632893700,4.443893798828125,0.0401892326772213,0.029218338429927826,-0.8398081064224243
1782952410642820900,4.45382080078125,0.01847354881465435,-0.0005153216770850122,-0.907219648361206
1782952410652747800,4.463747802734375,0.019059976562857628,0.01565059833228588,-0.8926716446876526
1782952410662676000,4.473676025390625,0.018630143254995346,0.06904324889183044,-0.8034477233886719
1782952410672603000,4.483602783203125,0.0062674833461642265,0.15587455034255981,-0.6481393575668335
1782952410682530000,4.493530029296875,-0.014094247482717037,0.23178157210350037,-0.45631641149520874
1782952410692457000,4.50345703125,-0.035767316818237305,0.29001158475875854,-0.2990434169769287
1782952410702385000,4.513385009765625,-0.04879177361726761,0.3533330261707306,-0.22667522728443146
1782952410712311800,4.523311767578125,-0.045583464205265045,0.3831274211406708,-0.24222195148468018
1782952410722238700,4.53323876953125,-0.04734141752123833,0.31024786829948425,-0.31546634435653687
1782952410732166000,4.543165771484375,-0.04755713418126106,0.18210695683956146,-0.368470698595047
1782952410742093800,4.55309375,-0.04452618956565857,0.0524568147957325,-0.3131728172302246
1782952410752020700,4.563020751953125,-0.0356043316423893,-0.06228547915816307,-0.13338202238082886
1782952410761948000,4.572947998046875,-0.016704944893717766,-0.10167203098535538,0.1194145455956459
1782952410771874800,4.582874755859375,0.013069462962448597,-0.10183581709861755,0.33759668469429016
1782952410781803000,4.592802978515625,0.05314231291413307,-0.06518406420946121,0.44109830260276794
1782952410791730000,4.60272998046875,0.10889745503664017,0.0067575047723948956,0.4595545530319214
1782952410801657000,4.612656982421875,0.16966040432453156,0.1016981303691864,0.40705564618110657
1782952410811585000,4.6225849609375,0.2347067892551422,0.12316214293241501,0.31960222125053406
1782952410821511700,4.63251171875,0.29135167598724365,0.06123752519488335,0.2283167988061905
1782952410831438800,4.64243896484375,0.32609662413597107,-0.010004697367548943,0.13612854480743408
1782952410841364700,4.65236474609375,0.36326128244400024,-0.13753628730773926,-0.03916870802640915
1782952410851293000,4.66229296875,0.39747652411460876,-0.3599371314048767,-0.3307803273200989
1782952410861219800,4.6722197265625,0.4402215778827667,-0.5279754400253296,-0.601545512676239
1782952410871147000,4.68214697265625,0.47364506125450134,-0.5622875690460205,-0.7191011309623718
1782952410881074000,4.692073974609375,0.5056954026222229,-0.5023273229598999,-0.662074863910675
1782952410891001900,4.702001953125,0.5141549110412598,-0.3306407630443573,-0.47214382886886597
1782952410900929000,4.711928955078125,0.4656084477901459,-0.123293437063694,-0.2557382881641388
1782952410910855700,4.721855712890625,0.3822688162326813,0.0510123185813427,-0.07990042120218277
1782952410920782800,4.731782958984375,0.2680783271789551,0.1769087314605713,0.012093947269022465
1782952410930710800,4.741710693359375,0.1445784866809845,0.24242515861988068,-0.003215234261006117
1782952410940638000,4.751637939453125,0.012001534923911095,0.2727758586406708,-0.10346460342407227
1782952410950564900,4.76156494140625,-0.1096564531326294,0.2788774371147156,-0.21833713352680206
1782952410960491800,4.77149169921875,-0.21418552100658417,0.27614983916282654,-0.28507381677627563
1782952410970420000,4.781419921875,-0.2932550609111786,0.27240514755249023,-0.29733768105506897
1782952410980347000,4.791346923828125,-0.35076653957366943,0.2736288905143738,-0.2769559621810913
1782952410990274000,4.801274169921875,-0.36857083439826965,0.26837286353111267,-0.24049276113510132
1782952411000201000,4.811200927734375,-0.37328198552131653,0.2537236213684082,-0.2019680142402649
1782952411010129000,4.82112890625,-0.35244274139404297,0.2332409769296646,-0.1764456033706665
1782952411020055800,4.831055908203125,-0.31401678919792175,0.228353813290596,-0.1402793526649475
1782952411029982700,4.840982666015625,-0.29169443249702454,0.19707125425338745,-0.10480684041976929
1782952411039911000,4.850910888671875,-0.2712847590446472,0.18190374970436096,-0.07001663744449615
1782952411049837800,4.860837890625,-0.25221413373947144,0.17447885870933533,-0.040956221520900726
1782952411059764700,4.8707646484375,-0.24703535437583923,0.11111613363027573,-0.030818631872534752
1782952411069692000,4.88069189453125,-0.23097994923591614,-0.03316514194011688,-0.011638546362519264
1782952411079619800,4.890619873046875,-0.20798462629318237,-0.20285111665725708,0.05187225341796875
1782952411089547000,4.900547119140625,-0.18794088065624237,-0.3343156576156616,0.14178216457366943
1782952411099474000,4.910473876953125,-0.1730005443096161,-0.4095126688480377,0.2289508879184723
1782952411109401000,4.920401123046875,-0.16419240832328796,-0.46119213104248047,0.2883175313472748
1782952411119329000,4.9303291015625,-0.16196146607398987,-0.4758632183074951,0.3043263256549835
1782952411129255700,4.940255615234375,-0.15001027286052704,-0.4334196150302887,0.28582537174224854
1782952411139182800,4.950182861328125,-0.14951305091381073,-0.34642505645751953,0.2718842327594757
1782952411149109800,4.96010986328125,-0.14052915573120117,-0.22132067382335663,0.28484877943992615
1782952411159038000,4.970037841796875,-0.1008448526263237,-0.09049127995967865,0.3103189766407013
1782952411168964900,4.97996484375,-0.07331469655036926,-0.020055200904607773,0.3722236454486847
1782952411178891800,4.989891845703125,-0.01991325430572033,0.09721256792545319,0.4717552959918976
1782952411188820000,4.999820068359375,0.0385575108230114,0.23625913262367249,0.5196918845176697
1782952411198747000,5.009746826171875,0.06675665825605392,0.276905357837677,0.4987131357192993
1782952411208674000,5.019674072265625,0.08992137014865875,0.21801888942718506,0.48016369342803955
1782952411218601000,5.02960107421875,0.10790888965129852,0.06875882297754288,0.4984065890312195
1782952411228529000,5.03952880859375,0.12073414027690887,-0.15717576444149017,0.4749193787574768
1782952411238455800,5.049455810546875,0.16981886327266693,-0.40192505717277527,0.4517538845539093
1782952411248382700,5.0593828125,0.20042204856872559,-0.6440290212631226,0.3240513205528259
1782952411258310000,5.069309814453125,0.23536032438278198,-0.78849196434021,0.12234002351760864
1782952411268237800,5.07923779296875,0.2779674232006073,-0.7910640239715576,-0.05313166230916977
1782952411278164700,5.089164794921875,0.3013204336166382,-0.6934988498687744,-0.1571294367313385
1782952411288092000,5.099091796875,0.2769722044467926,-0.5502666234970093,-0.2113838791847229
1782952411298018800,5.109018798828125,0.22385813295841217,-0.3419506847858429,-0.20727835595607758
1782952411307947000,5.118947021484375,0.16428907215595245,-0.09714359045028687,-0.18083423376083374
1782952411317874000,5.1288740234375,0.10082434862852097,0.13221342861652374,-0.13170689344406128
1782952411327801000,5.138801025390625,0.03660142049193382,0.3064270317554474,-0.0757613405585289
1782952411337727700,5.148727783203125,-0.030016489326953888,0.4210452437400818,-0.011918976902961731
1782952411347655700,5.15865576171875,-0.0918383076786995,0.4861765503883362,0.032289762049913406
1782952411357582800,5.168582763671875,-0.16080112755298615,0.4935433864593506,0.04355493560433388
1782952411367509800,5.178509765625,-0.21948948502540588,0.48054370284080505,0.008650479838252068
1782952411377438000,5.18843798828125,-0.25391510128974915,0.4758530855178833,-0.08500543981790543
1782952411387364900,5.19836474609375,-0.2643192708492279,0.490891695022583,-0.23624955117702484
1782952411397291800,5.208291748046875,-0.2592747211456299,0.505159318447113,-0.4024638235569
1782952411407219000,5.218218994140625,-0.23416748642921448,0.5012322068214417,-0.5430600643157959
1782952411417147000,5.22814697265625,-0.20984616875648499,0.432833194732666,-0.6496744155883789
1782952411427074000,5.238073974609375,-0.18180681765079498,0.2927013635635376,-0.7369696497917175
1782952411437001000,5.2480009765625,-0.15099617838859558,0.13236656785011292,-0.7444126605987549
1782952411446928000,5.257927978515625,-0.10773791372776031,-0.01130724884569645,-0.6427424550056458
1782952411456855800,5.267855712890625,-0.05379904806613922,-0.11942733079195023,-0.4523070156574249
1782952411466782700,5.27778271484375,0.0022037657909095287,-0.20160262286663055,-0.23521465063095093
1782952411476710000,5.2877099609375,0.04728282615542412,-0.2328590750694275,-0.04789375513792038
1782952411486636800,5.29763671875,0.07883169502019882,-0.17516542971134186,0.1040976420044899
1782952411496565000,5.30756494140625,0.10396900773048401,-0.040402814745903015,0.19567576050758362
1782952411506490000,5.317489990234375,0.13206589221954346,0.1021074578166008,0.2261737436056137
1782952411516416800,5.327416748046875,0.1683535873889923,0.21698051691055298,0.2247665375471115
1782952411526344700,5.3373447265625,0.2091154009103775,0.318707138299942,0.20415127277374268
1782952411536272000,5.34727197265625,0.2435724437236786,0.3868822157382965,0.1743699312210083
1782952411546198800,5.35719873046875,0.2623743712902069,0.4078143835067749,0.1013905331492424
1782952411556126000,5.3671259765625,0.27703267335891724,0.3870907425880432,-0.0080912159755826
1782952411566054000,5.377053955078125,0.28480884432792664,0.2861047387123108,-0.1388407051563263
1782952411575980800,5.386980712890625,0.30373191833496094,0.03146684542298317,-0.2922677993774414
1782952411585908000,5.396907958984375,0.3276289999485016,-0.3277059495449066,-0.3907395303249359
1782952411595836000,5.4068359375,0.3556230962276459,-0.6171737313270569,-0.4247627258300781
1782952411605763000,5.41676318359375,0.35142648220062256,-0.8428489565849304,-0.4167706072330475
1782952411615690000,5.42668994140625,0.30832988023757935,-0.9318493604660034,-0.3955089747905731
1782952411625617000,5.436616943359375,0.2618473172187805,-0.904220700263977,-0.37264707684516907
1782952411635544800,5.446544921875,0.19916290044784546,-0.7628052234649658,-0.3422281742095947
1782952411645471700,5.4564716796875,0.11352256685495377,-0.5213366746902466,-0.34096425771713257
1782952411655399000,5.46639892578125,0.0028999161440879107,-0.22870774567127228,-0.36590367555618286
1782952411665325800,5.476325927734375,-0.11233293265104294,0.06935244053602219,-0.40932679176330566
1782952411675253800,5.486253662109375,-0.20769166946411133,0.3222571313381195,-0.4229070544242859
1782952411685181000,5.496180908203125,-0.2881995737552643,0.5027211904525757,-0.37840908765792847
1782952411695107800,5.50610791015625,-0.33746007084846497,0.6069431900978088,-0.2962833344936371
1782952411705035000,5.516034912109375,-0.35344675183296204,0.6410194039344788,-0.22916048765182495
1782952411714963000,5.525962890625,-0.34545913338661194,0.6268979907035828,-0.1753971129655838
1782952411724890000,5.53589013671875,-0.32286059856414795,0.5799243450164795,-0.1344161331653595
1782952411734816800,5.545816650390625,-0.2892025113105774,0.5161754488945007,-0.09727036207914352
1782952411744744700,5.55574462890625,-0.2529747486114502,0.43559569120407104,-0.05205308273434639
1782952411754671900,5.565671875,-0.2265726923942566,0.3548172116279602,-0.004274373408406973
1782952411764598800,5.575598876953125,-0.2062828689813614,0.28845709562301636,0.027952006086707115
1782952411774526000,5.58552587890625,-0.19129087030887604,0.22783689200878143,0.05403820052742958
1782952411784454000,5.595453857421875,-0.1855701357126236,0.19818899035453796,0.06836361438035965
1782952411794380800,5.605380859375,-0.18527638912200928,0.18996967375278473,0.08448319137096405
1782952411804308000,5.615307861328125,-0.19052520394325256,0.20768316090106964,0.10187150537967682
1782952411814235000,5.62523486328125,-0.1980941742658615,0.20931246876716614,0.12546870112419128
1782952411824163000,5.6351630859375,-0.20261596143245697,0.18527159094810486,0.15611982345581055
1782952411834090000,5.645090087890625,-0.19035795331001282,0.14704084396362305,0.18762049078941345
1782952411844019500,5.65501953125,-0.16684651374816895,0.08903560042381287,0.2180689424276352
1782952411853946400,5.6649462890625,-0.1350526213645935,-0.0079761678352952,0.24656930565834045
1782952411863874600,5.67487451171875,-0.08594047278165817,-0.10221078991889954,0.2794066071510315
1782952411873801500,5.684801513671875,-0.018069282174110413,-0.16378892958164215,0.3326495885848999
1782952411883728400,5.694728271484375,0.04765487089753151,-0.23777660727500916,0.3941632807254791
1782952411893655300,5.7046552734375,0.1319226175546646,-0.3352552354335785,0.4548833668231964
1782952411903583200,5.714583251953125,0.20892497897148132,-0.4288994371891022,0.5250123739242554
1782952411913510400,5.724510498046875,0.2543902099132538,-0.4716700613498688,0.5826546549797058
1782952411923437300,5.734437255859375,0.26090455055236816,-0.4727760851383209,0.5971949696540833
1782952411933364500,5.744364501953125,0.23629775643348694,-0.4449516236782074,0.5426291823387146
1782952411943292400,5.75429248046875,0.1830262839794159,-0.392711341381073,0.4300938546657562
1782952411953219300,5.76421923828125,0.11114436388015747,-0.36016032099723816,0.30599987506866455
1782952411963146500,5.774146484375,0.020798755809664726,-0.3636455833911896,0.17132967710494995
1782952411973073400,5.784073486328125,-0.04809669032692909,-0.37037938833236694,0.10788758099079132
1782952411983001300,5.79400146484375,-0.09929143637418747,-0.38303154706954956,0.0872584730386734
1782952411992928500,5.803928466796875,-0.12287372350692749,-0.38221341371536255,0.06393343955278397
1782952412002855400,5.81385546875,-0.12426043301820755,-0.34561705589294434,0.008784702979028225
1782952412012782300,5.8237822265625,-0.11529729515314102,-0.24530696868896484,-0.08710826933383942
1782952412022710300,5.833710205078125,-0.08676765114068985,-0.09427031129598618,-0.1740277260541916
1782952412032637400,5.843637451171875,-0.055563658475875854,0.08390501886606216,-0.2284342348575592
1782952412042564400,5.853564453125,-0.023432888090610504,0.2352772355079651,-0.2257700115442276
1782952412052492300,5.8634921875,0.002375007141381502,0.299619197845459,-0.1814427673816681
1782952412062419500,5.87341943359375,0.024157533422112465,0.3145139813423157,-0.09420745819807053
1782952412072346400,5.883346435546875,0.030101442709565163,0.31515130400657654,0.020204070955514908
1782952412082273500,5.8932734375,0.04324254393577576,0.29652300477027893,0.10294901579618454
1782952412092201500,5.903201416015625,0.04057379066944122,0.2604116201400757,0.14042554795742035
1782952412102128400,5.91312841796875,0.028930718079209328,0.22611115872859955,0.12212244421243668
1782952412112055300,5.92305517578125,0.014055364765226841,0.20646555721759796,0.07021690160036087
1782952412121982500,5.932982421875,0.00013795174891129136,0.18863701820373535,-0.012539227493107319
1782952412131910400,5.942910400390625,0.0001584580895723775,0.1856127381324768,-0.11028522998094559
1782952412141837300,5.95283740234375,0.002424275502562523,0.20047743618488312,-0.22368502616882324
1782952412151764500,5.962764404296875,-0.00017683389887679368,0.21412374079227448,-0.3483409285545349
1782952412161691400,5.97269140625,-0.016931045800447464,0.20549403131008148,-0.4787583351135254
1782952412171619300,5.982619384765625,-0.05061763897538185,0.18575015664100647,-0.6123379468917847
1782952412181546500,5.99254638671875,-0.06845416128635406,0.14170147478580475,-0.7360356450080872
1782952412191473400,6.002473388671875,-0.05788140743970871,0.05595194920897484,-0.8419314622879028
1782952412201401600,6.012401611328125,-0.026681944727897644,-0.0383114367723465,-0.8927270174026489
1782952412211328300,6.022328369140625,0.0075729647651314735,-0.1549866497516632,-0.8715567588806152
1782952412221255400,6.03225537109375,0.03724883496761322,-0.34243670105934143,-0.7776454091072083
1782952412231182300,6.042182373046875,0.10199267417192459,-0.4907313585281372,-0.5699143409729004
1782952412241110300,6.0521103515625,0.20285511016845703,-0.508234441280365,-0.29015353322029114
1782952412251037400,6.062037353515625,0.27178382873535156,-0.38949182629585266,-0.003382480936124921
1782952412260964400,6.07196435546875,0.3282950520515442,-0.21527422964572906,0.24217721819877625
1782952412270891500,6.0818916015625,0.3753288686275482,-0.03407008573412895,0.40119829773902893
1782952412280819500,6.0918193359375,0.406279593706131,0.09892071783542633,0.4530037045478821
1782952412290746400,6.101746337890625,0.4194667637348175,0.15556402504444122,0.4369451105594635
1782952412300673500,6.111673583984375,0.4377155601978302,0.1572631299495697,0.4016358554363251
1782952412310600200,6.12160009765625,0.4587787687778473,0.12746261060237885,0.36792129278182983
1782952412320528400,6.1315283203125,0.4647836685180664,0.014821822755038738,0.3325273394584656
1782952412330455300,6.141455322265625,0.4771175682544708,-0.1190536841750145,0.3689039945602417
1782952412340382500,6.151382568359375,0.48672837018966675,-0.19648882746696472,0.4522353708744049
1782952412350310400,6.161310302734375,0.49209064245224,-0.2463224232196808,0.5442640781402588
1782952412360237300,6.1712373046875,0.48299703001976013,-0.276187926530838,0.6008557677268982
1782952412370164500,6.18116455078125,0.47296807169914246,-0.21921437978744507,0.6328299045562744
1782952412380091400,6.19109130859375,0.4530942440032959,-0.0713207870721817,0.6030160784721375
1782952412390019300,6.201019287109375,0.4077643156051636,0.13225257396697998,0.4429697096347809
1782952412399946500,6.210946533203125,0.35512372851371765,0.33020320534706116,0.1364220231771469
1782952412409873400,6.220873291015625,0.3179047405719757,0.38204723596572876,-0.28125298023223877
1782952412419800300,6.23080029296875,0.2842860519886017,0.32291439175605774,-0.5571037530899048
1782952412429728300,6.240728271484375,0.23107662796974182,0.3028400242328644,-0.5137016773223877
1782952412439655400,6.250655517578125,0.16000084578990936,0.2422587126493454,-0.276496559381485
1782952412449582300,6.260582275390625,0.0740571841597557,0.21294929087162018,-0.051959339529275894
1782952412459509200,6.27050927734375,-0.014055631123483181,0.23704290390014648,0.03424718603491783
1782952412469437400,6.2804375,-0.0976376086473465,0.2935711741447449,-0.0017632789677008986
1782952412479364400,6.2903642578125,-0.1772698611021042,0.3867463767528534,-0.06710845977067947
1782952412489291500,6.30029150390625,-0.2553079426288605,0.4824255108833313,-0.1264849752187729
1782952412499219500,6.310219482421875,-0.3031851649284363,0.5500857830047607,-0.15607215464115143
1782952412509146400,6.320146484375,-0.33700573444366455,0.5864049196243286,-0.16715623438358307
1782952412519073500,6.330073486328125,-0.35410746932029724,0.5896808505058289,-0.1664438396692276
1782952412529000200,6.340000244140625,-0.3728249669075012,0.5648071765899658,-0.1887669861316681
1782952412538928400,6.349928466796875,-0.38804253935813904,0.5072994232177734,-0.22703847289085388
1782952412548855300,6.359855224609375,-0.407172292470932,0.41415271162986755,-0.26757925748825073
1782952412558782500,6.369782470703125,-0.42737051844596863,0.2990362346172333,-0.2833363711833954
1782952412568709400,6.37970947265625,-0.45072537660598755,0.16253165900707245,-0.24982501566410065
1782952412578637300,6.38963720703125,-0.47639983892440796,0.025959961116313934,-0.166732519865036
1782952412588564500,6.399564453125,-0.5109098553657532,-0.10434424877166748,-0.051783833652734756
1782952412598491400,6.409491455078125,-0.548568844795227,-0.17451481521129608,0.07658292353153229
1782952412608418600,6.41941845703125,-0.5740499496459961,-0.20293687283992767,0.19202136993408203
1782952412618346500,6.429346435546875,-0.5799773335456848,-0.1877954602241516,0.3160695433616638
1782952412628273400,6.4392734375,-0.5742534399032593,-0.1660265177488327,0.4298344552516937
1782952412638200300,6.449200439453125,-0.5710054636001587,-0.12656167149543762,0.5405846834182739
1782952412648127200,6.459127197265625,-0.5659757852554321,-0.07891026139259338,0.6468328237533569
1782952412658055400,6.469055419921875,-0.558512806892395,-0.05991180241107941,0.7205454111099243
1782952412667982300,6.478982421875,-0.528476357460022,-0.07062436640262604,0.755251944065094
1782952412677909200,6.4889091796875,-0.47691088914871216,-0.08986037969589233,0.7651770710945129
1782952412687837400,6.49883740234375,-0.41550639271736145,-0.1373426765203476,0.7498217821121216
1782952412697764400,6.508764404296875,-0.35652562975883484,-0.2256919890642166,0.7071565985679626
1782952412707691500,6.51869140625,-0.28732553124427795,-0.3280452489852905,0.6894609928131104
1782952412717618400,6.528618408203125,-0.20164203643798828,-0.3968898355960846,0.7110256552696228
1782952412727546400,6.53854638671875,-0.12800990045070648,-0.4940544664859772,0.769288957118988
1782952412737473500,6.5484736328125,-0.06681658327579498,-0.5334314107894897,0.807094931602478
1782952412747400200,6.558400146484375,-0.0033816818613559008,-0.5364269614219666,0.762120246887207
1782952412757327400,6.568327392578125,0.0596766471862793,-0.523389995098114,0.5942817330360413
1782952412767255300,6.57825537109375,0.11768162250518799,-0.5325642824172974,0.34773534536361694
1782952412777182500,6.588182373046875,0.15428784489631653,-0.5471379160881042,0.14929307997226715
1782952412787109400,6.598109375,0.17843392491340637,-0.6136040091514587,-0.006996124051511288
1782952412797036300,6.608036376953125,0.18913637101650238,-0.6691194772720337,-0.09494355320930481
1782952412806964500,6.617964599609375,0.21043846011161804,-0.6599180102348328,-0.10448486357927322
1782952412816891400,6.627891357421875,0.22558918595314026,-0.5850741267204285,-0.06403756886720657
1782952412826818600,6.637818603515625,0.20276376605033875,-0.44086340069770813,0.06072699651122093
1782952412836746000,6.64774609375,0.17344236373901367,-0.3043103516101837,0.15979845821857452
1782952412846673000,6.6576728515625,0.16574609279632568,-0.15604792535305023,0.176536425948143
1782952412856600000,6.66760009765625,0.1274796575307846,-0.0408686026930809,0.12981845438480377
1782952412866527000,6.67752685546875,0.08469731360673904,0.0377282053232193,0.10257138311862946
1782952412876455200,6.687455078125,0.04141774773597717,0.09966294467449188,0.10057880729436874
1782952412886381800,6.6973818359375,-0.01384257897734642,0.1434658169746399,0.0937264934182167
1782952412896309000,6.70730908203125,-0.07016471028327942,0.1565142422914505,0.06950770318508148
1782952412906236000,6.71723583984375,-0.1153407096862793,0.18151253461837769,0.032172851264476776
1782952412916163800,6.727163818359375,-0.15044249594211578,0.20480933785438538,-0.01828952506184578
1782952412926091000,6.737091064453125,-0.17960570752620697,0.2419990450143814,-0.07739492505788803
1782952412936018000,6.747017822265625,-0.1849197894334793,0.2667667269706726,-0.16184508800506592
1782952412945945000,6.756945068359375,-0.17456941306591034,0.27738073468208313,-0.25327834486961365
1782952412955873000,6.766873046875,-0.1639617681503296,0.28863525390625,-0.32732194662094116
1782952412965800000,6.776800048828125,-0.15305054187774658,0.3070707321166992,-0.3756958544254303
1782952412975727000,6.78672705078125,-0.14030997455120087,0.33290818333625793,-0.3999681770801544
1782952412985653800,6.79665380859375,-0.11881399899721146,0.3665822446346283,-0.3970557451248169
1782952412995582000,6.80658203125,-0.0875234603881836,0.4046116769313812,-0.37724554538726807
1782952413005508900,6.8165087890625,-0.049854107201099396,0.4400556683540344,-0.37328916788101196
1782952413015436000,6.82643603515625,-0.01528574526309967,0.4338127076625824,-0.4306621849536896
1782952413025364000,6.836364013671875,0.02454316057264805,0.36636120080947876,-0.5337622165679932
1782952413035291000,6.846290771484375,0.05988357216119766,0.2504902780056,-0.6080707907676697
1782952413045218000,6.856218017578125,0.06473292410373688,0.08360621333122253,-0.5863164663314819
1782952413055145000,6.86614501953125,0.11124636232852936,-0.1321527063846588,-0.437288373708725
1782952413065073000,6.876072998046875,0.1562870740890503,-0.3781757950782776,-0.2043858915567398
1782952413075000000,6.886,0.20918570458889008,-0.5191100239753723,0.030964307487010956
1782952413084927000,6.895927001953125,0.24630485475063324,-0.5608683824539185,0.2082221806049347
1782952413094854000,6.90585400390625,0.27557939291000366,-0.5387886166572571,0.2990407645702362
1782952413104781800,6.91578173828125,0.28053393959999084,-0.4797455668449402,0.2922089695930481
1782952413114709000,6.925708984375,0.2863044738769531,-0.3980056941509247,0.2330327183008194
1782952413124636000,6.935635986328125,0.3144431412220001,-0.30595114827156067,0.15952014923095703
1782952413134563000,6.94556298828125,0.3651489317417145,-0.22496306896209717,0.101840078830719
1782952413144491000,6.955490966796875,0.44191962480545044,-0.17760594189167023,0.062305450439453125
1782952413154418000,6.96541796875,0.5298463106155396,-0.1167047768831253,0.031259384006261826
1782952413164345000,6.975344970703125,0.6020674705505371,-0.010659302584826946,0.030848193913698196
1782952413174273000,6.98527294921875,0.6419461965560913,0.12777367234230042,0.019213641062378883
1782952413184200000,6.995199951171875,0.6297358870506287,0.23619522154331207,-0.026203639805316925
1782952413194127000,7.005127197265625,0.5945855975151062,0.22434628009796143,-0.12169820815324783
1782952413204053800,7.0150537109375,0.5424579381942749,0.16316309571266174,-0.21843726933002472
1782952413213982000,7.02498193359375,0.4729031026363373,0.0790892243385315,-0.2777341306209564
1782952413223908900,7.034908935546875,0.37363243103027344,-0.011777297593653202,-0.2915325164794922
1782952413233836000,7.0448359375,0.2409910410642624,-0.06903392821550369,-0.2831752598285675
1782952413243763000,7.054762939453125,0.10195992141962051,-0.11106313765048981,-0.29875579476356506
1782952413253691000,7.06469091796875,-0.024623587727546692,-0.150142103433609,-0.3243684768676758
1782952413263618000,7.0746181640625,-0.12965360283851624,-0.13235430419445038,-0.34001776576042175
1782952413273545000,7.084544921875,-0.20798222720623016,-0.05646034702658653,-0.3275991678237915
1782952413283472100,7.09447216796875,-0.24833257496356964,0.05338998883962631,-0.27519190311431885
1782952413293400000,7.104400146484375,-0.26016339659690857,0.15743330121040344,-0.20491532981395721
1782952413303327000,7.114326904296875,-0.2609309256076813,0.24894563853740692,-0.13666276633739471
1782952413313254000,7.12425390625,-0.24224139750003815,0.31714627146720886,-0.08049564063549042
1782952413323180800,7.134180908203125,-0.21741221845149994,0.3588455021381378,-0.05516311898827553
1782952413333109000,7.14410888671875,-0.18818747997283936,0.3665931820869446,-0.05257745832204819
1782952413343036000,7.154035888671875,-0.16725370287895203,0.3551168143749237,-0.044742438942193985
1782952413352963000,7.163963134765625,-0.16636528074741364,0.33404242992401123,-0.01666845940053463
1782952413362891000,7.17389111328125,-0.1714838743209839,0.31355711817741394,0.02683108113706112
1782952413372818000,7.18381787109375,-0.1893550157546997,0.28770822286605835,0.07066617906093597
1782952413382745000,7.1937451171875,-0.2107790857553482,0.2866725027561188,0.11059202253818512
1782952413392672000,7.203672119140625,-0.2335568219423294,0.30815568566322327,0.15010587871074677
1782952413402600000,7.213599853515625,-0.26107314229011536,0.34529533982276917,0.1912274807691574
1782952413412527000,7.223527099609375,-0.27525100111961365,0.4052359163761139,0.2189352810382843
1782952413422453800,7.233453857421875,-0.29062917828559875,0.44493111968040466,0.2542405426502228
1782952413432381000,7.243380859375,-0.2989736497402191,0.48456960916519165,0.28903844952583313
1782952413442308900,7.253308837890625,-0.3012288212776184,0.4746674597263336,0.3078659474849701
1782952413452236000,7.263236083984375,-0.2930441200733185,0.40008243918418884,0.28536489605903625
1782952413462163000,7.273162841796875,-0.2760179936885834,0.24806199967861176,0.23859313130378723
1782952413472090000,7.283090087890625,-0.26057273149490356,0.026751453056931496,0.17297950387001038
1782952413482018000,7.29301806640625,-0.2379039078950882,-0.1717270165681839,0.14830558001995087
1782952413491945000,7.302945068359375,-0.22619079053401947,-0.34750789403915405,0.17276005446910858
1782952413501872000,7.3128720703125,-0.22834795713424683,-0.49478256702423096,0.2612542510032654
1782952413511800000,7.322800048828125,-0.21555465459823608,-0.6362755298614502,0.39625999331474304
1782952413521727000,7.33272705078125,-0.17640486359596252,-0.7190971374511719,0.5621626973152161
1782952413531654000,7.34265380859375,-0.10864046216011047,-0.6934565305709839,0.7502444386482239
1782952413541580800,7.352580810546875,-0.0565013587474823,-0.6252574920654297,0.8874486088752747
1782952413551509000,7.362509033203125,-0.012747220695018768,-0.5324606895446777,0.9345104098320007
1782952413561436000,7.372435791015625,0.03057548590004444,-0.3949854075908661,0.8922641277313232
1782952413571363000,7.382363037109375,0.06513746082782745,-0.2396024763584137,0.775646984577179
1782952413581290000,7.3922900390625,0.09577632695436478,-0.08323629945516586,0.6213027238845825
1782952413591218000,7.402218017578125,0.1238098219037056,0.02243713289499283,0.46003204584121704
1782952413601145000,7.41214501953125,0.1410902738571167,0.025596173480153084,0.29366809129714966
1782952413611072000,7.422072021484375,0.12456270307302475,-0.057201236486434937,0.10650300979614258
1782952413620999000,7.4319990234375,0.12282925099134445,-0.18382468819618225,-0.10325448215007782
1782952413630927000,7.441927001953125,0.14593110978603363,-0.354571133852005,-0.33243095874786377
1782952413640853800,7.451853759765625,0.16105759143829346,-0.5315269827842712,-0.525640606880188
1782952413650781000,7.461781005859375,0.14617770910263062,-0.6482679843902588,-0.6229546666145325
1782952413660707800,7.471707763671875,0.12804238498210907,-0.628750741481781,-0.6078915596008301
1782952413670636000,7.481635986328125,0.11937566101551056,-0.5373122096061707,-0.5372229814529419
1782952413680563000,7.49156298828125,0.125205859541893,-0.4219544231891632,-0.47114434838294983
1782952413690490000,7.501489990234375,0.1555485874414444,-0.2792460322380066,-0.4399411678314209
1782952413700418000,7.51141796875,0.15185664594173431,-0.10348537564277649,-0.4477016031742096
1782952413710345000,7.521344970703125,0.1081501692533493,0.08759403228759766,-0.4883638322353363
1782952413720272100,7.531272216796875,0.03507170081138611,0.2790433466434479,-0.5749794244766235
1782952413730198800,7.54119873046875,-0.035596076399087906,0.5205805897712708,-0.6866819858551025
1782952413740127000,7.551126953125,-0.09033149480819702,0.8013163805007935,-0.8197164535522461
1782952413750054000,7.561053955078125,-0.12339650094509125,0.9014517664909363,-1.02756929397583
1782952413759980800,7.570980712890625,-0.156364306807518,0.727748692035675,-1.2425124645233154
1782952413769908000,7.580907958984375,-0.20261701941490173,0.40215596556663513,-1.339601993560791
1782952413779836000,7.5908359375,-0.2202623337507248,0.04301457852125168,-1.2262178659439087
1782952413789763000,7.60076318359375,-0.18468596041202545,-0.2404746562242508,-0.962207555770874
1782952413799690000,7.61068994140625,-0.17921583354473114,-0.4273132383823395,-0.6970741748809814
1782952413809618000,7.620617919921875,-0.09962086379528046,-0.46772751212120056,-0.4697326123714447
1782952413819545000,7.630545166015625,-0.020973991602659225,-0.35528725385665894,-0.289902925491333
1782952413829472000,7.640471923828125,0.017408018931746483,-0.18062756955623627,-0.15756939351558685
1782952413839399000,7.65039892578125,0.03861077502369881,0.2188710868358612,-0.04295092821121216
1782952413849327000,7.6603271484375,0.046246323734521866,0.6736487150192261,-0.005337773822247982
1782952413859253800,7.670253662109375,0.04485082998871803,0.9912554621696472,-0.028905151411890984
1782952413869181000,7.680180908203125,0.06557608395814896,1.1089043617248535,-0.0594598650932312
1782952413879107800,7.69010791015625,0.09327428787946701,1.0363134145736694,-0.05324990674853325
1782952413889036000,7.7000361328125,0.12240234762430191,0.837355375289917,0.06018025055527687
1782952413898963000,7.709962890625,0.15890443325042725,0.5910582542419434,0.25514307618141174
1782952413908890000,7.71989013671875,0.21717838943004608,0.3643403947353363,0.4146592319011688
1782952413918817000,7.729817138671875,0.27488189935684204,0.19735407829284668,0.48564979434013367
1782952413928745000,7.739744873046875,0.3240065574645996,0.051004860550165176,0.4035216271877289
1782952413938672000,7.749672119140625,0.35814881324768066,-0.03178323060274124,0.22668027877807617
1782952413948598800,7.759598876953125,0.3756668269634247,-0.034699391573667526,0.024583373218774796
1782952413958526000,7.76952587890625,0.3672099709510803,0.017954498529434204,-0.12373605370521545
1782952413968454000,7.779453857421875,0.33058589696884155,0.03939400985836983,-0.2084978222846985
1782952413978380800,7.789380859375,0.29174184799194336,-0.06088119372725487,-0.24715545773506165
1782952413988308000,7.799307861328125,0.27330103516578674,-0.22390979528427124,-0.24288615584373474
1782952413998236000,7.80923583984375,0.2814804017543793,-0.36257579922676086,-0.22556175291538239
1782952414008163000,7.8191630859375,0.29445531964302063,-0.43984687328338623,-0.19945184886455536
1782952414018090000,7.829090087890625,0.2928489148616791,-0.4397033452987671,-0.16669844090938568
1782952414028017200,7.83901708984375,0.2751964032649994,-0.37274694442749023,-0.12532170116901398
1782952414037945000,7.848945068359375,0.23719896376132965,-0.23638910055160522,-0.08351007103919983
1782952414047872000,7.8588720703125,0.16377881169319153,-0.05348293110728264,-0.04884956404566765
1782952414057799000,7.868798828125,0.07668811827898026,0.17243994772434235,-0.017435183748602867
1782952414067725800,7.878725830078125,-0.012957343831658363,0.4027104377746582,0.009072057902812958
1782952414077653800,7.88865380859375,-0.11106739938259125,0.5844895243644714,0.0228592436760664
1782952414087581000,7.898580810546875,-0.19657377898693085,0.7015075087547302,0.021516744047403336
1782952414097507800,7.9085078125,-0.26116102933883667,0.7522862553596497,0.00224930583499372
1782952414107435000,7.91843505859375,-0.3090430498123169,0.7664023637771606,-0.03383493050932884
1782952414117363000,7.928363037109375,-0.3524400591850281,0.7609540820121765,-0.07031996548175812
1782952414127290000,7.9382900390625,-0.39513054490089417,0.7421162128448486,-0.08313403278589249
1782952414137217000,7.948217041015625,-0.42547327280044556,0.7313623428344727,-0.05356016382575035
1782952414147145000,7.95814501953125,-0.4179205596446991,0.7261108756065369,0.004591822158545256
1782952414157072100,7.968072021484375,-0.4149245023727417,0.7038758397102356,0.09117332100868225
1782952414166998800,7.977998779296875,-0.41487470269203186,0.6814323663711548,0.18698640167713165
1782952414176926000,7.987926025390625,-0.40299779176712036,0.6302083134651184,0.2639126181602478
1782952414186854000,7.99785400390625,-0.3365793526172638,0.5597202777862549,0.283028781414032
1782952414196780800,8.00778076171875,-0.28382691740989685,0.4014345109462738,0.29170534014701843
1782952414206708000,8.0177080078125,-0.22673700749874115,0.17289987206459045,0.3012051284313202
1782952414216635000,8.027634765625,-0.16962578892707825,-0.08653914928436279,0.34116825461387634
1782952414226563000,8.03756298828125,-0.11734607070684433,-0.31135255098342896,0.3973550796508789
1782952414236490000,8.047489990234375,-0.06073205545544624,-0.5148817300796509,0.4415326714515686
1782952414246417200,8.057417236328124,0.00031372037483379245,-0.6984856128692627,0.45375365018844604
1782952414256344000,8.067343994140625,0.06873219460248947,-0.8422657251358032,0.42140474915504456
1782952414266272000,8.07727197265625,0.12601891160011292,-0.9377919435501099,0.3453587293624878
1782952414276199000,8.087198974609375,0.1761569231748581,-0.9910746216773987,0.2748193144798279
1782952414286125800,8.097125732421874,0.22184504568576813,-0.9961122274398804,0.22175689041614532
1782952414296053800,8.1070537109375,0.22358089685440063,-0.9600328207015991,0.24317137897014618
1782952414305981000,8.11698095703125,0.21472933888435364,-0.8816892504692078,0.3166232109069824
1782952414315907800,8.126907958984376,0.20748154819011688,-0.8012087941169739,0.36659476161003113
1782952414325835000,8.1368349609375,0.22756710648536682,-0.7324585318565369,0.41915997862815857
1782952414335763000,8.146762939453126,0.23908156156539917,-0.684710681438446,0.4339892566204071
1782952414345690000,8.156690185546875,0.26319462060928345,-0.6569222211837769,0.46154844760894775
1782952414355617000,8.166616943359376,0.29003846645355225,-0.6590516567230225,0.4902845025062561
1782952414365544200,8.176544189453125,0.3222576677799225,-0.6530123949050903,0.4922267198562622
1782952414375472000,8.18647216796875,0.3592894673347473,-0.6096431016921997,0.47780197858810425
1782952414385398800,8.196398681640625,0.388790100812912,-0.5285799503326416,0.44281578063964844
1782952414395326000,8.206325927734374,0.38142111897468567,-0.4198625087738037,0.3566396236419678
1782952414405252900,8.2162529296875,0.3435555100440979,-0.27077344059944153,0.22780120372772217
1782952414415180800,8.226180908203125,0.3066107928752899,-0.05415138602256775,0.06999346613883972
1782952414425108000,8.23610791015625,0.23988184332847595,0.14543496072292328,-0.06571749597787857
1782952414435035000,8.246034912109375,0.15322044491767883,0.3534683287143707,-0.11929336935281754
1782952414444963000,8.255963134765626,0.06444477289915085,0.5598776936531067,-0.11309193074703217
1782952414454890000,8.265889892578125,-0.03399099037051201,0.7261782288551331,-0.06698169559240341
1782952414464817200,8.275817138671876,-0.10992836207151413,0.8400150537490845,-0.013325126841664314
1782952414474744000,8.285744140625,-0.17055842280387878,0.8874792456626892,0.04029522463679314
1782952414484672000,8.295672119140624,-0.23525166511535645,0.899980902671814,0.06976842880249023
1782952414494599000,8.305598876953125,-0.3032858371734619,0.9077144861221313,0.08287277817726135
1782952414504525800,8.31552587890625,-0.37200817465782166,0.9216452240943909,0.05789925158023834
1782952414514453000,8.325452880859375,-0.42317309975624084,0.9417496919631958,-0.037999846041202545
1782952414524381000,8.335380859375,-0.428580641746521,0.8754803538322449,-0.2683046758174896
1782952414534307800,8.345307861328125,-0.3930349051952362,0.6001473665237427,-0.6193681955337524
1782952414544235000,8.355235107421874,-0.31110435724258423,0.1250644475221634,-0.9673671722412109
1782952414554162000,8.365161865234375,-0.2151021808385849,-0.3898196816444397,-1.144748568534851
1782952414564090000,8.375090087890625,-0.15386971831321716,-0.790213942527771,-1.147340178489685
1782952414574017000,8.38501708984375,-0.08641345053911209,-0.9724631309509277,-1.013595700263977
1782952414583944200,8.394944091796875,-0.04592008888721466,-0.8939323425292969,-0.8865066766738892
1782952414593872100,8.4048720703125,-0.047076962888240814,-0.7776288986206055,-0.7880892753601074
1782952414603798800,8.414798828125,-0.07221613824367523,-0.5414004325866699,-0.6624320149421692
1782952414613726000,8.424725830078126,-0.11951867491006851,-0.14826829731464386,-0.47493696212768555
1782952414623652900,8.43465283203125,-0.17461681365966797,0.28962355852127075,-0.2726978361606598
1782952414633580800,8.444580810546874,-0.21625187993049622,0.6561149954795837,-0.11536227911710739
1782952414643508000,8.454508056640625,-0.19630879163742065,0.8428888916969299,-0.026694728061556816
1782952414653435000,8.464434814453124,-0.11909496784210205,0.860508382320404,0.056822534650564194
1782952414663362000,8.474362060546875,0.001139566651545465,0.7732139229774475,0.14116698503494263
1782952414673290000,8.4842900390625,0.146501824259758,0.6539141535758972,0.20395898818969727
1782952414683217200,8.494217041015625,0.28130969405174255,0.5102906823158264,0.1772157996892929
1782952414693144000,8.50414404296875,0.4295215308666229,0.3756183683872223,0.01913001947104931
1782952414703071000,8.514071044921875,0.566806972026825,0.22988033294677734,-0.22654099762439728
1782952414712999000,8.5239990234375,0.6622498631477356,0.03008626401424408,-0.46896669268608093
1782952414722925800,8.53392578125,0.7191517353057861,-0.2159794270992279,-0.6170168519020081
1782952414732853000,8.54385302734375,0.7584818601608276,-0.34903281927108765,-0.6431803107261658
1782952414742781000,8.553781005859374,0.7584363222122192,-0.3820991516113281,-0.5957954525947571
1782952414752707800,8.563707763671875,0.6847866177558899,-0.3018125891685486,-0.5351856350898743
1782952414762635000,8.573635009765624,0.5688618421554565,-0.18692940473556519,-0.4734005928039551
1782952414772562000,8.58356201171875,0.3984115719795227,-0.008272843435406685,-0.38652506470680237
1782952414782490000,8.593489990234374,0.18784473836421967,0.14562644064426422,-0.2729516327381134
1782952414792417000,8.6034169921875,0.017831994220614433,0.28394463658332825,-0.15374429523944855
1782952414802344200,8.61334423828125,-0.1244303435087204,0.4004976153373718,-0.05944734811782837
1782952414812270800,8.623270751953125,-0.24712777137756348,0.5088983774185181,0.013366937637329102
1782952414822198800,8.63319873046875,-0.3302048146724701,0.6026280522346497,0.05804652348160744
1782952414832126000,8.6431259765625,-0.3695085346698761,0.663263738155365,0.062726229429245
1782952414842053000,8.65305322265625,-0.3700374364852905,0.6696659922599792,0.050747599452733994
1782952414851980300,8.662980224609376,-0.3412500023841858,0.6191434264183044,0.052200086414813995
1782952414861908200,8.672908203125,-0.29197779297828674,0.5239785313606262,0.08329861611127853
1782952414871835100,8.682835205078124,-0.2376333326101303,0.4118187129497528,0.14376676082611084
1782952414881762000,8.692761962890625,-0.21325582265853882,0.3095317482948303,0.2236405462026596
1782952414891690200,8.702690185546874,-0.23171605169773102,0.23341089487075806,0.32659995555877686
1782952414901617200,8.7126171875,-0.27684491872787476,0.1794928014278412,0.413185179233551
1782952414911544000,8.7225439453125,-0.3266598880290985,0.16737061738967896,0.4683765172958374
1782952414921471200,8.73247119140625,-0.37300074100494385,0.18638639152050018,0.48264414072036743
1782952414931399200,8.742399169921875,-0.3931683301925659,0.23180046677589417,0.46669313311576843
1782952414941326000,8.752326171875,-0.39382585883140564,0.21998482942581177,0.44445493817329407
1782952414951253200,8.762253173828125,-0.4253219962120056,0.1439065784215927,0.42775747179985046
1782952414961180200,8.77218017578125,-0.434559166431427,0.03750236704945564,0.4319798946380615
1782952414971108000,8.782108154296875,-0.4027005732059479,-0.10189200937747955,0.4414423704147339
1782952414981035300,8.79203515625,-0.2894642949104309,-0.23833027482032776,0.4114440083503723
1782952414990962000,8.8019619140625,-0.20318295061588287,-0.44007912278175354,0.396261066198349
1782952415000889000,8.81188916015625,-0.1380060762166977,-0.6310799717903137,0.39948907494544983
1782952415010817000,8.821817138671875,-0.12156371772289276,-0.797016441822052,0.43117108941078186
1782952415020744200,8.831744140625,-0.10561937093734741,-0.9586719274520874,0.47249963879585266
1782952415030671000,8.841671142578125,-0.05303419008851051,-1.0973014831542969,0.5294156670570374
1782952415040599000,8.85159912109375,-0.0011912320042029023,-1.1834688186645508,0.6418716311454773
1782952415050526200,8.861526123046875,0.05054386705160141,-1.1605470180511475,0.7791849970817566
1782952415060453000,8.871453125,0.1281297355890274,-1.0127242803573608,0.9011937379837036
1782952415070380300,8.88138037109375,0.21526357531547546,-0.8590803742408752,0.912294864654541
1782952415080308200,8.89130810546875,0.315120667219162,-0.7816697359085083,0.8204187154769897
1782952415090235100,8.901235107421876,0.3508427143096924,-0.8586193919181824,0.6396843791007996
1782952415100162000,8.911162109375,0.3547072112560272,-1.0336015224456787,0.46396899223327637
1782952415110089000,8.9210888671875,0.36126500368118286,-1.249043583869934,0.3680832087993622
1782952415120017200,8.93101708984375,0.3468612730503082,-1.3932148218154907,0.37426868081092834
1782952415129944000,8.940944091796876,0.24013563990592957,-1.3460636138916016,0.42493849992752075
1782952415139871200,8.950871337890625,0.08971736580133438,-1.083019733428955,0.46221211552619934
1782952415149798100,8.960798095703124,-0.03504427149891853,-0.6660917401313782,0.40873903036117554
1782952415159726000,8.97072607421875,-0.12522315979003906,-0.2959959805011749,0.2999779284000397
1782952415169653200,8.9806533203125,-0.19797486066818237,0.08144772052764893,0.17788797616958618
1782952415179580200,8.990580078125,-0.253811776638031,0.4164310395717621,0.05509760603308678
1782952415189508000,9.000508056640625,-0.3119557499885559,0.6656475067138672,-0.03326820954680443
1782952415199435300,9.010435302734376,-0.3434859812259674,0.8266385197639465,-0.1309172660112381
1782952415209362000,9.02036181640625,-0.31202608346939087,0.8631845712661743,-0.2219851315021515
1782952415219289000,9.0302890625,-0.26695072650909424,0.7800078988075256,-0.33072811365127563
1782952415229217000,9.040217041015625,-0.22133292257785797,0.6101320385932922,-0.4134557545185089
1782952415239144200,9.050144287109376,-0.19251272082328796,0.39427539706230164,-0.5006502866744995
1782952415249071000,9.060071044921875,-0.16012336313724518,0.15809935331344604,-0.585640013217926
1782952415258998300,9.069998291015626,-0.09058769047260284,-0.02600017562508583,-0.6602492928504944
1782952415268926200,9.07992626953125,-0.03534254431724548,-0.1408356875181198,-0.7264429330825806
1782952415278853000,9.08985302734375,-0.0006466155173256993,-0.15258555114269257,-0.7693110704421997
1782952415288780300,9.0997802734375,0.04246410354971886,-0.08245572447776794,-0.7716959118843079
1782952415298707200,9.109707275390624,0.07244543731212616,0.04502979293465614,-0.7143093347549438
1782952415308635100,9.11963525390625,0.06629406660795212,0.2040117233991623,-0.6078507900238037
1782952415318562000,9.12956201171875,0.07257060706615448,0.33016538619995117,-0.4266112446784973
1782952415328489000,9.139489013671875,0.06892260909080505,0.4011801779270172,-0.2661603093147278
1782952415338417200,9.149417236328125,0.07159934937953949,0.3654000759124756,-0.18340018391609192
1782952415348344000,9.159343994140626,0.07624869793653488,0.24234738945960999,-0.1798616498708725
1782952415358271200,9.169271240234375,0.08030229806900024,0.11072784662246704,-0.2182345986366272
1782952415368198100,9.1791982421875,0.1186952218413353,0.08025223016738892,-0.23960167169570923
1782952415378126000,9.1891259765625,0.19943268597126007,0.14564615488052368,-0.22110521793365479
1782952415388053200,9.19905322265625,0.2558978199958801,0.3000783324241638,-0.16788513958454132
1782952415397980200,9.208980224609375,0.27591627836227417,0.4759625494480133,-0.0864986702799797
1782952415407907300,9.2189072265625,0.2692628800868988,0.595278799533844,-0.005972937680780888
1782952415417835300,9.228835205078125,0.2609966993331909,0.6283560991287231,0.04423617199063301
1782952415427762000,9.238761962890624,0.28360748291015625,0.6059181690216064,0.0508866161108017
1782952415437689000,9.248689208984375,0.31358322501182556,0.5689103007316589,0.03209242224693298
1782952415447616000,9.258615966796874,0.3500693142414093,0.4900602400302887,-0.03490472212433815
1782952415457544200,9.268544189453126,0.3948892652988434,0.4486568868160248,-0.11538225412368774
1782952415467471000,9.27847119140625,0.4212108850479126,0.4083603322505951,-0.23017407953739166
1782952415477398300,9.288398193359376,0.43256235122680664,0.2628665268421173,-0.38793203234672546
1782952415487326200,9.298326171875,0.4159277081489563,0.043230026960372925,-0.5440633296966553
1782952415497253000,9.308253173828126,0.38470879197120667,-0.2174777239561081,-0.6443797945976257
1782952415507178000,9.318177978515624,0.33493858575820923,-0.42230862379074097,-0.675973653793335
1782952415517106200,9.328106201171876,0.26436907052993774,-0.5150479078292847,-0.6044219732284546
1782952415527033000,9.338033203125,0.15202148258686066,-0.47608453035354614,-0.4575353264808655
1782952415536960000,9.3479599609375,0.006331931799650192,-0.3194166123867035,-0.296480655670166
1782952415546887200,9.35788720703125,-0.1273811310529709,-0.09951167553663254,-0.1581970900297165
1782952415556815000,9.367815185546876,-0.23434965312480927,0.13707903027534485,-0.06252223253250122
1782952415566742300,9.3777421875,-0.2990066707134247,0.3576318919658661,-0.0006199838826432824
1782952415576669200,9.387669189453124,-0.3216818869113922,0.5224618911743164,0.03978576138615608
1782952415586596400,9.397596435546875,-0.31468871235847473,0.6210076212882996,0.052448295056819916
1782952415596524300,9.407524169921874,-0.2855515778064728,0.6499958634376526,0.0445735938847065
1782952415606451000,9.417450927734375,-0.2508663237094879,0.6201399564743042,0.038672029972076416
1782952415616378000,9.427378173828124,-0.22541368007659912,0.5498055815696716,0.056711483746767044
1782952415626305000,9.437304931640625,-0.20426392555236816,0.44927501678466797,0.0871085375547409
1782952415636233200,9.447233154296875,-0.17356379330158234,0.3447834849357605,0.12045051157474518
1782952415646160100,9.45716015625,-0.16178810596466064,0.2537499666213989,0.14794792234897614
1782952415656087000,9.467087158203125,-0.17123033106327057,0.18049360811710358,0.16867689788341522
1782952415666015200,9.47701513671875,-0.20174138247966766,0.13611921668052673,0.18329152464866638
1782952415675942100,9.486942138671875,-0.24113325774669647,0.08623421937227249,0.20117652416229248
1782952415685869300,9.496869384765626,-0.28085508942604065,0.006190517917275429,0.21708863973617554
1782952415695796200,9.506796142578125,-0.3024245798587799,-0.08513140678405762,0.23805277049541473
1782952415705724200,9.51672412109375,-0.3020264208316803,-0.15349341928958893,0.2898576557636261
1782952415715651000,9.526651123046875,-0.29359886050224304,-0.2090328484773636,0.3544270694255829
1782952415725578000,9.536577880859374,-0.3026496171951294,-0.2458055019378662,0.3850368857383728
1782952415735505200,9.546505126953125,-0.30927395820617676,-0.29857710003852844,0.3576156497001648
1782952415745433000,9.55643310546875,-0.30602729320526123,-0.34017807245254517,0.30365389585494995
1782952415755360000,9.566360107421875,-0.29233917593955994,-0.35252583026885986,0.2734030485153198
1782952415765287200,9.576287109375,-0.2595367729663849,-0.36175793409347534,0.25069108605384827
1782952415775214000,9.586214111328125,-0.2927596867084503,-0.4250679314136505,0.2686317265033722
1782952415785142300,9.596142333984375,-0.3213338255882263,-0.5162436366081238,0.3370051980018616
1782952415795069200,9.606069091796876,-0.3109046220779419,-0.604901909828186,0.43610382080078125
1782952415804996400,9.615996337890625,-0.25867149233818054,-0.6632735729217529,0.5669004321098328
1782952415814924300,9.62592431640625,-0.20474834740161896,-0.7147748470306396,0.6392194032669067
1782952415824851000,9.635850830078125,-0.16066238284111023,-0.7089305520057678,0.6980280876159668
1782952415834778000,9.645778076171876,-0.15338556468486786,-0.6912767291069031,0.6861693263053894
1782952415844704500,9.65570458984375,-0.16860100626945496,-0.7136435508728027,0.6132455468177795
1782952415854632700,9.6656328125,-0.15516269207000732,-0.7558208107948303,0.491934597492218
1782952415864559600,9.6755595703125,-0.11272095888853073,-0.7196625471115112,0.3498387038707733
1782952415874486800,9.68548681640625,-0.06855509430170059,-0.6341652274131775,0.20563757419586182
1782952415884413700,9.69541357421875,-0.03732633218169212,-0.5089108943939209,0.08769043534994125
1782952415894341600,9.705341552734374,-0.005983323790132999,-0.3562262952327728,-0.02443183958530426
1782952415904268800,9.715268798828125,0.009280850179493427,-0.20451505482196808,-0.11493031680583954
1782952415914195700,9.72519580078125,0.008128766901791096,-0.07501538842916489,-0.1922818273305893
1782952415924123000,9.735122802734375,0.00441019469872117,0.015107047744095325,-0.23151364922523499
1782952415934050800,9.74505078125,-0.0021486382465809584,0.04249286651611328,-0.2132512927055359
1782952415943977700,9.754977783203126,-0.016394153237342834,0.023192670196294785,-0.14944994449615479
1782952415953904600,9.764904541015625,-0.04309740290045738,0.018374480307102203,-0.06185697764158249
1782952415963832600,9.77483251953125,-0.06810048967599869,0.00566907087340951,0.03490312397480011
1782952415973759700,9.784759765625,-0.05941246077418327,-0.05852722376585007,0.1239887923002243
1782952415983686700,9.794686767578124,-0.05783107504248619,-0.09910740703344345,0.20027077198028564
1782952415993613800,9.80461376953125,-0.07596134394407272,-0.08714635670185089,0.249013289809227
1782952416003541800,9.814541748046874,-0.10063552856445312,-0.06955377757549286,0.237732395529747
1782952416013468700,9.82446875,-0.10387659817934036,-0.03590899705886841,0.17316991090774536
1782952416023395800,9.834395751953124,-0.10639062523841858,-0.01293444074690342,0.06541602313518524
1782952416033322800,9.84432275390625,-0.09742295742034912,0.01709216833114624,-0.054301321506500244
1782952416043250700,9.854250732421875,-0.0778266191482544,0.07543137669563293,-0.14739663898944855
1782952416053177900,9.864177734375,-0.057745855301618576,0.13685238361358643,-0.2253689467906952
1782952416063104500,9.8741044921875,-0.02978053316473961,0.1286541223526001,-0.2813480496406555
1782952416073032700,9.88403271484375,0.019845077767968178,0.1016150414943695,-0.3367857336997986
1782952416082959600,9.893959716796875,0.08464058488607407,0.10292504727840424,-0.4322076141834259
1782952416092886800,9.90388671875,0.1489516645669937,0.09090887010097504,-0.5763256549835205
1782952416102813700,9.913813720703125,0.1711357980966568,0.01197809912264347,-0.7581375241279602
1782952416112741600,9.92374169921875,0.16818714141845703,0.01678217574954033,-0.8925153017044067
1782952416122668800,9.933668701171875,0.13719381392002106,0.08831974118947983,-1.0029840469360352
1782952416132595700,9.943595703125,0.04820481315255165,-0.06107640266418457,-1.0885928869247437
1782952416142523000,9.95352294921875,-0.058647334575653076,-0.2628507912158966,-1.0616915225982666
1782952416152450800,9.963450927734375,-0.1673831343650818,-0.4549797773361206,-0.8500892519950867
1782952416162377700,9.973377685546875,-0.296853244304657,-0.62838214635849,-0.4172995090484619
1782952416172304600,9.9833046875,-0.39922088384628296,-0.7082349061965942,0.1600855439901352
1782952416182231600,9.9932314453125,-0.4483602046966553,-0.6422926783561707,0.6418428421020508
1782952416192159700,10.00315966796875,-0.4509008526802063,-0.5049182772636414,0.8158945441246033
1782952416202086700,10.013086669921876,-0.42589032649993896,-0.3514648377895355,0.6823194622993469
1782952416212013800,10.023013916015625,-0.35532346367836,-0.35489338636398315,0.40262147784233093
1782952416221940700,10.032940673828126,-0.23325642943382263,-0.4801383912563324,0.16039660573005676
1782952416231868700,10.04286865234375,-0.1232156753540039,-0.568743109703064,0.06881049275398254
1782952416241795800,10.0527958984375,-0.07071651518344879,-0.5664844512939453,0.07069254666566849
1782952416251722800,10.06272265625,-0.053225670009851456,-0.4572133421897888,0.0368453674018383
1782952416261650700,10.072650634765624,0.00006205165118444711,-0.2524671256542206,-0.06192222237586975
1782952416271577900,10.082577880859375,0.09108170866966248,-0.008616391569375992,-0.1839408129453659
1782952416281504500,10.09250439453125,0.15765327215194702,0.2253556251525879,-0.2736576497554779
1782952416291431700,10.102431640625,0.16671282052993774,0.42332330346107483,-0.33208951354026794
1782952416301359600,10.112359619140625,0.18046778440475464,0.5776148438453674,-0.37189897894859314
1782952416311286800,10.122286865234376,0.20622241497039795,0.6665703058242798,-0.4052524268627167
1782952416321213700,10.132213623046875,0.20835693180561066,0.6964080929756165,-0.4293883740901947
1782952416331140900,10.142140869140626,0.16614636778831482,0.7224799394607544,-0.42670950293540955
1782952416341068800,10.15206884765625,0.1780024915933609,0.7788989543914795,-0.4683557450771332
1782952416350995700,10.16199560546875,0.16618098318576813,0.8074182271957397,-0.48318371176719666
1782952416360923000,10.1719228515625,0.11342136561870575,0.806358814239502,-0.5074371099472046
1782952416370850800,10.181850830078124,0.07845485955476761,0.763766884803772,-0.5046365261077881
1782952416380777700,10.19177783203125,0.04188859462738037,0.6748071908950806,-0.4894935190677643
1782952416390704600,10.20170458984375,-0.0016849819803610444,0.6037237048149109,-0.4645836651325226
1782952416400631600,10.211631591796875,-0.05233031511306763,0.573602557182312,-0.44547998905181885
1782952416410559700,10.221559814453125,-0.10259055346250534,0.534520149230957,-0.4133976995944977
1782952416420486700,10.231486572265625,-0.15856914222240448,0.4659796953201294,-0.35135963559150696
1782952416430413800,10.241413818359375,-0.22176487743854523,0.38301795721054077,-0.26502901315689087
1782952416440340700,10.2513408203125,-0.2672354280948639,0.3116239309310913,-0.16388240456581116
1782952416450268700,10.2612685546875,-0.2931083142757416,0.265735000371933,-0.07793554663658142
1782952416460195800,10.27119580078125,-0.2934470474720001,0.2258371263742447,-0.01871429942548275
1782952416470122800,10.281122802734375,-0.26763731241226196,0.17868159711360931,0.012795157730579376
1782952416480049700,10.291049560546876,-0.21697145700454712,0.13216549158096313,0.01441063079982996
1782952416489977900,10.300977783203125,-0.14825019240379333,0.08919113129377365,0.008253934793174267
1782952416499904500,10.310904541015624,-0.070047527551651,0.0721234604716301,0.004190217703580856
1782952416509831700,10.320831787109375,-0.05354897677898407,0.049252767115831375,0.03640274703502655
1782952416519759600,10.330759521484374,-0.08828511834144592,-0.028424451127648354,0.17960144579410553
1782952416529686800,10.340686767578125,-0.14939934015274048,-0.15473312139511108,0.39849597215652466
1782952416539613700,10.35061376953125,-0.2278914898633957,-0.294310986995697,0.631734311580658
1782952416549540900,10.360540771484375,-0.27471625804901123,-0.39418697357177734,0.8000021576881409
1782952416559468800,10.37046875,-0.2604912519454956,-0.4131353795528412,0.8501694202423096
1782952416569395700,10.380395751953126,-0.21559061110019684,-0.3297238349914551,0.7851731181144714
1782952416579323000,10.390322998046875,-0.16032549738883972,-0.2163943499326706,0.6431866884231567
1782952416589249500,10.40024951171875,-0.08038032799959183,-0.11566668003797531,0.5178162455558777
1782952416599177700,10.410177734375,-0.02822364866733551,-0.04278954118490219,0.4092905819416046
1782952416609104600,10.420104736328126,0.016760338097810745,-0.008272310718894005,0.31695157289505005
1782952416619031600,10.430031494140625,0.046966176480054855,0.06283515691757202,0.22591276466846466
1782952416628958700,10.439958740234376,0.024877652525901794,0.17054483294487,0.1320725530385971
1782952416638886700,10.44988671875,-0.01131204329431057,0.22280777990818024,0.03561205789446831
1782952416648813800,10.459813720703124,-0.030718231573700905,0.24068531394004822,0.08597562462091446
1782952416658740700,10.46974072265625,-0.0978730320930481,0.14026017487049103,0.2277631163597107
1782952416668668700,10.479668701171875,-0.11414468288421631,-0.07921439409255981,0.2917913794517517
1782952416678595800,10.489595947265625,-0.0711040049791336,-0.08452500402927399,0.3208310008049011
1782952416688522800,10.499522705078125,0.0004415521107148379,0.016714265570044518,0.31074270606040955
1782952416698449700,10.50944970703125,0.03778652846813202,0.10182569921016693,0.25284343957901
1782952416708377900,10.5193779296875,0.06340453773736954,0.167573019862175,0.13554823398590088
1782952416718304500,10.529304443359376,0.08742412179708481,0.2401670664548874,-0.01064891554415226
1782952416728231700,10.539231689453125,0.1063472107052803,0.3272883892059326,-0.1158541664481163
1782952416738158600,10.54915869140625,0.09925361722707748,0.38077372312545776,-0.14005644619464874
1782952416748086800,10.559086669921875,0.07812915742397308,0.369516521692276,-0.08889072388410568
1782952416758013700,10.569013671875,0.060386911034584045,0.27331116795539856,-0.003114566905423999
