time,seconds_elapsed,z,y,x
1782952406250005000,0.0610048828125,0.19777123630046844,-0.8756136298179626,-0.12111883610486984
1782952406259932200,0.07093212890625,0.21179625391960144,-0.6435161828994751,-0.3236629068851471
1782952406269859000,0.080859130859375,0.22364279627799988,-0.3937208950519562,-0.5474644899368286
1782952406279786000,0.090785888671875,0.23111402988433838,-0.2045149952173233,-0.7262212038040161
1782952406289714200,0.100714111328125,0.24803131818771362,-0.038132768124341965,-0.7608292102813721
1782952406299641000,0.11064111328125,0.252413272857666,0.06076105684041977,-0.653452455997467
1782952406309568300,0.120568359375,0.24173466861248016,0.10120227932929993,-0.4594710171222687
1782952406319496200,0.13049609375,0.24306145310401917,0.1443295180797577,-0.2321515828371048
1782952406329423000,0.140423095703125,0.22733846306800842,0.2160431444644928,-0.033258963376283646
1782952406339350000,0.15035009765625,0.18710342049598694,0.25109565258026123,0.09854806959629059
1782952406349277000,0.16027685546875,0.05912170186638832,0.032125603407621384,0.07921076565980911
1782952406359205000,0.170205078125,-0.08651352673768997,0.02386767417192459,0.0626664087176323
1782952406369132000,0.180132080078125,-0.18644265830516815,0.13873109221458435,0.08876048773527145
1782952406379059200,0.19005908203125,-0.19937948882579803,0.23754821717739105,0.09125826507806778
1782952406388986000,0.199986083984375,-0.1738048493862152,0.2888753414154053,0.07124491035938263
1782952406398914000,0.2099140625,-0.1880682110786438,0.3328060507774353,0.032890066504478455
1782952406408841200,0.21984130859375,-0.24035145342350006,0.31257474422454834,-0.006537304259836674
1782952406418768100,0.22976806640625,-0.31041550636291504,0.26946935057640076,-0.06228179112076759
1782952406428696000,0.239696044921875,-0.3797568082809448,0.22417016327381134,-0.12369225174188614
1782952406438623200,0.249623291015625,-0.43281710147857666,0.19628793001174927,-0.17040090262889862
1782952406448550000,0.2595498046875,-0.44789350032806396,0.17995305359363556,-0.20096060633659363
1782952406458477000,0.26947705078125,-0.4408230781555176,0.14387573301792145,-0.18741443753242493
1782952406468405000,0.279405029296875,-0.43117254972457886,0.12435451149940491,-0.15993283689022064
1782952406478332200,0.289332275390625,-0.4612170159816742,0.11133378744125366,-0.1252659410238266
1782952406488259000,0.299259033203125,-0.5002038478851318,0.12253331393003464,-0.060122691094875336
1782952406498186000,0.30918603515625,-0.5028936266899109,0.10250607132911682,0.013903866522014141
1782952406508114200,0.3191142578125,-0.4562660753726959,0.06862671673297882,0.07882219552993774
1782952406518041000,0.329041015625,-0.3176024854183197,0.0462963804602623,0.12206021696329117
1782952406527968300,0.33896826171875,-0.0749708041548729,0.06178711727261543,0.14689210057258606
1782952406537896200,0.348896240234375,0.035856373608112335,-0.040128327906131744,0.10857854038476944
1782952406547823000,0.358822998046875,0.01627570390701294,-0.18554532527923584,0.06602924317121506
1782952406557750000,0.36875,0.018170809373259544,-0.23772570490837097,0.1058482974767685
1782952406567677000,0.378677001953125,0.027533112093806267,-0.22809401154518127,0.20770585536956787
1782952406577605000,0.388605224609375,0.06511431187391281,-0.26296037435531616,0.3380476236343384
1782952406587532000,0.398531982421875,0.09759657084941864,-0.29288020730018616,0.4502713084220886
1782952406597459200,0.408459228515625,0.07481402903795242,-0.34182536602020264,0.5040642619132996
1782952406607386000,0.41838623046875,0.04927489161491394,-0.3395993709564209,0.46618127822875977
1782952406617314000,0.42831396484375,0.05427577346563339,-0.30616655945777893,0.34541651606559753
1782952406627241200,0.4382412109375,0.06772331893444061,-0.30676981806755066,0.11403221637010574
1782952406637168000,0.448168212890625,0.09006670862436295,-0.3096388280391693,-0.12548395991325378
1782952406647096000,0.458095947265625,0.12298142164945602,-0.3809375762939453,-0.34634023904800415
1782952406657023200,0.468023193359375,0.1732001155614853,-0.4166974127292633,-0.4980882406234741
1782952406666950000,0.477949951171875,0.2232145518064499,-0.4051704704761505,-0.5497199892997742
1782952406676877000,0.487876953125,0.23397772014141083,-0.3565390110015869,-0.5355538725852966
1782952406686805000,0.497804931640625,0.23223769664764404,-0.14822226762771606,-0.48149266839027405
1782952406696732200,0.507732177734375,0.24762730300426483,0.11280986666679382,-0.40121006965637207
1782952406706659000,0.5176591796875,0.26024723052978516,0.337364137172699,-0.3410121202468872
1782952406716586200,0.527586181640625,0.2674023509025574,0.4929412305355072,-0.30475664138793945
1782952406726514200,0.53751416015625,0.2775660753250122,0.5349314212799072,-0.2789451777935028
1782952406736441000,0.547441162109375,0.2522319555282593,0.4802711308002472,-0.2637593150138855
1782952406746368300,0.5573681640625,0.20358075201511383,0.4571289122104645,-0.23662564158439636
1782952406756296200,0.567296142578125,0.18541958928108215,0.4806552529335022,-0.2125011384487152
1782952406766223000,0.57722314453125,0.19168640673160553,0.5238656401634216,-0.2130693793296814
1782952406776150000,0.58714990234375,0.21325480937957764,0.5395580530166626,-0.224378764629364
1782952406786077000,0.597076904296875,0.23745393753051758,0.46474549174308777,-0.2459459900856018
1782952406796005000,0.607005126953125,0.22551178932189941,0.3821028172969818,-0.28991958498954773
1782952406805932000,0.61693212890625,0.18921229243278503,0.3736220598220825,-0.35072821378707886
1782952406815859200,0.626859130859375,0.02057773247361183,0.33621159195899963,-0.3853066861629486
1782952406825786000,0.6367861328125,-0.15163114666938782,0.33142024278640747,-0.3669702410697937
1782952406835714800,0.64671484375,-0.27315038442611694,0.2781650125980377,-0.39373287558555603
1782952406845641700,0.656641845703125,-0.27457696199417114,0.19203989207744598,-0.41577184200286865
1782952406855568600,0.666568603515625,-0.15146486461162567,0.09743109345436096,-0.40176334977149963
1782952406865495800,0.676495849609375,0.03539205715060234,-0.016522398218512535,-0.31606313586235046
1782952406875423700,0.686423828125,0.16488932073116302,-0.11365880072116852,-0.1346813440322876
1782952406885350700,0.6963505859375,0.2166319191455841,-0.18220961093902588,0.11403315514326096
1782952406895277800,0.70627783203125,0.2130608856678009,-0.2649793028831482,0.32405295968055725
1782952406905205800,0.716205810546875,0.18591755628585815,-0.3232438862323761,0.45538339018821716
1782952406915132700,0.726132568359375,0.140372171998024,-0.3194073438644409,0.47121986746788025
1782952406925059800,0.736059814453125,0.1277896761894226,-0.24571669101715088,0.34651607275009155
1782952406934986800,0.74598681640625,0.19007807970046997,-0.08159938454627991,0.13287249207496643
1782952406944915000,0.7559150390625,0.25249147415161133,0.0969589576125145,-0.11009601503610611
1782952406954841600,0.765841552734375,0.28729766607284546,0.2278013825416565,-0.32697799801826477
1782952406964768800,0.775768798828125,0.3225250840187073,0.2850096523761749,-0.44364482164382935
1782952406974695700,0.78569580078125,0.3605467677116394,0.2429434210062027,-0.41189461946487427
1782952406984623600,0.79562353515625,0.3677452802658081,0.11014555394649506,-0.22858011722564697
1782952406994550800,0.80555078125,0.3226297199726105,-0.1413886696100235,0.003616630332544446
1782952407004477700,0.815477783203125,0.24327707290649414,-0.3853418529033661,0.18581829965114594
1782952407014405600,0.825405517578125,0.14889171719551086,-0.5159398317337036,0.25219202041625977
1782952407024332800,0.835332763671875,0.043993089348077774,-0.5119128823280334,0.21355591714382172
1782952407034259700,0.845259765625,-0.04749315232038498,-0.3743545413017273,0.1043146476149559
1782952407044187000,0.855186767578125,-0.13489769399166107,-0.16318070888519287,-0.030168363824486732
1782952407054114800,0.86511474609375,-0.2091120034456253,0.053572118282318115,-0.13875903189182281
1782952407064041700,0.875041748046875,-0.29652121663093567,0.20649267733097076,-0.14910484850406647
1782952407073968600,0.88496875,-0.386909157037735,0.2759860157966614,-0.10382711887359619
1782952407083895800,0.894895751953125,-0.45080700516700745,0.2706533670425415,-0.042938753962516785
1782952407093823700,0.90482373046875,-0.47626176476478577,0.23164446651935577,0.0011687872465699911
1782952407103750700,0.914750732421875,-0.48044487833976746,0.16536380350589752,0.0027428469620645046
1782952407113677800,0.924677734375,-0.4758181869983673,0.05708420276641846,-0.01730329915881157
1782952407123605800,0.934605712890625,-0.47245079278945923,-0.03481252118945122,-0.03117769956588745
1782952407133532700,0.94453271484375,-0.4631853699684143,-0.10104160755872726,-0.03574955090880394
1782952407143459800,0.9544599609375,-0.456986665725708,-0.13691294193267822,-0.04136105999350548
1782952407153386800,0.96438671875,-0.43610987067222595,-0.15457609295845032,-0.033229365944862366
1782952407163315000,0.97431494140625,-0.39397183060646057,-0.13818305730819702,-0.010664068162441254
1782952407173241600,0.98424169921875,-0.33338332176208496,-0.08976279199123383,0.038315724581480026
1782952407183168800,0.994168701171875,-0.2809026837348938,-0.034726522862911224,0.08044613152742386
1782952407193095700,1.004095703125,-0.20679333806037903,0.027190376073122025,0.11218488961458206
1782952407203023600,1.014023681640625,-0.12243609875440598,0.12426871806383133,0.1263531595468521
1782952407212950800,1.02395068359375,-0.05999269708991051,0.26454487442970276,0.1658686101436615
1782952407222877700,1.033877685546875,-0.018942471593618393,0.3581196963787079,0.22883301973342896
1782952407232804900,1.043804931640625,-0.004316391889005899,0.30449190735816956,0.3139100968837738
1782952407242732800,1.05373291015625,0.0030478304252028465,0.14513620734214783,0.416904479265213
1782952407252659700,1.06365966796875,0.032130882143974304,-0.06687058508396149,0.5393185615539551
1782952407262587000,1.0735869140625,0.06067170947790146,-0.3074195384979248,0.6638486385345459
1782952407272514800,1.083514892578125,0.07207535952329636,-0.47019249200820923,0.7799800634384155
1782952407282441700,1.093441650390625,0.06751665472984314,-0.4600010812282562,0.8713362216949463
1782952407292368600,1.10336865234375,0.055446408689022064,-0.35946062207221985,0.9280101656913757
1782952407302295800,1.1132958984375,0.047759056091308594,-0.2532314360141754,0.9571694135665894
1782952407312223700,1.1232236328125,0.03457561135292053,-0.11467622965574265,0.9869787096977234
1782952407322150700,1.133150634765625,0.006571326404809952,0.02182672545313835,0.9873910546302795
1782952407332077800,1.143077880859375,-0.032825347036123276,0.0718531385064125,0.897933840751648
1782952407342004700,1.153004638671875,-0.05187463015317917,0.05809314176440239,0.7895550727844238
1782952407351932700,1.1629326171875,-0.06323407590389252,-0.005971596576273441,0.6561930179595947
1782952407361859800,1.17285986328125,-0.07172182947397232,-0.11538077890872955,0.5437379479408264
1782952407371786800,1.182786865234375,-0.054075464606285095,-0.16895692050457,0.4416152834892273
1782952407381713700,1.192713623046875,-0.022363917902112007,-0.10517849028110504,0.3367387652397156
1782952407391641600,1.2026416015625,0.014044690877199173,-0.021860433742403984,0.19816170632839203
1782952407401568800,1.21256884765625,0.038096629083156586,0.038797516375780106,0.040093813091516495
1782952407411495700,1.22249560546875,0.04453961178660393,0.11169888824224472,-0.11745213717222214
1782952407421423600,1.232423583984375,0.0329134501516819,0.17257589101791382,-0.2339959442615509
1782952407431350800,1.242350830078125,0.0074139488860964775,0.2543242871761322,-0.2625892460346222
1782952407441277700,1.252277587890625,-0.04590444266796112,0.3146516680717468,-0.2148284912109375
1782952407451204900,1.262204833984375,-0.08651898056268692,0.36343199014663696,-0.12188123911619186
1782952407461132800,1.2721328125,-0.08196883648633957,0.42237553000450134,-0.006477316375821829
1782952407471059700,1.282059814453125,-0.0736970528960228,0.44669362902641296,0.09401334077119827
1782952407480987000,1.29198681640625,-0.05214724689722061,0.36696791648864746,0.1547897756099701
1782952407490913500,1.30191357421875,-0.03349313512444496,0.25535058975219727,0.2011021375656128
1782952407500841700,1.311841796875,-0.01617877185344696,0.2200019657611847,0.24192461371421814
1782952407510768600,1.3217685546875,-0.006961837876588106,0.25933578610420227,0.23166558146476746
1782952407520695800,1.33169580078125,-0.010801718570291996,0.3226233422756195,0.13916577398777008
1782952407530622700,1.341622802734375,-0.014972228556871414,0.38836079835891724,-0.028436005115509033
1782952407540550700,1.351550537109375,-0.006703552789986134,0.4005545377731323,-0.24526485800743103
1782952407550477800,1.361477783203125,0.02253902144730091,0.4100969135761261,-0.4144509732723236
1782952407560404700,1.37140478515625,0.06286104768514633,0.3918988108634949,-0.5110726952552795
1782952407570332700,1.381332763671875,0.09361683577299118,0.3089043200016022,-0.529563844203949
1782952407580259800,1.391259765625,0.08683545142412186,0.16938869655132294,-0.49980220198631287
1782952407590186800,1.401186767578125,0.048613231629133224,0.007960665971040726,-0.4722643196582794
1782952407600113700,1.41111376953125,-0.0012504654005169868,-0.15679672360420227,-0.4616802930831909
1782952407610041600,1.42104150390625,0.0032899577636271715,-0.2886914014816284,-0.4086458384990692
1782952407619968800,1.43096875,0.037353515625,-0.3687889277935028,-0.2822367548942566
1782952407629895700,1.440895751953125,0.03234624117612839,-0.36864885687828064,-0.10736507922410965
1782952407639822800,1.45082275390625,0.0302715040743351,-0.24715138971805573,0.08568091690540314
1782952407649750800,1.460750732421875,0.043622199445962906,0.06500783562660217,0.2484264224767685
1782952407659677700,1.470677734375,0.07676594704389572,0.3108263313770294,0.33586713671684265
1782952407669604900,1.48060498046875,0.18504741787910461,0.3660627007484436,0.3694506585597992
1782952407679531800,1.49053173828125,0.21939122676849365,0.2711787521839142,0.34097424149513245
1782952407689459700,1.500459716796875,0.23750285804271698,0.1740546077489853,0.28929799795150757
1782952407699387000,1.510386962890625,0.24728618562221527,0.08819389343261719,0.2396717518568039
1782952407709313500,1.5203134765625,0.20259594917297363,0.03904445841908455,0.2488497942686081
1782952407719241700,1.53024169921875,0.20336179435253143,0.00039595598354935646,0.30644503235816956
1782952407729168600,1.540168701171875,0.21768693625926971,0.009959101676940918,0.3852916657924652
1782952407739095800,1.550095703125,0.2387353628873825,0.08283617347478867,0.4193374216556549
1782952407749022700,1.560022705078125,0.2444656938314438,0.21186019480228424,0.34390389919281006
1782952407758950700,1.56995068359375,0.2645287811756134,0.3127315044403076,0.1458575278520584
1782952407768877800,1.5798779296875,0.28814250230789185,0.33082476258277893,-0.15042419731616974
1782952407778804700,1.5898046875,0.3108580708503723,0.2042549103498459,-0.4480794668197632
1782952407788732000,1.59973193359375,0.3124898076057434,-0.0573415532708168,-0.6274415254592896
1782952407798659800,1.609659912109375,0.31728965044021606,-0.339112251996994,-0.6336004734039307
1782952407808586800,1.619586669921875,0.3332483768463135,-0.5318273305892944,-0.4823709726333618
1782952407818513700,1.629513671875,0.2897070646286011,-0.5781729817390442,-0.25373896956443787
1782952407828440600,1.639440673828125,0.21631993353366852,-0.4834991991519928,-0.046799369156360626
1782952407838368500,1.649368408203125,0.1267484724521637,-0.31031718850135803,0.08220245689153671
1782952407848295400,1.65929541015625,0.019299771636724472,-0.08347952365875244,0.14123886823654175
1782952407858222600,1.66922265625,-0.07841186970472336,0.11178038269281387,0.1467915028333664
1782952407868150500,1.679150634765625,-0.10753779858350754,0.21924452483654022,0.1431102156639099
1782952407878077400,1.689077392578125,-0.1838470846414566,0.28779369592666626,0.0854518711566925
1782952407888004600,1.699004638671875,-0.279032438993454,0.29166191816329956,0.015821130946278572
1782952407897931500,1.708931640625,-0.3604101836681366,0.2605687081813812,-0.050330750644207
1782952407907859500,1.718859375,-0.4267362058162689,0.2235020250082016,-0.10286586731672287
1782952407917786600,1.72878662109375,-0.49894747138023376,0.16808262467384338,-0.12444572895765305
1782952407927713300,1.73871337890625,-0.5699089765548706,0.10031422972679138,-0.101174496114254
1782952407937640400,1.748640380859375,-0.6483872532844543,0.023301206529140472,-0.053393393754959106
1782952407947568400,1.758568359375,-0.7296027541160583,-0.03169706463813782,0.041332051157951355
1782952407957495600,1.76849560546875,-0.8067648410797119,-0.06306476891040802,0.1112101674079895
1782952407967422500,1.77842236328125,-0.85825514793396,-0.10268781334161758,0.13493920862674713
1782952407977349600,1.788349609375,-0.798961341381073,-0.15107937157154083,0.15868067741394043
1782952407987277600,1.798277587890625,-0.676805853843689,-0.2267616093158722,0.17338478565216064
1782952407997204500,1.80820458984375,-0.5224196314811707,-0.3187747001647949,0.17827743291854858
1782952408007131600,1.818131591796875,-0.4376040995121002,-0.3841113746166229,0.11927030235528946
1782952408017058600,1.82805859375,-0.41490116715431213,-0.44435393810272217,0.023582516238093376
1782952408026986500,1.837986572265625,-0.385888934135437,-0.5231472849845886,-0.0382520891726017
1782952408036913400,1.847913330078125,-0.35812613368034363,-0.574292778968811,-0.059315357357263565
1782952408046840300,1.85784033203125,-0.337216317653656,-0.5826727151870728,-0.041558198630809784
1782952408056768500,1.8677685546875,-0.34213119745254517,-0.5435224771499634,0.013195390813052654
1782952408066695400,1.8776953125,-0.3769022226333618,-0.44063928723335266,0.09392112493515015
1782952408076622600,1.88762255859375,-0.39891543984413147,-0.2689906060695648,0.20553120970726013
1782952408086549500,1.897549560546875,-0.39626267552375793,-0.07587626576423645,0.34213167428970337
1782952408096477400,1.9074775390625,-0.384944349527359,0.03810206055641174,0.4671778678894043
1782952408106404600,1.917404541015625,-0.35208624601364136,-0.006232648156583309,0.5651348233222961
1782952408116331500,1.92733154296875,-0.3007034659385681,-0.12107079476118088,0.6011712551116943
1782952408126258700,1.9372587890625,-0.2192400097846985,-0.1701802909374237,0.5810537338256836
1782952408136186600,1.9471865234375,-0.1507081836462021,-0.20100510120391846,0.4865061044692993
1782952408146113300,1.95711328125,-0.09602229297161102,-0.21150940656661987,0.3789660632610321
1782952408156040400,1.96704052734375,-0.029470166191458702,-0.20351779460906982,0.26143330335617065
1782952408165967400,1.97696728515625,0.041584569960832596,-0.24367107450962067,0.09849048405885696
1782952408175895600,1.9868955078125,0.12077411264181137,-0.2638988494873047,-0.11020927131175995
1782952408185822500,1.996822509765625,0.17405490577220917,-0.2383599579334259,-0.2913822531700134
1782952408195749600,2.00674951171875,0.1753346025943756,-0.21555209159851074,-0.34686413407325745
1782952408205677600,2.016677490234375,0.1349235326051712,-0.17734505236148834,-0.3268326222896576
1782952408215604500,2.0266044921875,0.09760886430740356,-0.085731141269207,-0.3098124563694
1782952408225531600,2.03653173828125,0.10860399156808853,0.0901314988732338,-0.31256377696990967
1782952408235458600,2.04645849609375,0.14141590893268585,0.23364613950252533,-0.27917665243148804
1782952408245386500,2.056386474609375,0.14211979508399963,0.3204212486743927,-0.17820928990840912
1782952408255313400,2.0663134765625,0.12412814050912857,0.37257707118988037,-0.030497964471578598
1782952408265240300,2.076240234375,0.11553651839494705,0.36629387736320496,0.07954784482717514
1782952408275167500,2.08616748046875,0.11374744772911072,0.2959865629673004,0.10617010295391083
1782952408285095400,2.096095458984375,0.12241443991661072,0.20048481225967407,0.035135071724653244
1782952408295022600,2.106022705078125,0.14876729249954224,0.08579716086387634,-0.1011609137058258
1782952408304949500,2.115949462890625,0.19241571426391602,-0.004810237791389227,-0.23406462371349335
1782952408314876700,2.125876708984375,0.22354459762573242,-0.03571196272969246,-0.33815643191337585
1782952408324804600,2.1358046875,0.23633664846420288,-0.03551363945007324,-0.4139949679374695
1782952408334731500,2.1457314453125,0.2417885959148407,0.03050088882446289,-0.45788854360580444
1782952408344658700,2.15565869140625,0.24973493814468384,0.1201719120144844,-0.4771229326725006
1782952408354586600,2.165586669921875,0.23693254590034485,0.20146381855010986,-0.45854318141937256
1782952408364513300,2.17551318359375,0.22714009881019592,0.25475528836250305,-0.39785560965538025
1782952408374440400,2.1854404296875,0.21527215838432312,0.2709098160266876,-0.29703575372695923
1782952408384367400,2.195367431640625,0.19791767001152039,0.2768169641494751,-0.17082856595516205
1782952408394295600,2.205295654296875,0.18529380857944489,0.2497226595878601,-0.08168155699968338
1782952408404222500,2.215222412109375,0.17930835485458374,0.20705962181091309,-0.008013460785150528
1782952408414149600,2.225149658203125,0.17141003906726837,0.18134525418281555,0.058013688772916794
1782952408424076500,2.23507666015625,0.17083026468753815,0.16368024051189423,0.12909506261348724
1782952408434004500,2.24500439453125,0.16805399954319,0.07456599175930023,0.20775219798088074
1782952408443931600,2.254931640625,0.17109133303165436,-0.04899189621210098,0.28498679399490356
1782952408453858600,2.264858642578125,0.18699556589126587,-0.14311063289642334,0.33347928524017334
1782952408463785500,2.274785400390625,0.2271706759929657,-0.19924980401992798,0.3012329339981079
1782952408473713400,2.28471337890625,0.2801723778247833,-0.18851019442081451,0.17740027606487274
1782952408483640300,2.294640380859375,0.32130542397499084,-0.15018890798091888,-0.05493203178048134
1782952408493567500,2.3045673828125,0.35120126605033875,-0.13135623931884766,-0.2984178364276886
1782952408503495400,2.314495361328125,0.39216068387031555,-0.07067610323429108,-0.43457382917404175
1782952408513422600,2.324422607421875,0.39978697896003723,-0.0019502958748489618,-0.4351018965244293
1782952408523349500,2.334349609375,0.4015084505081177,0.06024463102221489,-0.3590356111526489
1782952408533276700,2.344276611328125,0.4008845090866089,0.14365006983280182,-0.2811029851436615
1782952408543204600,2.35420458984375,0.4163700044155121,0.2192090004682541,-0.2756344676017761
1782952408553131500,2.364131591796875,0.44861721992492676,0.21656933426856995,-0.3839055895805359
1782952408563058700,2.37405859375,0.49251970648765564,0.07638079673051834,-0.51995849609375
1782952408572985300,2.3839853515625,0.5174391865730286,-0.1740332990884781,-0.559633195400238
1782952408582913300,2.393913330078125,0.5243657827377319,-0.3957449197769165,-0.48565831780433655
1782952408592840400,2.40384033203125,0.4956432282924652,-0.626972496509552,-0.38427603244781494
1782952408602767400,2.413767333984375,0.42689213156700134,-0.732550859451294,-0.27841243147850037
1782952408612694500,2.423694580078125,0.3532978594303131,-0.6948287487030029,-0.23253414034843445
1782952408622622500,2.43362255859375,0.2736104726791382,-0.5136687755584717,-0.24854186177253723
1782952408632549600,2.443549560546875,0.17238759994506836,-0.2974897027015686,-0.300865113735199
1782952408642476500,2.4534765625,0.060955870896577835,-0.07603132724761963,-0.3597659766674042
1782952408652403700,2.46340380859375,-0.033580441027879715,0.08459392189979553,-0.35365352034568787
1782952408662331600,2.47333154296875,-0.12006606161594391,0.22554464638233185,-0.27629560232162476
1782952408672258600,2.483258544921875,-0.20869575440883636,0.32261502742767334,-0.19924965500831604
1782952408682185500,2.493185546875,-0.2683638632297516,0.40332531929016113,-0.13483791053295135
1782952408692113400,2.503113525390625,-0.29045727849006653,0.459907203912735,-0.1060187891125679
1782952408702040300,2.513040283203125,-0.31054309010505676,0.5404419898986816,-0.10923029482364655
1782952408711967500,2.522967529296875,-0.3503980040550232,0.6352012753486633,-0.10940609127283096
1782952408721894400,2.532894287109375,-0.3911086618900299,0.7118896842002869,-0.0795467272400856
1782952408731822600,2.542822509765625,-0.4327186048030853,0.7764748930931091,-0.02573709562420845
1782952408741749500,2.55274951171875,-0.4277470111846924,0.8059600591659546,0.045972246676683426
1782952408751676700,2.5626767578125,-0.35876569151878357,0.751708984375,0.13760991394519806
1782952408761603600,2.572603515625,-0.29680296778678894,0.6112922430038452,0.23205040395259857
1782952408771531500,2.582531494140625,-0.2363435924053192,0.42277252674102783,0.3094221353530884
1782952408781458700,2.592458740234375,-0.161326602101326,0.26332056522369385,0.37128761410713196
1782952408791385300,2.60238525390625,-0.08737083524465561,0.16509149968624115,0.4095664620399475
1782952408801312500,2.6123125,-0.04259564355015755,0.10071036964654922,0.40102410316467285
1782952408811240400,2.622240478515625,-0.026299139484763145,0.07555633038282394,0.3845726251602173
1782952408821167400,2.63216748046875,-0.0313333123922348,0.10789988934993744,0.40987691283226013
1782952408831094300,2.64209423828125,-0.023417998105287552,0.13441959023475647,0.4848985970020294
1782952408841022200,2.652022216796875,0.004148382227867842,0.09753719717264175,0.5882177948951721
1782952408850949400,2.661949462890625,0.04928860813379288,0.001340579241514206,0.707003116607666
1782952408860876300,2.671876220703125,0.10420538485050201,-0.14001229405403137,0.7853767275810242
1782952408870803500,2.681803466796875,0.1711329221725464,-0.27320751547813416,0.8250779509544373
1782952408880731400,2.6917314453125,0.2294313907623291,-0.35963135957717896,0.8198115825653076
1782952408890658300,2.701658203125,0.23363502323627472,-0.42920002341270447,0.7588021755218506
1782952408900585500,2.71158544921875,0.20852486789226532,-0.4956965148448944,0.6154264211654663
1782952408910512400,2.721512451171875,0.16712403297424316,-0.5472696423530579,0.4013208746910095
1782952408920440300,2.7314404296875,0.1357559859752655,-0.6085180640220642,0.08689074963331223
1782952408930367200,2.7413671875,0.11961008608341217,-0.741780698299408,-0.2539460361003876
1782952408940294100,2.751294189453125,0.12737266719341278,-0.8095967769622803,-0.4972923696041107
1782952408950221300,2.76122119140625,0.11222340911626816,-0.7033732533454895,-0.48934534192085266
1782952408960149200,2.771149169921875,0.060605488717556,-0.5356712937355042,-0.27921128273010254
1782952408970076400,2.781076416015625,0.006346725858747959,-0.41383761167526245,-0.021459776908159256
1782952408980003300,2.79100341796875,-0.0051559992134571075,-0.25718405842781067,0.1903803050518036
1782952408989930500,2.800930419921875,-0.053096264600753784,0.020832698792219162,0.2871449887752533
1782952408999858400,2.8108583984375,-0.09248654544353485,0.31230849027633667,0.3204272985458374
1782952409009785300,2.820785400390625,-0.14421911537647247,0.538913905620575,0.27421683073043823
1782952409019712500,2.83071240234375,-0.15785209834575653,0.7031659483909607,0.19326339662075043
1782952409029640400,2.840640380859375,-0.15179510414600372,0.7709566354751587,0.09549097716808319
1782952409039567400,2.8505673828125,-0.14072221517562866,0.727735698223114,-0.03461083397269249
1782952409049494300,2.860494384765625,-0.1286858320236206,0.5885685682296753,-0.1885850578546524
1782952409059421200,2.870421142578125,-0.10876911133527756,0.4487185478210449,-0.3380877375602722
1782952409069349400,2.880349365234375,-0.07239192724227905,0.3343179225921631,-0.46895480155944824
1782952409079276300,2.8902763671875,-0.037282947450876236,0.2316431999206543,-0.5792698264122009
1782952409089203500,2.900203369140625,-0.00813060998916626,0.15759029984474182,-0.6419492959976196
1782952409099130400,2.91013037109375,-0.0026218609418720007,0.08723944425582886,-0.645950198173523
1782952409109058300,2.920058349609375,-0.016139760613441467,0.03218073025345802,-0.5855634808540344
1782952409118985500,2.9299853515625,-0.03277972713112831,-0.00035084690898656845,-0.5134402513504028
1782952409128912400,2.939912353515625,-0.05513473600149155,0.030329087749123573,-0.4990916848182678
1782952409138839300,2.94983935546875,-0.09859859198331833,0.06904133409261703,-0.5215376019477844
1782952409148767200,2.959767333984375,-0.1544632762670517,0.20871169865131378,-0.5374082922935486
1782952409158694100,2.969694091796875,-0.20624898374080658,0.31667518615722656,-0.5198202729225159
1782952409168621300,2.979621337890625,-0.22927457094192505,0.38811254501342773,-0.4356597065925598
1782952409178549200,2.98954931640625,-0.21196483075618744,0.3841739892959595,-0.2783885896205902
1782952409188476400,2.999476318359375,-0.14559650421142578,0.29886746406555176,-0.060123465955257416
1782952409198403300,3.0094033203125,-0.042239751666784286,0.149713397026062,0.17756366729736328
1782952409208330500,3.01933056640625,0.07040946185588837,-0.043851472437381744,0.3947155773639679
1782952409218258400,3.029258544921875,0.15785570442676544,-0.184196338057518,0.5142978429794312
1782952409228185300,3.039185302734375,0.2173326015472412,-0.23585325479507446,0.4901956617832184
1782952409238112500,3.049112548828125,0.26318103075027466,-0.19946621358394623,0.32449936866760254
1782952409248039200,3.0590390625,0.3031608760356903,-0.0846327617764473,0.04617081582546234
1782952409257967400,3.06896728515625,0.35180938243865967,-0.01624598167836666,-0.26324987411499023
1782952409267894300,3.078894287109375,0.4140351116657257,0.03429597616195679,-0.47140729427337646
1782952409277821200,3.0888212890625,0.4779389798641205,0.02455812692642212,-0.5043668150901794
1782952409287748400,3.098748291015625,0.5247843861579895,-0.07473472505807877,-0.4272134304046631
1782952409297676300,3.10867626953125,0.560097336769104,-0.12403889000415802,-0.30724549293518066
1782952409307603500,3.118603515625,0.582695722579956,-0.1056532934308052,-0.20024831593036652
1782952409317530400,3.1285302734375,0.5875301957130432,-0.05740479752421379,-0.12430507689714432
1782952409327457500,3.13845751953125,0.5671956539154053,0.005006290040910244,-0.0665668249130249
1782952409337385500,3.148385498046875,0.5212484002113342,0.03380943834781647,-0.03466055169701576
1782952409347312400,3.1583125,0.4583843946456909,0.0317639522254467,-0.026539504528045654
1782952409357239300,3.1682392578125,0.3859483003616333,0.011221660301089287,-0.04659630358219147
1782952409367167200,3.178167236328125,0.3068731725215912,0.008955048397183418,-0.09498953819274902
1782952409377094100,3.18809423828125,0.21344496309757233,0.028679748997092247,-0.14066781103610992
1782952409387021300,3.198021240234375,0.11243761330842972,0.07851319015026093,-0.16055400669574738
1782952409396948200,3.2079482421875,0.009571153670549393,0.15976731479167938,-0.17008359730243683
1782952409406876400,3.21787646484375,-0.08266241103410721,0.2533479630947113,-0.17901259660720825
1782952409416803300,3.22780322265625,-0.15720856189727783,0.30828261375427246,-0.17163990437984467
1782952409426730500,3.23773046875,-0.22738133370876312,0.32054972648620605,-0.1445908397436142
1782952409436657400,3.247657470703125,-0.28961142897605896,0.30404773354530334,-0.09747686237096786
1782952409446585300,3.25758544921875,-0.3380591869354248,0.25708189606666565,-0.04411310702562332
1782952409456512500,3.267512451171875,-0.3675369322299957,0.17872877418994904,-0.0013866840163245797
1782952409466439200,3.277439208984375,-0.3758421540260315,0.07873259484767914,0.01582469418644905
1782952409476366300,3.287366455078125,-0.37209615111351013,-0.0069458214566111565,0.03782773017883301
1782952409486294300,3.297294189453125,-0.3625282347202301,-0.06498371064662933,0.0761093720793724
1782952409496221200,3.30722119140625,-0.34049350023269653,-0.09463614970445633,0.131682351231575
1782952409506148400,3.3171484375,-0.3127896785736084,-0.09258215874433517,0.18825505673885345
1782952409516076300,3.327076171875,-0.27007389068603516,-0.07451181858778,0.2484544813632965
1782952409526003500,3.33700341796875,-0.2209475338459015,-0.026426000520586967,0.3284160792827606
1782952409535930400,3.346930419921875,-0.17195522785186768,0.0015241410583257675,0.41179725527763367
1782952409545857500,3.356857421875,-0.142856165766716,-0.002460460178554058,0.4653860926628113
1782952409555785500,3.366785400390625,-0.12952730059623718,-0.013130148872733116,0.4731556177139282
1782952409565712400,3.37671240234375,-0.10535915195941925,-0.05399251729249954,0.4177589416503906
1782952409575639300,3.386639404296875,-0.07929399609565735,-0.12285733968019485,0.3392724096775055
1782952409585566200,3.396566162109375,-0.04461219161748886,-0.22850839793682098,0.28892096877098083
1782952409595494100,3.406494140625,-0.01962721347808838,-0.3405105769634247,0.2823152542114258
1782952409605421300,3.41642138671875,0.0003891089581884444,-0.4294494688510895,0.2878235876560211
1782952409615348200,3.42634814453125,0.032089781016111374,-0.49605754017829895,0.2760505676269531
1782952409625275400,3.436275390625,0.0582297258079052,-0.5903779864311218,0.25331005454063416
1782952409635203300,3.446203369140625,0.06458322703838348,-0.6546900868415833,0.24575626850128174
1782952409645130500,3.456130615234375,0.06433471292257309,-0.6371557116508484,0.26832062005996704
1782952409655057400,3.466057373046875,0.05178163945674896,-0.5487712621688843,0.3028428852558136
1782952409664984300,3.475984375,0.028212174773216248,-0.42799967527389526,0.316824734210968
1782952409674912500,3.48591259765625,0.008871234022080898,-0.313883513212204,0.28766682744026184
1782952409684839200,3.495839111328125,-0.008650058880448341,-0.2563587427139282,0.1961470991373062
1782952409694766300,3.505766357421875,-0.008897732943296432,-0.23996751010417938,0.12454640865325928
1782952409704694300,3.5156943359375,-0.016524896025657654,-0.24624571204185486,0.035442937165498734
1782952409714621200,3.52562109375,-0.0015715118497610092,-0.22883982956409454,-0.06553400307893753
1782952409724548400,3.53554833984375,0.011226976290345192,-0.21206237375736237,-0.17582407593727112
1782952409734475300,3.545475341796875,0.033265963196754456,-0.2163284868001938,-0.30495914816856384
1782952409744403500,3.555403564453125,0.05873909965157509,-0.21469011902809143,-0.42564868927001953
1782952409754330400,3.565330322265625,0.07532872259616852,-0.15119530260562897,-0.493345707654953
1782952409764257500,3.575257568359375,0.0738394483923912,-0.051954351365566254,-0.46318137645721436
1782952409774184200,3.58518408203125,0.06604224443435669,0.041775867342948914,-0.3412211239337921
1782952409784112400,3.5951123046875,0.053782425820827484,0.12540845572948456,-0.1527201384305954
1782952409794039300,3.605039306640625,0.0631714016199112,0.2362593412399292,0.04975040629506111
1782952409803966200,3.61496630859375,0.0631280392408371,0.3348698318004608,0.22455912828445435
1782952409813893400,3.624893310546875,0.02348608523607254,0.39129823446273804,0.3235946297645569
1782952409823821300,3.6348212890625,-0.032102786004543304,0.45098891854286194,0.35525989532470703
1782952409833748700,3.644748779296875,-0.08904702961444855,0.5291558504104614,0.3296336233615875
1782952409843676000,3.654676025390625,-0.14618603885173798,0.6057167649269104,0.26210451126098633
1782952409853603800,3.664603759765625,-0.19733896851539612,0.6432985067367554,0.11982273310422897
1782952409863530800,3.67453076171875,-0.2332296073436737,0.595474362373352,-0.12295548617839813
1782952409873458000,3.6844580078125,-0.23741209506988525,0.4831201434135437,-0.4387701749801636
1782952409883384800,3.694384765625,-0.2100970298051834,0.3038093149662018,-0.7108240127563477
1782952409893313000,3.70431298828125,-0.16888993978500366,0.08195812255144119,-0.8365893959999084
1782952409903239700,3.71423974609375,-0.12041720002889633,-0.13686317205429077,-0.774234414100647
1782952409913166800,3.724166748046875,-0.07478846609592438,-0.2954586446285248,-0.5397659540176392
1782952409923093800,3.73409375,-0.03641466796398163,-0.35148221254348755,-0.22679443657398224
1782952409933021700,3.744021728515625,-0.000623379077296704,-0.349469929933548,0.07548579573631287
1782952409942948900,3.753948974609375,0.03153491020202637,-0.28358274698257446,0.2959551215171814
1782952409952875800,3.763875732421875,0.07497133314609528,-0.12876282632350922,0.41293951869010925
1782952409962803000,3.773802978515625,0.09961192309856415,0.06969817727804184,0.4509522020816803
1782952409972731000,3.78373095703125,0.10811486095190048,0.24501992762088776,0.42584124207496643
1782952409982657800,3.79365771484375,0.14833733439445496,0.40001335740089417,0.3687829077243805
1782952409992585000,3.8035849609375,0.20181414484977722,0.5132206082344055,0.28265735507011414
1782952410002511600,3.81351171875,0.25050219893455505,0.5284863114356995,0.1888793706893921
1782952410012439800,3.823439697265625,0.28857049345970154,0.41332748532295227,0.0847092866897583
1782952410022366700,3.83336669921875,0.34202542901039124,0.21509335935115814,0.013021450489759445
1782952410032294000,3.8432939453125,0.36066198348999023,-0.08908995985984802,0.003779748687520623
1782952410042220800,3.853220703125,0.35316887497901917,-0.4500824213027954,0.02583421766757965
1782952410052148700,3.863148681640625,0.35758599638938904,-0.7014336585998535,0.002965120831504464
1782952410062076000,3.873075927734375,0.3888759911060333,-0.7701166868209839,-0.15507982671260834
1782952410072002800,3.8830029296875,0.4254603683948517,-0.647942841053009,-0.39943021535873413
1782952410081930800,3.8929306640625,0.4317696690559387,-0.41721871495246887,-0.591042697429657
1782952410091858000,3.90285791015625,0.40653353929519653,-0.17795288562774658,-0.6708632111549377
1782952410101784800,3.912784912109375,0.3521306812763214,-0.018476717174053192,-0.6033011674880981
1782952410111711700,3.922711669921875,0.27086004614830017,0.0005220081657171249,-0.3722221255302429
1782952410121639700,3.9326396484375,0.246547669172287,-0.03979058563709259,-0.10966692119836807
1782952410131566800,3.94256689453125,0.2240293025970459,-0.14090442657470703,0.011447521857917309
1782952410141493800,3.95249365234375,0.186276376247406,-0.2501177191734314,-0.006026642397046089
1782952410151421000,3.9624208984375,0.11629968881607056,-0.3956863582134247,-0.08626555651426315
1782952410161348900,3.972348876953125,0.03880015015602112,-0.5278806090354919,-0.17118999361991882
1782952410171275800,3.98227587890625,-0.02395670861005783,-0.6060038805007935,-0.2043870985507965
1782952410181203000,3.992202880859375,-0.062158599495887756,-0.609603226184845,-0.19186079502105713
1782952410191131000,4.002130859375,-0.11036793887615204,-0.5718526244163513,-0.16857145726680756
1782952410201057800,4.012057861328125,-0.17453552782535553,-0.48978015780448914,-0.13385064899921417
1782952410210985000,4.02198486328125,-0.21684862673282623,-0.36861538887023926,-0.13053181767463684
1782952410220911600,4.03191162109375,-0.2289881557226181,-0.22245343029499054,-0.16033928096294403
1782952410230838800,4.0418388671875,-0.23927462100982666,-0.08056074380874634,-0.2193269580602646
1782952410240766700,4.0517666015625,-0.2459840476512909,0.014679020270705223,-0.25213727355003357
1782952410250694000,4.06169384765625,-0.2526451647281647,0.10704250633716583,-0.21124470233917236
1782952410260620800,4.071620849609375,-0.25989270210266113,0.2038566619157791,-0.07988534867763519
1782952410270548700,4.081548828125,-0.28193965554237366,0.2925758957862854,0.11625353246927261
1782952410280476000,4.091475830078125,-0.3009355366230011,0.3497316837310791,0.3370760679244995
1782952410290402800,4.10140283203125,-0.3121998906135559,0.37658512592315674,0.5533719062805176
1782952410300330000,4.111330078125,-0.33041059970855713,0.40991634130477905,0.7437996864318848
1782952410310258000,4.1212578125,-0.3258531391620636,0.4369159936904907,0.8751755356788635
1782952410320184800,4.131184814453125,-0.3113422989845276,0.41574761271476746,0.9089173078536987
1782952410330111700,4.14111181640625,-0.2844800651073456,0.37645959854125977,0.8327922224998474
1782952410340038700,4.15103857421875,-0.2559828460216522,0.37415531277656555,0.7162824273109436
1782952410349966800,4.160966796875,-0.25569310784339905,0.36113083362579346,0.6262233853340149
1782952410359893800,4.170893798828125,-0.2649841010570526,0.3556179702281952,0.5782982707023621
1782952410369821000,4.180821044921875,-0.27563780546188354,0.3523683547973633,0.5585501194000244
1782952410379747800,4.190747802734375,-0.2629793584346771,0.33177611231803894,0.548719048500061
1782952410389675800,4.20067578125,-0.23478102684020996,0.2815113365650177,0.5404694080352783
1782952410399603000,4.21060302734375,-0.20151448249816895,0.24813921749591827,0.5484164953231812
1782952410409529900,4.22052978515625,-0.16225603222846985,0.21539218723773956,0.5785166025161743
1782952410419457800,4.230457763671875,-0.12764497101306915,0.1911402940750122,0.6156601905822754
1782952410429385000,4.240385009765625,-0.08518434315919876,0.16973060369491577,0.6399916410446167
1782952410439311600,4.2503115234375,-0.039296213537454605,0.13726627826690674,0.658297598361969
1782952410449238800,4.26023876953125,-0.002039919141680002,0.08689471334218979,0.635438084602356
1782952410459166700,4.270166748046875,0.025721050798892975,0.0415148064494133,0.5603283047676086
1782952410469094000,4.280093994140625,0.04801863431930542,-0.022192802280187607,0.3647971451282501
1782952410479020800,4.290020751953125,0.08780541270971298,-0.11867102235555649,0.15691789984703064
1782952410488948000,4.299947998046875,0.13115236163139343,-0.23403491079807281,-0.001852837041951716
1782952410498876000,4.3098759765625,0.16654908657073975,-0.3997873067855835,-0.12162574380636215
1782952410508802800,4.319802734375,0.19293515384197235,-0.6434151530265808,-0.22628425061702728
1782952410518730000,4.32972998046875,0.2325689047574997,-0.7954887747764587,-0.2850307524204254
1782952410528657000,4.339656982421875,0.2808922231197357,-0.7226015329360962,-0.25092417001724243
1782952410538584800,4.349584716796875,0.2976107895374298,-0.5051734447479248,-0.1286691427230835
1782952410548511700,4.35951171875,0.2776661217212677,-0.2661113440990448,0.004887591581791639
1782952410558438700,4.369438720703125,0.2368423342704773,-0.06784897297620773,0.099458709359169
1782952410568366800,4.379366943359375,0.20209793746471405,0.12155264616012573,0.12316190451383591
1782952410578293800,4.389293701171875,0.19354751706123352,0.2747707962989807,0.06898988038301468
1782952410588221000,4.399220947265625,0.17450618743896484,0.37738266587257385,-0.04225675016641617
1782952410598147800,4.40914794921875,0.1472914218902588,0.38489827513694763,-0.1964949071407318
1782952410608075800,4.41907568359375,0.11989308893680573,0.28476688265800476,-0.39049795269966125
1782952410618003000,4.4290029296875,0.0910540297627449,0.16132791340351105,-0.5953565835952759
1782952410627929900,4.438929931640625,0.05548245459794998,0.06224926933646202,-0.7742879986763
1782952410637857000,4.44885693359375,0.03016182966530323,-0.0024373563937842846,-0.887024462223053
1782952410647785000,4.458784912109375,0.01722898706793785,-0.0011300104670226574,-0.9095081686973572
1782952410657711900,4.4687119140625,0.018201615661382675,0.034987930208444595,-0.8547993302345276
1782952410667638800,4.478638671875,0.01137353666126728,0.10991570353507996,-0.7347424030303955
1782952410677565700,4.488565673828125,-0.00012274942127987742,0.19048288464546204,-0.5517639517784119
1782952410687494000,4.498493896484375,-0.02587524987757206,0.255906343460083,-0.36839309334754944
1782952410697420800,4.5084208984375,-0.042731285095214844,0.31286346912384033,-0.2506829798221588
1782952410707348000,4.518347900390625,-0.05040678381919861,0.3750014007091522,-0.2235032618045807
1782952410717275000,4.52827490234375,-0.04395540803670883,0.3559452295303345,-0.2736639678478241
1782952410727202800,4.538202880859375,-0.04635518416762352,0.24150067567825317,-0.3493965268135071
1782952410737130000,4.5481298828125,-0.04494708031415939,0.11332491040229797,-0.35556313395500183
1782952410747057000,4.558056884765625,-0.042241308838129044,-0.017137227579951286,-0.2364194244146347
1782952410756984800,4.56798486328125,-0.02918529324233532,-0.09461251646280289,-0.012230710126459599
1782952410766911700,4.577911865234375,-0.002248218283057213,-0.11030784994363785,0.23984333872795105
1782952410776838700,4.587838623046875,0.0332166962325573,-0.09004978835582733,0.40058964490890503
1782952410786765800,4.597765869140625,0.07886141538619995,-0.04070460796356201,0.4602314233779907
1782952410796693800,4.60769384765625,0.13835492730140686,0.05415777117013931,0.4380582571029663
1782952410806621000,4.617620849609375,0.20442582666873932,0.12071282416582108,0.3644234538078308
1782952410816547800,4.6275478515625,0.26464003324508667,0.0927257314324379,0.26985111832618713
1782952410826475000,4.63747509765625,0.3112298846244812,0.025324851274490356,0.18720124661922455
1782952410836402000,4.64740185546875,0.3466174602508545,-0.07170875370502472,0.0599822998046875
1782952410846329000,4.6573291015625,0.3856196999549866,-0.2571276128292084,-0.17862015962600708
1782952410856255700,4.667255859375,0.42045146226882935,-0.46100273728370667,-0.47867345809936523
1782952410866183000,4.677182861328125,0.4577868580818176,-0.5659397840499878,-0.6828368306159973
1782952410876110800,4.68711083984375,0.48960453271865845,-0.5510870218276978,-0.7128363251686096
1782952410886037800,4.697037841796875,0.5198838114738464,-0.42992332577705383,-0.5749216079711914
1782952410895965000,4.70696484375,0.49734336137771606,-0.2349804788827896,-0.36167290806770325
1782952410905892900,4.716892822265625,0.426783949136734,-0.03837208449840546,-0.16068145632743835
1782952410915819800,4.72681982421875,0.3298553228378296,0.12053676694631577,-0.020248621702194214
1782952410925747000,4.736746826171875,0.2089981585741043,0.21022137999534607,0.015670230612158775
1782952410935673900,4.746673828125,0.07774803787469864,0.2550365626811981,-0.04711029306054115
1782952410945602000,4.75660205078125,-0.04969167709350586,0.2739114463329315,-0.16066163778305054
1782952410955529000,4.766529052734375,-0.16359615325927734,0.27350330352783203,-0.2573651969432831
1782952410965456000,4.776455810546875,-0.2568565905094147,0.26750242710113525,-0.29505690932273865
1782952410975382800,4.7863828125,-0.32533684372901917,0.26785728335380554,-0.28677400946617126
1782952410985310700,4.796310791015625,-0.3623585104942322,0.2678127884864807,-0.2627123296260834
1782952410995238000,4.80623779296875,-0.36995601654052734,0.2575538754463196,-0.22003942728042603
1782952411005164800,4.816164794921875,-0.36784011125564575,0.23864011466503143,-0.19700627028942108
1782952411015092000,4.826092041015625,-0.3330538272857666,0.2305460125207901,-0.15593215823173523
1782952411025020000,4.83602001953125,-0.3026788830757141,0.20628567039966583,-0.12332440167665482
1782952411034946800,4.84594677734375,-0.28236716985702515,0.1802707463502884,-0.08691037446260452
1782952411044874000,4.8558740234375,-0.2606176733970642,0.1778445988893509,-0.05428744852542877
1782952411054801000,4.86580078125,-0.2487357258796692,0.14928460121154785,-0.03858758136630058
1782952411064729000,4.87572900390625,-0.2378029078245163,0.04204415902495384,-0.025923719629645348
1782952411074655700,4.88565576171875,-0.21767038106918335,-0.12319229543209076,0.01119875069707632
1782952411084583000,4.8955830078125,-0.1937789022922516,-0.27871397137641907,0.09196390211582184
1782952411094510800,4.9055107421875,-0.1766088753938675,-0.38504263758659363,0.18860629200935364
1782952411104437800,4.915437744140625,-0.1638486087322235,-0.4443751871585846,0.266580194234848
1782952411114365000,4.925364990234375,-0.15905646979808807,-0.4792664349079132,0.3015843331813812
1782952411124291800,4.935291748046875,-0.15277060866355896,-0.4648773968219757,0.29730090498924255
1782952411134219800,4.9452197265625,-0.1491369605064392,-0.3992783725261688,0.27312609553337097
1782952411144147000,4.95514697265625,-0.14859740436077118,-0.2970425486564636,0.2759900689125061
1782952411154073900,4.965073974609375,-0.12391935288906097,-0.1532103568315506,0.29564037919044495
1782952411164001000,4.9750009765625,-0.08908174186944962,-0.0632927194237709,0.3311624228954315
1782952411173929000,4.984928955078125,-0.04849254712462425,0.02435029111802578,0.42551496624946594
1782952411183855900,4.99485595703125,0.012530325911939144,0.17122255265712738,0.5044713020324707
1782952411193782800,5.00478271484375,0.05627625435590744,0.2669336795806885,0.5125212669372559
1782952411203710000,5.0147099609375,0.0785253643989563,0.25181543827056885,0.486088365316391
1782952411213638000,5.024637939453125,0.10109414905309677,0.151373952627182,0.4855409264564514
1782952411223564800,5.034564697265625,0.11425016820430756,-0.038069479167461395,0.5049740076065063
1782952411233492000,5.044491943359375,0.1428823471069336,-0.2894347310066223,0.465534508228302
1782952411243420000,5.054419921875,0.1877709925174713,-0.5270441174507141,0.40279337763786316
1782952411253346800,5.064346923828125,0.21382704377174377,-0.7412195205688477,0.22069811820983887
1782952411263274000,5.07427392578125,0.25290176272392273,-0.8094923496246338,0.0243523009121418
1782952411273201000,5.084200927734375,0.2965817153453827,-0.7552436590194702,-0.11185084283351898
1782952411283129000,5.094129150390625,0.29445573687553406,-0.6331143379211426,-0.19499152898788452
1782952411293055700,5.1040556640625,0.25208520889282227,-0.4585840702056885,-0.2133549302816391
1782952411302983000,5.11398291015625,0.1969577968120575,-0.226952463388443,-0.20040185749530792
1782952411312909800,5.123909912109375,0.1354323774576187,0.017629452049732208,-0.1578906774520874
1782952411322837800,5.133837646484375,0.07062248140573502,0.22384867072105408,-0.10550975799560547
1782952411332765000,5.143764892578125,0.0033112196251749992,0.3638525903224945,-0.04294101893901825
1782952411342691800,5.15369189453125,-0.06042594835162163,0.45916205644607544,0.01277737133204937
1782952411352619000,5.163618896484375,-0.12718762457370758,0.4904378354549408,0.04166025295853615
1782952411362547000,5.173546875,-0.18947550654411316,0.482651025056839,0.03257088363170624
1782952411372473900,5.183473876953125,-0.2352873682975769,0.4705701768398285,-0.03103066049516201
1782952411382401000,5.193401123046875,-0.2578004002571106,0.47538864612579346,-0.15795426070690155
1782952411392327700,5.20332763671875,-0.2613930404186249,0.4975682199001312,-0.3226725161075592
1782952411402256000,5.213255859375,-0.24480022490024567,0.502765953540802,-0.47651082277297974
1782952411412182800,5.223182861328125,-0.22173148393630981,0.4722694456577301,-0.6005284190177917
1782952411422110000,5.23310986328125,-0.19683997333049774,0.364458829164505,-0.6985061168670654
1782952411432036900,5.243036865234375,-0.1703934520483017,0.20892544090747833,-0.7553572654724121
1782952411441964800,5.25296484375,-0.12981407344341278,0.05577024817466736,-0.7095309495925903
1782952411451892000,5.26289208984375,-0.08106349408626556,-0.0740421712398529,-0.5610392093658447
1782952411461819000,5.27281884765625,-0.025662288069725037,-0.17226195335388184,-0.3441700339317322
1782952411471746800,5.282746826171875,0.028387634083628654,-0.23089396953582764,-0.13659986853599548
1782952411481674000,5.292674072265625,0.06362950801849365,-0.22202084958553314,0.02993851900100708
1782952411491601000,5.302600830078125,0.09359042346477509,-0.11709199100732803,0.15627628564834595
1782952411501526800,5.31252685546875,0.12007716298103333,0.02645292691886425,0.21435129642486572
1782952411511454000,5.322453857421875,0.1496978998184204,0.15694981813430786,0.22915974259376526
1782952411521380900,5.332380859375,0.1873219758272171,0.264457643032074,0.21224947273731232
1782952411531308000,5.34230810546875,0.22869813442230225,0.35275429487228394,0.193267822265625
1782952411541236000,5.352236083984375,0.25628477334976196,0.39710232615470886,0.1416376531124115
1782952411551163000,5.362162841796875,0.26964566111564636,0.402531236410141,0.046175241470336914
1782952411561090000,5.372090087890625,0.2826418876647949,0.3524014949798584,-0.06981580704450607
1782952411571016700,5.3820166015625,0.29246294498443604,0.1618618369102478,-0.21616539359092712
1782952411580945000,5.39194482421875,0.31511151790618896,-0.15306654572486877,-0.3509570062160492
1782952411590871800,5.401871826171875,0.34320351481437683,-0.4852135181427002,-0.41860440373420715
1782952411600798700,5.411798828125,0.3655828535556793,-0.7410631775856018,-0.4292280375957489
1782952411610726000,5.421725830078125,0.3284209370613098,-0.9182179570198059,-0.40218302607536316
1782952411620653800,5.43165380859375,0.2918413579463959,-0.9334632158279419,-0.38669222593307495
1782952411630581000,5.4415810546875,0.23287823796272278,-0.8537517786026001,-0.35833799839019775
1782952411640508000,5.4515078125,0.16140884160995483,-0.6568887829780579,-0.33514052629470825
1782952411650435800,5.461435791015625,0.0623723641037941,-0.3855419158935547,-0.3454960584640503
1782952411660363000,5.471363037109375,-0.055587828159332275,-0.08367369323968887,-0.3905881643295288
1782952411670290000,5.4812900390625,-0.16212204098701477,0.19619868695735931,-0.42194798588752747
1782952411680216800,5.491216796875,-0.24912431836128235,0.4204118251800537,-0.4072111248970032
1782952411690144800,5.501144775390625,-0.3169516623020172,0.556431770324707,-0.3381386995315552
1782952411700072000,5.511072021484375,-0.3487356901168823,0.6231903433799744,-0.2629648447036743
1782952411709998800,5.520998779296875,-0.3491359055042267,0.6350866556167603,-0.20256061851978302
1782952411719925800,5.53092578125,-0.33661800622940063,0.6003683805465698,-0.1546466201543808
1782952411729854000,5.54085400390625,-0.30815190076828003,0.5456458926200867,-0.1163366362452507
1782952411739780900,5.55078076171875,-0.26703882217407227,0.4726249873638153,-0.0747859999537468
1782952411749708000,5.5607080078125,-0.23726920783519745,0.38877108693122864,-0.028085339814424515
1782952411759635000,5.570635009765625,-0.21692505478858948,0.3135423958301544,0.013427482917904854
1782952411769563000,5.58056298828125,-0.19865471124649048,0.2555556297302246,0.044088657945394516
1782952411779490000,5.590489990234375,-0.1879570633172989,0.2060738503932953,0.06246952712535858
1782952411789416700,5.600416748046875,-0.18453364074230194,0.18682247400283813,0.07438171654939651
1782952411799343900,5.61034375,-0.18950417637825012,0.19350913166999817,0.09137427806854248
1782952411809271800,5.620271728515625,-0.19194690883159637,0.20544511079788208,0.11308629810810089
1782952411819198700,5.63019873046875,-0.20073480904102325,0.19617171585559845,0.14023669064044952
1782952411829126000,5.6401259765625,-0.19743670523166656,0.1604551523923874,0.17150908708572388
1782952411839054300,5.650054443359375,-0.18239304423332214,0.11608529835939407,0.2031298726797104
1782952411848983300,5.6599833984375,-0.15006022155284882,0.04151727259159088,0.23262111842632294
1782952411858910200,5.66991015625,-0.11390727758407593,-0.06408078968524933,0.25820398330688477
1782952411868837400,5.67983740234375,-0.05372987315058708,-0.13997311890125275,0.3027627468109131
1782952411878764300,5.689764404296875,0.0127711221575737,-0.2038000375032425,0.36189743876457214
1782952411888692500,5.6996923828125,0.0840350091457367,-0.2898652255535126,0.4231838285923004
1782952411898619400,5.709619384765625,0.17246100306510925,-0.38687512278556824,0.4874293804168701
1782952411908546600,5.719546630859375,0.23677146434783936,-0.46644723415374756,0.5557643175125122
1782952411918473500,5.729473388671875,0.26376873254776,-0.4829590916633606,0.5967985391616821
1782952411928401400,5.7394013671875,0.2510204017162323,-0.4697631597518921,0.5739759206771851
1782952411938328600,5.74932861328125,0.20982183516025543,-0.42454883456230164,0.4806762933731079
1782952411948255200,5.759255126953125,0.1529487818479538,-0.373139888048172,0.37215641140937805
1782952411958183200,5.76918310546875,0.06600269675254822,-0.3646337687969208,0.2339996099472046
1782952411968110300,5.7791103515625,-0.015237610787153244,-0.36981016397476196,0.13165536522865295
1782952411978037200,5.789037353515625,-0.07596301287412643,-0.3829592764377594,0.09193244576454163
1782952411987964400,5.79896435546875,-0.11341691017150879,-0.3894612193107605,0.077821746468544
1782952411997892400,5.808892333984375,-0.1250418722629547,-0.37561917304992676,0.04194284602999687
1782952412007819500,5.818819580078125,-0.11992793530225754,-0.3080456852912903,-0.03863498568534851
1782952412017746400,5.828746337890625,-0.10183974355459213,-0.1786285638809204,-0.13289305567741394
1782952412027673600,5.838673583984375,-0.07068689167499542,-0.010318253189325333,-0.21171042323112488
1782952412037601500,5.8486015625,-0.039391014724969864,0.1661611795425415,-0.23501574993133545
1782952412047528400,5.858528564453125,-0.006753492634743452,0.2723935842514038,-0.2086038887500763
1782952412057455400,5.868455322265625,0.014409849420189857,0.30483779311180115,-0.13985677063465118
1782952412067382300,5.87838232421875,0.028912808746099472,0.3054518699645996,-0.035063985735177994
1782952412077310200,5.888310302734375,0.03613823279738426,0.30614376068115234,0.06686291098594666
1782952412087237400,5.8982373046875,0.047634340822696686,0.2726537585258484,0.1284065991640091
1782952412097164300,5.908164306640625,0.03125244006514549,0.23379451036453247,0.13587836921215057
1782952412107091500,5.918091552734375,0.024168919771909714,0.21156029403209686,0.09980088472366333
1782952412117019400,5.928019287109375,0.00571720814332366,0.19310857355594635,0.02969956398010254
1782952412126946600,5.937946533203125,-0.0020794642623513937,0.17840659618377686,-0.05854414775967598
1782952412136873500,5.94787353515625,0.0010923604713752866,0.18271824717521667,-0.16441358625888824
1782952412146801400,5.957801513671875,0.0007477057515643537,0.20353776216506958,-0.28705883026123047
1782952412156728300,5.967728271484375,-0.005268109031021595,0.20719560980796814,-0.41528818011283875
1782952412166655200,5.9776552734375,-0.03571119159460068,0.1881656050682068,-0.5478610396385193
1782952412176582400,5.98758251953125,-0.0647047609090805,0.1647162139415741,-0.6763857007026672
1782952412186510300,5.99751025390625,-0.06474857032299042,0.0966596007347107,-0.7941257357597351
1782952412196437200,6.007437255859375,-0.04202541708946228,0.0026867659762501717,-0.8773849606513977
1782952412206364400,6.017364501953125,-0.012620256282389164,-0.09514479339122772,-0.894250214099884
1782952412216291300,6.027291259765625,0.025478126481175423,-0.24672259390354156,-0.8362076878547668
1782952412226219500,6.037219482421875,0.058680951595306396,-0.43112874031066895,-0.6915274262428284
1782952412236146400,6.047146484375,0.15111768245697021,-0.5211366415023804,-0.4340894818305969
1782952412246073600,6.057073486328125,0.24174290895462036,-0.46948304772377014,-0.14481309056282043
1782952412256000300,6.067000244140625,0.30552908778190613,-0.3113921880722046,0.125986710190773
1782952412265928200,6.07692822265625,0.35542693734169006,-0.12737692892551422,0.3332985043525696
1782952412275855400,6.08685546875,0.39513149857521057,0.037684738636016846,0.4364269971847534
1782952412285782300,6.0967822265625,0.41002774238586426,0.12897637486457825,0.449393093585968
1782952412295710200,6.106710205078125,0.4303719103336334,0.15483221411705017,0.4178423583507538
1782952412305637400,6.116637451171875,0.44912129640579224,0.14544785022735596,0.38226160407066345
1782952412315564300,6.126564208984375,0.46610745787620544,0.07715321332216263,0.346549928188324
1782952412325491500,6.136491455078125,0.4681834876537323,-0.0611104816198349,0.3390451669692993
1782952412335419400,6.14641943359375,0.48600801825523376,-0.1698358952999115,0.40641382336616516
1782952412345346600,6.1563466796875,0.4928485155105591,-0.22623850405216217,0.5014742612838745
1782952412355273500,6.1662734375,0.48784521222114563,-0.2736395597457886,0.5741643905639648
1782952412365200400,6.176200439453125,0.4785471558570862,-0.2669680416584015,0.6205897331237793
1782952412375128300,6.18612841796875,0.4655298888683319,-0.1628352403640747,0.6284394264221191
1782952412385055200,6.19605517578125,0.4352138042449951,0.021123137325048447,0.5421218276023865
1782952412394982400,6.205982421875,0.3848387897014618,0.235878586769104,0.305937260389328
1782952412404909300,6.215909423828125,0.33217543363571167,0.3721270263195038,-0.07928527891635895
1782952412414837200,6.225837158203125,0.30401676893234253,0.35078978538513184,-0.4509062170982361
1782952412424764400,6.235764404296875,0.2619110345840454,0.2980433404445648,-0.5763846635818481
1782952412434691300,6.24569140625,0.19773897528648376,0.27241384983062744,-0.407082736492157
1782952412444619500,6.25561962890625,0.11938851326704025,0.21721769869327545,-0.15157052874565125
1782952412454546400,6.26554638671875,0.03134414181113243,0.20998695492744446,0.009838340803980827
1782952412464473600,6.2754736328125,-0.051773689687252045,0.25720104575157166,0.02556680515408516
1782952412474400300,6.285400146484375,-0.13775916397571564,0.3337027430534363,-0.0354297012090683
1782952412484328200,6.295328125,-0.2187187820672989,0.4338635504245758,-0.09833793342113495
1782952412494255400,6.30525537109375,-0.2859574556350708,0.516603946685791,-0.1424475908279419
1782952412504182300,6.315182373046875,-0.3223148286342621,0.5659766793251038,-0.16673871874809265
1782952412514109400,6.325109375,-0.34679752588272095,0.5849698185920715,-0.1668095588684082
1782952412524037400,6.335037353515625,-0.36248978972435,0.5760048627853394,-0.17395912110805511
1782952412533964300,6.34496435546875,-0.37724769115448,0.5341708660125732,-0.20493541657924652
1782952412543891500,6.354891357421875,-0.3964345455169678,0.46043452620506287,-0.24995967745780945
1782952412553818400,6.364818359375,-0.41544684767723083,0.3561544716358185,-0.28329500555992126
1782952412563746600,6.37474658203125,-0.4368393123149872,0.22527216374874115,-0.2746533155441284
1782952412573673500,6.384673583984375,-0.4616735577583313,0.08754146844148636,-0.2145441621541977
1782952412583600400,6.394600341796875,-0.49219846725463867,-0.04895474761724472,-0.11222774535417557
1782952412593528300,6.4045283203125,-0.5297722220420837,-0.15126992762088776,0.012988230213522911
1782952412603455200,6.414455322265625,-0.5650590062141418,-0.1960202008485794,0.1326553374528885
1782952412613382400,6.42438232421875,-0.5769170522689819,-0.20244881510734558,0.2535921335220337
1782952412623309300,6.434309326171875,-0.577306866645813,-0.18022722005844116,0.37481245398521423
1782952412633237200,6.4442373046875,-0.5690627694129944,-0.15164537727832794,0.4874199628829956
1782952412643164400,6.454164306640625,-0.5659220814704895,-0.1057114377617836,0.5969393849372864
1782952412653091300,6.46409130859375,-0.5631750822067261,-0.06955556571483612,0.6878051161766052
1782952412663018500,6.4740185546875,-0.5472750067710876,-0.07299017906188965,0.741777777671814
1782952412672946400,6.483946533203125,-0.503899872303009,-0.08346465975046158,0.7615211009979248
1782952412682873600,6.49387353515625,-0.44421738386154175,-0.11369726061820984,0.7626350522041321
1782952412692800300,6.50380029296875,-0.38338491320610046,-0.18418394029140472,0.731256365776062
1782952412702727400,6.5137275390625,-0.322948694229126,-0.28335869312286377,0.6926682591438293
1782952412712655400,6.5236552734375,-0.2466946691274643,-0.3651944398880005,0.6941614747047424
1782952412722582300,6.533582275390625,-0.1600664258003235,-0.4518588185310364,0.7364193797111511
1782952412732509400,6.543509521484375,-0.09576228260993958,-0.523905336856842,0.7918900847434998
1782952412742436400,6.553436279296875,-0.03551163151860237,-0.5476287603378296,0.7945681214332581
1782952412752364300,6.5633642578125,0.03416385129094124,-0.5322167277336121,0.6945530772209167
1782952412762291500,6.57329150390625,0.09203983843326569,-0.5337914824485779,0.46335479617118835
1782952412772218400,6.58321826171875,0.1392797976732254,-0.5359888672828674,0.24715565145015717
1782952412782146600,6.593146484375,0.16628916561603546,-0.5824329853057861,0.06300070136785507
1782952412792073500,6.603073486328125,0.1865004301071167,-0.6507353782653809,-0.06261900812387466
1782952412802000400,6.61300048828125,0.19725926220417023,-0.6802380681037903,-0.1122659295797348
1782952412811927300,6.62292724609375,0.22826963663101196,-0.6326835751533508,-0.09177876263856888
1782952412821855200,6.632855224609375,0.21792787313461304,-0.5175518989562988,-0.006863141432404518
1782952412831782400,6.642782470703125,0.1847906857728958,-0.38074609637260437,0.11502362042665482
1782952412841708800,6.652708740234375,0.1726991832256317,-0.22966016829013824,0.17596130073070526
1782952412851636000,6.662635986328125,0.15224210917949677,-0.09997487813234329,0.15421712398529053
1782952412861564000,6.67256396484375,0.10522817075252533,-0.0010764403268694878,0.11442111432552338
1782952412871491000,6.682490966796875,0.06299895793199539,0.0690230131149292,0.09716302901506424
1782952412881418000,6.69241796875,0.017652075737714767,0.1209307387471199,0.09652792662382126
1782952412891345200,6.70234521484375,-0.04413912072777748,0.1467791199684143,0.08350373804569244
1782952412901273000,6.712273193359375,-0.0946742445230484,0.16677704453468323,0.048830948770046234
1782952412911200000,6.722199951171875,-0.13385307788848877,0.1905212551355362,0.006833428982645273
1782952412921127200,6.732127197265625,-0.1683972030878067,0.21929749846458435,-0.04676295444369316
1782952412931053800,6.7420537109375,-0.18119582533836365,0.2512668967247009,-0.11819106340408325
1782952412940981800,6.751981689453125,-0.18293681740760803,0.26928457617759705,-0.20571652054786682
1782952412950909000,6.761908935546875,-0.17147935926914215,0.27578696608543396,-0.292195200920105
1782952412960835800,6.7718359375,-0.15795373916625977,0.2911897301673889,-0.35671931505203247
1782952412970764000,6.781763916015625,-0.14775170385837555,0.315685510635376,-0.3942592144012451
1782952412980691000,6.79169091796875,-0.12839704751968384,0.3459048271179199,-0.40073442459106445
1782952412990618000,6.8016181640625,-0.10214681178331375,0.37852829694747925,-0.38929399847984314
1782952413000545000,6.811544921875,-0.06547894328832626,0.41949552297592163,-0.3672933876514435
1782952413010473000,6.821472900390625,-0.03512263298034668,0.44037577509880066,-0.39932534098625183
1782952413020400000,6.831400146484375,0.0032138368114829063,0.40058159828186035,-0.4795839190483093
1782952413030327000,6.8413271484375,0.046628691256046295,0.30956539511680603,-0.5788090229034424
1782952413040254000,6.85125390625,0.05832648277282715,0.16177402436733246,-0.6160933971405029
1782952413050182000,6.861181884765625,0.08500576764345169,-0.021689821034669876,-0.5227006077766418
1782952413060108800,6.87110888671875,0.13712920248508453,-0.2686031758785248,-0.32640016078948975
1782952413070036000,6.881035888671875,0.1841779351234436,-0.4684068262577057,-0.08150386065244675
1782952413079963000,6.890962890625,0.2310149073600769,-0.5570968985557556,0.12877871096134186
1782952413089891000,6.90089111328125,0.26454195380210876,-0.5591930747032166,0.26507875323295593
1782952413099818000,6.91081787109375,0.28192028403282166,-0.5188073515892029,0.3041592240333557
1782952413109745200,6.9207451171875,0.28509557247161865,-0.4465811252593994,0.26862627267837524
1782952413119673000,6.930673095703125,0.297069251537323,-0.35583704710006714,0.19822527468204498
1782952413129600000,6.94060009765625,0.3357013165950775,-0.2625816762447357,0.1274014264345169
1782952413139527200,6.950527099609375,0.40410399436950684,-0.20464399456977844,0.08090009540319443
1782952413149453800,6.960453857421875,0.48654958605766296,-0.15687566995620728,0.045444902032613754
1782952413159381800,6.9703818359375,0.5714174509048462,-0.07565771788358688,0.029668577015399933
1782952413169309000,6.980308837890625,0.6292040348052979,0.04904400557279587,0.030168984085321426
1782952413179235800,6.99023583984375,0.6401498317718506,0.19284439086914062,0.000771908788010478
1782952413189163000,7.0001630859375,0.6132513284683228,0.23905928432941437,-0.07051132619380951
1782952413199091000,7.010091064453125,0.572889506816864,0.19527718424797058,-0.17597661912441254
1782952413209018000,7.02001806640625,0.5118493437767029,0.11512775719165802,-0.2529739439487457
1782952413218945000,7.029945068359375,0.4302259087562561,0.033954765647649765,-0.29257598519325256
1782952413228872000,7.039871826171875,0.31055569648742676,-0.05790458619594574,-0.28397050499916077
1782952413238800100,7.049800048828125,0.17001838982105255,-0.09423645585775375,-0.29049649834632874
1782952413248727000,7.05972705078125,0.036250218749046326,-0.13850857317447662,-0.3113786280155182
1782952413258654000,7.069654052734375,-0.08142577856779099,-0.15501736104488373,-0.3334241807460785
1782952413268582000,7.079581787109375,-0.17447155714035034,-0.10226280242204666,-0.3428051769733429
1782952413278508800,7.0895087890625,-0.22783777117729187,-0.005970310885459185,-0.30312013626098633
1782952413288436000,7.09943603515625,-0.25698789954185486,0.10116706043481827,-0.24207568168640137
1782952413298363000,7.10936279296875,-0.26121050119400024,0.20145657658576965,-0.16964060068130493
1782952413308291000,7.119291015625,-0.25118288397789,0.2778927981853485,-0.10834235697984695
1782952413318218000,7.129218017578125,-0.2294808328151703,0.3366051912307739,-0.06468472629785538
1782952413328145200,7.139145263671875,-0.20194721221923828,0.3625792860984802,-0.0511593334376812
1782952413338072000,7.149072021484375,-0.17561906576156616,0.35633501410484314,-0.052535153925418854
1782952413348000000,7.159,-0.1633075326681137,0.34162211418151855,-0.033660534769296646
1782952413357927200,7.16892724609375,-0.1633959263563156,0.3212765157222748,0.003279211465269327
1782952413367853800,7.178853759765625,-0.17897647619247437,0.295109361410141,0.04511933773756027
1782952413377781000,7.188781005859375,-0.19825446605682373,0.2772682309150696,0.08949465304613113
1782952413387709000,7.198708984375,-0.22209668159484863,0.28982609510421753,0.1291927993297577
1782952413397635800,7.2086357421875,-0.2484678328037262,0.3192085027694702,0.17204944789409637
1782952413407563000,7.21856298828125,-0.2669399380683899,0.37204301357269287,0.20746587216854095
1782952413417491000,7.228490966796875,-0.2815493643283844,0.4220297038555145,0.235733762383461
1782952413427418000,7.238418212890625,-0.29772061109542847,0.4603608250617981,0.2715780436992645
1782952413437345000,7.248344970703125,-0.2990083694458008,0.4843672811985016,0.30144503712654114
1782952413447272000,7.25827197265625,-0.300372451543808,0.4402810335159302,0.30082663893699646
1782952413457200000,7.2682001953125,-0.28801530599594116,0.33048775792121887,0.26279982924461365
1782952413467127000,7.278126953125,-0.26839473843574524,0.1362362653017044,0.20261025428771973
1782952413477054000,7.288053955078125,-0.2461685985326767,-0.0838431566953659,0.15514425933361053
1782952413486980900,7.29798095703125,-0.22875019907951355,-0.26848891377449036,0.15154607594013214
1782952413496908800,7.30790869140625,-0.2230120599269867,-0.4292766749858856,0.21052250266075134
1782952413506836000,7.3178359375,-0.22244533896446228,-0.5706953406333923,0.326618492603302
1782952413516763000,7.327762939453125,-0.19858181476593018,-0.6956689357757568,0.4770548641681671
1782952413526690000,7.33768994140625,-0.14059920608997345,-0.7231189608573914,0.657681405544281
1782952413536618000,7.347617919921875,-0.07597468048334122,-0.6679878234863281,0.8298777341842651
1782952413546545200,7.357545166015625,-0.03416172042489052,-0.5880812406539917,0.9228487014770508
1782952413556472000,7.36747216796875,0.011526627466082573,-0.4747614860534668,0.9231354594230652
1782952413566399000,7.37739892578125,0.05302160605788231,-0.32325053215026855,0.8539038896560669
1782952413576327200,7.3873271484375,0.08123433589935303,-0.1677476167678833,0.694526195526123
1782952413586253800,7.39725390625,0.10599640756845474,-0.01715118996798992,0.545242965221405
1782952413596181000,7.407180908203125,0.13803857564926147,0.027147607877850533,0.3779076933860779
1782952413606109000,7.41710888671875,0.13734455406665802,-0.011398185044527054,0.20344959199428558
1782952413616035800,7.427035888671875,0.12127886712551117,-0.12245488166809082,0.005971597041934729
1782952413625963000,7.436962890625,0.1346636563539505,-0.26894447207450867,-0.22245332598686218
1782952413635890000,7.446889892578125,0.15886810421943665,-0.4556727707386017,-0.4370110034942627
1782952413645818000,7.456818115234375,0.15376228094100952,-0.5982053875923157,-0.5903944373130798
1782952413655745000,7.4667451171875,0.13375191390514374,-0.6708160638809204,-0.626627504825592
1782952413665672000,7.476671875,0.121766097843647,-0.582824170589447,-0.5778570175170898
1782952413675598800,7.486598876953125,0.12140753865242004,-0.48955151438713074,-0.5042974352836609
1782952413685527000,7.496527099609375,0.1444055289030075,-0.3573138415813446,-0.45082488656044006
1782952413695454000,7.506453857421875,0.16175279021263123,-0.20414374768733978,-0.4363008439540863
1782952413705380900,7.516380859375,0.13691827654838562,-0.011998014524579048,-0.46444058418273926
1782952413715308000,7.52630810546875,0.07868178188800812,0.17632737755775452,-0.525044322013855
1782952413725236000,7.536236083984375,-0.0008766929968260229,0.38324272632598877,-0.6320672035217285
1782952413735163000,7.546162841796875,-0.06609097868204117,0.6612721681594849,-0.7493355870246887
1782952413745090000,7.556090087890625,-0.11070185899734497,0.8816918730735779,-0.9157693386077881
1782952413755018000,7.56601806640625,-0.13687877357006073,0.8340246677398682,-1.1437280178070068
1782952413764945200,7.575945068359375,-0.17792262136936188,0.5768706202507019,-1.3171266317367554
1782952413774872000,7.5858720703125,-0.21303968131542206,0.20664194226264954,-1.309523582458496
1782952413784799000,7.595799072265625,-0.2041092962026596,-0.1148841604590416,-1.1045584678649902
1782952413794727200,7.60572705078125,-0.17469583451747894,-0.3579193651676178,-0.8159225583076477
1782952413804653800,7.61565380859375,-0.1501034051179886,-0.48339205980300903,-0.5798061490058899
1782952413814581000,7.6255810546875,-0.05097998306155205,-0.42615845799446106,-0.3710987865924835
1782952413824508000,7.6355078125,0.0032251968514174223,-0.2884690463542938,-0.22380174696445465
1782952413834435800,7.645435791015625,0.027806352823972702,-0.01745447888970375,-0.09643087536096573
1782952413844363000,7.655363037109375,0.047685250639915466,0.4543444812297821,-0.01713738404214382
1782952413854290000,7.6652900390625,0.0422072634100914,0.8489961624145508,-0.01382291316986084
1782952413864217000,7.675217041015625,0.05201409012079239,1.0720195770263672,-0.048446670174598694
1782952413874145000,7.68514501953125,0.0812135562300682,1.0904620885849,-0.06459230929613113
1782952413884072200,7.695072265625,0.1111336424946785,0.948204755783081,-0.008838498033583164
1782952413893998800,7.704998779296875,0.13470351696014404,0.7086032032966614,0.1540055274963379
1782952413903927000,7.714927001953125,0.18960298597812653,0.4676415026187897,0.3391333222389221
1782952413913854000,7.72485400390625,0.24776871502399445,0.27051466703414917,0.4655638337135315
1782952413923780900,7.73478076171875,0.30044499039649963,0.11237005144357681,0.46192675828933716
1782952413933708000,7.7447080078125,0.3425743877887726,-0.006376950070261955,0.31909552216529846
1782952413943636000,7.754635986328125,0.3702712655067444,-0.0432974174618721,0.1226932480931282
1782952413953563000,7.76456298828125,0.3746644854545593,-0.015638846904039383,-0.058392178267240524
1782952413963490000,7.774489990234375,0.35250380635261536,0.038926128298044205,-0.17573904991149902
1782952413973417000,7.7844169921875,0.310601145029068,0.00015665218234062195,-0.23541991412639618
1782952413983345200,7.79434521484375,0.2770354449748993,-0.14664050936698914,-0.25076931715011597
1782952413993272000,7.80427197265625,0.27522942423820496,-0.30352848768234253,-0.23469603061676025
1782952414003199000,7.814198974609375,0.29160866141319275,-0.41221049427986145,-0.21355080604553223
1782952414013126000,7.8241259765625,0.2947220206260681,-0.45338115096092224,-0.18858696520328522
1782952414023053800,7.8340537109375,0.287296861410141,-0.4193853735923767,-0.14635643362998962
1782952414032981000,7.84398095703125,0.26410752534866333,-0.31562039256095886,-0.09983708709478378
1782952414042908000,7.853907958984375,0.20855717360973358,-0.15601317584514618,-0.06835506111383438
1782952414052835800,7.8638359375,0.12112870812416077,0.05016337335109711,-0.037346743047237396
1782952414062763000,7.873762939453125,0.03401830792427063,0.2850387394428253,-0.003950703889131546
1782952414072690000,7.88368994140625,-0.06143612787127495,0.4977286159992218,0.0170863326638937
1782952414082617000,7.8936171875,-0.1540030837059021,0.6488003730773926,0.02339642494916916
1782952414092545000,7.903544921875,-0.23175828158855438,0.7312659621238708,0.011163761839270592
1782952414102472200,7.91347216796875,-0.28656265139579773,0.7609913945198059,-0.017440717667341232
1782952414112398800,7.92339892578125,-0.33028271794319153,0.7580859065055847,-0.05679571256041527
1782952414122326000,7.933325927734375,-0.37356308102607727,0.7471035718917847,-0.08235114067792892
1782952414132254000,7.94325390625,-0.4072999656200409,0.7303667068481445,-0.0758945420384407
1782952414142180900,7.953180908203125,-0.42427921295166016,0.7256752848625183,-0.02730250358581543
1782952414152108000,7.96310791015625,-0.4155762195587158,0.7113487720489502,0.047321565449237823
1782952414162035000,7.973034912109375,-0.4140254855155945,0.6877089738845825,0.13696889579296112
1782952414171963000,7.982962890625,-0.4125446677207947,0.6573766469955444,0.22757063806056976
1782952414181890000,7.99289013671875,-0.36899372935295105,0.6003413200378418,0.27837735414505005
1782952414191817000,8.00281689453125,-0.31136754155158997,0.4887945353984833,0.28437525033950806
1782952414201744100,8.012744140625,-0.25271886587142944,0.28686007857322693,0.2920483648777008
1782952414211672000,8.022672119140625,-0.19568777084350586,0.037431251257658005,0.3190811574459076
1782952414221599000,8.032598876953125,-0.14628426730632782,-0.20839715003967285,0.3651048243045807
1782952414231526000,8.04252587890625,-0.0899830013513565,-0.4188697636127472,0.41985803842544556
1782952414241453800,8.052453857421876,-0.0308054331690073,-0.6137968897819519,0.4522588551044464
1782952414251381000,8.062381103515625,0.03686496242880821,-0.7807509899139404,0.4425317645072937
1782952414261308000,8.072307861328126,0.0970822274684906,-0.8957154154777527,0.38422664999961853
1782952414271235000,8.082235107421875,0.15166300535202026,-0.9792542457580566,0.3073607087135315
1782952414281163000,8.0921630859375,0.2063685953617096,-0.9862974882125854,0.2406463921070099
1782952414291090000,8.10208984375,0.22490641474723816,-0.996436595916748,0.22266238927841187
1782952414301017000,8.11201708984375,0.2200392186641693,-0.930313229560852,0.27235352993011475
1782952414310944000,8.121944091796875,0.20921067893505096,-0.8407503962516785,0.34850013256073
1782952414320872200,8.1318720703125,0.21707072854042053,-0.7712363004684448,0.3965957462787628
1782952414330798800,8.141798828125,0.2319158911705017,-0.7111911177635193,0.4261109530925751
1782952414340726000,8.15172607421875,0.25311732292175293,-0.6738796830177307,0.4410174489021301
1782952414350654000,8.161654052734375,0.27732980251312256,-0.6566511392593384,0.4780024588108063
1782952414360580900,8.171580810546875,0.30606716871261597,-0.6675322651863098,0.4941729009151459
1782952414370508000,8.181508056640626,0.34148910641670227,-0.6421178579330444,0.4847261905670166
1782952414380435000,8.19143505859375,0.37702977657318115,-0.5789614915847778,0.4637119770050049
1782952414390363000,8.20136279296875,0.3904915750026703,-0.4734020531177521,0.40618205070495605
1782952414400290000,8.2112900390625,0.36359575390815735,-0.3677901327610016,0.29507574439048767
1782952414410217000,8.221217041015626,0.32558730244636536,-0.16365264356136322,0.14742715656757355
1782952414420144000,8.23114404296875,0.2783750295639038,0.04166989400982857,-0.005165308713912964
1782952414430072000,8.241072021484374,0.1994115710258484,0.24117277562618256,-0.10200946778059006
1782952414439999000,8.2509990234375,0.10952989012002945,0.458141565322876,-0.12217545509338379
1782952414449926000,8.26092578125,0.017710797488689423,0.6422613859176636,-0.09249089658260345
1782952414459853000,8.27085302734375,-0.07170722633600235,0.7873266935348511,-0.040305186063051224
1782952414469781000,8.280781005859374,-0.13995760679244995,0.8631879091262817,0.014327999204397202
1782952414479708000,8.2907080078125,-0.19950616359710693,0.8898980617523193,0.058463238179683685
1782952414489635000,8.300635009765625,-0.27012044191360474,0.8989719748497009,0.08212298899888992
1782952414499562000,8.31056201171875,-0.33862173557281494,0.9092251658439636,0.07653594762086868
1782952414509490000,8.320489990234375,-0.4010045528411865,0.9290753602981567,0.01962895877659321
1782952414519417000,8.3304169921875,-0.43119925260543823,0.9235839247703552,-0.1369452029466629
1782952414529344000,8.340343994140625,-0.4171684980392456,0.7653191089630127,-0.43453171849250793
1782952414539272200,8.350272216796874,-0.3534092307090759,0.3743217885494232,-0.807920515537262
1782952414549198800,8.36019873046875,-0.26366350054740906,-0.14353181421756744,-1.081066370010376
1782952414559126000,8.3701259765625,-0.18028683960437775,-0.6127874255180359,-1.16512930393219
1782952414569053000,8.380052978515625,-0.11695624887943268,-0.91468745470047,-1.0935434103012085
1782952414578980900,8.38998095703125,-0.05986926332116127,-0.9612365961074829,-0.9423568248748779
1782952414588908000,8.399907958984375,-0.044233933091163635,-0.8440417051315308,-0.8371596932411194
1782952414598835000,8.4098349609375,-0.055060748010873795,-0.6864792108535767,-0.7371787428855896
1782952414608762000,8.41976220703125,-0.09245844930410385,-0.36713719367980957,-0.5712764859199524
1782952414618690000,8.42968994140625,-0.14439302682876587,0.06638307124376297,-0.3701079785823822
1782952414628617000,8.439616943359376,-0.19962143898010254,0.48600178956985474,-0.18591012060642242
1782952414638544100,8.449544189453125,-0.21358811855316162,0.7698702216148376,-0.0662819892168045
1782952414648472000,8.45947216796875,-0.16007256507873535,0.8655532598495483,0.018199101090431213
1782952414658399000,8.46939892578125,-0.06128952279686928,0.8183969259262085,0.0970771387219429
1782952414668326000,8.479325927734376,0.07854706794023514,0.7104158401489258,0.17912916839122772
1782952414678253000,8.489253173828125,0.21082814037799835,0.5799387693405151,0.205802321434021
1782952414688181000,8.499180908203124,0.3567054271697998,0.438397616147995,0.11322828382253647
1782952414698108000,8.50910791015625,0.5007888078689575,0.30058300495147705,-0.10044751316308975
1782952414708035000,8.51903515625,0.6209028363227844,0.13243108987808228,-0.35389444231987
1782952414717962000,8.5289619140625,0.6956308484077454,-0.10002025961875916,-0.5544707179069519
1782952414727890000,8.538889892578124,0.7453262209892273,-0.29511359333992004,-0.6428143978118896
1782952414737817000,8.548817138671875,0.7626572847366333,-0.38551539182662964,-0.6307615041732788
1782952414747744000,8.558743896484375,0.7326610088348389,-0.34758588671684265,-0.5639677047729492
1782952414757671000,8.5686708984375,0.631489634513855,-0.25842538475990295,-0.5081002116203308
1782952414767598800,8.578598876953125,0.48859938979148865,-0.09812182933092117,-0.43558913469314575
1782952414777526000,8.588526123046876,0.2897779047489166,0.06250912696123123,-0.33313173055648804
1782952414787453000,8.598452880859375,0.10071832686662674,0.2103700190782547,-0.21145276725292206
1782952414797380000,8.608380126953126,-0.053274162113666534,0.3380299508571625,-0.10437504947185516
1782952414807308000,8.61830810546875,-0.18870851397514343,0.4500664472579956,-0.023340849205851555
1782952414817235000,8.62823486328125,-0.29073208570480347,0.5527976155281067,0.04028526321053505
1782952414827162000,8.638162109375,-0.3537743091583252,0.6325974464416504,0.06241104006767273
1782952414837090000,8.648090087890624,-0.3771355450153351,0.6689234972000122,0.05181245505809784
1782952414847017000,8.658016845703125,-0.35353124141693115,0.6494094133377075,0.04740885645151138
1782952414856944000,8.667944091796874,-0.3184046745300293,0.5662750601768494,0.06321524828672409
1782952414866871000,8.67787109375,-0.26256051659584045,0.46341609954833984,0.11139212548732758
1782952414876799200,8.68779931640625,-0.21952572464942932,0.34856274724006653,0.17964708805084229
1782952414886726100,8.69772607421875,-0.21701498329639435,0.2645604908466339,0.2725464701652527
1782952414896653000,8.707653076171875,-0.2522166669368744,0.19867680966854095,0.37301740050315857
1782952414906580200,8.717580322265626,-0.29884204268455505,0.16052059829235077,0.44402772188186646
1782952414916508200,8.727508056640625,-0.34839174151420593,0.17083501815795898,0.4720713496208191
1782952414926435300,8.737435302734376,-0.393513947725296,0.20542468130588531,0.47442877292633057
1782952414936362000,8.747362060546875,-0.39271581172943115,0.2391890436410904,0.45555630326271057
1782952414946290200,8.757290283203124,-0.4042638838291168,0.18387675285339355,0.43275824189186096
1782952414956217000,8.767217041015625,-0.43048030138015747,0.0920749232172966,0.4262217879295349
1782952414966144000,8.77714404296875,-0.4219347834587097,-0.03224678337574005,0.4366123378276825
1782952414976071200,8.7870712890625,-0.3521290719509125,-0.16318295896053314,0.4246475398540497
1782952414985999000,8.7969990234375,-0.24508151412010193,-0.3411135673522949,0.3974055051803589
1782952414995926000,8.806926025390625,-0.1646612286567688,-0.5449697375297546,0.3928661346435547
1782952415005853200,8.816853271484375,-0.126664936542511,-0.7154954671859741,0.41464194655418396
1782952415015780000,8.826780029296875,-0.12180812656879425,-0.8881934881210327,0.45246362686157227
1782952415025708300,8.836708251953125,-0.08023437112569809,-1.0342363119125366,0.4946530759334564
1782952415035635200,8.84663525390625,-0.02353540249168873,-1.1486401557922363,0.5837640166282654
1782952415045562000,8.85656201171875,0.023157227784395218,-1.20387601852417,0.7070225477218628
1782952415055489000,8.866489013671876,0.08688107877969742,-1.0989021062850952,0.8485767841339111
1782952415065417000,8.8764169921875,0.1661047488451004,-0.9332871437072754,0.9294196367263794
1782952415075344100,8.88634423828125,0.26947081089019775,-0.8119545578956604,0.8780006766319275
1782952415085271000,8.89627099609375,0.3450746238231659,-0.802818238735199,0.7357352375984192
1782952415095199200,8.90619921875,0.35667482018470764,-0.9406352043151855,0.5400064587593079
1782952415105126100,8.916126220703125,0.352411687374115,-1.1424554586410522,0.40418541431427
1782952415115053000,8.926052978515624,0.36442625522613525,-1.3418654203414917,0.35901471972465515
1782952415124980200,8.935980224609375,0.30184537172317505,-1.4042835235595703,0.39821046590805054
1782952415134908200,8.945908203125,0.16789022088050842,-1.2429615259170532,0.4483860433101654
1782952415144835300,8.95583544921875,0.022037144750356674,-0.8859679102897644,0.44754472374916077
1782952415154762000,8.965761962890625,-0.07891130447387695,-0.47560060024261475,0.3552078902721405
1782952415164689200,8.975689208984376,-0.16107794642448425,-0.11275362968444824,0.23912732303142548
1782952415174617000,8.9856171875,-0.2257498800754547,0.25927770137786865,0.11186204105615616
1782952415184544000,8.9955439453125,-0.280762255191803,0.5462181568145752,0.00883499439805746
1782952415194471200,9.00547119140625,-0.33049920201301575,0.7542733550071716,-0.08242221921682358
1782952415204398000,9.015398193359376,-0.33157986402511597,0.85631263256073,-0.1762412190437317
1782952415214326000,9.025325927734375,-0.292199969291687,0.8338770866394043,-0.27736011147499084
1782952415224253200,9.035253173828124,-0.24185176193714142,0.7000093460083008,-0.3730020225048065
1782952415234180000,9.04518017578125,-0.20501038432121277,0.5001425743103027,-0.46038857102394104
1782952415244108300,9.0551083984375,-0.17610666155815125,0.2700701951980591,-0.5457035303115845
1782952415254035200,9.06503515625,-0.12595801055431366,0.054200757294893265,-0.6265677213668823
1782952415263962000,9.074962158203125,-0.059673115611076355,-0.10161367803812027,-0.693756639957428
1782952415273889000,9.084888916015625,-0.018998127430677414,-0.1632954180240631,-0.7522628307342529
1782952415283817000,9.09481689453125,0.025220336392521858,-0.1302856057882309,-0.7781865000724792
1782952415293744000,9.104744140625,0.06237169727683067,-0.03537373244762421,-0.7470914125442505
1782952415303671000,9.114671142578125,0.07017923891544342,0.1191357895731926,-0.6697594523429871
1782952415313598200,9.12459814453125,0.07206262648105621,0.26467832922935486,-0.5205742716789246
1782952415323526100,9.134526123046875,0.07230474799871445,0.3744325339794159,-0.34037354588508606
1782952415333453000,9.144453125,0.07145866751670837,0.3945732116699219,-0.21392427384853363
1782952415343380200,9.154380126953125,0.07184331864118576,0.30891165137290955,-0.17657524347305298
1782952415353307100,9.16430712890625,0.07837072759866714,0.16695797443389893,-0.20025713741779327
1782952415363235300,9.1742353515625,0.0979035496711731,0.07534263283014297,-0.23640306293964386
1782952415373162000,9.184161865234374,0.1597200483083725,0.09654752165079117,-0.23169085383415222
1782952415383089200,9.194089111328125,0.2341739982366562,0.2063218057155609,-0.2002122700214386
1782952415393017000,9.20401708984375,0.27146464586257935,0.3895297050476074,-0.13117380440235138
1782952415402944000,9.213944091796876,0.2740849256515503,0.542092502117157,-0.04547135531902313
1782952415412871200,9.22387109375,0.2620199918746948,0.6149140000343323,0.022946853190660477
1782952415422798000,9.233798095703126,0.27298638224601746,0.6157849431037903,0.05013406649231911
1782952415432726300,9.243726318359375,0.29799267649650574,0.5859133005142212,0.044099342077970505
1782952415442653200,9.253653076171876,0.33229759335517883,0.5253143906593323,0.00501049542799592
1782952415452580000,9.263580078125,0.3754914104938507,0.46035271883010864,-0.07518447190523148
1782952415462507300,9.27350732421875,0.40562403202056885,0.42596960067749023,-0.1665574312210083
1782952415472435200,9.283435302734375,0.43222343921661377,0.3406669795513153,-0.3055962920188904
1782952415482362000,9.293362060546874,0.4287559986114502,0.1571541130542755,-0.47041693329811096
1782952415492289000,9.3032890625,0.4028301239013672,-0.09301257878541946,-0.6038881540298462
1782952415502215200,9.313215087890624,0.36388370394706726,-0.33535999059677124,-0.6721413135528564
1782952415512142000,9.32314208984375,0.3054720461368561,-0.48956847190856934,-0.651848316192627
1782952415522069200,9.3330693359375,0.21355758607387543,-0.515626072883606,-0.5358194708824158
1782952415531996200,9.34299609375,0.08091697096824646,-0.41315799951553345,-0.376385897397995
1782952415541924400,9.35292431640625,-0.06133169308304787,-0.21618257462978363,-0.22399403154850006
1782952415551851000,9.36285107421875,-0.18620598316192627,0.013555011712014675,-0.10559787601232529
1782952415561778200,9.372778076171874,-0.2683311402797699,0.2462528795003891,-0.030480487272143364
1782952415571706000,9.3827060546875,-0.31235772371292114,0.4399653673171997,0.021264998242259026
1782952415581633000,9.392633056640625,-0.31998926401138306,0.5723615884780884,0.04999830946326256
1782952415591560200,9.402560302734376,-0.30197030305862427,0.6369451284408569,0.05119406804442406
1782952415601487000,9.412487060546875,-0.2622479200363159,0.6343850493431091,0.041907358914613724
1782952415611415000,9.4224150390625,-0.23608316481113434,0.5837255716323853,0.04321390762925148
1782952415621342200,9.43234228515625,-0.21480877697467804,0.49722903966903687,0.06947427988052368
1782952415631269000,9.44226904296875,-0.1913979947566986,0.39233753085136414,0.0976790189743042
1782952415641196300,9.4521962890625,-0.16423237323760986,0.29172253608703613,0.1318262368440628
1782952415651124200,9.462124267578124,-0.1682409644126892,0.21188414096832275,0.15996813774108887
1782952415661051100,9.472051025390625,-0.18821099400520325,0.15146659314632416,0.17413437366485596
1782952415670978000,9.48197802734375,-0.21984028816223145,0.11153754591941833,0.19093093276023865
1782952415680905200,9.4919052734375,-0.26307734847068787,0.04863468185067177,0.2086203396320343
1782952415690833200,9.501833251953125,-0.29091086983680725,-0.04613922908902168,0.2277815192937851
1782952415700760000,9.511760009765625,-0.3066943287849426,-0.12951892614364624,0.26074275374412537
1782952415710687200,9.521687255859375,-0.2971433997154236,-0.18342876434326172,0.31927451491355896
1782952415720615200,9.531615234375,-0.2981014847755432,-0.23132790625095367,0.3726877272129059
1782952415730542000,9.5415419921875,-0.3057602047920227,-0.27569323778152466,0.374024361371994
1782952415740469200,9.55146923828125,-0.3104017376899719,-0.32743000984191895,0.32914650440216064
1782952415750396200,9.561396240234375,-0.29974642395973206,-0.35432687401771545,0.2834748923778534
1782952415760324400,9.571324462890624,-0.2635654807090759,-0.34201720356941223,0.25797247886657715
1782952415770251000,9.5812509765625,-0.2706716060638428,-0.3913858234882355,0.2517763674259186
1782952415780178200,9.59117822265625,-0.3089950978755951,-0.4734325110912323,0.2962268590927124
1782952415790105000,9.60110498046875,-0.3203793168067932,-0.5696017146110535,0.37904131412506104
1782952415800033000,9.611032958984374,-0.28681907057762146,-0.6383851766586304,0.4975930154323578
1782952415809960200,9.620960205078125,-0.23070307075977325,-0.695870578289032,0.6014959216117859
1782952415819887000,9.63088720703125,-0.17999878525733948,-0.7341830730438232,0.674895167350769
1782952415829814300,9.640814208984375,-0.15157939493656158,-0.6979033350944519,0.6948810815811157
1782952415839742200,9.6507421875,-0.1640220582485199,-0.7003321647644043,0.6573349833488464
1782952415849668900,9.6606689453125,-0.16406387090682983,-0.7472102046012878,0.55889493227005
1782952415859595800,9.670595703125,-0.13667535781860352,-0.7496728301048279,0.42539483308792114
1782952415869523700,9.680523681640626,-0.08970465511083603,-0.6897380948066711,0.279594749212265
1782952415879451000,9.690450927734375,-0.052700694650411606,-0.5843913555145264,0.14565250277519226
1782952415889377800,9.700377685546876,-0.019296402111649513,-0.43681150674819946,0.025810517370700836
1782952415899304700,9.7103046875,0.004702630918473005,-0.2846536636352539,-0.07556074857711792
1782952415909232600,9.720232666015624,0.008007081225514412,-0.1435096114873886,-0.1593293994665146
1782952415919159600,9.73015966796875,0.009410700760781765,-0.028011048212647438,-0.2186540961265564
1782952415929086700,9.740086669921874,0.003157865023240447,0.030919911339879036,-0.23471002280712128
1782952415939013600,9.750013671875,-0.006904090289026499,0.030629096552729607,-0.18877795338630676
1782952415948941800,9.75994189453125,-0.024206161499023438,0.007659838534891605,-0.10891324281692505
1782952415958868700,9.76986865234375,-0.06116870790719986,0.01723962463438511,-0.013661087490618229
1782952415968796000,9.7797958984375,-0.06569075584411621,-0.028830397874116898,0.07731036096811295
1782952415978722800,9.789722900390625,-0.05689273402094841,-0.0921035036444664,0.16580620408058167
1782952415988650800,9.799650634765625,-0.06578582525253296,-0.10149327665567398,0.2317095845937729
1782952415998578000,9.809577880859376,-0.08517546206712723,-0.08652042597532272,0.24939380586147308
1782952416008504600,9.819504638671875,-0.10270651429891586,-0.05737718939781189,0.21000325679779053
1782952416018432500,9.8294326171875,-0.1056680828332901,-0.027967704460024834,0.12186664342880249
1782952416028359700,9.839359619140625,-0.10436765849590302,-0.0056791771203279495,0.0019775209948420525
1782952416038286600,9.84928662109375,-0.08623073995113373,0.037009961903095245,-0.10194660723209381
1782952416048213800,9.8592138671875,-0.06746317446231842,0.10509473085403442,-0.19008739292621613
1782952416058141700,9.8691416015625,-0.042718593031167984,0.13556227087974548,-0.2555209696292877
1782952416068068900,9.87906884765625,-0.003489695955067873,0.10658948868513107,-0.3112926483154297
1782952416077995800,9.888995849609374,0.053373631089925766,0.09667189419269562,-0.38155120611190796
1782952416087922700,9.898922607421875,0.1209995448589325,0.10179635137319565,-0.4972708821296692
1782952416097851000,9.908850830078125,0.16915641725063324,0.056158412247896194,-0.6631276607513428
1782952416107777800,9.91877783203125,0.17148534953594208,-0.025925274938344955,-0.8368704319000244
1782952416117704700,9.92870458984375,0.16489306092262268,0.05511477589607239,-0.9593964219093323
1782952416127631600,9.938631591796875,0.09418480098247528,0.03287471830844879,-1.049811601638794
1782952416137559600,9.9485595703125,-0.0026622102595865726,-0.1738867610692978,-1.0972278118133545
1782952416147486700,9.95848681640625,-0.11106671392917633,-0.360643595457077,-0.9833609461784363
1782952416157413600,9.96841357421875,-0.2302473932504654,-0.5534982681274414,-0.6608923077583313
1782952416167341800,9.978341796875,-0.35557761788368225,-0.6901719570159912,-0.13928718864917755
1782952416177268700,9.988268798828125,-0.4305662214756012,-0.69438636302948,0.42622703313827515
1782952416187196000,9.99819580078125,-0.44826534390449524,-0.5822949409484863,0.7742611765861511
1782952416197122800,10.008122802734375,-0.43868952989578247,-0.42178815603256226,0.7819169759750366
1782952416207050800,10.01805078125,-0.395498663187027,-0.3311368227005005,0.5474948883056641
1782952416216978000,10.02797802734375,-0.2983763813972473,-0.4204990267753601,0.26404622197151184
1782952416226904600,10.037904541015624,-0.17068178951740265,-0.5399061441421509,0.09620075672864914
1782952416236831700,10.047831787109375,-0.08753657341003418,-0.5838070511817932,0.0652533620595932
1782952416246759700,10.057759765625,-0.060685787349939346,-0.5312612652778625,0.061508163809776306
1782952416256686600,10.0676865234375,-0.028359495103359222,-0.3633517026901245,-0.006580376997590065
1782952416266613800,10.07761376953125,0.04405079036951065,-0.143175408244133,-0.12510915100574493
1782952416276540700,10.087540771484376,0.13017018139362335,0.10892525315284729,-0.23765769600868225
1782952416286468900,10.09746875,0.16622832417488098,0.323310524225235,-0.30348625779151917
1782952416296395800,10.107395751953124,0.17450493574142456,0.5032679438591003,-0.35486504435539246
1782952416306322700,10.11732275390625,0.19492977857589722,0.6282548308372498,-0.3897327482700348
1782952416316251000,10.1272509765625,0.20731233060359955,0.684315025806427,-0.4209669530391693
1782952416326177800,10.137177734375,0.18763130903244019,0.6911905407905579,-0.42607995867729187
1782952416336104700,10.147104736328124,0.16788271069526672,0.7551969289779663,-0.44493189454078674
1782952416346031600,10.157031494140625,0.18196764588356018,0.7882523536682129,-0.4716396927833557
1782952416355959600,10.16695947265625,0.14205743372440338,0.809779167175293,-0.4980461895465851
1782952416365886700,10.17688671875,0.098470538854599,0.7843156456947327,-0.5103361010551453
1782952416375813600,10.186813720703125,0.06367948651313782,0.7174655199050903,-0.49490755796432495
1782952416385740800,10.19674072265625,0.022443898022174835,0.6289753317832947,-0.47495993971824646
1782952416395668700,10.206668701171875,-0.025354871526360512,0.5851902365684509,-0.45430228114128113
1782952416405596000,10.216595947265626,-0.07262677699327469,0.5525979399681091,-0.4359312355518341
1782952416415522800,10.226522705078125,-0.12668082118034363,0.49910908937454224,-0.3857419490814209
1782952416425450800,10.23645068359375,-0.19142892956733704,0.4202718138694763,-0.31184136867523193
1782952416435378000,10.2463779296875,-0.24210454523563385,0.33543458580970764,-0.2145029455423355
1782952416445304600,10.2563046875,-0.2806287705898285,0.2813500463962555,-0.11887762695550919
1782952416455231700,10.266231689453125,-0.29679158329963684,0.23903807997703552,-0.050240907818078995
1782952416465159700,10.27615966796875,-0.28073644638061523,0.1981566995382309,0.0011080334661528468
1782952416475086600,10.286086669921875,-0.24629288911819458,0.15317514538764954,0.015667077153921127
1782952416485013800,10.296013671875,-0.18148165941238403,0.10934937745332718,0.010386294685304165
1782952416494940700,10.305940673828125,-0.11133196204900742,0.07771884649991989,0.0019904039800167084
1782952416504868900,10.315868896484375,-0.05465749651193619,0.06246505677700043,0.005682077724486589
1782952416514795800,10.325795654296876,-0.06460147351026535,0.01094154454767704,0.09779475629329681
1782952416524722700,10.33572265625,-0.11427634954452515,-0.09126045554876328,0.28378593921661377
1782952416534649600,10.345649658203126,-0.18763743340969086,-0.23031464219093323,0.5167903304100037
1782952416544577800,10.355577880859375,-0.2591491639614105,-0.3524954319000244,0.7249946594238281
1782952416554504700,10.365504638671876,-0.2729111909866333,-0.42274099588394165,0.8405849933624268
1782952416564431600,10.375431640625,-0.23929943144321442,-0.3909332752227783,0.8281424641609192
1782952416574358800,10.38535888671875,-0.18239891529083252,-0.2731608748435974,0.7260163426399231
1782952416584286700,10.39528662109375,-0.11638899147510529,-0.17163236439228058,0.576285719871521
1782952416594213600,10.405213623046874,-0.050483837723731995,-0.07906027138233185,0.46349841356277466
1782952416604140800,10.415140869140625,-0.0030177836306393147,-0.03124268539249897,0.36235663294792175
1782952416614068700,10.42506884765625,0.03497619926929474,0.01592295803129673,0.27069953083992004
1782952416623996000,10.434995849609376,0.04263545200228691,0.11275949329137802,0.17749635875225067
1782952416633922800,10.4449228515625,0.004446701146662235,0.2017574906349182,0.0774221420288086
1782952416643849700,10.454849609375,-0.01408304087817669,0.21592897176742554,0.01830476149916649
1782952416653778000,10.46477783203125,-0.06511235982179642,0.22104838490486145,0.17470784485340118
1782952416663704600,10.47470458984375,-0.1148197278380394,0.01172366738319397,0.26783886551856995
1782952416673631700,10.4846318359375,-0.101708322763443,-0.11317945271730423,0.3108794391155243
1782952416683558700,10.49455859375,-0.03379371762275696,-0.03989991173148155,0.32115206122398376
1782952416693486600,10.504486572265625,0.024493379518389702,0.05612786114215851,0.29039087891578674
1782952416703413800,10.514413818359374,0.05037024989724159,0.13239812850952148,0.2008540779352188
1782952416713340700,10.524340576171875,0.07115969061851501,0.1957635134458542,0.06358276307582855
1782952416723268900,10.534268798828125,0.10089334845542908,0.2782573401927948,-0.07393249124288559
1782952416733195800,10.54419580078125,0.10393431782722473,0.3571363687515259,-0.1406218260526657
1782952416743123000,10.554123046875,0.08769542723894119,0.38226357102394104,-0.12320289015769958
1782952416753049600,10.564049560546875,0.06573065370321274,0.3296913802623749,-0.051180437207221985
