time,seconds_elapsed,z,y,x
1782951187589591800,0.058591796875,-0.2386953588724136,0.011966989712789654,-0.03872680368144065
1782951187599518700,0.068518798828125,-0.18306173445582388,0.02423062428459525,0.04852076020408422
1782951187609446000,0.07844580078125,-0.1040069024413824,0.04460954157710075,0.08366532148458063
1782951187619372800,0.088372802734375,-0.04365677089691162,0.038515535550937056,0.08661606104895472
1782951187629299700,0.0982998046875,0.028808161333203314,0.034216377052292225,0.04372037418503314
1782951187639226600,0.1082265625,0.11714520095586776,0.032588045198097826,0.056245143911056214
1782951187649152800,0.11815283203125,0.18326748616099356,0.04005786962211132,0.08940167317949235
1782951187659079700,0.12807958984375,0.21321020448207853,0.050741979917511344,0.15617825757488607
1782951187669006800,0.1380068359375,0.25384324364364147,0.0479529337208718,0.13578085477761923
1782951187678933800,0.147933837890625,0.24142975227236746,0.07690956361405552,0.06525258969850838
1782951187688860700,0.157860595703125,0.13531623294055461,0.046947994462028145,0.006105477268248796
1782951187698787600,0.16778759765625,-0.05851473281085491,0.013800927141681314,0.00843213011752814
1782951187708714000,0.1777138671875,-0.24629648152589798,0.031180443422496318,-0.0065602352984249586
1782951187718641200,0.18764111328125,-0.28655133502483365,0.08388459025844931,-0.001983100108616054
1782951187728568000,0.197568115234375,-0.12124971366524695,0.08051036458499729,0.014117957201600074
1782951187738495200,0.2074951171875,0.08204466148018837,0.058756651807948944,0.052303858939372
1782951187748422100,0.217422119140625,0.24363164623081682,0.07853387688025831,0.09666742639876902
1782951187758349000,0.22734912109375,0.2662076351761818,0.06891586144641042,0.07746628418136388
1782951187768275000,0.23727490234375,0.2184311540007591,0.05508242027461528,0.07662603396493942
1782951187778202000,0.2472021484375,0.18837503843307493,0.07456979555487632,0.0828881265670061
1782951187788129000,0.25712890625,0.2094645882129669,0.06674019790776073,0.06784308111574501
1782951187798056200,0.26705615234375,0.267055776438117,0.034033567831292744,0.03756605280637741
1782951187807983000,0.276983154296875,0.28253566964268684,-0.006750789434462785,-0.016849172263778744
1782951187817910300,0.28691015625,0.24058102648854254,-0.024040289344266056,-0.07817582069020718
1782951187827837000,0.2968369140625,0.13109130872189997,-0.018653335608914492,-0.10311320500466972
1782951187837763000,0.30676318359375,0.05564531485438347,-0.025581089045479892,-0.07446874633319675
1782951187847690000,0.31668994140625,-0.011050970846414565,-0.016735738484561443,-0.01629482631664723
1782951187857617200,0.3266171875,-0.0819517224997282,0.0207063226159662,0.10906455115713179
1782951187867544000,0.3365439453125,-0.2617372117638588,0.029577684400975704,0.11093966084662824
1782951187877471000,0.346470947265625,-0.32596447700262066,0.01970671711936593,-0.0739674822801724
1782951187887398000,0.35639794921875,-0.26731588867902756,-0.014131035878881811,-0.13475954890586436
1782951187897324000,0.366323974609375,-0.13987550368010998,-0.06492489211410284,-0.10729578791894018
1782951187907251200,0.376251220703125,-0.03474222755730152,-0.10162015343531966,-0.06556921789962798
1782951187917178000,0.38617822265625,0.024193945536017416,-0.10985635912194848,-0.02711049056984484
1782951187927105300,0.396105224609375,0.04576514135301113,-0.07171082592718303,0.05003068984299898
1782951187937032000,0.406031982421875,0.06308627851009369,-0.00593362783268094,0.13834898823257535
1782951187946959000,0.415958984375,0.07738894462883472,0.006370704075694083,0.17517229638025164
1782951187956885000,0.425885009765625,0.0634165333777666,0.027004472912102936,0.13465086436700074
1782951187966812200,0.435812255859375,0.029338322687149046,0.046649596037343144,0.055199726511351764
1782951187976739000,0.445739013671875,-0.02369534836411476,0.03667502225078642,0.008246654015406966
1782951187986666000,0.455666015625,-0.0698912823498249,0.0437093048017472,-0.04650598631557077
1782951187996593000,0.465593017578125,-0.08975625877082348,0.05555537154860794,-0.09678597474452108
1782951188006520000,0.47552001953125,-0.010819500178098677,0.06760200236886739,-0.023457886346429584
1782951188016446200,0.4854462890625,0.0605804331690073,0.05471972444206476,0.012771328365616499
1782951188026373000,0.495373046875,0.08320844456255436,0.03578092295527458,0.04138214049581438
1782951188036300300,0.50530029296875,0.0066617959767580025,0.00823985894843936,0.0538005272379145
1782951188046227000,0.51522705078125,-0.07255319503545761,0.04403860982134938,0.047603389630839224
1782951188056154000,0.525154052734375,-0.08610708861351013,0.07451675019338727,-0.00016304507460445164
1782951188066081000,0.5350810546875,-0.05045768308341503,0.05782718893811106,0.007240764908492564
1782951188076007200,0.545007080078125,0.04264087185263633,0.019946955616027117,0.027915852135978636
1782951188085934000,0.55493408203125,0.09048165043592453,-0.013366262051463126,0.033855873176828026
1782951188095861000,0.564861083984375,0.083393738001585,-0.008221884900331497,0.015142770204693078
1782951188105788000,0.574787841796875,0.0742044693738222,-0.03314334099330008,-0.018484518380649385
1782951188115715000,0.584715087890625,0.05858896709084511,-0.0244348416198045,0.007215740065090358
1782951188125642000,0.59464208984375,-0.014807693031430244,-0.03527370408549905,0.05134158977847546
1782951188135569200,0.604569091796875,-0.0692857176721096,0.004656739764660596,0.07446995190959424
1782951188145495300,0.614495361328125,-0.10154664980769157,0.011280249557644128,0.06800429955944419
1782951188155422000,0.624421875,-0.15055530312657356,0.023625644128769635,0.019373174316063523
1782951188165349000,0.63434912109375,-0.16369184807538986,0.045234103216230864,-0.01351210026293993
1782951188175276000,0.644276123046875,-0.13855857586264608,0.027972221965715287,0.03522504263818264
1782951188185203200,0.654203125,-0.13155308101475238,0.03338219125047326,0.028153131490573285
1782951188195130000,0.664130126953125,-0.07544716291129588,0.03527933010868728,-0.02276325514577329
1782951188205056300,0.67405615234375,0.026926000848412512,0.06206394972503185,-0.03366071593090891
1782951188214983000,0.68398291015625,0.13127894024848938,0.0613804244402796,-0.036876170846074814
1782951188224910000,0.69391015625,0.18272855697870252,0.03009045622870326,-0.045222266647964714
1782951188234837000,0.7038369140625,0.23253332911133764,0.03869827170670032,-0.07552453899644315
1782951188244764200,0.71376416015625,0.24404957938194274,0.039717239490896464,-0.10230112143680453
1782951188254691000,0.723691162109375,0.1898451109856367,0.014307707620039582,-0.07518507790900766
1782951188264617000,0.733616943359375,0.0977852514475584,-0.004956891755014657,-0.0657495794352144
1782951188274544000,0.743544189453125,0.006647182929515838,-0.006557166558504105,-0.06910553879961372
1782951188284471000,0.753470947265625,-0.0317716873139143,-0.026003040784597396,-0.05263049707785249
1782951188294398000,0.76339794921875,0.017148118677735327,-0.013625570574775337,0.017760332291945815
1782951188304325000,0.7733251953125,0.028240006056427954,0.0038036300666630268,0.06533325371928513
1782951188314252000,0.783251953125,0.0620528438091278,0.013464315598458051,0.037485607981309295
1782951188324178000,0.793177978515625,0.026803251251578328,-0.0060020168937742705,0.017550123607367275
1782951188334105000,0.80310498046875,-0.028893501529097556,-0.03854702666774392,0.000038870705664157864
1782951188344032000,0.813031982421875,-0.08522972125709057,-0.02313457267619669,-0.03071209525838494
1782951188353959200,0.822959228515625,-0.10296236182451247,-0.021153408796340225,0.01761084081865847
1782951188363886000,0.832885986328125,-0.11856091297268867,-0.01013086032681167,0.07438983587808906
1782951188373813200,0.842813232421875,-0.07480535787642002,0.014698752764239906,0.11912760694473981
1782951188383739000,0.85273876953125,0.006762333741784096,0.0390207816593349,0.13210844987519085
1782951188393666000,0.862666015625,0.09490238948762417,0.04526281785406172,0.13377397193461657
1782951188403593000,0.872593017578125,0.13810907852947713,0.031839637983590366,0.13499569574929773
1782951188413520100,0.88252001953125,0.11538695911169052,0.01127148172929883,0.10659772265218198
1782951188423447000,0.892447021484375,0.06328676951825618,0.005842077091708779,0.07443031401894987
1782951188433374200,0.902374267578125,-0.06720306617915629,0.023988851417973637,0.049938116188719864
1782951188443300000,0.912300048828125,-0.14913666850030421,0.0525819817610085,0.009289587197080253
1782951188453227000,0.92222705078125,-0.12573065847158432,0.075720646090433,-0.01392769532650709
1782951188463154200,0.932154296875,0.002308276942372322,0.06000248715057969,0.0001999064862728119
1782951188473081000,0.9420810546875,0.1506277838408947,0.027152576145902274,0.02147518809661269
1782951188483008300,0.95200830078125,0.251658300819993,-0.0027432342935353516,0.019086904720589517
1782951188492935200,0.96193505859375,0.25098142447173594,-0.01768894755616784,0.005625292535871267
1782951188502861000,0.971861083984375,0.15129530783891676,-0.0020329671323299405,-0.06139430683515965
1782951188512788000,0.9817880859375,0.005136778366565704,0.0004820113632827997,-0.17125753408931194
1782951188522715100,0.991715087890625,-0.13119184648692608,-0.013459931684285402,-0.16715652851127086
1782951188532642000,1.00164208984375,-0.20305179856121539,-0.07215871582515537,-0.16117420269865543
1782951188542569200,1.0115693359375,-0.17824585860669612,-0.04686002391763031,-0.15741576348058878
1782951188552496000,1.02149609375,-0.05753565864562988,-0.01694755460433662,-0.09641111355014145
1782951188562422000,1.031422119140625,0.025981413474678992,-0.009105608932301402,-0.04141366814523935
1782951188572349200,1.04134912109375,0.08804360963404179,-0.0005498889677226543,-0.0015290727308019995
1782951188582276000,1.051276123046875,0.18301906435787677,0.03590338029116392,-0.008782660588249563
1782951188592203300,1.061203369140625,0.2034486889243126,0.04583228830508888,0.06502575867269188
1782951188602130200,1.071130126953125,0.18046704178750514,0.04427694862186909,0.09265910407286136
1782951188612057000,1.08105712890625,0.17023966228365897,0.03610891280062496,0.1002946039199829
1782951188621983000,1.09098291015625,0.13556348569989204,0.05501242377832532,0.11773611605372279
1782951188631910100,1.10091015625,0.10349076961278915,0.08762260774299502,0.10505754400547593
1782951188641837000,1.110837158203125,0.08093874606490135,0.1115652088664472,0.07888159433938563
1782951188651764200,1.12076416015625,0.018425299006700514,0.12945610873550176,0.06166044695805758
1782951188661691100,1.130691162109375,-0.06135492467284202,0.10768033025711775,0.08632416543029248
1782951188671618000,1.1406181640625,-0.05226502476632595,0.1147900161318481,0.11857209195382892
1782951188681544200,1.150544189453125,-0.032413492348790165,0.09534567627571523,0.1260430488890037
1782951188691471000,1.16047119140625,-0.03439151442348957,0.07750146509259939,0.13277009212169796
1782951188701398000,1.17039794921875,-0.049050154373049736,0.0493321131195873,0.06487761890627443
1782951188711325200,1.1803251953125,-0.00804652833342552,0.028204569416865704,0.008095408976450561
1782951188721251800,1.190251953125,0.025284078860282895,-0.023088760773092507,-0.03574358661957085
1782951188731179000,1.200178955078125,0.03221650847196579,-0.04944565649665892,-0.06947773311287164
1782951188741105200,1.210105224609375,0.03993044385015964,-0.059333136521652334,-0.07739376693442464
1782951188751032000,1.220031982421875,0.000054945057630538935,-0.0608079583145678,-0.06373597459048032
1782951188760959200,1.229959228515625,-0.07196750410199165,-0.026722441100329158,-0.1077691045191139
1782951188770886100,1.23988623046875,-0.1452981132507324,-0.01713043689057231,-0.03998648488633334
1782951188780813000,1.24981298828125,-0.15526830312311649,-0.00008409808687865734,-0.0007142126839607953
1782951188790740000,1.259739990234375,-0.1221452012002468,0.036075083596259355,-0.023416312227025626
1782951188800666000,1.269666015625,-0.05214812038838863,0.03377221348136663,-0.03935505511499941
1782951188810593000,1.279593017578125,0.0742354490339756,0.0067399027142673726,-0.03958100935798138
1782951188820520200,1.289520263671875,0.13068097435533998,0.011866159686818718,-0.012926993851363658
1782951188830446800,1.29944677734375,0.1622211910009384,-0.002692746215313673,-0.006512267970852553
1782951188840374000,1.3093740234375,0.18293138607442377,-0.0048554041419178245,0.040427323989011346
1782951188850301000,1.319301025390625,0.2210422132819891,-0.06314801863469183,0.12646163962725548
1782951188860227000,1.32922705078125,0.2296118887066841,-0.0812760151952505,0.1704221061784774
1782951188870154200,1.339154296875,0.14680033450722693,-0.1029206415746361,0.186501499646157
1782951188880081200,1.3490810546875,-0.03918810105025768,-0.0875597716398537,0.17656148571632801
1782951188890008000,1.359008056640625,-0.2048947960793972,0.05627046101540327,0.1021908659953624
1782951188899935000,1.36893505859375,-0.3547644550293684,0.15230864959992468,0.026870617399364707
1782951188909862100,1.378862060546875,-0.4671095622271299,0.11878624616116285,-0.015928440689668057
1782951188919788000,1.3887880859375,-0.46626960427165026,0.06611227526776492,-0.03665178750567138
1782951188929715200,1.398715087890625,-0.3844581670254469,0.017856413077563048,-0.040422172889858485
1782951188939642000,1.40864208984375,-0.2379857492983341,-0.014941329348459839,-0.03531483981348574
1782951188949569000,1.418569091796875,-0.0575870965719223,-0.024317937241867184,-0.05996288579255342
1782951188959496000,1.428495849609375,0.08933540301024913,0.0019446312617510556,-0.051021892837435
1782951188969423000,1.438423095703125,0.21349428212046623,0.0783257870875299,-0.11836297924779354
1782951188979349200,1.448349365234375,0.20332418576180933,0.09971483127065002,-0.05723280324153602
1782951188989276200,1.458276123046875,0.10239596011340618,-0.13403298819698392,0.30238011473231013
1782951188999203000,1.468203125,0.12556699234247207,0.08716295434199273,-0.008007803758233786
1782951189009130000,1.4781298828125,0.024181670576333997,0.0748821494396776,0.13493169060237706
1782951189019057200,1.48805712890625,0.13571136973798273,0.11682649039551615,-0.002683978386968374
1782951189028983000,1.497983154296875,0.09740005152225494,0.14753843952342868,0.0017287234887480734
1782951189038910200,1.50791015625,0.12905366541445254,0.014989406273886561,0.0578976238258183
1782951189048837000,1.517837158203125,0.2124152547121048,0.07351641404442488,-0.08052877702452242
1782951189058764000,1.527763916015625,0.24886603975296018,0.15632073478549718,-0.10992321381308137
1782951189068691000,1.53769091796875,0.27395722638964654,0.10832001640014349,-0.0869886206883937
1782951189078618000,1.5476181640625,0.3209790898054838,0.08174480175077915,-0.043393662981316444
1782951189088544300,1.557544189453125,0.34528935519754883,0.07580269835069775,0.02218435927927494
1782951189098471200,1.56747119140625,0.30813071414828297,0.08721848392151296,0.025251930156350133
1782951189108398000,1.577398193359375,0.22014438765943048,0.09834478502646088,0.021879677244275808
1782951189118325000,1.587324951171875,0.16288929952085018,0.08464249595366417,0.014943009848892687
1782951189128252000,1.597251953125,0.05404430939853191,0.046983796427771445,-0.017816300262883306
1782951189138179000,1.607178955078125,-0.1072398930132389,0.007431538240239024,-0.03049552989825606
1782951189148105200,1.617105224609375,-0.2411187866270542,-0.0009116349522024392,-0.06138510061539709
1782951189158032100,1.6270322265625,-0.3926911578416824,0.027260931891202926,-0.08102408626079559
1782951189167959000,1.636958984375,-0.4736988774895668,0.08176599066928028,-0.05196852603778243
1782951189177886000,1.646885986328125,-0.40423195803165435,0.10759827799685298,-0.027940146327018738
1782951189187813000,1.656813232421875,-0.24507658434212207,0.059544295054301616,0.010838935530930757
1782951189197740000,1.666739990234375,-0.1130740059942007,0.00003419453054666519,0.05066686885468662
1782951189207666200,1.676666259765625,0.026472411862015724,0.002944163693115115,0.049015009994432326
1782951189217593000,1.686593017578125,0.12431202384531498,0.00587502951323986,0.0376159563627094
1782951189227520000,1.69652001953125,0.21512918984591958,0.011408479047194123,0.04470116538330912
1782951189237447000,1.706447021484375,0.24998072299659252,0.019304931385442613,0.09692673492208123
1782951189247374000,1.7163740234375,0.258730431163311,-0.001976560769975185,0.07369425482936202
1782951189257301000,1.726301025390625,0.210376442360878,0.00683466832563281,0.034327217015624044
1782951189267227100,1.73622705078125,0.06283668766319751,0.009334156991168857,-0.01773760900348425
1782951189277154000,1.746154052734375,-0.07325637486875057,0.051287411905825135,-0.0932142172049731
1782951189287081000,1.7560810546875,-0.17558686853051184,0.08296119180321693,-0.13680588697642088
1782951189297008000,1.766008056640625,-0.15327274539172647,0.09017565322667359,-0.0853751210771501
1782951189306935000,1.77593505859375,-0.037490649482607837,0.1009757180519402,-0.012588701807707547
1782951189316862200,1.7858623046875,0.10996902571618557,0.08312215451858937,0.056153337441757316
1782951189326788000,1.7957880859375,0.18885434638261794,0.07177307750843465,0.07393208217322826
1782951189336715000,1.805715087890625,0.19357202255427836,0.03633906829468906,0.05186733068563044
1782951189346642000,1.815641845703125,0.11647767695784568,0.029029987390339372,0.014079086495935917
1782951189356569000,1.825569091796875,0.01754793165028095,0.025155337914079427,-0.05799596963375806
1782951189366496000,1.83549609375,0.007823825493454933,0.04531191769279539,-0.09966719273664057
1782951189376423200,1.845423095703125,0.04892798929810524,0.04710062774047255,-0.05923574056178331
1782951189386349000,1.85534912109375,0.014373393267393111,0.028334479406848547,0.005600815681740642
1782951189396276000,1.86527587890625,-0.11916180147528647,0.024187515795230864,0.060524026806652545
1782951189406203100,1.875203125,-0.15848609612584114,0.06635806672237814,0.06113178344145417
1782951189416130000,1.885130126953125,-0.13032090887129305,0.04892207101397216,0.0604866174057126
1782951189426057200,1.89505712890625,-0.09906769247353077,0.025456220556795594,0.06599690525978803
1782951189435984100,1.904984130859375,-0.03814122234582901,0.02536145494543016,0.026789295791462064
1782951189445910000,1.914909912109375,0.030648820763826367,0.04292100396826863,-0.021140330119058488
1782951189455837000,1.9248369140625,0.07436813550293445,0.04178586245849728,-0.05382884001694619
1782951189465764000,1.93476416015625,0.03507774312198162,0.04416574333235621,-0.040776173959299916
1782951189475691000,1.94469091796875,0.007169745498895644,0.038355449618399144,-0.00017521043643355368
1782951189485618200,1.9546181640625,0.043135961893200875,0.059118324727192514,-0.003768339557573199
1782951189495544300,1.96454443359375,0.11089666195511817,0.06190927061997353,0.05497815618254244
1782951189505471000,1.974470947265625,0.11826222228705882,-0.00029262627102434634,0.09179287916496395
1782951189515398100,1.984398193359375,0.10565408512651919,0.006122574533522129,0.06679908848814665
1782951189525325000,1.994324951171875,0.042405309531092644,0.04905030050352215,0.03724325059279799
1782951189535252000,2.004251953125,-0.04725859478116035,0.07262326459698379,0.023174977751821278
1782951189545179100,2.01417919921875,-0.07044073292613029,0.06649879036732018,0.017655556743219492
1782951189555105000,2.02410498046875,-0.05149462491571903,0.08256576274484395,0.005904182542487978
1782951189565032000,2.034031982421875,-0.002270283019542694,0.05372033814117312,0.03505392385497689
1782951189574959000,2.043958984375,-0.009041384589672088,0.04995360601879656,0.07038578786849975
1782951189584886000,2.053885986328125,0.06321019715070725,0.05171542805954814,0.08238587613329292
1782951189594813200,2.063813232421875,0.14479600894749164,0.031655367457866665,0.07882957189120351
1782951189604740000,2.073739990234375,0.2096428673893213,-0.009332768751680851,0.09929185661822557
1782951189614666000,2.083666015625,0.20547171918451784,-0.023507424576580522,0.12120024850033223
1782951189624593000,2.093593017578125,0.1399000535994768,-0.00391936540082097,0.10943586868755519
1782951189634520000,2.10352001953125,-0.026266075634956358,0.044708471906930204,0.07838876932114362
1782951189644447000,2.113447021484375,-0.21067747113406657,0.07999474321305751,0.018772358878701923
1782951189654374100,2.1233740234375,-0.35938451604545113,0.1447322960615158,0.005417421938851475
1782951189664301000,2.133301025390625,-0.4324234487712383,0.14425854106992483,-0.006220555015280843
1782951189674227000,2.14322705078125,-0.3556038284629583,0.04595540322810411,-0.055656932226940986
1782951189684154000,2.153154052734375,-0.10985445942580699,-0.03425079077854752,-0.0717328916285187
1782951189694081000,2.1630810546875,0.1433522398799658,-0.06645604720413685,-0.041208135635778305
1782951189704008200,2.17300830078125,0.3806540985673666,-0.05338482257649302,-0.005813581649586558
1782951189713935000,2.18293505859375,0.5053156665027141,-0.03712356973588466,0.04147051289901137
1782951189723861200,2.192861328125,0.47681554820537564,-0.035033319458365436,0.06782594731785356
1782951189733788200,2.2027880859375,0.3051408846825361,0.04825637364685535,0.006045709905028343
1782951189743715300,2.21271533203125,0.14079671017825604,0.09758505270034074,-0.085427070460096
1782951189753642200,2.222642333984375,0.06123042151033878,0.037953590819239616,-0.076642875501886
1782951189763569400,2.2325693359375,-0.02304536002278328,-0.010652619178593158,-0.027238573928922413
1782951189773496000,2.24249609375,-0.034904140120744706,-0.04498158975988626,-0.004942351773008704
1782951189783422200,2.252422119140625,-0.0246434428691864,-0.024702479580044744,-0.012591478286683559
1782951189793349400,2.262349365234375,-0.026413959673047063,0.004911591308563948,-0.032943288376554844
1782951189803276300,2.2722763671875,-0.043193829560279846,0.023295973782986402,-0.0664037324950099
1782951189813203500,2.282203369140625,-0.0670680416226387,0.00011208207234740257,-0.10750877308249474
1782951189823130000,2.292130126953125,-0.07949322343170642,-0.007896598468720912,-0.08125409562438726
1782951189833057300,2.302057373046875,-0.021014146456122398,0.0034666531972587108,-0.04028977868184447
1782951189842983200,2.311983154296875,0.0698655633866787,0.11004662099704146,-0.13007036817632614
1782951189852910300,2.321910400390625,0.06668167265355586,0.14227116664499043,-0.1293666038211435
1782951189862837200,2.331837158203125,-0.0040413843452930445,-0.12961451416760683,0.23743359530828892
1782951189872764400,2.341764404296875,0.020892565903067588,-0.18230667830482125,0.27218269099779424
1782951189882691000,2.351691162109375,0.12073884153366088,-0.013643325427174568,0.0752372464876622
1782951189892618200,2.3616181640625,0.15629939973652363,0.06384966409802437,-0.009724033091589809
1782951189902544400,2.37154443359375,0.1348468618631363,0.015009937605261802,0.08507730717435479
1782951189912471300,2.38147119140625,0.03444295234978199,-0.0005213935256004333,0.10831051791943609
1782951189922398200,2.391398193359375,-0.045508536243438716,0.041723172485828394,0.0005686667334288358
1782951189932325000,2.4013251953125,-0.07224047582447528,0.05274477110728621,-0.047215120965614914
1782951189942252000,2.411251953125,-0.04301964203715324,0.022303601744771,-0.028461101461201906
1782951189952178200,2.42117822265625,0.023187398841977118,0.005982289279997348,-0.0046843584239482875
1782951189962105300,2.431105224609375,0.08523381291031837,0.028129385288804768,0.02117766645476222
1782951189972032300,2.4410322265625,0.10624269866943359,0.07823109454140066,0.04003222372420132
1782951189981959400,2.45095947265625,0.11361936491727828,0.0801486186005175,0.04971570560969412
1782951189991886000,2.460885986328125,0.09473112457394599,0.051146103738993406,0.027950667721033096
1782951190001813200,2.470813232421875,0.06356734002530574,0.004061111959069967,0.0033228608123958107
1782951190011739100,2.4807392578125,0.009666238489747047,0.0045031566381454466,-0.025972864842042327
1782951190021666300,2.490666259765625,-0.009937456646561623,0.018436989444494248,-0.0367545172277838
1782951190031593200,2.50059326171875,-0.03378068904876709,0.039833120955526824,0.019824059888720512
1782951190041520400,2.510520263671875,-0.03916588921844959,0.04207461627200246,0.0487421113371849
1782951190051447000,2.520447021484375,-0.021351415586471557,0.036592823860049244,0.031549568995833395
1782951190061374200,2.530374267578125,0.012317629781365394,0.016187603082507846,-0.02299056109562516
1782951190071300400,2.54030029296875,0.04326455670893192,-0.009317425052076578,-0.03661781217083335
1782951190081227300,2.550227294921875,0.06601824030876159,-0.02617942026481032,-0.010463891673460603
1782951190091154400,2.560154541015625,0.06085866558849811,-0.022131460048258302,0.025341654266417026
1782951190101081000,2.5700810546875,0.021338556104898453,-0.01704275860711932,0.020178426284343003
1782951190111008300,2.58000830078125,-0.025156653088331222,0.011056377673894167,0.019004194873198866
1782951190120935200,2.58993505859375,-0.02521685884296894,0.03149535459056496,0.007618146853521465
1782951190130861300,2.599861328125,-0.021650106272101403,0.040150077950209376,0.02419957155920565
1782951190140788200,2.609788330078125,0.03722761463224888,0.029846126078814265,-0.0022005787841975688
1782951190150715400,2.61971533203125,0.05800152259171009,0.013130115208029746,-0.04771466798558831
1782951190160642000,2.62964208984375,0.05143091202974319,0.031145810500532386,-0.03384995489269495
1782951190170569200,2.6395693359375,0.05025134685635566,0.03974281232357025,-0.010787132278457283
1782951190180496100,2.64949609375,0.010061959809064864,0.06957227952852844,0.03377857015691697
1782951190190422300,2.65942236328125,-0.06269289527833462,0.06425166902765632,0.08346848373822867
1782951190200349400,2.669349365234375,-0.09566343698799609,0.06987900739014148,0.06908771088197826
1782951190210276000,2.679276123046875,-0.054065936708450314,0.07444266204386948,0.04607267293222248
1782951190220203300,2.689203369140625,0.018638064974546432,0.04588803708031773,0.05050305659510195
1782951190230130200,2.699130126953125,0.04703764550685882,0.013435820156335829,0.044054245781898496
1782951190240056300,2.709056396484375,0.08148352046608924,-0.002659282337129116,0.0055368105348199605
1782951190249983200,2.718983154296875,0.10130348870158194,0.006746843911707401,-0.008619652046263217
1782951190259910400,2.728910400390625,0.10752923134863376,0.010258359163999557,-0.0047514323107898234
1782951190269837000,2.738837158203125,0.1399526605695486,0.009855477451533078,0.020990765580534934
1782951190279764200,2.74876416015625,0.12511749500930308,0.026843144870549437,0.04115348283909261
1782951190289691100,2.758691162109375,0.12104805361330509,0.013079554064571857,0.04937821728363633
1782951190299617300,2.7686171875,0.09516717790365219,-0.026501784086972475,0.06207739372849464
1782951190309544400,2.77854443359375,-0.013591302978992461,-0.050570934199541805,0.03944404857270419
1782951190319471400,2.788471435546875,-0.12560907791852952,-0.03949848217368126,0.0055622372370213264
1782951190329398300,2.798398193359375,-0.291843596214056,-0.025797873601317405,-0.03437653605006635
1782951190339325200,2.8083251953125,-0.4039753529220819,0.017209055084735154,0.0011650982566177844
1782951190349252000,2.818252197265625,-0.37556291290819643,0.06574512245580554,0.0015331278514117
1782951190359178200,2.82817822265625,-0.21421733569800852,0.0663794748365879,0.01612557069696486
1782951190369105400,2.83810546875,-0.021801497441530225,0.05268266565650701,0.03556340774707496
1782951190379032000,2.848031982421875,0.12054770287573337,0.04386471455916762,0.03310001330822706
1782951190388959200,2.857959228515625,0.11091185952425002,0.05493628980219364,-0.00979169150032103
1782951190398886100,2.86788623046875,0.05923369473516941,0.07918006582930684,-0.0377259926084429
1782951190408812300,2.877812255859375,0.0916290669053793,0.09014584261029958,-0.016845263273641466
1782951190418739200,2.8877392578125,0.134750415751338,0.06449892178699373,0.03085939477458596
1782951190428666400,2.897666259765625,0.17373510318398475,0.04899740127250552,0.06590747341066598
1782951190438593000,2.907593017578125,0.20679741483032701,0.05315276738628745,0.06171645146161318
1782951190448520200,2.917520263671875,0.16824118194282053,0.036743776638060804,0.0022875264152884484
1782951190458447000,2.927447021484375,0.12061667645871639,0.04056494236141443,-0.08276559616588056
1782951190468373200,2.937373291015625,0.08303425703942775,0.02111673004776239,-0.10446166047155857
1782951190478300400,2.947300537109375,-0.011617372557520865,0.009683774146437644,-0.07122443064972758
1782951190488227000,2.95722705078125,-0.0571557194173336,0.029590251621603964,-0.07183942074291408
1782951190498154200,2.967154296875,-0.09684475572705269,0.02830897963941097,-0.03519355152137577
1782951190508081200,2.9770810546875,-0.05781622915267944,0.03521452124416828,0.0017488894939422606
1782951190518008300,2.98700830078125,-0.0015004676908254623,0.039137832167744635,0.023439400841668248
1782951190527934200,2.996934326171875,0.02241524542570114,0.024663170482963324,0.013590645391866564
1782951190537861400,3.006861328125,-0.026896190232038496,0.03558203938230872,-0.00634907676577568
1782951190547788000,3.0167880859375,-0.0333662630289793,0.024954554644972083,-0.03414185051135719
1782951190557715200,3.026715087890625,0.0036468320697546,0.04771247602850198,0.0019379823252558706
1782951190567642000,3.03664208984375,0.04231178602874279,0.06111337100192904,0.017625234670192003
1782951190577569300,3.0465693359375,0.06571954962313174,0.05783931776732206,0.009454933826625347
1782951190587495400,3.056495361328125,0.06089490594565868,0.0424070630967617,-0.008097454803064464
1782951190597422300,3.06642236328125,0.052470776471495624,0.03711290221139788,0.00908412775285542
1782951190607349200,3.076349365234375,0.008823942446708678,0.043296120890974996,0.030242139659076926
1782951190617276200,3.086276123046875,0.011331541353464127,0.08192644192799925,0.031920594265311956
1782951190627203300,3.096203369140625,0.0561363132417202,0.11950593873783945,0.08572159642726182
1782951190637129200,3.106129150390625,0.1383136611908674,0.11890958027988671,0.09967939463108777
1782951190647056400,3.116056396484375,0.16360066266059875,0.08855988859310746,0.0829171334657818
1782951190656983000,3.125983154296875,0.1428629950582981,0.06570405979305505,0.0417927305907011
1782951190666910200,3.13591015625,0.0811935976088047,0.058119011491537094,0.00393529362231493
1782951190676837000,3.145837158203125,0.026489362996816635,0.0787079182729125,0.015378551721945403
1782951190686764300,3.155764404296875,-0.07458733121156692,0.09508782905712723,0.01387881468348205
1782951190696690400,3.1656904296875,-0.14511340433359146,0.11681012378260493,0.022925459970161318
1782951190706617300,3.175617431640625,-0.16378478705585,0.09160188663750886,0.04859072016775608
1782951190716544500,3.18554443359375,-0.07554419354498386,0.05840455043464899,0.06163863698504865
1782951190726471400,3.195471435546875,0.07183189502358436,0.019443682269006966,0.04175261777602136
1782951190736398300,3.2053984375,0.17704174351394175,-0.004621668451279402,0.02124072175361216
1782951190746325200,3.2153251953125,0.21343173827826975,-0.028785072718560695,-0.019654621605947612
1782951190756251400,3.22525146484375,0.20818273170888424,-0.044623862363398076,-0.04767265547476709
1782951190766178300,3.23517822265625,0.15480711535215377,-0.03193316148594021,-0.0413539007820189
1782951190776105500,3.24510546875,0.022069208467006683,-0.02040361334234476,-0.04142272823452949
1782951190786032400,3.255032470703125,-0.12350363007187842,0.010837766487151384,-0.06181063255108893
1782951190795959300,3.264959228515625,-0.21957038716375826,0.05030673030540347,-0.08550408121906221
1782951190805885400,3.274885498046875,-0.23908640401661393,0.03439253733679652,-0.1090585598077625
1782951190815812400,3.284812255859375,-0.17071487857997417,0.003159779205173254,-0.12852723038755356
1782951190825739300,3.2947392578125,-0.02889993126988411,-0.011073767200112342,-0.137901792454347
1782951190835666400,3.30466650390625,0.11192425143718719,0.0007858896806836128,-0.11313976470679044
1782951190845593000,3.314593017578125,0.20124153426885605,0.008015110281854868,-0.06865735664069653
1782951190855520300,3.324520263671875,0.21676935826838015,0.019640666145831345,-0.001408478558436036
1782951190865446400,3.3344462890625,0.17004910814762114,0.038959699121862645,0.07657163689658045
1782951190875373300,3.344373291015625,0.05079144508242607,0.07741393293961882,0.09334003554172814
1782951190885300500,3.354300537109375,-0.038330022916197776,0.09101035048514604,0.058493032435700296
1782951190895227400,3.364227294921875,-0.06742109284400939,0.07667261305302381,0.01707381133250892
1782951190905154300,3.374154296875,-0.04857026190161705,0.028622575633227825,0.024639132020249963
1782951190915081200,3.384081298828125,-0.022334581404924392,-0.012507599395513535,-0.001675239735841751
1782951190925007400,3.39400732421875,-0.04182195668518543,-0.031085458615422248,-0.029430165689066052
1782951190934934300,3.403934326171875,-0.03970891005396843,-0.010178425795584917,-0.00026975685209035873
1782951190944861400,3.413861328125,0.008367430850863456,-0.002744768663495779,0.05758293185345828
1782951190954788000,3.4237880859375,0.049988896527886385,0.002026537391543388,0.0878851311367005
1782951190964715300,3.43371533203125,0.05208557654619217,-0.020073066213726995,0.10531944634467363
1782951190974642200,3.44364208984375,0.05017828162014484,-0.008844839104264974,0.09208389800079167
1782951190984568300,3.453568359375,0.08625146552026271,-0.05271057657673955,0.0991982600506395
1782951190994495500,3.46349560546875,0.07442074247300624,-0.07508008316457271,0.03394267467744648
1782951191004422400,3.47342236328125,0.02728080563545227,0.013015695048123598,0.025477847866714
1782951191014349300,3.483349365234375,-0.07372282333672046,0.05846782492920756,0.10553009342066944
1782951191024276200,3.493276123046875,-0.1508358736336231,0.04232508390173316,0.12061828389391302
1782951191034202400,3.503202392578125,-0.15323533599078654,0.07735358105450868,0.07996018335632979
1782951191044129300,3.51312939453125,-0.1756979276895523,0.10754311374351382,0.027007760847732425
1782951191054056400,3.523056396484375,-0.1900672293037176,0.11146890888512134,-0.046462256771698594
1782951191063983400,3.5329833984375,-0.09968670115470886,0.10131137974709271,-0.13930822518616914
1782951191073910300,3.54291015625,-0.07208850013315678,0.03740253280773759,-0.03927219913713634
1782951191083837200,3.552837158203125,-0.06603986761868,-0.028736557401716708,0.005381254646927118
1782951191093763300,3.562763427734375,-0.12393734531402587,-0.024911007764190436,-0.06479790473356843
1782951191103690500,3.5726904296875,-0.1839671588629484,-0.016719371871650218,-0.11119484118409455
1782951191113617400,3.582617431640625,-0.20076514892876146,-0.0032579788826406,-0.12550503302216529
1782951191123544300,3.59254443359375,-0.11044131940305232,0.0360720148563385,-0.10412256471030414
1782951191133471200,3.60247119140625,-0.014538228440284727,0.05611439367085695,-0.030423049183934923
1782951191143398400,3.6123984375,-0.04559972165822983,0.02435147418528795,0.03899827756658196
1782951191153324300,3.62232421875,-0.24069033208191393,-0.0020791443616151807,0.06909297157898545
1782951191163251500,3.63225146484375,-0.30762393366992474,0.06739756583794951,-0.025610022879019378
1782951191173178400,3.642178466796875,-0.1741945373892784,0.15067323041781783,-0.10466196881663054
1782951191183105300,3.652105224609375,-0.008205518287420272,0.11077508140206337,-0.012912307738885282
1782951191193032200,3.6620322265625,0.09314239407777786,0.04762216739654541,0.07281177290640771
1782951191202958300,3.671958251953125,0.17776128996014595,-0.003833148422092199,0.05931161880958825
1782951191212885500,3.681885498046875,0.2211322296530008,-0.028087153582274912,-0.001982917445525527
1782951191222812400,3.6918125,0.09903495924770832,-0.02610796246379614,-0.01648680522479117
1782951191232739300,3.7017392578125,0.003729834178090095,0.022281682173907757,-0.041329496993124486
1782951191242666200,3.711666259765625,-0.06620587183535098,0.04881342300772667,-0.04390917475540191
1782951191252593200,3.72159326171875,-0.09340484440624713,0.09576514379680157,-0.007494885800033807
1782951191262519300,3.731519287109375,0.09376081823706627,0.27699893217310306,-0.18102073014751074
1782951191272446500,3.741446533203125,0.317297186422348,0.15622399641275406,-0.03453567213453352
1782951191282373400,3.751373291015625,0.5192208577364683,-0.1583669997908175,0.2666424098642543
1782951191292300300,3.76130029296875,0.7418699216932058,0.013398118494451045,-0.10472458572406321
1782951191302227200,3.771227294921875,0.4323638275384903,-0.05106660876199603,-0.02613868639562279
1782951191312154400,3.781154296875,0.2056920839369297,0.07038286525905132,-0.15129311588183045
1782951191322080300,3.791080322265625,-0.02741583019196987,0.17938991407528518,-0.0923973843967542
1782951191332007400,3.80100732421875,-0.17858429678082466,0.14509659932926297,0.18569040245898066
1782951191341934300,3.810934326171875,-0.10880933428704738,0.19685557426959274,0.24599961747117338
1782951191351861200,3.820861328125,0.013267477852106094,0.17635858355537057,0.3322991233842447
1782951191361788200,3.8307880859375,0.12338847925961016,0.0914313523761928,0.1852356078961864
1782951191371714300,3.84071435546875,0.14655015913844108,0.03677095690593123,0.01725512271616608
1782951191381641500,3.850641357421875,0.1453682558774948,0.08299524020329117,0.002499744393862784
1782951191391568400,3.860568359375,0.08677811974287032,0.12788666746169328,-0.018026216686517
1782951191401495300,3.870495361328125,-0.004224924218654632,0.16262845662757752,0.07537628963217138
1782951191411422200,3.880422119140625,-0.07332242584228515,0.16788257776349783,0.09463106173295527
1782951191421349400,3.890349365234375,-0.10190729981362819,0.13515446650758384,0.01763948239125311
1782951191431275300,3.900275146484375,-0.13182020751833914,0.03921235870867967,-0.0024318302568048238
1782951191441202400,3.910202392578125,-0.11192074430584907,-0.011230272936075925,-0.01996354142464697
1782951191451129300,3.92012939453125,-0.05699672946333885,-0.0046349663242697715,-0.04263542849253863
1782951191461056300,3.93005615234375,0.03475216442942619,-0.007541647551208734,0.04449281986225396
1782951191470981400,3.9399814453125,0.08797931222617626,-0.022958704652637243,0.042293483187071976
1782951191480908300,3.949908203125,0.124293319144845,0.018862959771603346,-0.03124203741662204
1782951191490835500,3.95983544921875,0.13590250839591025,-0.020688567763566968,-0.11024367793910204
1782951191500761300,3.96976123046875,0.10380290430188178,-0.02508198041692376,-0.1557003743974492
1782951191510688300,3.979688232421875,-0.011188333490490913,-0.02335340305864811,-0.16149905073884874
1782951191520615400,3.989615478515625,-0.0419061278373003,0.015185878694057464,-0.15370116340424864
1782951191530542300,3.999542236328125,-0.019597265395522118,0.06655278557687998,-0.09615103784184903
1782951191540469500,4.009469482421875,0.04779635491967201,0.06942848714366555,-0.02035265034008771
1782951191550396400,4.019396484375,0.13677403053343296,0.04428250157982111,0.031122648820653555
1782951191560322300,4.029322265625,0.17478081284463404,0.030407705484330652,0.022269809073023495
1782951191570249200,4.039249267578125,0.13409458219110965,0.039849633698910474,0.03852854116298258
1782951191580176400,4.04917626953125,0.01856324617266655,0.05755480173751711,0.03408675932325422
1782951191590103300,4.059103271484375,-0.09675123222470283,0.07147577506229282,0.07081427894625812
1782951191600030500,4.069030517578125,-0.16223405048251152,0.1125480824239552,0.04083765835557133
1782951191609957000,4.07895703125,-0.13313888890147207,0.14866203672587872,0.053850540392100806
1782951191619883300,4.08888330078125,-0.017018354818224907,0.12888488471880555,0.08164715006258338
1782951191629810400,4.098810546875,0.09977905561327934,0.042657092335075135,0.06486220214143396
1782951191639737300,4.1087373046875,0.18252280527353285,-0.00805529616177082,0.038368455230444666
1782951191649664500,4.11866455078125,0.19673194788992404,-0.03741656133309006,0.013095555351302027
1782951191659591400,4.12859130859375,0.032871172988414764,-0.053144730210304254,0.051205176982469854
1782951191669517300,4.138517333984375,-0.18809096079468726,0.011971154431253671,0.03419032929558307
1782951191679444200,4.1484443359375,-0.25354630652368065,0.08696852774843573,0.03520692245960235
1782951191689371400,4.158371337890625,-0.1646142236173153,0.05809826096445322,0.13672390778139232
1782951191699298300,4.16829833984375,-0.07275953126251697,0.03626403029710054,0.14455160573236644
1782951191709225500,4.1782255859375,-0.05823065517246723,-0.01815408084988594,0.0901831789460033
1782951191719151900,4.18815185546875,-0.1186550209969282,-0.05212459338232875,-0.020640746566466986
1782951191729078000,4.198078125,-0.1217144085675478,-0.04501797624751925,-0.150046001897566
1782951191739005200,4.208005126953125,0.0032961189359426496,0.01867269789651036,-0.14114526788759976
1782951191748931800,4.217931884765625,0.12185177121162413,0.034063597643375396,-0.023430559948086738
1782951191758859000,4.22785888671875,0.16248247228562832,0.06780936150923371,0.02926598810330033
1782951191768786000,4.237785888671875,0.15219430250525473,0.11607201876640319,0.0008045943811535835
1782951191778713000,4.247713134765625,0.16290800422132015,0.08273410504907369,0.011107450274005531
1782951191788639000,4.257638916015625,0.16195874067246913,0.06972878526449203,-0.03258161545731127
1782951191798566100,4.267566162109375,0.0916588775217533,0.06441343546062707,-0.056155273670516904
1782951191808492800,4.277492919921875,-0.014674422040581702,0.09569733925759792,-0.025214045831374824
1782951191818420000,4.287419921875,-0.0839127934396267,0.12869929901883007,-0.01609155882950872
1782951191828347000,4.297346923828125,-0.060250178301334376,0.11175678591579198,-0.013970584620162844
1782951191838273000,4.30727294921875,0.017139935371279714,0.04368088242486119,-0.0474641638232395
1782951191848201000,4.317200927734375,0.06602350100576877,0.010537614496797323,-0.0490040136763826
1782951191858128100,4.327128173828125,0.06764964090287685,0.029302959112823008,-0.05737966436631977
1782951191868055000,4.337054931640625,0.024646365478634833,0.04159530832245946,-0.011044979497045278
1782951191877982000,4.34698193359375,0.010612579429149628,0.046227936559170485,0.015779570270888506
1782951191887908000,4.356908203125,-0.004138999500870704,0.06858531431779265,0.048625937611609694
1782951191897835000,4.3668349609375,0.011816110000014304,0.07475669642910361,0.05781878643594682
1782951191907762200,4.37676220703125,0.010044424152374267,0.060069999428838484,0.0023306714372709394
1782951191917689000,4.386689208984375,0.06451601905226707,0.024752456201612948,-0.03753269852604717
1782951191927616000,4.396615966796875,0.08959142359793186,-0.0041347617171704765,-0.06784147368054837
1782951191937543000,4.40654296875,0.06615618747472762,-0.0269853298202157,-0.03125201082136482
1782951191947469000,4.416468994140625,0.007972294053435325,-0.010808394262194633,0.010155739039741455
1782951191957396000,4.42639599609375,-0.05847673888802528,0.03993570454716682,-0.006474895102530718
1782951191967323100,4.4363232421875,-0.07087912434339523,0.053828913082182406,0.0022549393199384213
1782951191977250000,4.44625,-0.02808276966810226,0.07549144044443964,-0.02916870174128562
1782951191987177000,4.456177001953125,0.001709142005443573,0.06534194848239422,-0.011246055027097463
1782951191997102800,4.466102783203125,0.04490063347816467,0.04083382243067026,0.004363273243419826
1782951192007030000,4.476030029296875,0.0481932452827692,0.027734102360904216,0.027636962129361925
1782951192016957000,4.48595703125,0.020186463460326192,0.059252691696584224,0.08450027447137981
1782951192026884000,4.495884033203125,-0.04751052371561527,0.10573971758335828,0.09960285879615693
1782951192036810800,4.505810791015625,-0.08035363965332508,0.1188588730059564,0.06090962859075516
1782951192046738000,4.515738037109375,-0.04870645550191402,0.12002499417588114,0.05449081105701625
1782951192056664000,4.5256640625,-0.00010813654959201812,0.06214636731147766,0.030810879457741976
1782951192066591000,4.535591064453125,-0.006190086811780929,0.03094181236103177,0.008053140737302601
1782951192076518100,4.54551806640625,-0.018305472019314765,-0.004825520460307597,-0.0009677125209942459
1782951192086445000,4.555445068359375,-0.010531330886483193,-0.08541165369525551,-0.09998849711287766
1782951192096372000,4.5653720703125,-0.03717793027162552,-0.05202595531344414,-0.09031053165271878
1782951192106299000,4.575298828125,-0.07533902636170386,0.00491451391801238,0.010189422113634645
1782951192116225000,4.58522509765625,-0.09948913275599479,0.040341947260499,-0.005265446247532964
1782951192126152000,4.59515185546875,-0.0583364536345005,0.03473243681564927,0.006203019358590245
1782951192136079000,4.6050791015625,-0.01537467926442623,0.06493278315961361,0.021516287291981278
1782951192146006000,4.615006103515625,0.029014497560262677,0.07971899501159786,0.01783496843073517
1782951192155933000,4.624932861328125,0.08435527651011944,0.07853679948970675,0.029960948097519573
1782951192165859000,4.634859130859375,0.057950084665417664,0.09860109787508844,0.03087565178964287
1782951192175786000,4.644785888671875,0.020256606087088583,0.10749605973139405,-0.02888732751663774
1782951192185713200,4.654713134765625,0.04547697206139564,0.0788970111042261,-0.0867300428174436
1782951192195640000,4.66464013671875,0.08696925840079783,0.021604513564705847,-0.14389537031333893
1782951192205567000,4.67456689453125,0.07798515695631504,0.040584669975191355,-0.14878979129139333
1782951192215494000,4.684493896484375,0.07677753473222255,0.07402531341463327,-0.14668814283702522
1782951192225420000,4.694419921875,0.12008534606099128,0.05912482753321528,-0.09454897294007242
1782951192235347000,4.704346923828125,0.10460194572508334,0.1111008062250912,-0.02153729354739189
1782951192245274000,4.714274169921875,0.10364742147922515,0.1501861775532365,0.040325471049733455
1782951192255201000,4.724200927734375,0.1279348905175924,0.152698306504637,0.11884773055743425
1782951192265128000,4.7341279296875,0.1257265668183565,0.15331702292487023,0.16410905057415365
1782951192275054800,4.744054931640625,0.08393325170576572,0.15366262149214743,0.18191844617221503
1782951192284981000,4.75398095703125,0.04479191240668297,0.1299478377752006,0.1482765445396304
1782951192294908200,4.763908203125,0.022239304336905477,0.0807277336627245,0.03790810770969838
1782951192304835000,4.7738349609375,-0.0026981530427932737,0.04441854904964566,-0.015152816674672066
1782951192314762000,4.783761962890625,0.01790215191543102,0.007749737343937158,0.005761011212132871
1782951192324689000,4.79368896484375,0.052450318205356596,-0.027033991267532108,0.029150910356268284
1782951192334615000,4.803614990234375,-0.004655132329463958,-0.03452171667441725,0.03220291833803057
1782951192344542000,4.8135419921875,-0.07430442261695862,-0.04465951819866895,0.021688611651584505
1782951192354469000,4.82346923828125,-0.07854220631718635,-0.03772475049942731,0.05769077614210546
1782951192364396000,4.83339599609375,-0.10074585481882095,-0.00599661006629467,0.08755224592052399
1782951192374323000,4.843322998046875,-0.09825462252497673,0.01863441171273589,0.1064575104638934
1782951192384249900,4.853249755859375,-0.02981704611480236,-0.0003384381741285324,0.1318948071245104
1782951192394176000,4.863176025390625,0.02061842513680458,-0.03624444881379604,0.12610562926381827
1782951192404103200,4.873103271484375,0.031157939329743384,-0.03071545625925064,0.06883523395825177
1782951192414030000,4.883030029296875,0.03156885821819305,0.003625935412198305,0.0271027821874246
1782951192423957000,4.89295703125,0.01247545069158077,0.03210428026914596,-0.019133995265327393
1782951192433884000,4.9028837890625,0.01964461166858673,0.02645005389973521,-0.06111812024228275
1782951192443810000,4.91281005859375,0.03374678677916527,0.04136018439233303,-0.05538180507998913
1782951192453737000,4.922737060546875,0.04311842623651027,0.053649026470631356,-0.035843174536526204
1782951192463664000,4.9326640625,0.0706757107257843,0.039269349592924115,0.00040675416998565197
1782951192473591000,4.942591064453125,0.11082184315323829,0.06285597688555718,0.018966675874404607
1782951192483518000,4.95251806640625,0.10374620567858218,0.050544630714505906,-0.017708273311145602
1782951192493444900,4.96244482421875,0.049517771884799,0.036558483199030156,-0.04521671369001269
1782951192503371000,4.97237109375,0.0053045361489057535,0.03583864449188113,-0.035788229478895664
1782951192513298000,4.9822978515625,0.006385901644825935,0.02764949281737208,-0.01752710805796087
1782951192523225000,4.99222509765625,0.003330605727434158,0.024687282010912893,0.028917539991810917
1782951192533152000,5.002152099609375,0.017535656690597534,0.04547258814722299,0.03828618377447128
1782951192543079000,5.012078857421875,0.04820376667678356,0.0530896390222013,0.02385919715631753
1782951192553005000,5.022005126953125,0.0642617520302534,0.020560119078308344,-0.016365115073882042
1782951192562932000,5.031931884765625,0.05632394476830959,0.033092122262716295,-0.07891399877164512
1782951192572859100,5.041859130859375,0.050076574811339376,0.0002599661104381084,-0.10774320289287716
1782951192582786000,5.0517861328125,0.013954875594377516,0.00951747766882181,-0.05352938214633614
1782951192592713000,5.061712890625,-0.02136778219938278,0.027829963950812817,-0.0008589914495125413
1782951192602640000,5.071639892578125,-0.04414952284991741,0.05587810069695115,0.07587364469505846
1782951192612566000,5.08156591796875,-0.05006079272031784,0.0758300247490406,0.09490622541252523
1782951192622493000,5.091492919921875,-0.01075228016078472,0.09052227470725774,0.09924220879022032
1782951192632420000,5.101420166015625,0.04050561338961124,0.07770297901406883,0.0928085224809125
1782951192642347000,5.111346923828125,0.035299276918172834,0.08673647255823015,0.05691226605027914
1782951192652274000,5.12127392578125,-0.013191490006446838,0.06718392308726906,-0.0029221345243975517
1782951192662200800,5.131200927734375,-0.02614975577890873,0.048425592733919616,-0.0476153723295778
1782951192672127000,5.141126953125,0.00355272404551506,0.027398148404806852,-0.025121289514005184
1782951192682054100,5.15105419921875,0.06881108589768409,0.012439356464892625,-0.009640446461364626
1782951192691981000,5.16098095703125,0.13539280530810355,0.033670068281143904,-0.02100519596468657
1782951192701908200,5.170908203125,0.19892273593246937,0.04826499534472823,0.03154953246321529
1782951192711835100,5.180835205078125,0.16919921332001686,0.06077157182693481,0.06572839051671325
1782951192721761000,5.190760986328125,0.0660357759654522,0.06836524182632565,0.04054897760730237
1782951192731688000,5.20068798828125,-0.010646481698751448,0.06187938693836331,0.006872369987517595
1782951192741615000,5.210614990234375,0.0026519758135080335,0.0685714319229126,-0.006919387467019259
1782951192751542000,5.2205419921875,0.053393152013421055,0.03139306325986981,-0.02463642860651016
1782951192761469200,5.23046923828125,0.06713876877129077,-0.021685908237844706,-0.030393932687304913
1782951192771396000,5.24039599609375,0.005464695146679878,-0.012146072606742381,-0.060413552169501776
1782951192781322000,5.250322021484375,-0.11119944429397582,-0.019266864397376775,-0.05824223601240664
1782951192791249200,5.260249267578125,-0.23377543812692164,0.001395692142099142,-0.029663499520905315
1782951192801176000,5.270176025390625,-0.2089168912023306,0.02700388839021325,-0.005765175930596888
1782951192811103200,5.280103271484375,-0.06432663396000862,0.020626900704205035,-0.0003755918467417359
1782951192821030100,5.290030029296875,0.09180793060362338,-0.009033201283216476,-0.024763708247989416
1782951192830956000,5.2999560546875,0.1697369734585285,-0.007923486475646495,-0.05000391143392771
1782951192840883000,5.309883056640625,0.1680903752952814,0.0003657645724713802,-0.05645801947675645
1782951192850810000,5.31981005859375,0.13559095822870731,0.05126476168259978,0.006325330564007163
1782951192860737000,5.329737060546875,0.07195172201097011,0.10396262490823864,0.03845204186066985
1782951192870664200,5.339664306640625,-0.021437340304255485,0.11466858170926571,0.06298617913648485
1782951192880591000,5.349591064453125,-0.05041735107302665,0.11485168319121003,0.042168066709116096
1782951192890517000,5.35951708984375,-0.06070142920017242,0.11568959532007575,-0.01485215322766453
1782951192900444000,5.36944384765625,0.01160451307594776,0.05665332285314798,-0.05557846016325056
1782951192910371000,5.37937109375,0.1128822828143835,0.0412546781912446,-0.06415135045833885
1782951192920298000,5.389298095703125,0.1767044743835926,0.08146130863428115,-0.04260645812638104
1782951192930225200,5.39922509765625,0.1727922693759203,0.10077771126180887,0.034229200001247226
1782951192940151000,5.409151123046875,0.08174187914133071,0.0910628113247454,0.08798413453176616
1782951192950078000,5.419077880859375,-0.008137129226326941,0.09513736728727817,0.05020878635626286
1782951192960005000,5.429005126953125,-0.030800211933255193,0.07040040091574191,0.017970175650343298
1782951192969932000,5.43893212890625,-0.00566284806728363,0.040063860971480604,0.015287768165953456
1782951192979859200,5.448859130859375,0.03201251033246517,0.04092340041026473,0.029373905457183717
1782951192989786000,5.4587861328125,0.10548515830039977,0.03160597535818815,0.03179327809121459
1782951192999712000,5.4687119140625,0.15483751049041747,0.022837416360527274,0.04209105595014989
1782951193009639000,5.478638916015625,0.10764788929224013,0.027632103291153905,-0.0025645897909998892
1782951193019566000,5.488566162109375,0.04025076184570789,0.04220540304481983,0.0027629253746941683
1782951193029493000,5.498492919921875,0.03740472476482391,0.04221022535040975,-0.02498151571713388
1782951193039420200,5.508420166015625,0.04705751925110817,0.05328837646469473,0.05729768517129123
1782951193049347000,5.51834716796875,0.04482464563250541,0.05773454221859574,0.115973526827991
1782951193059273000,5.52827294921875,0.03170797442793846,0.06509118859171867,0.13543123762235046
1782951193069200100,5.5382001953125,0.02032908680140972,0.07002002329602837,0.10630845738202332
1782951193079127000,5.548126953125,-0.016659458377957344,0.04781257540211081,0.07117028930969536
1782951193089054200,5.55805419921875,-0.09399521151483059,0.013762714023143052,0.07318674369864166
1782951193098981000,5.567981201171875,-0.19436931041181085,-0.017151333548128603,0.0449602547109127
1782951193108907000,5.577906982421875,-0.2565589323431253,-0.02364829435199499,0.0036406215246766803
1782951193118834000,5.587833984375,-0.27524142098128795,0.008032499808073043,-0.03764956637136638
1782951193128761000,5.597760986328125,-0.23823650918900965,0.02217807566896081,-0.07006320485062897
1782951193138688000,5.60768798828125,-0.11819324870407581,0.015908347749710082,-0.09724274206869303
1782951193148615200,5.617615234375,0.048043607679009434,-0.01414966751411557,-0.08378098375350236
1782951193158542000,5.6275419921875,0.1701069758147001,-0.010002776967734097,-0.06743497523888946
1782951193168468000,5.637468017578125,0.1565127502262592,0.011418196723610162,-0.05521517980881035
1782951193178395100,5.64739501953125,0.11132920815348625,0.005117343013733625,-0.09449183592535555
1782951193188322000,5.657322021484375,0.11585983732044697,0.010343553229421376,-0.11435498571544885
1782951193198249200,5.667249267578125,0.13193360476493834,0.00013517068699002264,-0.15402517119422554
1782951193208176000,5.677176025390625,0.15192892956733703,0.007685001544654369,-0.16639489648900926
1782951193218102000,5.68710205078125,0.16924188341796398,0.03549757596924901,-0.12939648750275373
1782951193228029000,5.69702880859375,0.10923077456951141,0.02734028073772788,-0.0837926741912961
1782951193237956000,5.7069560546875,-0.04146247572302818,0.039006314742565155,-0.04512041370868682
1782951193247883000,5.716883056640625,-0.12609013943374156,0.07923691058307886,-0.023887729131057855
1782951193257810200,5.72681005859375,-0.0760392835855484,0.07156769112944603,-0.01319704296439886
1782951193267736000,5.736736083984375,0.06419920818805694,0.053576984147727484,0.04483173296041786
1782951193277663000,5.7466630859375,0.1819277619898319,0.04151347525790333,0.06472235527932643
1782951193287590100,5.756590087890625,0.2007382609218359,0.020769962436705827,0.09112520903646945
1782951193297517000,5.76651708984375,0.11735972048938274,-0.0049038463935256,0.07388532042205333
1782951193307444000,5.77644384765625,-0.030356559818983078,-0.013299918816983699,0.06891754194684327
1782951193317371100,5.78637109375,-0.25262100837230683,0.02671834944710135,0.0657954644035548
1782951193327297000,5.796297119140625,-0.35362872899770736,0.05529606302529573,0.06026661797948181
1782951193337224000,5.806223876953125,-0.2971908024609089,0.07016279276758432,0.10034070808403193
1782951193347151000,5.816151123046875,-0.14478957920670507,0.05955664307922125,0.13206132279783486
1782951193357078000,5.826078125,0.0228004453510046,0.05207900067493319,0.1351196143899113
1782951193367005200,5.836005126953125,0.19535422979593275,0.09610328970998525,0.1266204469181597
1782951193376932000,5.84593212890625,0.28732407296299933,0.12266221081167458,0.11913980883918703
1782951193386858000,5.85585791015625,0.2763075889080763,0.1372360950872302,0.11806282725743948
1782951193396785000,5.865784912109375,0.12143442258238792,0.14267346383556723,0.09511712821684777
1782951193406712000,5.875712158203125,-0.013736264407634735,0.12187354465201497,0.05799158571958542
1782951193416639000,5.885638916015625,-0.051961657905578613,0.09885448811426759,0.0371744231402874
1782951193426566100,5.895566162109375,-0.022473113092780113,0.06842120979726314,-0.023529051886498925
1782951193436492000,5.905491943359375,0.02785246804356575,0.02168035527989268,-0.04215571868419647
1782951193446419000,5.9154189453125,0.03134498633444309,-0.021537731938809156,-0.05685469064414501
1782951193456346000,5.92534619140625,-0.024998247656226158,-0.010223726242035627,-0.11631269565448164
1782951193466273000,5.93527294921875,-0.06671615944504737,-0.00388473247885704,-0.125392293362692
1782951193476200200,5.9452001953125,-0.0948965442687273,-0.013684972611814736,-0.06339834013395011
1782951193486127000,5.955127197265625,-0.09347907868623732,0.0016220482438802717,-0.05809811483398079
1782951193496053000,5.965052978515625,-0.06779284876585007,0.026020868702232837,-0.07772657908536493
1782951193505980000,5.97497998046875,0.009890110373497008,-0.001348199738562107,-0.07395020235180855
1782951193515907000,5.984906982421875,0.12022446227073669,-0.026214929969608784,-0.041154651882871984
1782951193525834000,5.994833984375,0.1560737742871046,-0.02778627093955874,-0.019836042587459086
1782951193535761200,6.00476123046875,0.10194237112700938,0.03727276894822717,0.022811624332144856
1782951193545687000,6.01468701171875,0.04776888239085674,0.0991165000513196,0.07189736147522927
1782951193555614000,6.024614013671875,0.015147884771227835,0.14477876555174587,0.0826491301793605
1782951193565541000,6.034541015625,0.021635493224859238,0.1490656490907073,0.0918917364295572
1782951193575468000,6.044468017578125,0.03792553376853466,0.1532964185282588,0.07419796656779945
1782951193585395200,6.054395263671875,0.04470832577645779,0.15536854862719773,0.033258784066513176
1782951193595322000,6.064322021484375,0.055792029848694795,0.11970394552797078,-0.015832213773578404
1782951193605248000,6.074248046875,0.08183657168745995,0.08944500086456536,-0.02121295696385205
1782951193615175000,6.0841748046875,0.0612339286416769,0.07785217822641134,0.002160977426171303
1782951193625102000,6.09410205078125,0.0004068272352218628,0.08543123517856001,0.020401713646203277
1782951193635029000,6.104029052734375,-0.1027045876711607,0.08292042140141129,0.03335384193882346
1782951193644956200,6.1139560546875,-0.17027473359704018,0.08301277585998178,-0.004110577123984694
1782951193654882300,6.12388232421875,-0.19031798919439313,0.06256751533299684,-0.0569444147542119
1782951193664809000,6.13380908203125,-0.12306757674217224,-0.0061129299223423,-0.08037994313836097
1782951193674736000,6.143736083984375,-0.013320084822177886,-0.045832945892214774,-0.11818543072380125
1782951193684663000,6.1536630859375,0.0873322464942932,-0.06219941267296671,-0.13133088963143527
1782951193694590200,6.163590087890625,0.10271452454328536,-0.045530455814301964,-0.11889409044981002
1782951193704517000,6.17351708984375,0.11160510248541831,-0.03381123031750321,-0.12552169189602136
1782951193714443000,6.183443115234375,0.1330079559981823,-0.02962809941396117,-0.11617650205418467
1782951193724370000,6.193369873046875,0.12682254536151885,-0.03351619289368391,-0.05310147559046745
1782951193734297000,6.203297119140625,0.1196703355193138,0.022900690855085847,0.004965951844304799
1782951193744223700,6.2132236328125,0.0757604666441679,0.027602731066197154,0.016728212765231728
1782951193754151000,6.22315087890625,0.005706102687120437,0.040643560555577274,0.029778394604846832
1782951193764077000,6.2330771484375,-0.019497896674275397,0.021081512603908777,0.04401135648824274
1782951193774004000,6.24300390625,-0.04033785560727119,0.05319412230998277,0.09643390990383922
1782951193783931100,6.25293115234375,-0.09645546414852142,0.08825783690661192,0.14337036005854606
1782951193793858000,6.262858154296875,-0.14019523715376853,0.11689692528322339,0.12857917977049946
1782951193803785000,6.272784912109375,-0.12768179253935813,0.09606894904896617,0.09844261937774718
1782951193813712000,6.2827119140625,-0.07299976975917816,0.047574382732063526,0.04858772449307144
1782951193823638000,6.292637939453125,-0.0072796356141567225,0.02481587682664394,0.008327025775238871
1782951193833565000,6.30256494140625,0.07752338466346263,0.006514496460556984,0.049613852670416236
1782951193843492000,6.3124921875,0.09164718708395958,0.011615765122324227,0.1227540538135916
1782951193853419000,6.3224189453125,0.05303484009504318,0.06767214499562978,0.13480908713601528
1782951193863346000,6.332345947265625,0.041080198407173155,0.10088029485344886,0.16273988111279905
1782951193873272000,6.34227197265625,0.05224047484695911,0.11327420474141836,0.1356320208914578
1782951193883199000,6.352198974609375,0.061487611141800874,0.07847250208184123,0.0793613406803459
1782951193893126000,6.3621259765625,-0.0073965399920940395,0.03697495504543185,0.05208141182772815
1782951193903053000,6.372052978515625,-0.08313128767311573,0.013776011896133422,0.01017338429428637
1782951193912980000,6.38197998046875,-0.10070143115520477,0.0478502770639956,0.003782441148161888
1782951193922907000,6.391906982421875,-0.08851414975523948,0.06745996354967355,-0.0056454585410654545
1782951193932833000,6.4018330078125,-0.043132454761862754,0.07834376113563775,-0.059057096059247846
1782951193942760000,6.411760009765625,0.029687282255291936,0.06240194950774312,-0.07357135910205542
1782951193952687000,6.42168701171875,0.0777162768870592,0.05109145094230771,-0.08581709269098937
1782951193962614000,6.431614013671875,0.09118483026921749,0.04819835984930396,-0.088941654452309
1782951193972541000,6.441541015625,0.03989712610244751,0.06504983366802335,-0.09990596992857753
1782951193982466800,6.451466796875,-0.01232347500026226,0.08376680909767746,-0.11698957200273871
1782951193992394000,6.46139404296875,-0.029667408511042593,0.0644770022161305,-0.1550543681114912
1782951194002321000,6.47132080078125,-0.03780862939059734,0.04676087439209223,-0.16251900490373372
1782951194012248000,6.481248046875,-0.007170914542675018,0.07355828042477369,-0.1355862820535898
1782951194022174700,6.4911748046875,0.03342120808660984,0.07752469983771443,-0.10507606604285538
1782951194032102000,6.501101806640625,0.07590075189769267,0.05418269495591521,-0.05902012504972517
1782951194042028000,6.511028076171875,0.0643535219669342,0.057032823690027,-0.06301635507903992
1782951194051955000,6.520954833984375,0.029432430711388586,0.05181918069496751,-0.0753892221789807
1782951194061882000,6.530882080078125,0.07638941219747065,0.07121493216902017,-0.04294285047389566
1782951194071809000,6.54080908203125,0.12005144379138946,0.0774225546374917,-0.019236615389585494
1782951194081736000,6.55073583984375,0.12020341948270798,0.06529767094925046,0.047958486678823825
1782951194091661800,6.560661865234375,0.07336217333078383,0.08164470237717032,0.019024507008865474
1782951194101589000,6.570589111328125,-0.014858546435832976,0.08713803909644484,0.00016059738919138908
1782951194111516000,6.580515869140625,-0.07132979072034358,0.09380451124832033,0.011182196010649204
1782951194121443000,6.590443115234375,-0.0808493142157793,0.11107479500100016,0.016835399466753005
1782951194131370000,6.600369873046875,-0.040049686315655704,0.11940540097281337,0.08701726226098835
1782951194141297000,6.610296875,-0.008002689191699027,0.11314049535915255,0.12662614600658417
1782951194151223000,6.62022314453125,0.02489654084742069,0.09288023601025343,0.06840345494486391
1782951194161150000,6.63014990234375,0.04888122754693031,0.046699791854619976,-0.016549568262696265
1782951194171077000,6.6400771484375,0.048045945766568184,0.009751432555168867,-0.05567132607847452
1782951194181004000,6.650004150390625,0.041945290803909296,0.03733662796467543,-0.0785249629214406
1782951194190931000,6.659930908203125,0.034445290437340736,0.04916793553382158,-0.0827112356301397
1782951194200856800,6.66985693359375,0.03014554741680622,0.029043285263329742,-0.04842983051761984
1782951194210784000,6.679783935546875,0.027182605957984923,0.029706133086234328,0.0020266104567795993
1782951194220711000,6.6897109375,0.05232698408663273,0.03830693430155516,0.0650062867872417
1782951194230638000,6.69963818359375,0.05907996547818183,0.06179550804719328,0.09971921518482267
1782951194240565000,6.70956494140625,-0.009237783944606781,0.08007029266729951,0.11750475498326123
1782951194250492000,6.719491943359375,-0.055094110712409015,0.0759596424780786,0.08911949523724615
1782951194260418000,6.72941796875,-0.05134557183384895,0.07257569912821055,0.0583317043941468
1782951194270345000,6.739344970703125,-0.005349544334411621,0.06128580495938658,0.034136662879586215
1782951194280272100,6.749272216796875,0.009945639953017234,0.042744478357583285,0.006186506615206599
1782951194290199000,6.759198974609375,-0.030053777480125426,0.055205169871449467,-0.046676776305213566
1782951194300126000,6.7691259765625,-0.07019348016679286,0.07374138190671801,-0.019101079376414417
1782951194310051800,6.7790517578125,-0.08383212941884995,0.08189253965839743,0.03944046837612986
1782951194319979000,6.78897900390625,-0.03172843269407749,0.07931976656094193,0.07782046791389584
1782951194329906000,6.798906005859375,-0.02086100172102451,0.08843845417052507,0.056618982192128894
1782951194339833000,6.8088330078125,-0.008633972832560538,0.06397665147855877,0.011845336094498634
1782951194349760000,6.818760009765625,0.05408873306214809,0.049029257715493435,-0.045461555296555156
1782951194359687000,6.82868701171875,0.06604454379379748,0.01787190290763974,-0.07474909764453769
1782951194369613000,6.838613037109375,0.1120417403370142,-0.003332797684520483,-0.07198730478100478
1782951194379540000,6.8485400390625,0.16063479859232901,0.00122062783613801,-0.08902977112717926
1782951194389467000,6.858466796875,0.15970248617827892,0.008692425021529197,-0.05533098820820451
1782951194399394000,6.86839404296875,0.12862462634742258,0.032159371457248925,-0.008001227886974811
1782951194409321000,6.878321044921875,0.04316927964091301,0.03537877189517021,-0.006316708866134286
1782951194419246800,6.888246826171875,0.029234277790784833,0.04947612470015883,-0.042956367542594666
1782951194429174000,6.898174072265625,0.07283844171762466,0.014569500361382961,0.01237323242612183
1782951194439101000,6.908100830078125,0.09862754749059677,-0.0037527766622602937,0.05990574877783656
1782951194449028000,6.918028076171875,0.09036942223310471,0.008097527868300676,0.06374401176646352
1782951194458955000,6.927955078125,0.050290509822964666,0.026300270165503025,0.06276537599265575
1782951194468882000,6.9378818359375,-0.027659575819969175,-0.005463672233372926,0.10959588155485689
1782951194478807800,6.947807861328125,-0.14722235931158065,-0.013477321210503577,0.10579510103240608
1782951194488735000,6.95773486328125,-0.26416122404038905,0.006937105786800384,0.03920271409749985
1782951194498662000,6.967661865234375,-0.31845863141715525,0.009907353769242762,-0.007764715717360377
1782951194508589000,6.977589111328125,-0.25177754328548907,0.0247197229757905,-0.03819638659916818
1782951194518516000,6.987515869140625,-0.08764730379283428,0.03045622080117464,-0.027086744368076322
1782951194528441900,6.99744189453125,0.11365326718688011,0.022886223938316106,0.023806042196974155
1782951194538369000,7.007369140625,0.2399906593799591,-0.002958703675121069,0.060926543192937964
1782951194548296000,7.0172958984375,0.23766543130278586,-0.018605477879196405,0.07103840655833482
1782951194558223000,7.02722314453125,0.11237608685791492,-0.0028952830500900742,0.005016001531109214
1782951194568150000,7.03714990234375,-0.003878887259960174,0.02616524560898542,-0.04236906917393207
1782951194578077000,7.047076904296875,-0.05812427218854427,0.0523740380987525,-0.0756868899513036
1782951194588002800,7.0570029296875,-0.04422024999856949,0.05712926980182528,-0.06260382875539362
1782951194597930000,7.066929931640625,0.035572248640656466,0.04621741516515612,-0.04821713761501014
1782951194607857000,7.07685693359375,0.10939911687374114,0.008194850762933492,-0.07408208510316908
1782951194617784000,7.0867841796875,0.17308628388643263,0.0004582651615142822,-0.09575213818475603
1782951194627711000,7.0967109375,0.19248305827379225,-0.02407017302587628,-0.1044409830097109
1782951194637636900,7.106636962890625,0.14264263030588625,-0.012805413298308848,-0.10111235004365443
1782951194647564000,7.11656396484375,0.0352133522003889,0.025100246725976466,-0.08789470268264413
1782951194657491000,7.126490966796875,-0.073102645611763,0.05235226465836167,-0.07750497222393751
1782951194667418000,7.136418212890625,-0.1120627831250429,0.05803279451280832,-0.04830898061692714
1782951194677345000,7.146344970703125,-0.09517010051310063,0.044901656391471624,-0.004108019840717315
1782951194687272000,7.15627197265625,-0.0558224249869585,0.042664691119641066,0.04058072445243597
1782951194697197800,7.16619775390625,-0.005103460618853569,0.04602306163683533,0.08691109847277402
1782951194707125000,7.176125,0.00613864888548851,0.055553544917702674,0.08050473856180906
1782951194717052200,7.18605224609375,0.0031517420291900635,0.060127282574027774,0.0782732531826943
1782951194726979300,7.195979248046875,0.002706336349248886,0.08858180816397071,0.052825873519480225
1782951194736906200,7.20590625,0.011265490379929542,0.1102535417459905,0.073997840885818
1782951194746832400,7.215832275390625,0.013288520640134811,0.10891031044349074,0.08209178855754434
1782951194756759300,7.22575927734375,0.019349428114295006,0.08604995159879326,0.06264540287479758
1782951194766686500,7.2356865234375,0.06800327664613723,0.07544979325979947,0.035534400848299265
1782951194776613000,7.245613037109375,0.1367073950380087,0.08340425939559937,0.008829714600369333
1782951194786540300,7.255540283203125,0.16537001042068003,0.08199614616334437,0.044873014818876976
1782951194796467200,7.26546728515625,0.14290508063435553,0.10553966496661304,0.0244658943451941
1782951194806393300,7.275393310546875,0.08702244989275931,0.10033347462564707,0.03265504601970315
1782951194816320500,7.285320556640625,0.03718319096863269,0.0616794804520905,0.034633579551056025
1782951194826247200,7.2952470703125,-0.028254034581780434,0.07194251579120754,0.004843932899832725
1782951194836174300,7.30517431640625,-0.07033376542031765,0.042839024773240086,0.01291113869510591
1782951194846101200,7.315101318359375,-0.06797814220488071,0.027372137180715798,0.03585340366959572
1782951194856027400,7.32502734375,0.002879354828596115,0.05134469505101442,0.010516717839241027
1782951194865954300,7.334954345703125,0.06471651006042957,0.030246669703721998,0.007458426247164606
1782951194875881500,7.344881591796875,0.04886602997779846,0.008912935904413461,-0.050872547494620085
1782951194885808000,7.35480810546875,-0.02622808171212673,-0.024691081403195855,-0.05800400680974126
1782951194895735300,7.3647353515625,-0.11137596990466117,-0.020523294199258087,-0.06768339704200625
1782951194905661400,7.374661376953125,-0.18013269526660441,0.0034724984161555767,-0.09550247427262365
1782951194915588400,7.38458837890625,-0.1924848118394613,-0.003597001578658819,-0.05316219280175864
1782951194925515500,7.394515625,-0.14055238002836704,0.041892391572892665,-0.012357961791753767
1782951194935442200,7.404442138671875,-0.013664952737092971,0.09478840771913528,-0.0006353752940893173
1782951194945369300,7.414369384765625,0.12635200524032114,0.10244038377702236,0.04161627804525196
1782951194955296300,7.424296142578125,0.21534370937943456,0.09244783594235777,0.03917173443734646
1782951194965222400,7.434222412109375,0.24368425320088863,0.11123290817216037,0.04054411876909435
1782951194975149300,7.4441494140625,0.19102642972469328,0.11037599908187985,0.06816752729713917
1782951194985076500,7.454076416015625,0.10254559771716594,0.13390855809971688,0.07287950438037515
1782951194995003100,7.464003173828125,0.000301028773188591,0.14085823110714554,0.03278407922685146
1782951195004930300,7.473930419921875,-0.06387129140794277,0.12238456291407346,-0.026979411536082624
1782951195014856400,7.4838564453125,-0.06965805811583996,0.11324322508126497,-0.07261537355147302
1782951195024783400,7.493783447265625,-0.011499883657693862,0.0926518340818584,-0.07085647412016988
1782951195034710500,7.50371044921875,0.05790858361124992,0.05114844182655215,-0.06429017440713941
1782951195044637400,7.513637451171875,0.08533025902211666,0.05533391081765294,-0.023076266617700455
1782951195054564400,7.523564453125,0.02350011805295944,0.03308130860775709,0.04753616961352527
1782951195064491300,7.5334912109375,-0.05311842672526836,0.02847147672474384,0.038688407899811865
1782951195074417400,7.54341748046875,-0.14547814599275588,0.039721915666013956,0.04007343251742422
1782951195084344300,7.55334423828125,-0.17938567629158494,0.04965995683446526,0.01590367157459259
1782951195094271500,7.563271484375,-0.13388064717948436,0.04665317623391747,-0.03782550746016204
1782951195104198100,7.5731982421875,-0.0427425786614418,0.017766542837023735,-0.05587189015187323
1782951195114125300,7.583125244140625,0.06705401309728622,0.00999590883553028,-0.03929550694748759
1782951195124051500,7.593051513671875,0.1412158123731613,0.031121698972582816,-0.038166941308975216
1782951195133978400,7.602978271484375,0.17603636586368082,0.04005129375085235,0.021126666919887065
1782951195143905300,7.6129052734375,0.17207389197349549,0.04858472881838679,0.050585035790130496
1782951195153832400,7.62283251953125,0.1384007549524307,0.07136267007663846,0.04479015884101391
1782951195163759000,7.632759033203125,0.09986614937484264,0.07858809128552675,0.04376198483705521
1782951195173685200,7.642685302734375,0.07400280932188033,0.07995382668077945,0.05351867808923125
1782951195183612400,7.6526123046875,0.023497779965400693,0.08239712817966938,0.07782390197999775
1782951195193539300,7.662539306640625,-0.007622165441513061,0.0754790193542838,0.05240903634689748
1782951195203466500,7.672466552734375,-0.050963294517993925,0.024301059172302485,0.05885865087769925
1782951195213393200,7.68239306640625,-0.1379401517033577,-0.003907382702082396,0.029846637535467742
1782951195223320300,7.6923203125,-0.23430676852464674,-0.0077821783088147635,-0.004208046149089932
1782951195233246200,7.70224609375,-0.28205285456180573,0.02217822179943323,-0.008186155999824404
1782951195243173400,7.71217333984375,-0.1875789196193218,0.05559621501564979,-0.04259790949374437
1782951195253100300,7.722100341796875,-0.003192074039578438,0.055699236998707054,-0.004827639352157712
1782951195263027500,7.73202734375,0.1824421412527561,0.05825739704892039,0.00309993877671659
1782951195272954000,7.7419541015625,0.2819043860018253,0.03367898223996162,0.009777589909732341
1782951195282880300,7.75188037109375,0.24604455259144306,0.019717384643852708,-0.008311609010398388
1782951195292807400,7.761807373046875,0.1523176366239786,0.015970014809072015,-0.025251930156350133
1782951195302734300,7.771734375,0.037546763584017755,0.026050240927189588,-0.04690357079841196
1782951195312661500,7.78166162109375,-0.015966215416789054,0.032690409594029184,-0.0583276858061552
1782951195322588400,7.79158837890625,-0.03785013044476509,0.025520225703716277,-0.06831073516011238
1782951195332515300,7.801515380859375,-0.08213701593875884,0.015724807876348494,-0.06865355724841356
1782951195342441200,7.811441162109375,-0.12335399246811866,0.035280572217702866,-0.06381152404472232
1782951195352368400,7.821368408203125,-0.06775310127735137,0.038426030636578797,-0.08701645854339003
1782951195362295300,7.83129541015625,-0.006177227330207824,0.04440890443846583,-0.05434643415026366
1782951195372222500,7.841222412109375,0.0527332267999649,0.06775587775632738,-0.02629215992428362
1782951195382149000,7.851149169921875,0.04193009323477745,0.04676964222043752,-0.016589608012139795
1782951195392075300,7.8610751953125,0.03909633111357689,0.07449293092638254,-0.020315350537002085
1782951195402002400,7.87100244140625,0.06083470019102096,0.06835238234475255,0.027099238523468374
1782951195411929300,7.880929443359375,0.09600830490291118,0.11133183850198984,0.03969466233290732
1782951195421856500,7.8908564453125,0.12210486918985843,0.09306450653597712,0.04493234379068017
1782951195431783400,7.900783447265625,0.1487719268411398,0.07261398531198501,0.07025638933517038
1782951195441710300,7.91071044921875,0.1564174731582403,0.037465515041351316,0.058866541923210024
1782951195451636200,7.92063623046875,0.05523790309727192,0.049421325773000714,0.03844802327267825
1782951195461563400,7.9305634765625,-0.06622983723282813,0.027646862468868494,0.03202741564065218
1782951195471489500,7.940489501953125,-0.16887831080257892,-0.001806611030548811,-0.0008159925580024719
1782951195481416200,7.950416259765625,-0.14673603709936142,-0.010640051957964896,-0.031685470335185525
1782951195491343400,7.96034326171875,-0.11143792922496795,-0.017648907806724307,-0.002646422855556011
1782951195501270300,7.970270263671875,-0.06176058286428451,0.0023282968170940874,0.020979586599394678
1782951195511196400,7.980196533203125,-0.05482873777449131,0.030832214506715534,0.021029928547143934
1782951195521123300,7.990123291015625,-0.048019057759642596,0.03283522489219904,-0.011044102714210748
1782951195531050500,8.000050537109376,-0.0735907213896513,-0.003974456588923931,-0.025064444760233163
1782951195540977200,8.00997705078125,-0.08782792105674743,0.02844385806545615,-0.04751775717400014
1782951195550904300,8.019904296875,-0.02218085214793682,0.06789981627166271,-0.01260404550731182
1782951195560830500,8.02983056640625,0.08289923248291015,0.09238105431646108,0.044969241734966636
1782951195570757400,8.03975732421875,0.16208850453197954,0.1103966034784913,0.06775543936491012
1782951195580684500,8.0496845703125,0.20543547882735727,0.10141717820912599,0.011579743960872291
1782951195590611200,8.059611083984375,0.24973756189048288,0.07304010176956653,-0.027761867150664327
1782951195600538400,8.069538330078124,0.26898352963030336,0.08494462070539593,-0.04403882901705801
1782951195610464300,8.07946435546875,0.19055998125672338,0.10589724623262882,-0.05220138494558632
1782951195620391400,8.089391357421874,0.12937982862889766,0.13887816320583224,0.006937690308690071
1782951195630318300,8.099318359375,0.07124445052444935,0.15497852639630436,0.012114654555171727
1782951195640245500,8.10924560546875,0.005324409893155098,0.12137582426294684,0.012544497339799999
1782951195650172200,8.119172119140625,-0.04647299736142158,0.07170037759840488,0.02155950537919998
1782951195660099300,8.129099365234374,-0.0712292529553175,0.02918400890827179,0.023059461613371968
1782951195670025500,8.139025390625,-0.03285129924416542,0.008418576516211033,0.007243687517940998
1782951195679952400,8.148952392578124,-0.016505144599080084,0.03942702437266707,0.01871156860217452
1782951195689879300,8.15887939453125,-0.013871288964152335,0.029993133334070443,0.005843026939779519
1782951195699806200,8.16880615234375,-0.01872866586744785,0.018639087887853383,-0.004052124935016036
1782951195709733000,8.178733154296875,0.007031213811039924,0.0375903104647994,-0.06756671185977757
1782951195719658800,8.18865869140625,0.063995794570446,0.011321019959449768,-0.08459558807201684
1782951195729586000,8.1985859375,0.10850538290441035,-0.015843904211372137,-0.062313905898109076
1782951195739512800,8.208512939453126,0.0953495487332344,0.012821049258857964,-0.07099515193849802
1782951195749440000,8.21843994140625,0.06306465120017528,0.051208209189772605,-0.06046119070351123
1782951195759367000,8.228366943359376,0.030582185268402097,0.03969429700672626,-0.0815305014129728
1782951195769294000,8.238294189453125,-0.004116203147172927,0.04643164243772625,-0.04655307686030864
1782951195779220000,8.248219970703126,-0.08174889340400696,0.012718173406273126,-0.08642587223909795
1782951195789147000,8.25814697265625,-0.14941957709491252,-0.009952654215693474,-0.10534823404774069
1782951195799074000,8.268073974609376,-0.1421913794070482,0.024040362409502268,-0.09055113547556101
1782951195809001000,8.2780009765625,-0.05512625941634178,0.04049173099473118,-0.043844548553973434
1782951195818928000,8.28792822265625,0.043211949738860125,0.053796764378249644,0.004979176652058959
1782951195828853800,8.297853759765625,0.08850129027366638,0.048547611678391694,0.061399786727875466
1782951195838781000,8.307781005859376,0.07240648004114628,0.030517741730064152,0.06638385875076055
1782951195848708900,8.317708984375,-0.0006406359910964965,0.04491714622154832,0.03469320078380406
1782951195858635800,8.3276357421875,-0.059309682580828665,0.06487053157836198,0.06962912428230046
1782951195868563000,8.33756298828125,-0.041897360008955,0.07905453975349665,0.028079335602000353
1782951195878489000,8.347489013671876,0.019117957445979116,0.08873860616087913,0.020319807516410944
1782951195888416000,8.357416015625,0.09939327116608619,0.04314326841682196,0.015379793830960988
1782951195898343000,8.367343017578126,0.15173486829996108,0.03453413776457309,0.016456117825582622
1782951195908269800,8.377269775390625,0.16458967369794844,0.050436201903969045,0.018432313269376752
1782951195918197000,8.387197021484376,0.17701076385378836,0.038680736050009726,0.03170264066569507
1782951195928123000,8.397122802734375,0.1397311267733574,0.03936068113818764,0.08036737591773271
1782951195938050000,8.407050048828125,0.08582125740945339,0.053207566313445566,0.07680588404387236
1782951195947977000,8.41697705078125,-0.044076457613706585,0.07790887684971094,0.06835187088809908
1782951195957904000,8.42690380859375,-0.12813304343819618,0.062995239225775,0.05336589868031442
1782951195967830800,8.436830810546875,-0.1348024381995201,0.0531700107820332,0.02190736896879971
1782951195977758000,8.446758056640626,-0.11527239282131195,-0.02397606500163674,0.010116466475278139
1782951195987684000,8.45668408203125,-0.12121464235186576,-0.05656155291646719,0.005885550907254219
1782951195997611000,8.466611083984375,-0.1030962173372507,-0.05401785978302359,-0.023803265717998144
1782951196007538000,8.476537841796874,-0.09313362624943256,-0.027919541930407285,-0.015199322697520255
1782951196017464800,8.48646484375,-0.14110767582356928,-0.011937106031179428,-0.026558555775508284
1782951196027392000,8.49639208984375,-0.22090251255035398,-0.011330810701102017,-0.07226371056959033
1782951196037318000,8.50631787109375,-0.2886819173127413,0.04929536130577326,-0.330530323613435
1782951196047245000,8.5162451171875,-0.16251111385822295,0.1684327589921653,-0.64957245400697
1782951196057172000,8.526171875,0.03480009522438049,-0.17097382177710532,0.4173136309880763
1782951196067099000,8.536098876953124,0.2791419355511665,-0.17426511840745806,0.41930005556493993
1782951196077025800,8.54602587890625,0.4069184206366539,0.02791545027717948,0.07069361170865594
1782951196086952000,8.555951904296874,0.30806641674041746,0.0483566191509366,-0.005835574285686016
1782951196096879000,8.565879150390625,0.16370938373208044,-0.03860343303009867,-0.012733078714460134
1782951196106806000,8.575805908203124,0.06426116750836372,-0.025091917289048433,-0.08472871293239295
1782951196116733000,8.58573291015625,0.09437281265556811,0.0759738171339035,-0.09439524368308484
1782951196126659800,8.595659912109374,0.14669453604519367,0.15655425128042696,0.07753573268838226
1782951196136587000,8.6055869140625,0.1680944669485092,0.16504019394442437,0.18835209594890473
1782951196146513000,8.615512939453126,0.15702654496729374,0.15589242637082934,0.17584120861776173
1782951196156440000,8.625440185546875,0.08302022851407527,0.14909838231652975,0.13797361558154225
1782951196166367000,8.635366943359376,0.036332711619138716,0.15866174495369195,0.06817081523276865
1782951196176294000,8.6452939453125,0.03140753017663955,0.20111469301879406,0.07237265083678067
1782951196186220800,8.655220703125,-0.040188802525401114,0.1843275166079402,0.19506401467770337
1782951196196147000,8.66514697265625,-0.16183014585673808,0.1556288069985807,0.19932152599170802
1782951196206074000,8.67507421875,-0.2757552157223224,0.142967624476552,0.06664784344919025
1782951196216001000,8.6850009765625,-0.3469143260508776,0.10800634734109044,-0.03922521819025278
1782951196225928200,8.69492822265625,-0.39140988585948944,0.111150636716187,0.009405760922655463
1782951196235854800,8.704854736328125,-0.31377018133997914,0.1390859607376158,-0.006842340175434947
1782951196245781000,8.714781005859376,-0.17960896365344522,0.047819297403842206,-0.09472067624516785
1782951196255708000,8.7247080078125,-0.03856207810640335,-0.015616086804866789,-0.14266235791966317
1782951196265635000,8.734635009765626,0.1472632758438587,-0.05485942517369985,-0.09624284431114792
1782951196275562000,8.74456201171875,0.2841080335259437,-0.04292991792708635,-0.041049218747019764
1782951196285489000,8.754489013671876,0.3728583301246166,-0.026877485531568525,0.020065832755342124
1782951196295415800,8.764415771484375,0.3159785050392151,-0.02106061594635248,0.05630655524209141
1782951196305342000,8.774342041015625,0.14037410085201263,0.006293547186255455,0.07237535425052047
1782951196315269000,8.78426904296875,-0.09215104495286941,0.03852159996554255,-0.07709273816123605
1782951196325196000,8.794196044921875,-0.24655542472302913,0.06262085295543074,-0.22284086020179092
1782951196335123000,8.804123046875,-0.1944189947724342,0.03518339545354247,-0.2413253420498222
1782951196345049900,8.8140498046875,-0.03595744856595993,-0.03814852886945009,-0.1619017497882247
1782951196354976000,8.82397607421875,0.12640402768850326,-0.0961461059384048,-0.14043518338948488
1782951196364903000,8.83390283203125,0.22835925829708575,-0.06346344125941396,-0.09700659522525966
1782951196374830000,8.843830078125,0.3725660691797733,0.028057927487790582,0.006821735778823494
1782951196384757000,8.853757080078125,0.4927350018709898,0.0816257054157555,0.04650288104303181
1782951196394684000,8.863683837890624,0.5019792155563831,0.07491334829553961,0.09137107355631888
1782951196404610800,8.87361083984375,0.4709650686115026,0.07126505492106079,0.10083017210140824
1782951196414537000,8.883536865234374,0.30799861220121383,0.056205286824703216,0.08054390152841806
1782951196424464000,8.8934638671875,0.07616729387938975,0.07249591189026833,0.041084947647526855
1782951196434391000,8.90339111328125,-0.08293781092762946,0.08034560247734189,0.018195216577872632
1782951196444318000,8.91331787109375,-0.22095921117365358,0.06277458221241831,0.057936713727191086
1782951196454244900,8.923244873046874,-0.2806470794171095,0.06797843446582555,0.0663254065617919
1782951196464171000,8.9331708984375,-0.28742461072802544,0.09548165068030356,0.06927906873561442
1782951196474098000,8.943097900390624,-0.22985738790035246,0.080931001149863,0.04196136515587568
1782951196484025000,8.953025146484375,-0.15205577081739902,0.07163666471242905,0.04205233137495815
1782951196493952000,8.962951904296874,-0.07314590023159981,0.041277182283997536,0.049532457997277374
1782951196503879200,8.972879150390625,-0.09714987615346908,-0.007337649411708116,0.01579794617779553
1782951196513804800,8.9828046875,-0.11668752031624316,-0.01794277618676424,-0.031380569104477764
1782951196523732000,8.99273193359375,-0.1354910049855709,-0.026354484570771455,-0.062479106397181745
1782951196533659000,9.002658935546876,-0.13166472469568252,-0.03858165958970785,-0.09008622137755155
1782951196543586000,9.0125859375,-0.08429331718981266,-0.029983488722890615,-0.14866853953190148
1782951196553513000,9.022512939453126,-0.05499591103494167,0.004750117136538028,-0.2158401145942509
1782951196563439900,9.03243994140625,0.0504676199555397,0.015376140569150447,-0.2486454558048397
1782951196573366000,9.042365966796876,0.18866554581224917,0.0035993396662175655,-0.16700981351695954
1782951196583293000,9.05229296875,0.1892968294531107,-0.03104951051920652,-0.05139803267344832
1782951196593220000,9.06222021484375,0.07242050856649875,0.01617079807817936,0.016592969013005495
1782951196603147000,9.07214697265625,-0.028521161085367203,0.12371011242941021,0.0329146468039602
1782951196613074200,9.08207421875,-0.08656769186258316,0.16973989606797693,0.009188464910164475
1782951196622999800,9.091999755859375,-0.031627894929051395,0.1000217783279717,-0.008271642326191066
1782951196632927000,9.101927001953126,0.10968611712157726,0.062091714514791965,-0.00849025351293385
1782951196642854000,9.11185400390625,0.24748072287440298,0.023372107759118077,-0.009935849211364985
1782951196652781000,9.121781005859376,0.2845440868556499,-0.002452069327235222,0.00502637679465115
1782951196662708000,9.1317080078125,0.21130875477492808,-0.006538315727561712,0.026282588378340004
1782951196672633900,9.1416337890625,0.03423018638193607,0.000014613047242164611,0.013370719030871987
1782951196682561000,9.15156103515625,-0.10696692129075526,0.031092326747626065,-0.012224325474724173
1782951196692488000,9.161488037109375,-0.170446583032608,0.052111733900755644,0.014551087921857834
1782951196702415000,9.1714150390625,-0.17341244710087775,0.08336480416804552,0.06398388493694365
1782951196712342000,9.181342041015625,-0.08473463121652602,0.07520458632707595,0.09052110566347837
1782951196722269200,9.191269287109375,0.013618190985918044,0.03978182915970683,0.08089914470687508
1782951196732195000,9.201195068359375,0.048128363353013986,-0.013912790018320083,0.060022360894829034
1782951196742122200,9.211122314453124,-0.11453531071841716,-0.03764057934731245,0.08703523630909621
1782951196752049200,9.221049072265625,-0.2998141367018223,0.04175955897346139,0.04746529633440077
1782951196761976000,9.23097607421875,-0.37228432962894437,0.1268478259332478,-0.012240692087635396
1782951196771903000,9.240903076171875,-0.2500467739701271,0.15732859665378926,-0.02691526025868952
1782951196781829000,9.2508291015625,-0.00970832406580448,0.11743395476937293,0.00006904664821922778
1782951196791756000,9.260756103515625,0.19744155746400355,0.07246639353483915,0.026121114206314085
1782951196801683200,9.27068310546875,0.3815162683546543,0.06516250026226043,0.038108489120006556
1782951196811610000,9.280610107421875,0.4916834469914436,0.055440439932048315,-0.00010148761309683323
1782951196821537000,9.290537109375,0.4856833297938108,0.06325009076967834,-0.003785144561901688
1782951196831463200,9.300463134765625,0.3883616042047739,0.056409431094676256,0.003479439613595605
1782951196841390000,9.31039013671875,0.16618424941301344,0.06948971581161022,-0.011104892990738153
1782951196851317200,9.320317138671875,-0.08583879306614399,0.08919014932066202,-0.07961546157188713
1782951196861244200,9.330244140625,-0.2857639840394258,0.08774886447116732,-0.12806523889899252
1782951196871171300,9.34017138671875,-0.3398281671822071,0.06777867411002517,-0.10470277575105429
1782951196881098000,9.350097900390624,-0.32059622796773907,0.05740472574234008,-0.01941730571873486
1782951196891024100,9.360024169921875,-0.23518764301240444,0.08888049884960054,0.035159722317010166
1782951196900951000,9.369950927734376,-0.09948913275599479,0.11896963990405202,0.015103607238084077
1782951196910878200,9.379878173828125,0.0598047726213932,0.06722834675088525,0.028416896993294357
1782951196920805000,9.38980517578125,0.18872341347932814,0.03854804958105087,0.028459055634588
1782951196930732000,9.39973193359375,0.24608605364561079,0.07663666495680808,0.02875350853651762
1782951196940658200,9.409658203125,0.24281097749769687,0.06827727128192781,-0.02437193245142698
1782951196950585000,9.419585205078125,0.20198036993741988,0.071107087880373,-0.0013802023120224475
1782951196960512300,9.42951220703125,0.06829436854720115,0.0790475254908204,-0.002364683304727077
1782951196970439200,9.439439208984375,-0.10531681599617004,0.09015081104636191,-0.05178060225024819
1782951196980366300,9.449366455078126,-0.17437924630641935,0.09209902250468731,-0.08378346797153353
1782951196990292000,9.4592919921875,-0.13658347639739513,0.09864961319193244,-0.07671586767286062
1782951197000219100,9.46921923828125,-0.04098316777348518,0.055190995215624566,-0.07439509657509624
1782951197010146000,9.47914599609375,0.02527297294437885,0.013011165003478526,-0.060961979832500214
1782951197020073200,9.4890732421875,0.07083937685489654,-0.016672902381420135,-0.014193360525369644
1782951197030000000,9.499000244140625,0.08819149367213248,0.005334492895752191,0.02904847289510071
1782951197039927000,9.508927001953126,0.09133505239486694,0.04851677814871073,0.030955475560203193
1782951197049853200,9.518853271484375,0.12117138773202896,0.06232888427153229,0.022468802243843674
1782951197059780000,9.528780029296875,0.1178185701727867,0.07152282907441258,0.028978841724991797
1782951197069707300,9.538707275390625,0.08273205922245978,0.09166136173978448,0.03445617715753615
1782951197079634200,9.54863427734375,0.04368307438194752,0.05492196901589632,0.00958382090330124
1782951197089561300,9.558561279296875,-0.05126899946630001,0.03467208493053913,0.00845306330770254
1782951197099487000,9.568487060546875,-0.1085299328237772,0.04352496121078729,-0.024568404871597886
1782951197109414100,9.5784140625,-0.0826098941475153,0.029685236428678034,-0.07745309590622783
1782951197119341000,9.588341064453125,-0.05591185683608055,-0.022980478093028067,-0.024961349711939692
1782951197129268200,9.598268310546874,0.004171148204803466,-0.047156595711410045,0.02212766065597534
1782951197139195100,9.608195068359375,0.026711481314897537,-0.024409780243784186,0.0279297710634768
1782951197149121000,9.61812109375,0.022723872983455656,0.01691401766091585,-0.007650149426981806
1782951197159048200,9.628048095703125,0.01692833844721317,0.042374914392828936,-0.00842266816943884
1782951197168975000,9.63797509765625,0.002924363014101982,0.039175095438212154,0.010196107582747936
1782951197178902300,9.64790234375,-0.031898528563976285,0.049505204664170736,0.018972411495447157
1782951197188829200,9.6578291015625,-0.07434592367112636,0.07265607088804245,0.015922741601243615
1782951197198755000,9.667755126953125,-0.03787468036413193,0.08430266954004764,0.05497494131214917
1782951197208682000,9.677681884765626,-0.010388707545399665,0.06977656992897391,0.08933883707635104
1782951197218609200,9.687609130859375,0.011643091520667075,0.05320990440100431,0.05271174562051892
1782951197228536000,9.6975361328125,0.0017974048107862472,0.07604848980531095,0.019153905542194843
1782951197238463200,9.707463134765625,-0.005042670342326164,0.07562661113142967,0.012408303739503026
1782951197248390100,9.71739013671875,0.01994388687610626,0.05169555431529879,0.056711775042116636
1782951197258316000,9.72731591796875,0.08928045795261859,0.06107026251256466,0.06796206785291432
1782951197268243200,9.7372431640625,0.15525310555398464,0.06328165495172143,0.08542005619741976
1782951197278170000,9.747170166015625,0.14895663575828075,0.043158173725008964,0.04609481169879436
1782951197288097000,9.757096923828126,0.10181845248639583,0.033101036221534014,-0.057354383794590826
1782951197298024200,9.767024169921875,0.03305354381799697,-0.005558803170919418,-0.12894012203738092
1782951197307950000,9.7769501953125,-0.04253507339060306,0.011546937669813632,-0.16643471704274415
1782951197317877000,9.786876953125,-0.05399930121302604,0.051444648294150824,-0.1603309933401644
1782951197327804200,9.79680419921875,0.011145663392543793,0.08337883269339799,-0.10032945603765547
1782951197337731000,9.80673095703125,0.08495265788137912,0.08397387597709893,-0.03677636373341083
1782951197347658200,9.816658203125,0.08224106083512306,0.05231310169175267,-0.01659713373146951
1782951197357584000,9.826583984375,0.047536827200651166,0.03302855550721288,-0.01924355658702552
1782951197367511000,9.836510986328125,-0.014575637841224669,0.02582403095588088,-0.018477102259173987
1782951197377438000,9.84643798828125,-0.09254676627218723,0.027469606205821034,-0.013453063552081585
1782951197387365000,9.856365234375,-0.09748656076192855,0.05763327380120754,-0.007026026179268956
1782951197397292000,9.8662919921875,-0.08522679864764213,0.07074599948301911,0.0089172467533499
1782951197407219200,9.87621923828125,-0.06644143415689469,0.09410422484725713,0.01824110154621303
1782951197417145000,9.88614501953125,0.022669512447714806,0.08574132404103875,0.009791399239376187
1782951197427072000,9.896072021484375,0.11123626917302608,0.052339551307260986,0.03359481108784675
1782951197436999200,9.905999267578125,0.12318097398877143,0.02085997880771756,0.05787855379916727
1782951197446926000,9.915926025390625,0.07965279790759086,0.025700404576212168,0.05105353008471429
1782951197456853200,9.925853271484375,0.08292261335849761,0.06281725231036543,0.04924531161896884
1782951197466779100,9.935779052734375,0.10900924077332019,0.07716682631075382,0.1065594364684075
1782951197476706000,9.9457060546875,0.1390595111221075,0.06669643183127046,0.1436171744264662
1782951197486633000,9.955633056640625,0.11422902124822139,0.06929214741289615,0.14405373921282588
1782951197496560000,9.96556005859375,0.04992459912002086,0.04410948310047388,0.11404219343923032
1782951197506487000,9.975487060546875,-0.07698737809062003,0.027087621150910852,0.08567410402372479
1782951197516413200,9.9854130859375,-0.1596498792082071,0.03795461373254656,0.04958696466349065
1782951197526340000,9.995340087890625,-0.23838322418332097,0.023390666329115628,0.018675401310250164
1782951197536267000,10.00526708984375,-0.2542214293062687,0.054039925484359264,-0.011840367658436298
1782951197546194200,10.015194091796875,-0.16303426094949244,0.09527999062836169,-0.013569383408129215
1782951197556121000,10.02512109375,-0.021093641433119772,0.09427768171802163,0.014759981432184576
1782951197566048300,10.03504833984375,0.13758067074120045,0.08167071360126137,0.059460708424076435
1782951197575974100,10.04497412109375,0.28609131629765033,0.05876125491783023,0.04761230358965694
1782951197585901000,10.054901123046875,0.3248655758500099,0.028835779992491005,0.029244214662909506
1782951197595828000,10.064827880859376,0.27270167337059975,0.026399492756277322,0.008222469422221183
1782951197605755100,10.074755126953125,0.1597211908787489,0.03667860244736075,-0.037263197402283545
1782951197615682000,10.08468212890625,-0.01333995856642723,0.0280843771032989,-0.054233913686499
1782951197625608200,10.094608154296875,-0.1884194620966911,0.03132876585200429,-0.05725318844243884
1782951197635535000,10.10453515625,-0.30713878050148485,0.04264116411358118,-0.06634257689230144
1782951197645462000,10.1144619140625,-0.28718320318758483,0.02078969005048275,-0.10508965617679059
1782951197655389200,10.12438916015625,-0.16823592124581335,0.0048538697719573975,-0.09919701794162392
1782951197665316000,10.134316162109375,-0.011707388928532599,-0.010295622434467076,-0.02702960735335946
1782951197675242200,10.1442421875,0.12183715816438197,-0.005158259546011686,-0.012617051119357348
1782951197685169200,10.154169189453125,0.16799276013970374,0.014206220006942749,-0.07562186189107596
1782951197695096000,10.164095947265626,0.15530395895838736,0.024955723688751458,-0.0750192198228091
1782951197705023000,10.17402294921875,0.049130233871936796,0.01666895685866475,-0.09506554416008293
1782951197714950400,10.183950439453126,0.031525603598356246,0.051543286363035436,-0.11256963666863738
1782951197724877300,10.193877197265625,0.08464227675795555,0.07104922021329403,-0.12673260205574333
1782951197734803500,10.203803466796876,0.17058102306723594,0.03476926169469952,-0.03437902026809752
1782951197744730400,10.21373046875,0.2280517997831106,0.021078151603043077,-0.017357523644715548
1782951197754657300,10.2236572265625,0.17314532059729099,0.02783843951821327,-0.07061338607929647
1782951197764584200,10.233584228515625,0.05106266323924064,0.0456717639811337,-0.053836950258165595
1782951197774511400,10.243511474609376,-0.0939028570562601,0.08716171223297714,-0.028230580640956758
1782951197784437500,10.2534375,-0.15576514672935007,0.1274487144358456,-0.008130991746485234
1782951197794364400,10.263364501953125,-0.1782207241654396,0.1499535378411412,0.030990108482167125
1782951197804291600,10.27329150390625,-0.09168342744112014,0.141174457449466,0.09888773279674351
1782951197814218200,10.28321826171875,0.001433247673511505,0.11808715798109769,0.10851773092932998
1782951197824145400,10.2931455078125,0.08620704185664653,0.06988952878415584,0.061341042277961964
1782951197834071300,10.3030712890625,0.09997779305577277,0.03997735173180699,0.026633374577388166
1782951197843998500,10.31299853515625,0.0658259326070547,0.03917918709143996,0.039180721461400385
1782951197853925400,10.32292529296875,0.0018558569997549055,0.04838847559392452,0.04671111696623265
1782951197863852300,10.332852294921874,-0.009116203391551971,0.045725978386402126,0.01646123239211738
1782951197873779200,10.342779296875,0.024726444977521893,0.04257598992288113,-0.006870762552320957
1782951197883706400,10.352706298828124,0.06085632750093937,0.03864785669371486,-0.0032577596869319677
1782951197893632500,10.362632568359375,0.08356149578392505,0.06268821910321712,-0.016266878863796592
1782951197903559400,10.372559326171874,0.14476853641867637,0.07421718272492289,-0.04281673987619579
1782951197913486600,10.382486572265625,0.14628244811296462,0.04584200598150492,-0.06645246700756251
1782951197923413200,10.392413330078124,0.02346621578335762,0.014110942938923834,-0.08861877917349338
1782951197933340400,10.40234033203125,-0.12008125440776347,0.05875380226373672,-0.1043174296952784
1782951197943266300,10.412266357421874,-0.12927695277631282,0.09268997413516045,-0.13810783642046154
1782951197953193500,10.422193359375,-0.06303717867136001,0.05703866890892386,-0.08571589733883737
1782951197963120400,10.432120361328124,0.03162438779771328,0.023115941040962932,-0.03134754361771047
1782951197973047300,10.44204736328125,0.08508242174088955,0.05057692554891109,-0.016173355361446737
1782951197982974200,10.45197412109375,0.08357844691872596,0.08144435749948024,-0.017010682968422768
1782951197992900400,10.461900390625,0.07720832736492156,0.08825666786283254,-0.006583908434957266
1782951198002827500,10.47182763671875,0.12457330513000488,0.05498188250958919,-0.012270794964954257
1782951198012754400,10.48175439453125,0.11644494373202323,0.019616554617881775,0.041930823887139555
1782951198022681600,10.491681640625,0.04390051652491092,0.010277940647304057,0.0835901373565197
1782951198032608300,10.501608154296875,-0.05716390272378921,0.0391666198708117,0.06419131714254617
1782951198042534400,10.511534423828126,-0.14127894073724745,0.03735153327286243,0.001324672732502222
1782951198052461300,10.52146142578125,-0.15032441698014734,0.06776143071427941,0.004451280320435762
1782951198062388500,10.531388427734376,-0.1335790338844061,0.06141659173220396,-0.0007120937921106815
1782951198072315400,10.5413154296875,-0.0967220061302185,0.023378099108487368,-0.003362535235658288
1782951198082242300,10.5512421875,-0.0708978290438652,0.023969635260850188,-0.04283317955434322
1782951198092168400,10.56116845703125,0.009009235885739326,0.06396510717123746,-0.05387932809516787
1782951198102095400,10.571095458984376,0.1621077937543392,0.0734152186922729,-0.026819690929725765
1782951198112022300,10.581022216796875,0.25628654514253135,0.04257014470398426,0.0716951169013977
1782951198121949400,10.590949462890626,0.2625333305776119,0.06565320638865232,0.12543452506922184
1782951198131876400,10.60087646484375,0.2227063471019268,0.09277867533192038,0.06106375970654189
1782951198141803300,10.61080322265625,0.12137655491530895,0.06391629959344863,0.028604966911301016
1782951198151729400,10.6207294921875,-0.025656419304013252,0.012892945451289415,0.023644056568294762
1782951198161656300,10.63065625,-0.17169044561386107,0.047523237066715955,-0.036105113408342
1782951198171583500,10.64058349609375,-0.19783435617387293,0.08402414485961199,-0.06473726058751345
1782951198181510400,10.650510498046875,-0.1602946068525314,0.03465644896999001,-0.02085727539397776
1782951198191437600,10.6604375,-0.11946516833603381,0.04399433228820562,0.007581468104943633
1782951198201363200,10.67036328125,0.038004444223642346,0.07523074368163943,-0.0020264643263071774
1782951198211290400,10.680290283203124,0.2048246534526348,0.03614303426593542,0.011362301817908883
1782951198221217300,10.69021728515625,0.2623258253067732,-0.015515841300785541,0.0694605627823621
1782951198231144400,10.70014453125,0.23454700702130793,-0.0009008943624794482,0.08241232574880122
1782951198241071400,10.7100712890625,0.19959785871505736,0.029977497373521327,0.012982450365647673
1782951198250997200,10.719997314453124,0.13870587537884713,-0.0059510173588991164,-0.020094035936519504
1782951198260924400,10.72992431640625,0.013020809614658355,-0.053887803662568325,-0.0037836101919412612
1782951198270851300,10.739851318359374,-0.09993278487026691,-0.03844751181602478,-0.04176423514857888
1782951198280778500,10.749778564453125,-0.20554069276750087,-0.044246991875022644,-0.06851086084209382
1782951198290705400,10.759705322265624,-0.24030220954716205,-0.01678103893101215,-0.013274784375727176
1782951198300632600,10.769632568359375,-0.22945114518702028,0.03248568080216646,-0.0034084932692348955
1782951198310558200,10.77955810546875,-0.15903496218025684,0.06443783924952148,-0.06999328141957521
1782951198320485400,10.7894853515625,-0.020838205367326734,0.05186170466244221,-0.1003823552686721
1782951198330412300,10.799412353515624,0.12931786930859088,0.02945493480414152,-0.09464015835486352
1782951198340339500,10.80933935546875,0.2017225957840681,-0.006484831974655389,-0.061768546975031494
1782951198350266400,10.819266357421874,0.16878887895345687,0.028101766629517078,-0.028424934169277546
1782951198360192300,10.829192138671875,0.12177870597541332,0.06982523137629032,-0.023669994727149604
1782951198370119400,10.839119384765626,0.10852116499543189,0.0871722336269915,0.010925883162021637
1782951198380046300,10.84904638671875,0.09936112246215342,0.11364216127097607,0.028828473468869922
1782951198389973500,10.858973388671876,0.10240238985419273,0.10478782368600367,0.011281199405714868
1782951198399900400,10.868900390625,0.08487725455760955,0.04888604985252022,-0.032380320731550456
1782951198409826300,10.878826416015626,0.09394961880743503,-0.011298369736224412,-0.05909216737262904
1782951198419753200,10.888753173828125,0.06856617122590541,-0.025122458557784555,-0.05603548321574926
1782951198429680400,10.898680419921876,0.06338847632706165,-0.020825930407643318,-0.0851537334114313
1782951198439607300,10.908607177734375,0.08872516215741634,0.003773673319816589,-0.13991671247333287
1782951198449534500,10.918534423828126,0.0721609808474779,-0.012385872711986302,-0.11986505437381564
1782951198459460400,10.92846044921875,0.04781155248880386,-0.010938158121705054,-0.06606397914662956
1782951198469387300,10.93838720703125,0.01919452981352806,0.003136106068640947,-0.04188771539777517
1782951198479314400,10.948314453125,-0.03316401845514774,-0.014924159017950295,-0.010190408494323492
1782951198489241300,10.958241455078126,-0.07701660418510436,-0.0035708442240953444,0.014982318945974111
1782951198499168500,10.96816845703125,-0.12982581883072852,0.041785716328024865,0.028551629288867113
1782951198509095400,10.978095458984376,-0.19886194565594195,0.03610051029846072,0.047157764755189416
1782951198519021300,10.988021240234374,-0.28260756583511826,0.06142477503865957,0.05011500712558627
1782951198528948200,10.9979482421875,-0.3300800956279039,0.10822978083342313,0.037856121794134376
1782951198538875400,11.00787548828125,-0.2475800915956497,0.13652224772945046,0.07556311744116247
1782951198548802300,11.01780224609375,-0.11096622005999088,0.12617357993349432,0.14839775976650416
1782951198558729500,11.0277294921875,0.0517138206243515,0.12759820590913296,0.17628566444963215
1782951198568655400,11.0376552734375,0.17980477848649024,0.12034385086670517,0.14246427806429565
1782951198578582300,11.047582275390624,0.25333938577473164,0.11810703172534703,0.13841726769581436
1782951198588509400,11.057509521484375,0.285817760053277,0.12732859518751502,0.12560505933053792
1782951198598436400,11.067436279296874,0.24568097997605798,0.11613573165237903,0.08634951906725764
1782951198608363300,11.07736328125,0.15536884088814257,0.11231398140713572,0.060527022481337185
1782951198618289400,11.087289306640624,0.06467676257193088,0.06807984901368618,0.0640538083679974
1782951198628216300,11.09721630859375,-0.0022223522245883942,0.07717837061807513,0.03621500352360308
1782951198638143200,11.107143310546874,-0.058825113934278486,0.056953182582557195,0.013389935187995434
1782951198648070400,11.1170703125,-0.03328910613954067,0.04257423635721207,0.007466463423147797
1782951198657997300,11.126997314453124,0.010175357055664061,0.012252309460192918,-0.008478928401321173
1782951198667924500,11.136924560546875,0.024387422281503677,-0.019508418068289755,-0.029386326547339556
1782951198677850400,11.146850341796876,-0.03359305752217769,-0.047992462013661856,-0.10820530397929251
1782951198687777300,11.15677734375,-0.08641454712748527,-0.026469927643984554,-0.1087480325538665
1782951198697704200,11.1667041015625,-0.11097557241022586,0.013334843999892472,-0.09181735601909458
1782951198707631400,11.17663134765625,-0.09045885408222674,0.041542555221915245,-0.06330437824018299
1782951198717558300,11.186558349609374,-0.018240590089559555,0.030834844855219125,-0.02303323119357228
1782951198727484200,11.196484130859375,0.0521668250888586,0.035158845534175635,-0.02240377418361604
1782951198737411300,11.206411376953126,0.10183657266497612,0.034652211186289784,-0.025418738090619442
1782951198747338200,11.216338134765625,0.11674480346143246,0.006275134746730328,-0.06527933157496153
1782951198757265400,11.226265380859376,0.14859773931801318,0.014264379934966563,-0.0821259100228548
1782951198767192300,11.2361923828125,0.16144260784387587,0.06029211774691939,-0.0599775719050318
1782951198777118500,11.246118408203126,0.1555932972937822,0.1042404189363122,0.00917202523201704
1782951198787045000,11.256045166015625,0.0788800599694252,0.0988783073812723,0.046176937024295324
1782951198796972300,11.26597216796875,-0.059762687045335765,0.09960369904637337,0.03151172120347619
1782951198806899200,11.275899169921875,-0.13444295723736285,0.09231690303906798,-0.06015935821272433
1782951198816826400,11.285826416015626,-0.0545370613515377,0.06232800748869776,-0.22668701423592863
1782951198826752500,11.29575244140625,0.1017763669103384,-0.013171616262197493,-0.355268239833042
1782951198836679200,11.30567919921875,0.2914198178440332,-0.04922258833050728,-0.1461581276135519
1782951198846606300,11.3156064453125,0.3773766843318939,-0.04369403416737914,0.05090458660069853
1782951198856533200,11.325533203125,0.35011166078746314,0.023079408422857522,0.11986757512446493
1782951198866460400,11.33546044921875,0.1566653104394674,0.12024170566648244,0.23023487944323567
1782951198876387300,11.34538720703125,-0.06565116056203842,0.1957433752439916,0.3109305739998817
1782951198886313500,11.3553134765625,-0.22541385249495505,0.2042908388368785,0.14125059142559765
1782951198896240000,11.365240234375,-0.19193068508803843,0.15082535223960875,-0.021153006937541068
1782951198906167300,11.375167236328124,-0.1823246523529291,0.01375102358534932,0.010220365241169928
1782951198916094200,11.38509423828125,-0.20074352161884307,-0.11182254462838172,-0.0707358799478039
1782951198926021400,11.395021484375,-0.15390636712014674,-0.10883359194546938,-0.14672485811822117
1782951198935947500,11.404947509765625,-0.17474866414070128,-0.030696313167363404,0.018055223585292695
1782951198945874200,11.414874267578124,-0.15947452264130116,0.0350925022996962,0.1108077050300315
1782951198955801300,11.42480126953125,-0.059848027241230006,0.10822086687460541,0.048470345191098746
1782951198965728300,11.434728271484374,0.12035247256457805,0.11559811764433979,0.030765834739618
1782951198975655400,11.444655517578125,0.1613508379071951,0.022631372394412756,0.09863832461293787
1782951198985581300,11.454581298828124,0.12118775434494018,0.04520721520930528,-0.024541005408018825
1782951198995508500,11.464508544921875,0.19634324083328247,-0.020853987458348273,-0.04919296037722379
1782951199005435100,11.47443505859375,0.22252865244746206,-0.12543605943918226,-0.11260364853609353
1782951199015362300,11.4843623046875,0.0833808785200119,-0.1762643294006586,-0.06401636243443935
1782951199025289200,11.494289306640624,-0.11613456260859965,-0.0644102205902338,-0.04080624030400067
1782951199035215400,11.50421533203125,-0.21138708070814607,0.0616552227936685,-0.12593728695958853
1782951199045142500,11.514142578125,-0.1562871247768402,0.06973214626535773,-0.22606256219465284
1782951199055069200,11.524069091796875,-0.07474281403422355,0.04610708665847778,-0.11204415148980915
1782951199064996400,11.533996337890626,-0.017802783194184303,0.059475686797499656,-0.034113574264943596
1782951199074923300,11.54392333984375,0.028206688308715817,0.06846651024371385,0.019490115226618945
1782951199084850400,11.553850341796876,0.041295886984467504,0.06393734238147736,0.08981149608939885
1782951199094776300,11.5637763671875,0.03166822693943977,0.09514555059373378,0.09217581406794488
1782951199104703500,11.573703369140626,0.0028659108251333234,0.12687719815820456,0.09207987941280006
1782951199114630100,11.583630126953125,-0.007902151426672934,0.12891937151029706,0.03325166020598262
1782951199124557300,11.593557373046876,-0.017632687324285506,0.17521642778292298,0.13309793583657592
1782951199134484200,11.603484130859375,0.006492284628748893,0.19129194879308342,0.17142762995921074
1782951199144410400,11.613410400390626,0.018241759133338926,0.1965346717521548,0.1032095415186137
1782951199154337300,11.623337158203125,-0.06317454131543636,0.10333207191973924,-0.03371427274905145
1782951199164264400,11.633264404296876,-0.07954583040177822,-0.020375702422112226,-0.05410889906734228
1782951199174191400,11.64319140625,-0.019521862071752546,0.029450258629024027,-0.021426490116678177
1782951199184118300,11.6531181640625,0.1535334421545267,0.07260200261324644,-0.053829680267162616
1782951199194044400,11.66304443359375,0.31249300101101396,0.12927432242780923,-0.10074885049350558
1782951199203971300,11.672971435546875,0.31459669529199596,0.17343451280221342,-0.026754334075935183
1782951199213898500,11.6828984375,0.3061515230298042,0.0982625135704875,-0.00475296668075025
1782951199223825200,11.6928251953125,0.30219314079284665,-0.030867870341986417,-0.017893676348030567
