time,seconds_elapsed,z,y,x
1782951187589591800,0.058591796875,-0.03891710937023163,-0.018112875521183014,0.09306733310222626
1782951187599518700,0.068518798828125,-0.026472046971321106,-0.02820562943816185,0.11680181324481964
1782951187609446000,0.07844580078125,-0.019949965178966522,-0.039414338767528534,0.13215254247188568
1782951187619372800,0.088372802734375,-0.01157919131219387,-0.04388878121972084,0.14073467254638672
1782951187629299700,0.0982998046875,-0.022607339546084404,-0.027384905144572258,0.13302801549434662
1782951187639226600,0.1082265625,-0.025302404537796974,-0.019094303250312805,0.11568011343479156
1782951187649152800,0.11815283203125,-0.023623548448085785,-0.00943821482360363,0.08342204242944717
1782951187659079700,0.12807958984375,-0.006758418399840593,-0.011206044815480709,0.040944717824459076
1782951187669006800,0.1380068359375,0.01006983034312725,0.0016836547292768955,-0.0009753010235726833
1782951187678933800,0.147933837890625,0.017180340364575386,0.006972716189920902,-0.027785439044237137
1782951187688860700,0.157860595703125,0.017884746193885803,-0.01106327585875988,-0.03490167483687401
1782951187698787600,0.16778759765625,0.01590767130255699,-0.019799062982201576,-0.0030468772165477276
1782951187708714000,0.1777138671875,0.022181279957294464,-0.01802113652229309,0.04874228313565254
1782951187718641200,0.18764111328125,0.016676397994160652,-0.025757595896720886,0.09703674912452698
1782951187728568000,0.197568115234375,0.020591244101524353,-0.037726372480392456,0.11794895678758621
1782951187738495200,0.2074951171875,0.033766500651836395,-0.05214843899011612,0.11311434954404831
1782951187748422100,0.217422119140625,0.03938949853181839,-0.07578985393047333,0.08565396070480347
1782951187758349000,0.22734912109375,0.04163262993097305,-0.08588337153196335,0.05390549823641777
1782951187768275000,0.23727490234375,0.039604634046554565,-0.06841729581356049,0.028557267040014267
1782951187778202000,0.2472021484375,0.037207845598459244,-0.041796423494815826,-0.0022643674165010452
1782951187788129000,0.25712890625,0.03590609133243561,-0.025290947407484055,-0.038910262286663055
1782951187798056200,0.26705615234375,0.04095272719860077,-0.013214224949479103,-0.0767824724316597
1782951187807983000,0.276983154296875,0.048627953976392746,0.0004789503291249275,-0.11153006553649902
1782951187817910300,0.28691015625,0.04970591142773628,-0.0070670610293745995,-0.11909598857164383
1782951187827837000,0.2968369140625,0.03854193910956383,-0.011117462068796158,-0.10859327763319016
1782951187837763000,0.30676318359375,0.02442413754761219,-0.027173537760972977,-0.0825810432434082
1782951187847690000,0.31668994140625,0.01797822304069996,-0.05240139737725258,-0.050227634608745575
1782951187857617200,0.3266171875,0.028922583907842636,-0.08923877775669098,-0.016052667051553726
1782951187867544000,0.3365439453125,0.033250220119953156,-0.08018216490745544,0.017118336632847786
1782951187877471000,0.346470947265625,0.020664894953370094,-0.042891982942819595,0.04694302752614021
1782951187887398000,0.35639794921875,0.007956822402775288,-0.01717383787035942,0.054788168519735336
1782951187897324000,0.366323974609375,-0.007600583601742983,-0.004525301977992058,0.0472160279750824
1782951187907251200,0.376251220703125,-0.01841008849442005,0.0007901010103523731,0.033657874912023544
1782951187917178000,0.38617822265625,-0.016337275505065918,0.005217669531702995,0.010234210640192032
1782951187927105300,0.396105224609375,-0.011614159680902958,-0.0022343876771628857,-0.010385047644376755
1782951187937032000,0.406031982421875,0.0013772539095953107,-0.00999019481241703,-0.026581037789583206
1782951187946959000,0.415958984375,0.01964760385453701,-0.007541151717305183,-0.04141591116786003
1782951187956885000,0.425885009765625,0.03359036147594452,0.00256162928417325,-0.054733291268348694
1782951187966812200,0.435812255859375,0.03545990213751793,0.005528923124074936,-0.05291967839002609
1782951187976739000,0.445739013671875,0.030184445902705193,-0.002249637385830283,-0.0358903594315052
1782951187986666000,0.455666015625,0.01476234570145607,-0.0028150263242423534,-0.013539514504373074
1782951187996593000,0.465593017578125,0.006968394387513399,0.002447026316076517,0.002787987934425473
1782951188006520000,0.47552001953125,0.003365936456248164,-0.0029618535190820694,0.012009982019662857
1782951188016446200,0.4854462890625,0.0013948200503364205,-0.0119514474645257,0.007284080609679222
1782951188026373000,0.495373046875,0.0033019098918884993,-0.023521549999713898,-0.005972336512058973
1782951188036300300,0.50530029296875,0.011559070087969303,-0.02497059293091297,-0.011062822304666042
1782951188046227000,0.51522705078125,0.016533588990569115,-0.01996464841067791,-0.004663778934627771
1782951188056154000,0.525154052734375,0.017683394253253937,-0.00945034809410572,0.004399151541292667
1782951188066081000,0.5350810546875,0.012733908370137215,-0.011317490600049496,0.009789124131202698
1782951188076007200,0.545007080078125,0.015301096253097057,-0.01207355409860611,0.0033176899887621403
1782951188085934000,0.55493408203125,0.013187877833843231,-0.014742041006684303,-0.009852440096437931
1782951188095861000,0.564861083984375,0.01350107230246067,-0.002377469092607498,-0.021340977400541306
1782951188105788000,0.574787841796875,0.009187550283968449,0.009334580972790718,-0.02823270671069622
1782951188115715000,0.584715087890625,0.009670144878327847,-0.0007132762111723423,-0.02076479233801365
1782951188125642000,0.59464208984375,0.007065573241561651,-0.012995243072509766,-0.007766967639327049
1782951188135569200,0.604569091796875,0.010249217040836811,-0.029398992657661438,0.014340151101350784
1782951188145495300,0.614495361328125,0.007396438159048557,-0.03567606210708618,0.03314366564154625
1782951188155422000,0.624421875,0.007654287852346897,-0.02582564763724804,0.04558321833610535
1782951188165349000,0.63434912109375,0.005851327907294035,-0.01601403020322323,0.05690671131014824
1782951188175276000,0.644276123046875,0.0065536475740373135,-0.013995541259646416,0.06448130309581757
1782951188185203200,0.654203125,0.006826088763773441,-0.007818871177732944,0.0681183785200119
1782951188195130000,0.664130126953125,0.013905717991292477,0.0014458578079938889,0.07017654180526733
1782951188205056300,0.67405615234375,0.013672425411641598,0.0019515925087034702,0.06760712713003159
1782951188214983000,0.68398291015625,0.014859103597700596,-0.006380568724125624,0.05602285638451576
1782951188224910000,0.69391015625,0.014021006412804127,-0.0008872663602232933,0.045333728194236755
1782951188234837000,0.7038369140625,0.007503120228648186,0.001012616790831089,0.030764009803533554
1782951188244764200,0.71376416015625,-0.0026270118542015553,0.0032534003257751465,0.010712804272770882
1782951188254691000,0.723691162109375,-0.0013921302743256092,-0.001449938165023923,-0.001246168976649642
1782951188264617000,0.733616943359375,-0.002803605515509844,-0.0094282366335392,0.004125160630792379
1782951188274544000,0.743544189453125,-0.01382378488779068,-0.014587726444005966,0.014455586671829224
1782951188284471000,0.753470947265625,-0.020423630252480507,-0.02008688822388649,0.022288208827376366
1782951188294398000,0.76339794921875,-0.021136412397027016,-0.019247334450483322,0.022224631160497665
1782951188304325000,0.7733251953125,-0.016549648717045784,-0.011360382661223412,0.018065039068460464
1782951188314252000,0.783251953125,-0.010483005084097385,-0.005276422016322613,0.0076188393868505955
1782951188324178000,0.793177978515625,-0.013770410791039467,0.0021913480013608932,0.004192682448774576
1782951188334105000,0.80310498046875,-0.012608236633241177,0.016429420560598373,0.013311735354363918
1782951188344032000,0.813031982421875,-0.017820307984948158,0.017066715285182,0.028739159926772118
1782951188353959200,0.822959228515625,-0.02420438453555107,0.011510741896927357,0.04026072099804878
1782951188363886000,0.832885986328125,-0.019463689997792244,0.005822496488690376,0.04734872281551361
1782951188373813200,0.842813232421875,-0.009864766150712967,0.010724788531661034,0.046653252094984055
1782951188383739000,0.85273876953125,-0.004832990001887083,0.016949394717812538,0.0342453196644783
1782951188393666000,0.862666015625,0.008063871413469315,0.005388363730162382,0.016388410702347755
1782951188403593000,0.872593017578125,0.015458936803042889,0.0007781661115586758,-0.0036926227621734142
1782951188413520100,0.88252001953125,0.01667713187634945,-0.011946403421461582,-0.00960580725222826
1782951188423447000,0.892447021484375,0.014594540931284428,-0.021620867773890495,-0.004173757508397102
1782951188433374200,0.902374267578125,0.009776635095477104,-0.020186608657240868,0.009615533985197544
1782951188443300000,0.912300048828125,0.006353940349072218,0.0005772598087787628,0.026003027334809303
1782951188453227000,0.92222705078125,0.007729425560683012,0.020291544497013092,0.03826373815536499
1782951188463154200,0.932154296875,0.01143068727105856,0.026646379381418228,0.03573213517665863
1782951188473081000,0.9420810546875,0.015439433045685291,0.020694654434919357,0.02406417578458786
1782951188483008300,0.95200830078125,0.018615251407027245,0.009140796028077602,-0.006242331117391586
1782951188492935200,0.96193505859375,0.01955021545290947,0.009180414490401745,-0.028340879827737808
1782951188502861000,0.971861083984375,0.012743440456688404,0.020098043605685234,-0.0421333909034729
1782951188512788000,0.9817880859375,-0.0012495695846155286,0.02399374544620514,-0.030079705640673637
1782951188522715100,0.991715087890625,-0.014069228433072567,0.019507918506860733,-0.002388688735663891
1782951188532642000,1.00164208984375,-0.030017247423529625,0.018878791481256485,0.03459801897406578
1782951188542569200,1.0115693359375,-0.04031968489289284,0.01289546862244606,0.05973319709300995
1782951188552496000,1.02149609375,-0.03998174890875816,0.009517633356153965,0.05811535194516182
1782951188562422000,1.031422119140625,-0.03494331240653992,0.020809702575206757,0.050437457859516144
1782951188572349200,1.04134912109375,-0.02841723896563053,0.03497132658958435,0.024451930075883865
1782951188582276000,1.051276123046875,-0.021767592057585716,0.03744327276945114,0.00130986119620502
1782951188592203300,1.061203369140625,-0.012382123619318008,0.02365254983305931,-0.012647791765630245
1782951188602130200,1.071130126953125,-0.012448969297111034,-0.0014176513068377972,-0.015310686081647873
1782951188612057000,1.08105712890625,-0.01484810933470726,-0.018931139260530472,-0.019213063642382622
1782951188621983000,1.09098291015625,-0.010239776223897934,-0.027435677126049995,-0.02312524802982807
1782951188631910100,1.10091015625,-0.009365230798721313,-0.01670396886765957,-0.028461376205086708
1782951188641837000,1.110837158203125,-0.003567263251170516,-0.007211663760244846,-0.029057657346129417
1782951188651764200,1.12076416015625,-0.00029196005198173225,-0.004815759137272835,-0.015181449241936207
1782951188661691100,1.130691162109375,0.004789883736521006,-0.009321028366684914,0.010745489038527012
1782951188671618000,1.1406181640625,0.007906352169811726,-0.027297068387269974,0.036731231957674026
1782951188681544200,1.150544189453125,0.018705736845731735,-0.04429363086819649,0.05427480861544609
1782951188691471000,1.16047119140625,0.02940613217651844,-0.04209108278155327,0.05644765496253967
1782951188701398000,1.17039794921875,0.030436508357524872,-0.031427253037691116,0.053450800478458405
1782951188711325200,1.1803251953125,0.021069582551717758,-0.019704997539520264,0.035652969032526016
1782951188721251800,1.190251953125,0.011864900588989258,-0.005689048208296299,0.018309930339455605
1782951188731179000,1.200178955078125,0.010011314414441586,0.002939397469162941,0.003103764494881034
1782951188741105200,1.210105224609375,0.005692732520401478,0.00690484419465065,-0.008175521157681942
1782951188751032000,1.220031982421875,-0.0027990597300231457,-0.0059140464290976524,-0.005840945057570934
1782951188760959200,1.229959228515625,-0.006942938547581434,-0.0064080627635121346,0.007152883801609278
1782951188770886100,1.23988623046875,-0.004045134410262108,0.001283029094338417,0.02400800585746765
1782951188780813000,1.24981298828125,0.0033752312883734703,0.012302391231060028,0.03435145691037178
1782951188790740000,1.259739990234375,0.0056766243651509285,0.021900063380599022,0.039131179451942444
1782951188800666000,1.269666015625,0.006451071705669165,0.032505836337804794,0.034131359308958054
1782951188810593000,1.279593017578125,0.004989262670278549,0.036369018256664276,0.022327963262796402
1782951188820520200,1.289520263671875,0.006647346541285515,0.037929095327854156,0.01803867518901825
1782951188830446800,1.29944677734375,0.002365268301218748,0.03554624691605568,0.004651740659028292
1782951188840374000,1.3093740234375,0.002754356013610959,0.026023849844932556,-0.013496902771294117
1782951188850301000,1.319301025390625,0.013826374895870686,-0.0023034580517560244,-0.024596862494945526
1782951188860227000,1.32922705078125,0.01635531149804592,-0.03420519828796387,-0.03287370130419731
1782951188870154200,1.339154296875,0.02349410019814968,-0.08080209791660309,-0.026352660730481148
1782951188880081200,1.3490810546875,0.028754109516739845,-0.10299182683229446,-0.0019807424396276474
1782951188890008000,1.359008056640625,0.03299594670534134,-0.10285107791423798,0.03573029860854149
1782951188899935000,1.36893505859375,0.033690232783555984,-0.08894511312246323,0.07405717670917511
1782951188909862100,1.378862060546875,0.04640877619385719,-0.0465298555791378,0.10788153111934662
1782951188919788000,1.3887880859375,0.046240996569395065,-0.014337295666337013,0.13942959904670715
1782951188929715200,1.398715087890625,0.03569023683667183,-0.012703273445367813,0.15412800014019012
1782951188939642000,1.40864208984375,0.021547256037592888,-0.017900697886943817,0.15731127560138702
1782951188949569000,1.418569091796875,0.01389647088944912,-0.029461661353707314,0.14791518449783325
1782951188959496000,1.428495849609375,0.006110985763370991,-0.040471967309713364,0.1318773627281189
1782951188969423000,1.438423095703125,-0.022406410425901413,-0.076947420835495,0.0973537340760231
1782951188979349200,1.448349365234375,-0.0032175348605960608,-0.024181412532925606,0.08763133734464645
1782951188989276200,1.458276123046875,0.032563041895627975,-0.012595776468515396,0.0762738287448883
1782951188999203000,1.468203125,0.01868637651205063,-0.061395805329084396,0.07091954350471497
1782951189009130000,1.4781298828125,0.04004264250397682,-0.013246558606624603,0.09249739348888397
1782951189019057200,1.48805712890625,0.0269156564027071,-0.05130179971456528,0.08782194554805756
1782951189028983000,1.497983154296875,0.029998933896422386,-0.03506048768758774,0.10394169390201569
1782951189038910200,1.50791015625,0.03173025697469711,-0.04085925593972206,0.10777904838323593
1782951189048837000,1.517837158203125,0.011838601902127266,-0.05610853061079979,0.09666794538497925
1782951189058764000,1.527763916015625,0.000010171817848458886,-0.023026742041110992,0.07238844037055969
1782951189068691000,1.53769091796875,-0.006022789981216192,0.018532903864979744,0.03830765560269356
1782951189078618000,1.5476181640625,0.0010529626160860062,0.03569457679986954,-0.008132013492286205
1782951189088544300,1.557544189453125,0.006425541825592518,0.01943427324295044,-0.04307905584573746
1782951189098471200,1.56747119140625,0.010095643810927868,-0.0005764523521065712,-0.0649888813495636
1782951189108398000,1.577398193359375,0.013779742643237114,-0.006239006761461496,-0.06847728043794632
1782951189118325000,1.587324951171875,0.013475343585014343,-0.026436686515808105,-0.06807967275381088
1782951189128252000,1.597251953125,0.01302538812160492,-0.033844128251075745,-0.06524800509214401
1782951189138179000,1.607178955078125,0.0070764184929430485,-0.01582278311252594,-0.056972768157720566
1782951189148105200,1.617105224609375,0.0004515574546530843,0.0007528802379965782,-0.04250889644026756
1782951189158032100,1.6270322265625,-0.007386657875031233,0.040476590394973755,-0.01644027791917324
1782951189167959000,1.636958984375,-0.0020832575391978025,0.07511484622955322,0.019334254786372185
1782951189177886000,1.646885986328125,-0.006497446913272142,0.08522659540176392,0.05108126625418663
1782951189187813000,1.656813232421875,-0.0037546942476183176,0.06029991805553436,0.07531554996967316
1782951189197740000,1.666739990234375,-0.0029589419718831778,0.04289908707141876,0.09344155341386795
1782951189207666200,1.676666259765625,-0.006042689550668001,0.027962684631347656,0.09159208834171295
1782951189217593000,1.686593017578125,-0.009005722589790821,0.024702180176973343,0.07552150636911392
1782951189227520000,1.69652001953125,-0.008157790638506413,0.034332286566495895,0.040267135947942734
1782951189237447000,1.706447021484375,0.0009163978975266218,0.03694751113653183,0.005400233902037144
1782951189247374000,1.7163740234375,0.008311538025736809,0.031411126255989075,-0.02660599909722805
1782951189257301000,1.726301025390625,0.00955230463296175,0.022323356941342354,-0.0391383022069931
1782951189267227100,1.73622705078125,0.005973980762064457,0.0050756679847836494,-0.025173703208565712
1782951189277154000,1.746154052734375,-0.006492009852081537,-0.0004160362295806408,0.01509835198521614
1782951189287081000,1.7560810546875,-0.015628572553396225,-0.0009302070830017328,0.061091482639312744
1782951189297008000,1.766008056640625,-0.020026782527565956,-0.008398509584367275,0.08691402524709702
1782951189306935000,1.77593505859375,-0.015091963112354279,-0.02080126479268074,0.08438431471586227
1782951189316862200,1.7858623046875,-0.0021146456710994244,-0.015361759811639786,0.06284040212631226
1782951189326788000,1.7957880859375,0.006890171207487583,-0.0035559425596147776,0.025237539783120155
1782951189336715000,1.805715087890625,0.010443627834320068,0.005985631141811609,-0.007472735829651356
1782951189346642000,1.815641845703125,0.007750593591481447,0.014055997133255005,-0.025872275233268738
1782951189356569000,1.825569091796875,-0.0018184102373197675,0.02480318397283554,-0.022921493276953697
1782951189366496000,1.83549609375,-0.010617504827678204,0.03544693440198898,-0.021511517465114594
1782951189376423200,1.845423095703125,-0.009026266634464264,0.020194213837385178,-0.016213690862059593
1782951189386349000,1.85534912109375,-0.006918244995176792,-0.005686675198376179,0.0009800405241549015
1782951189396276000,1.86527587890625,-0.0034326997119933367,-0.01216587983071804,0.028236694633960724
1782951189406203100,1.875203125,-0.0018384498544037342,-0.017337363213300705,0.05376599729061127
1782951189416130000,1.885130126953125,-0.00018462678417563438,-0.030768482014536858,0.06588950753211975
1782951189426057200,1.89505712890625,0.004938166588544846,-0.017772749066352844,0.06481198966503143
1782951189435984100,1.904984130859375,0.0011354387970641255,0.00758613646030426,0.05054250732064247
1782951189445910000,1.914909912109375,-0.0034606815315783024,0.03777197003364563,0.03519183024764061
1782951189455837000,1.9248369140625,-0.006640495732426643,0.0538228414952755,0.0147102577611804
1782951189465764000,1.93476416015625,-0.008666177280247211,0.058284323662519455,0.014202149584889412
1782951189475691000,1.94469091796875,-0.013664398342370987,0.06029847636818886,0.019810499623417854
1782951189485618200,1.9546181640625,-0.011609725654125214,0.03685527667403221,0.02660025656223297
1782951189495544300,1.96454443359375,-0.003614116460084915,0.0010599968954920769,0.024581313133239746
1782951189505471000,1.974470947265625,0.0037024228367954493,-0.026450691744685173,0.0292375348508358
1782951189515398100,1.984398193359375,0.0032398318871855736,-0.03492140769958496,0.019573988392949104
1782951189525325000,1.994324951171875,0.0035030811559408903,-0.02539796754717827,0.0156877338886261
1782951189535252000,2.004251953125,0.010187615640461445,-0.004143811762332916,0.024027422070503235
1782951189545179100,2.01417919921875,0.006675309967249632,0.01556653343141079,0.03240083530545235
1782951189555105000,2.02410498046875,0.0030337031930685043,0.017951659858226776,0.047858621925115585
1782951189565032000,2.034031982421875,0.0017919264500960708,-0.0001930748112499714,0.06400316208600998
1782951189574959000,2.043958984375,0.0035631947685033083,-0.01322472095489502,0.0837092250585556
1782951189584886000,2.053885986328125,0.006032285746186972,-0.03770283982157707,0.08901068568229675
1782951189594813200,2.063813232421875,0.007312733214348555,-0.05748506635427475,0.07567676901817322
1782951189604740000,2.073739990234375,0.0048162490129470825,-0.0663241297006607,0.04457801952958107
1782951189614666000,2.083666015625,0.011279208585619926,-0.06064680218696594,0.009276222437620163
1782951189624593000,2.093593017578125,0.01789642684161663,-0.04651930183172226,-0.011204550974071026
1782951189634520000,2.10352001953125,0.019805381074547768,-0.019287148490548134,-0.013852265663444996
1782951189644447000,2.113447021484375,0.02076403796672821,0.01585501618683338,0.0003767613088712096
1782951189654374100,2.1233740234375,0.027824077755212784,0.04628722369670868,0.03259195387363434
1782951189664301000,2.133301025390625,0.02594575099647045,0.05626608803868294,0.07648856937885284
1782951189674227000,2.14322705078125,0.015316542237997055,0.03887351602315903,0.10975278913974762
1782951189684154000,2.153154052734375,-0.0004294976533856243,0.01676981896162033,0.12208859622478485
1782951189694081000,2.1630810546875,-0.008334824815392494,-0.008519290946424007,0.11276007443666458
1782951189704008200,2.17300830078125,-0.005857259966433048,-0.04069514200091362,0.07477599382400513
1782951189713935000,2.18293505859375,0.0014584434684365988,-0.0613948255777359,0.03435932472348213
1782951189723861200,2.192861328125,0.007996485568583012,-0.049150027334690094,-0.009192653931677341
1782951189733788200,2.2027880859375,0.012396827340126038,-0.015319893136620522,-0.04134552925825119
1782951189743715300,2.21271533203125,0.012067394331097603,0.021197104826569557,-0.06300927698612213
1782951189753642200,2.222642333984375,0.00991769041866064,0.025211287662386894,-0.05677269026637077
1782951189763569400,2.2325693359375,0.009328046813607216,0.006630530580878258,-0.040597956627607346
1782951189773496000,2.24249609375,0.00468828808516264,-0.020395494997501373,-0.006928143557161093
1782951189783422200,2.252422119140625,0.004027990624308586,-0.04815201833844185,0.026378726586699486
1782951189793349400,2.262349365234375,0.0026154497172683477,-0.06072373315691948,0.05079751834273338
1782951189803276300,2.2722763671875,-0.007534315809607506,-0.05174136161804199,0.058875054121017456
1782951189813203500,2.282203369140625,-0.017095597460865974,-0.02368096634745598,0.05232660844922066
1782951189823130000,2.292130126953125,-0.021851129829883575,0.006961962208151817,0.03185611963272095
1782951189833057300,2.302057373046875,-0.028174007311463356,0.030773818492889404,0.014022529125213623
1782951189842983200,2.311983154296875,-0.063686802983284,0.04146261885762215,-0.001974182203412056
1782951189852910300,2.321910400390625,-0.04259483143687248,0.03580339998006821,-0.019794192165136337
1782951189862837200,2.331837158203125,-0.003185118082910776,0.028998922556638718,-0.01975361257791519
1782951189872764400,2.341764404296875,0.010479295626282692,0.013072953559458256,-0.01992432028055191
1782951189882691000,2.351691162109375,-0.006185387726873159,-0.005686219781637192,-0.022627579048275948
1782951189892618200,2.3616181640625,-0.010815026238560677,-0.017512252554297447,-0.030487898737192154
1782951189902544400,2.37154443359375,0.0020669756922870874,-0.025807539001107216,-0.028858259320259094
1782951189912471300,2.38147119140625,0.005556249525398016,-0.030682189390063286,-0.02155880071222782
1782951189922398200,2.391398193359375,-0.00032334067509509623,-0.02955378219485283,-0.0015452413354068995
1782951189932325000,2.4013251953125,-0.012193315662443638,-0.021521423012018204,0.009935646317899227
1782951189942252000,2.411251953125,-0.01593988761305809,-0.018410082906484604,0.0122063048183918
1782951189952178200,2.42117822265625,-0.014878084883093834,-0.019184798002243042,0.0015565904323011637
1782951189962105300,2.431105224609375,-0.016270771622657776,-0.01332838088274002,-0.011718927882611752
1782951189972032300,2.4410322265625,-0.01039237529039383,0.0019549676217138767,-0.028985001146793365
1782951189981959400,2.45095947265625,-0.0032130074687302113,0.012032518163323402,-0.04120946675539017
1782951189991886000,2.460885986328125,-0.0007189570460468531,0.009785342961549759,-0.05205918475985527
1782951190001813200,2.470813232421875,0.0009366747690364718,0.009094338864088058,-0.04942497983574867
1782951190011739100,2.4807392578125,-0.0006492376560345292,0.0021147262305021286,-0.03603886812925339
1782951190021666300,2.490666259765625,-0.004952776711434126,-0.014944175258278847,-0.01709863543510437
1782951190031593200,2.50059326171875,-0.0024725745897740126,-0.028225092217326164,0.0006771659245714545
1782951190041520400,2.510520263671875,0.002716823946684599,-0.026738015934824944,0.017637021839618683
1782951190051447000,2.520447021484375,0.0018675418104976416,-0.025825882330536842,0.022722594439983368
1782951190061374200,2.530374267578125,-0.0055182394571602345,-0.013988696038722992,0.025059035047888756
1782951190071300400,2.54030029296875,-0.013020364567637444,-0.005431693512946367,0.016528397798538208
1782951190081227300,2.550227294921875,-0.021571435034275055,0.0015277420170605183,0.0010140558006241918
1782951190091154400,2.560154541015625,-0.015456017106771469,0.005982677917927504,-0.014547592960298061
1782951190101081000,2.5700810546875,-0.013135284185409546,0.010948854498565197,-0.022015701979398727
1782951190111008300,2.58000830078125,-0.011725140735507011,0.0076670413836836815,-0.017195913940668106
1782951190120935200,2.58993505859375,-0.006468621548265219,0.010292401537299156,-0.010975712910294533
1782951190130861300,2.599861328125,-0.003535682335495949,-0.0004220278933644295,-0.0018828820902854204
1782951190140788200,2.609788330078125,-0.009370392188429832,-0.00995604321360588,0.006608509458601475
1782951190150715400,2.61971533203125,-0.012538754381239414,-0.01320483349263668,0.008609875105321407
1782951190160642000,2.62964208984375,-0.01922849752008915,-0.009221136569976807,0.0021183486096560955
1782951190170569200,2.6395693359375,-0.014348786324262619,-0.0010806522332131863,-0.007395794615149498
1782951190180496100,2.64949609375,-0.012699113227427006,-0.0023471571039408445,-0.004873394500464201
1782951190190422300,2.65942236328125,-0.001955921296030283,-0.004318162798881531,0.006227459758520126
1782951190200349400,2.669349365234375,0.007336076814681292,-0.0104083102196455,0.016344057396054268
1782951190210276000,2.679276123046875,0.006737664341926575,-0.010471161454916,0.02094173990190029
1782951190220203300,2.689203369140625,0.005765924695879221,-0.009392978623509407,0.015724988654255867
1782951190230130200,2.699130126953125,0.0058985501527786255,0.0010346285998821259,0.006199127994477749
1782951190240056300,2.709056396484375,0.002964516170322895,0.01631079986691475,-0.001292483531869948
1782951190249983200,2.718983154296875,-0.0017538061365485191,0.026256907731294632,-0.0049657816998660564
1782951190259910400,2.728910400390625,-0.002834065817296505,0.023063138127326965,-0.005738875828683376
1782951190269837000,2.738837158203125,-0.0067491792142391205,0.026116449385881424,-0.00678443256765604
1782951190279764200,2.74876416015625,-0.004229332786053419,0.02022949978709221,-0.011320013552904129
1782951190289691100,2.758691162109375,0.0005694169085472822,0.008029825985431671,-0.015525144524872303
1782951190299617300,2.7686171875,-0.0011705105425789952,-0.00197317055426538,-0.023701919242739677
1782951190309544400,2.77854443359375,-0.0015108626103028655,-0.008471017703413963,-0.03501156345009804
1782951190319471400,2.788471435546875,-0.003367333672940731,-0.0029280316084623337,-0.029903646558523178
1782951190329398300,2.798398193359375,-0.007082443684339523,0.015454703941941261,-0.010401583276689053
1782951190339325200,2.8083251953125,-0.003238407429307699,0.02630440704524517,0.02238207310438156
1782951190349252000,2.818252197265625,-0.004040551837533712,0.027298564091324806,0.058385346084833145
1782951190359178200,2.82817822265625,0.0013346909545361996,0.01707218587398529,0.07609938085079193
1782951190369105400,2.83810546875,0.0072229402139782906,0.0003459351137280464,0.07807517796754837
1782951190379032000,2.848031982421875,0.010454686358571053,-0.005673607811331749,0.07440268248319626
1782951190388959200,2.857959228515625,0.009393149986863136,-0.0033436082303524017,0.07035867124795914
1782951190398886100,2.86788623046875,0.009013739414513111,0.00017165299504995346,0.07446318864822388
1782951190408812300,2.877812255859375,0.007819311693310738,-0.008982164785265923,0.07354706525802612
1782951190418739200,2.8877392578125,0.013024607673287392,-0.02298414148390293,0.06662105023860931
1782951190428666400,2.897666259765625,0.015181501396000385,-0.03441496193408966,0.05048123002052307
1782951190438593000,2.907593017578125,0.02500808984041214,-0.03262593597173691,0.0277382954955101
1782951190448520200,2.917520263671875,0.02434576116502285,-0.016181714832782745,0.010016556829214096
1782951190458447000,2.927447021484375,0.013661909848451614,0.001203801017254591,-0.009986832737922668
1782951190468373200,2.937373291015625,0.008391248062252998,0.01572175696492195,-0.019892992451786995
1782951190478300400,2.947300537109375,-0.001540228258818388,0.027777526527643204,-0.010976612567901611
1782951190488227000,2.95722705078125,-0.008079620078206062,0.02156383916735649,-0.0016771212685853243
1782951190498154200,2.967154296875,-0.00876073818653822,0.01161600835621357,0.02069016732275486
1782951190508081200,2.9770810546875,-0.0024487802293151617,-0.0038058245554566383,0.03451889753341675
1782951190518008300,2.98700830078125,-0.001481483457610011,-0.019630296155810356,0.03621874377131462
1782951190527934200,2.996934326171875,0.003285308601334691,-0.030590269714593887,0.03629224747419357
1782951190537861400,3.006861328125,-0.002553461119532585,-0.030915357172489166,0.03797570616006851
1782951190547788000,3.0167880859375,-0.00874930527061224,-0.020149527117609978,0.0315425731241703
1782951190557715200,3.026715087890625,-0.010237534530460835,-0.0015808171592652798,0.017479291185736656
1782951190567642000,3.03664208984375,-0.0029215652029961348,0.015541444532573223,0.0027189874090254307
1782951190577569300,3.0465693359375,-0.0036786203272640705,0.026644274592399597,-0.009406408295035362
1782951190587495400,3.056495361328125,-0.00820705946534872,0.02876521646976471,-0.019096054136753082
1782951190597422300,3.06642236328125,-0.008774816058576107,0.017869407311081886,-0.01433444581925869
1782951190607349200,3.076349365234375,-0.006324707996100187,0.006453235168009996,-0.00014752004062756896
1782951190617276200,3.086276123046875,-0.0026319241151213646,-0.0029820003546774387,0.01383436843752861
1782951190627203300,3.096203369140625,0.003221703926101327,-0.015993140637874603,0.013941694051027298
1782951190637129200,3.106129150390625,0.008102397434413433,-0.0215400792658329,0.008809538558125496
1782951190647056400,3.116056396484375,0.009520797058939934,-0.020052704960107803,-0.006881273817270994
1782951190656983000,3.125983154296875,0.010984011925756931,-0.012381406500935555,-0.020815830677747726
1782951190666910200,3.13591015625,0.006173277273774147,-0.001626763492822647,-0.028312362730503082
1782951190676837000,3.145837158203125,0.003873682813718915,0.00569194694980979,-0.022839006036520004
1782951190686764300,3.155764404296875,0.006319795735180378,0.011657694354653358,-0.002455437323078513
1782951190696690400,3.1656904296875,0.011130567640066147,0.010707776062190533,0.023485565558075905
1782951190706617300,3.175617431640625,0.014958594925701618,0.0012029544450342655,0.04196896776556969
1782951190716544500,3.18554443359375,0.01645730249583721,-0.011080218479037285,0.04799151420593262
1782951190726471400,3.195471435546875,0.019470136612653732,-0.011317506432533264,0.03000985085964203
1782951190736398300,3.2053984375,0.016058672219514847,-0.010191443376243114,0.0007662370335310698
1782951190746325200,3.2153251953125,0.01291827391833067,-0.0034563092049211264,-0.03322741761803627
1782951190756251400,3.22525146484375,0.007410068064928055,0.003678668290376663,-0.05436902120709419
1782951190766178300,3.23517822265625,0.0035250484943389893,-0.005416292697191238,-0.06221549212932587
1782951190776105500,3.24510546875,0.005303699988871813,-0.010173561051487923,-0.053718578070402145
1782951190786032400,3.255032470703125,0.005470413714647293,-0.004662415478378534,-0.025898398831486702
1782951190795959300,3.264959228515625,0.005247507244348526,0.001137949526309967,0.0015073928516358137
1782951190805885400,3.274885498046875,-0.0032684828620404005,0.00424133101478219,0.028376825153827667
1782951190815812400,3.284812255859375,-0.01374843530356884,0.004649735055863857,0.04103795066475868
1782951190825739300,3.2947392578125,-0.026482339948415756,0.005663599818944931,0.03590391203761101
1782951190835666400,3.30466650390625,-0.02972816303372383,0.012558288872241974,0.013869134709239006
1782951190845593000,3.314593017578125,-0.03170902654528618,0.0067885504104197025,-0.00468484265729785
1782951190855520300,3.324520263671875,-0.030172517523169518,-0.01251992303878069,-0.016647933050990105
1782951190865446400,3.3344462890625,-0.021292738616466522,-0.024317726492881775,-0.017725180834531784
1782951190875373300,3.344373291015625,-0.009499949403107166,-0.028458064422011375,-0.01159402634948492
1782951190885300500,3.354300537109375,-0.004625034052878618,-0.021971138194203377,-0.0027006659656763077
1782951190895227400,3.364227294921875,-0.005928355734795332,-0.007427895441651344,-0.002448323182761669
1782951190905154300,3.374154296875,-0.009502851404249668,0.0037824148312211037,0.00014346500393003225
1782951190915081200,3.384081298828125,-0.01321898028254509,0.008267255499958992,-0.0019723884761333466
1782951190925007400,3.39400732421875,-0.016563111916184425,0.016937175765633583,-0.0019939602352678776
1782951190934934300,3.403934326171875,-0.023942427709698677,0.03084050491452217,0.001517635420896113
1782951190944861400,3.413861328125,-0.02173306979238987,0.0257224440574646,-0.0020898827351629734
1782951190954788000,3.4237880859375,-0.011391767300665379,0.03848842531442642,-0.013752639293670654
1782951190964715300,3.43371533203125,0.0014278909657150507,0.05130941420793533,-0.02739841118454933
1782951190974642200,3.44364208984375,0.0034611958544701338,0.05469014495611191,-0.039397526532411575
1782951190984568300,3.453568359375,-0.0007697682594880462,0.040171124041080475,-0.05249495059251785
1782951190994495500,3.46349560546875,-0.0006639297353103757,0.03539510443806648,-0.06480102986097336
1782951191004422400,3.47342236328125,0.009899498894810677,0.02498454414308071,-0.05825098603963852
1782951191014349300,3.483349365234375,0.023937102407217026,0.005799240432679653,-0.041371364146471024
1782951191024276200,3.493276123046875,0.027840763330459595,-0.00106345908716321,-0.02106662467122078
1782951191034202400,3.503202392578125,0.03883133456110954,0.0001435568556189537,-0.00001198949757963419
1782951191044129300,3.51312939453125,0.045593902468681335,0.009285124018788338,0.03307459130883217
1782951191054056400,3.523056396484375,0.042572204023599625,0.04342518746852875,0.0639796108007431
1782951191063983400,3.5329833984375,0.042033180594444275,0.04405848681926727,0.07673721760511398
1782951191073910300,3.54291015625,0.04527758061885834,0.02014944888651371,0.08781560510396957
1782951191083837200,3.552837158203125,0.04059308022260666,0.004736937116831541,0.09859288483858109
1782951191093763300,3.562763427734375,0.014899206347763538,0.013080120086669922,0.11184392124414444
1782951191103690500,3.5726904296875,0.0013202806003391743,0.0319153293967247,0.11627089977264404
1782951191113617400,3.582617431640625,0.0017971897032111883,0.06611727923154831,0.11611909419298172
1782951191123544300,3.59254443359375,0.0017625686014071107,0.07128673791885376,0.11592867970466614
1782951191133471200,3.60247119140625,-0.000018508872017264366,0.05639761686325073,0.11847681552171707
1782951191143398400,3.6123984375,0.00228006555698812,0.0323636531829834,0.1351838856935501
1782951191153324300,3.62232421875,0.009255905635654926,0.04271421954035759,0.17237330973148346
1782951191163251500,3.63225146484375,-0.0020255118142813444,0.08721590042114258,0.21109648048877716
1782951191173178400,3.642178466796875,-0.005581411998718977,0.08708500862121582,0.22796109318733215
1782951191183105300,3.652105224609375,0.003130320692434907,0.06822104007005692,0.22260574996471405
1782951191193032200,3.6620322265625,0.007139442954212427,0.060774046927690506,0.20851042866706848
1782951191202958300,3.671958251953125,-0.002667380962520838,0.06459195166826248,0.17339478433132172
1782951191212885500,3.681885498046875,-0.012731318362057209,0.05786173790693283,0.13836364448070526
1782951191222812400,3.6918125,-0.011845551431179047,0.05840715020895004,0.12356071919202805
1782951191232739300,3.7017392578125,-0.016682062298059464,0.049059104174375534,0.13200020790100098
1782951191242666200,3.711666259765625,-0.017242390662431717,0.02797779068350792,0.159889355301857
1782951191252593200,3.72159326171875,-0.017880696803331375,0.0007817675359547138,0.1918269693851471
1782951191262519300,3.731519287109375,-0.04283584654331207,-0.050136540085077286,0.17793992161750793
1782951191272446500,3.741446533203125,-0.020693756639957428,0.058198489248752594,0.15978190302848816
1782951191282373400,3.751373291015625,0.011034611612558365,0.044600650668144226,0.07291066646575928
1782951191292300300,3.76130029296875,0.0005748618277721107,-0.026688065379858017,-0.0117701580747962
1782951191302227200,3.771227294921875,0.0003610099956858903,0.06266126036643982,-0.03616524860262871
1782951191312154400,3.781154296875,-0.024494601413607597,0.04721016809344292,-0.05087708681821823
1782951191322080300,3.791080322265625,-0.026872271671891212,0.0716012567281723,-0.020376432687044144
1782951191332007400,3.80100732421875,-0.007529422175139189,0.06256256997585297,0.015332856215536594
1782951191341934300,3.810934326171875,0.01807687245309353,-0.0023133661597967148,0.037498876452445984
1782951191351861200,3.820861328125,0.03398333862423897,-0.02559574693441391,0.04873688519001007
1782951191361788200,3.8307880859375,0.025655364617705345,-0.05611743777990341,0.03559365123510361
1782951191371714300,3.84071435546875,0.007726910058408976,-0.055321596562862396,0.021079763770103455
1782951191381641500,3.850641357421875,-0.006155082955956459,-0.024803902953863144,0.0013545274268835783
1782951191391568400,3.860568359375,-0.004651177674531937,0.008886830881237984,-0.013107260689139366
1782951191401495300,3.870495361328125,0.007698699366301298,0.03864392638206482,-0.023446183651685715
1782951191411422200,3.880422119140625,0.011451607570052147,0.06513184309005737,-0.020089244470000267
1782951191421349400,3.890349365234375,0.018356118351221085,0.0682741105556488,-0.007005934137851
1782951191431275300,3.900275146484375,0.02109597809612751,0.06376989930868149,0.013033021241426468
1782951191441202400,3.910202392578125,0.013529672287404537,0.07320228964090347,0.02761382795870304
1782951191451129300,3.92012939453125,0.01995857246220112,0.05929498001933098,0.033576782792806625
1782951191461056300,3.93005615234375,0.02671101689338684,0.030270788818597794,0.030489111319184303
1782951191470981400,3.9399814453125,0.030975010246038437,0.012442034669220448,0.025056345388293266
1782951191480908300,3.949908203125,0.02368720807135105,0.008809523656964302,0.02104215696454048
1782951191490835500,3.95983544921875,0.014097963459789753,0.001220847014337778,0.007200643420219421
1782951191500761300,3.96976123046875,-0.005590859334915876,0.0012631281279027462,0.004909359384328127
1782951191510688300,3.979688232421875,-0.020754365250468254,0.017953958362340927,0.00912913866341114
1782951191520615400,3.989615478515625,-0.03109120763838291,0.039569370448589325,0.01274985633790493
1782951191530542300,3.999542236328125,-0.025402162224054337,0.045576661825180054,0.010922928340733051
1782951191540469500,4.009469482421875,-0.020861003547906876,0.030280034989118576,0.007660020142793655
1782951191550396400,4.019396484375,-0.020604008808732033,0.005275617353618145,-0.00573088601231575
1782951191560322300,4.029322265625,-0.022928699851036072,-0.021282903850078583,-0.01691533997654915
1782951191570249200,4.039249267578125,-0.020378723740577698,-0.03763284906744957,-0.023448873311281204
1782951191580176400,4.04917626953125,-0.017970731481909752,-0.03753141313791275,-0.019118789583444595
1782951191590103300,4.059103271484375,-0.012556789442896843,-0.021968701854348183,-0.006421902682632208
1782951191600030500,4.069030517578125,-0.00795873161405325,0.007152261678129435,0.012449641712009907
1782951191609957000,4.07895703125,0.0015053442912176251,0.01998710073530674,0.02598435804247856
1782951191619883300,4.08888330078125,0.004535562824457884,0.01959754340350628,0.02295784279704094
1782951191629810400,4.098810546875,0.003468700684607029,0.01575593277812004,0.010950715281069279
1782951191639737300,4.1087373046875,-0.00454640481621027,0.0037760548293590546,-0.005029508378356695
1782951191649664500,4.11866455078125,-0.00665323156863451,-0.023249436169862747,-0.019893143326044083
1782951191659591400,4.12859130859375,-0.007674793712794781,-0.023177336901426315,-0.009729934856295586
1782951191669517300,4.138517333984375,-0.006588756572455168,0.0054953196085989475,0.0148276062682271
1782951191679444200,4.1484443359375,0.001580086536705494,0.011374490335583687,0.033482879400253296
1782951191689371400,4.158371337890625,0.020087191835045815,0.002075264696031809,0.038656868040561676
1782951191699298300,4.16829833984375,0.023519346490502357,-0.0166032612323761,0.031693752855062485
1782951191709225500,4.1782255859375,0.02889227494597435,-0.019906647503376007,0.027436422184109688
1782951191719151900,4.18815185546875,0.016460591927170753,-0.001726450864225626,0.03156208246946335
1782951191729078000,4.198078125,-0.007256722077727318,0.02708921954035759,0.03760692477226257
1782951191739005200,4.208005126953125,-0.019241938367486,0.0317641943693161,0.027869775891304016
1782951191748931800,4.217931884765625,-0.017099158838391304,0.019864657893776894,0.019159909337759018
1782951191758859000,4.22785888671875,-0.0038246987387537956,0.008912656456232071,0.016453247517347336
1782951191768786000,4.237785888671875,0.006166682578623295,-0.006437803618609905,0.014784512110054493
1782951191778713000,4.247713134765625,0.00869330856949091,-0.020115364342927933,0.017407789826393127
1782951191788639000,4.257638916015625,0.00233847345225513,-0.03282290697097778,0.009575700387358665
1782951191798566100,4.267566162109375,0.0026507882867008448,-0.026604488492012024,0.005305420607328415
1782951191808492800,4.277492919921875,0.0017759399488568306,-0.01336777862161398,0.013541246764361858
1782951191818420000,4.287419921875,0.0028185041155666113,0.010968497022986412,0.017880326136946678
1782951191828347000,4.297346923828125,0.003306395374238491,0.018324414268136024,0.025311078876256943
1782951191838273000,4.30727294921875,-0.005258441437035799,0.011808361858129501,0.016977133229374886
1782951191848201000,4.317200927734375,-0.012205297127366066,0.007736654952168465,0.012413007207214832
1782951191858128100,4.327128173828125,-0.01655530370771885,-0.0034792483784258366,0.010656919330358505
1782951191868055000,4.337054931640625,-0.017823796719312668,-0.008637245744466782,0.011902340687811375
1782951191877982000,4.34698193359375,-0.012877242639660835,-0.01121651753783226,0.01022428274154663
1782951191887908000,4.356908203125,-0.00409017875790596,-0.008493999019265175,0.010290378704667091
1782951191897835000,4.3668349609375,-0.0004666817549150437,-0.007944589480757713,0.00850685965269804
1782951191907762200,4.37676220703125,-0.0010771601228043437,-0.0032633934170007706,0.001056687324307859
1782951191917689000,4.386689208984375,-0.00787221547216177,-0.0012849308550357819,-0.0019526847172528505
1782951191927616000,4.396615966796875,-0.01541269663721323,-0.011386609636247158,-0.013767880387604237
1782951191937543000,4.40654296875,-0.021367525681853294,-0.03328205645084381,-0.009113740175962448
1782951191947469000,4.416468994140625,-0.018707385286688805,-0.03724398836493492,0.001674584113061428
1782951191957396000,4.42639599609375,-0.018891410902142525,-0.036602433770895004,0.011307504028081894
1782951191967323100,4.4363232421875,-0.014126538299024105,-0.022776544094085693,0.018004363402724266
1782951191977250000,4.44625,-0.010887068696320057,-0.017066461965441704,0.02307928167283535
1782951191987177000,4.456177001953125,-0.006065886002033949,-0.010123908519744873,0.018725819885730743
1782951191997102800,4.466102783203125,-0.003321764525026083,-0.015439843758940697,0.015267969109117985
1782951192007030000,4.476030029296875,-0.0020955712534487247,-0.020615901798009872,0.009751399978995323
1782951192016957000,4.48595703125,0.002602511318400502,-0.022533375769853592,0.011494172737002373
1782951192026884000,4.495884033203125,0.01068381778895855,-0.009607639163732529,0.01953939162194729
1782951192036810800,4.505810791015625,0.014013834297657013,0.010593235492706299,0.02495759166777134
1782951192046738000,4.515738037109375,0.01600600779056549,0.010963660664856434,0.024786708876490593
1782951192056664000,4.5256640625,0.007286286447197199,0.01614457368850708,0.020052941516041756
1782951192066591000,4.535591064453125,-0.0004943126114085317,0.016874225810170174,0.021313026547431946
1782951192076518100,4.54551806640625,-0.01661975309252739,0.017772244289517403,0.004691171459853649
1782951192086445000,4.555445068359375,-0.031636159867048264,0.022150160744786263,-0.010116394609212875
1782951192096372000,4.5653720703125,-0.03620321676135063,0.01755354553461075,-0.012432013638317585
1782951192106299000,4.575298828125,-0.03461455553770065,0.0204240083694458,-0.009584045968949795
1782951192116225000,4.58522509765625,-0.029879724606871605,0.02606937661767006,-0.00405053049325943
1782951192126152000,4.59515185546875,-0.02221354842185974,0.018748879432678223,0.0004912245785817504
1782951192136079000,4.6050791015625,-0.016889091581106186,0.020911097526550293,0.007412779610604048
1782951192146006000,4.615006103515625,-0.01487306971102953,0.013254024088382721,0.00925496593117714
1782951192155933000,4.624932861328125,-0.005669451784342527,-0.0021329212468117476,0.012700564227998257
1782951192165859000,4.634859130859375,0.0031053160782903433,-0.013746276497840881,0.026010265573859215
1782951192175786000,4.644785888671875,0.0002757073671091348,-0.01229165866971016,0.03524131700396538
1782951192185713200,4.654713134765625,-0.015050482004880905,-0.014099912717938423,0.03369689732789993
1782951192195640000,4.66464013671875,-0.025829892605543137,-0.008985312655568123,0.023239197209477425
1782951192205567000,4.67456689453125,-0.040664609521627426,0.012631205841898918,0.01331906858831644
1782951192215494000,4.684493896484375,-0.046971507370471954,0.023885458707809448,-0.000008187838830053806
1782951192225420000,4.694419921875,-0.0465276762843132,0.026164449751377106,-0.008977111428976059
1782951192235347000,4.704346923828125,-0.043285541236400604,0.020461823791265488,-0.003413502126932144
1782951192245274000,4.714274169921875,-0.032747142016887665,0.002637332770973444,-0.0013899551704525948
1782951192255201000,4.724200927734375,-0.020229486748576164,-0.02478603646159172,0.004985386040061712
1782951192265128000,4.7341279296875,-0.002508701290935278,-0.0384487584233284,0.005529589485377073
1782951192275054800,4.744054931640625,0.012649478390812874,-0.04842682182788849,0.008556005544960499
1782951192284981000,4.75398095703125,0.015285338275134563,-0.04939436912536621,0.007941975258290768
1782951192294908200,4.763908203125,0.010404296219348907,-0.03941843658685684,0.013689609244465828
1782951192304835000,4.7738349609375,0.0019061313942074776,-0.02738003060221672,0.00937611237168312
1782951192314762000,4.783761962890625,-0.0016603738768026233,-0.0193101204931736,-0.0020419249776750803
1782951192324689000,4.79368896484375,-0.006459737662225962,-0.008508712984621525,-0.018911700695753098
1782951192334615000,4.803614990234375,-0.006726054009050131,-0.00008327048271894455,-0.02283506840467453
1782951192344542000,4.8135419921875,-0.011375467292964458,0.0161002054810524,-0.014025953598320484
1782951192354469000,4.82346923828125,-0.009154124185442924,0.015498065389692783,-0.0019389307126402855
1782951192364396000,4.83339599609375,0.000038530415622517467,0.010951176285743713,0.016184384003281593
1782951192374323000,4.843322998046875,0.008681287057697773,0.0003467341884970665,0.03253086656332016
1782951192384249900,4.853249755859375,0.016437873244285583,-0.007701892405748367,0.02933143638074398
1782951192394176000,4.863176025390625,0.018444832414388657,-0.022897623479366302,0.025945760309696198
1782951192404103200,4.873103271484375,0.018737833946943283,-0.019812703132629395,0.019262483343482018
1782951192414030000,4.883030029296875,0.013751598075032234,-0.00460472097620368,0.011984596028923988
1782951192423957000,4.89295703125,0.011080620810389519,0.007687950506806374,0.0024783017579466105
1782951192433884000,4.9028837890625,0.0066025154665112495,0.012411599978804588,0.005738809704780579
1782951192443810000,4.91281005859375,0.00020878810028079897,-0.0005154889076948166,0.014348113909363747
1782951192453737000,4.922737060546875,-0.0035939395893365145,-0.012233930639922619,0.022338664159178734
1782951192463664000,4.9326640625,-0.0041484651155769825,-0.022436680272221565,0.029969491064548492
1782951192473591000,4.942591064453125,0.002117952797561884,-0.02145184390246868,0.02002817764878273
1782951192483518000,4.95251806640625,0.00408910633996129,-0.013650520704686642,0.005833865609019995
1782951192493444900,4.96244482421875,0.0016166273271664977,0.005584427155554295,0.0014875867636874318
1782951192503371000,4.97237109375,0.004391493275761604,0.015724020078778267,-0.001173779834061861
1782951192513298000,4.9822978515625,0.00900302268564701,0.0008254982531070709,0.003477963386103511
1782951192523225000,4.99222509765625,0.01305423490703106,-0.014152015559375286,0.017378762364387512
1782951192533152000,5.002152099609375,0.015970662236213684,-0.032589346170425415,0.021084284409880638
1782951192543079000,5.012078857421875,0.01682603359222412,-0.04407159984111786,0.020122401416301727
1782951192553005000,5.022005126953125,0.014096026308834553,-0.036832328885793686,0.013499385677278042
1782951192562932000,5.031931884765625,0.005160588305443525,-0.024172190576791763,0.002999340184032917
1782951192572859100,5.041859130859375,-0.011612266302108765,-0.015140613541007042,-0.0023693260736763477
1782951192582786000,5.0517861328125,-0.014221594668924809,-0.01648920401930809,-0.002749409293755889
1782951192592713000,5.061712890625,-0.010713945142924786,-0.026325590908527374,0.0069037508219480515
1782951192602640000,5.071639892578125,-0.0031871641986072063,-0.03711548447608948,0.014582326635718346
1782951192612566000,5.08156591796875,0.010596292093396187,-0.04935537278652191,0.019229808822274208
1782951192622493000,5.091492919921875,0.017308900132775307,-0.05492394417524338,0.018397953361272812
1782951192632420000,5.101420166015625,0.021635206416249275,-0.042332522571086884,0.011026323772966862
1782951192642347000,5.111346923828125,0.02726229839026928,-0.025526121258735657,-0.0014674069825559855
1782951192652274000,5.12127392578125,0.03027459979057312,-0.0015861659776419401,-0.0032285554334521294
1782951192662200800,5.131200927734375,0.01819179393351078,0.012674719095230103,0.001789075555279851
1782951192672127000,5.141126953125,0.013468677178025246,0.013232652097940445,-0.003146294504404068
1782951192682054100,5.15105419921875,0.009963561780750751,0.010008650831878185,-0.0076031871140003204
1782951192691981000,5.16098095703125,0.010322822257876396,-0.001173163764178753,-0.02120341919362545
1782951192701908200,5.170908203125,0.012043656781315804,-0.019770007580518723,-0.028998449444770813
1782951192711835100,5.180835205078125,0.016081277281045914,-0.037542879581451416,-0.029381411150097847
1782951192721761000,5.190760986328125,0.021574467420578003,-0.035427093505859375,-0.018814371898770332
1782951192731688000,5.20068798828125,0.020251940935850143,-0.027425358071923256,-0.010148177854716778
1782951192741615000,5.210614990234375,0.017718898132443428,-0.021771565079689026,-0.0066686104983091354
1782951192751542000,5.2205419921875,0.013445856980979443,-0.028426803648471832,-0.012781630270183086
1782951192761469200,5.23046923828125,0.0054361699149012566,-0.02568185143172741,-0.01557693351060152
1782951192771396000,5.24039599609375,-0.0018278680508956313,-0.02225489541888237,-0.016038192436099052
1782951192781322000,5.250322021484375,-0.003666873322799802,-0.007594406604766846,-0.0003813455696217716
1782951192791249200,5.260249267578125,-0.0033478266559541225,0.010205095633864403,0.0202735997736454
1782951192801176000,5.270176025390625,-0.00007012655260041356,0.017523590475320816,0.03610163554549217
1782951192811103200,5.280103271484375,0.0007519912905991077,0.009091224521398544,0.03715145215392113
1782951192821030100,5.290030029296875,-0.00328130298294127,-0.006424393970519304,0.026250071823596954
1782951192830956000,5.2999560546875,-0.01570894382894039,-0.0050262343138456345,0.007480379194021225
1782951192840883000,5.309883056640625,-0.021297365427017212,-0.003351981285959482,-0.011130617931485176
1782951192850810000,5.31981005859375,-0.018068816512823105,0.00556880934163928,-0.017430858686566353
1782951192860737000,5.329737060546875,-0.009276296943426132,0.008295567706227303,-0.01971091516315937
1782951192870664200,5.339664306640625,0.005591598805040121,0.008321398869156837,-0.009695565328001976
1782951192880591000,5.349591064453125,0.007437250576913357,0.0046599265187978745,0.009562799707055092
1782951192890517000,5.35951708984375,0.002050474751740694,0.0021826536394655704,0.02314225770533085
1782951192900444000,5.36944384765625,-0.006674858275800943,-0.002090803347527981,0.023898087441921234
1782951192910371000,5.37937109375,-0.014400421641767025,-0.007331638131290674,0.010860316455364227
1782951192920298000,5.389298095703125,-0.014216498471796513,-0.010869105346500874,-0.005878406576812267
1782951192930225200,5.39922509765625,-0.0053175450302660465,-0.021310294046998024,-0.017376605421304703
1782951192940151000,5.409151123046875,0.002983095357194543,-0.019900958985090256,-0.022134652361273766
1782951192950078000,5.419077880859375,0.011998961679637432,-0.017255907878279686,-0.015704981982707977
1782951192960005000,5.429005126953125,0.018164370208978653,-0.01648605242371559,-0.006443208083510399
1782951192969932000,5.43893212890625,0.022020893171429634,-0.010145331732928753,-0.003064455697312951
1782951192979859200,5.448859130859375,0.02117992378771305,-0.015805166214704514,-0.00403019180521369
1782951192989786000,5.4587861328125,0.021389247849583626,-0.02805544063448906,-0.009618036448955536
1782951192999712000,5.4687119140625,0.020956136286258698,-0.03812682628631592,-0.012696364894509315
1782951193009639000,5.478638916015625,0.01610572263598442,-0.03135786950588226,-0.007598009891808033
1782951193019566000,5.488566162109375,0.008636298589408398,-0.018288586288690567,-0.004847422707825899
1782951193029493000,5.498492919921875,0.00841179396957159,-0.0135529525578022,-0.007287677377462387
1782951193039420200,5.508420166015625,0.01230607833713293,-0.012433541938662529,-0.01121523231267929
1782951193049347000,5.51834716796875,0.025105496868491173,-0.01947973296046257,-0.018511494621634483
1782951193059273000,5.52827294921875,0.031005866825580597,-0.015609338879585266,-0.0182934757322073
1782951193069200100,5.5382001953125,0.0347079262137413,-0.015974191948771477,-0.027827326208353043
1782951193079127000,5.548126953125,0.037761662155389786,-0.014588909223675728,-0.03224003687500954
1782951193089054200,5.55805419921875,0.03548705577850342,-0.0034752720966935158,-0.0343141071498394
1782951193098981000,5.567981201171875,0.034476783126592636,0.0021152119152247906,-0.023575082421302795
1782951193108907000,5.577906982421875,0.031154489144682884,0.009160604327917099,-0.012935486622154713
1782951193118834000,5.587833984375,0.032669518142938614,0.021812941879034042,0.005211528390645981
1782951193128761000,5.597760986328125,0.032624244689941406,0.028389083221554756,0.02644224837422371
1782951193138688000,5.60768798828125,0.024497084319591522,0.01878949999809265,0.03782867267727852
1782951193148615200,5.617615234375,0.025410814210772514,-0.006570984609425068,0.03632265701889992
1782951193158542000,5.6275419921875,0.025880910456180573,-0.028997860848903656,0.02704750932753086
1782951193168468000,5.637468017578125,0.027952050790190697,-0.03763209655880928,0.018455352634191513
1782951193178395100,5.64739501953125,0.024229509755969048,-0.02608630061149597,0.007748703472316265
1782951193188322000,5.657322021484375,0.014323616400361061,-0.02276879921555519,0.0007919939234852791
1782951193198249200,5.667249267578125,0.0071676941588521,-0.01674237661063671,-0.006417796481400728
1782951193208176000,5.677176025390625,-0.0075076548382639885,-0.010248525068163872,-0.0156730804592371
1782951193218102000,5.68710205078125,-0.01386759802699089,-0.018438948318362236,-0.02292497828602791
1782951193228029000,5.69702880859375,-0.015112625434994698,-0.018262114375829697,-0.02107221819460392
1782951193237956000,5.7069560546875,-0.014483283273875713,-0.008320767432451248,-0.00569996889680624
1782951193247883000,5.716883056640625,-0.018624233081936836,0.009474208578467369,0.01458319928497076
1782951193257810200,5.72681005859375,-0.024775609374046326,0.01947939395904541,0.01760474033653736
1782951193267736000,5.736736083984375,-0.024839790537953377,0.013210580684244633,0.0065550184808671474
1782951193277663000,5.7466630859375,-0.025171391665935516,-0.0025175490882247686,-0.013666845858097076
1782951193287590100,5.756590087890625,-0.032567787915468216,-0.009115796536207199,-0.037841957062482834
1782951193297517000,5.76651708984375,-0.03690715506672859,-0.01558258943259716,-0.05388233810663223
1782951193307444000,5.77644384765625,-0.037222739309072495,-0.0066862995736300945,-0.05611060559749603
1782951193317371100,5.78637109375,-0.030552005395293236,0.015403426252305508,-0.03781137987971306
1782951193327297000,5.796297119140625,-0.025495994836091995,0.03192993998527527,-0.010087341070175171
1782951193337224000,5.806223876953125,-0.01599278301000595,0.03275754302740097,0.013634338043630123
1782951193347151000,5.816151123046875,-0.0062746405601501465,0.008710796013474464,0.03183171898126602
1782951193357078000,5.826078125,0.0002151903318008408,-0.021862218156456947,0.03698887303471565
1782951193367005200,5.836005126953125,0.009351963177323341,-0.0360102616250515,0.025742078199982643
1782951193376932000,5.84593212890625,0.016014594584703445,-0.05428142845630646,0.015049397945404053
1782951193386858000,5.85585791015625,0.023053063079714775,-0.07232381403446198,0.0036380195524543524
1782951193396785000,5.865784912109375,0.030525140464305878,-0.07443476468324661,0.009559138678014278
1782951193406712000,5.875712158203125,0.03439364582300186,-0.06140871345996857,0.030103029683232307
1782951193416639000,5.885638916015625,0.03319719061255455,-0.04969560727477074,0.03866531327366829
1782951193426566100,5.895566162109375,0.020303761586546898,-0.039815276861190796,0.02705206908285618
1782951193436492000,5.905491943359375,0.016295254230499268,-0.03235139697790146,0.008156654424965382
1782951193446419000,5.9154189453125,0.011458421126008034,-0.01454443484544754,-0.01324690505862236
1782951193456346000,5.92534619140625,0.0025238110683858395,-0.001396422041580081,-0.01764764077961445
1782951193466273000,5.93527294921875,-0.0032733578700572252,0.005315809044986963,-0.016500350087881088
1782951193476200200,5.9452001953125,-0.004315552767366171,0.008887652307748795,-0.0053110369481146336
1782951193486127000,5.955127197265625,-0.0015485286712646484,0.014671770855784416,0.006088890600949526
1782951193496053000,5.965052978515625,-0.0035595109220594168,0.022329702973365784,0.013542942702770233
1782951193505980000,5.97497998046875,-0.008060253225266933,0.01634105294942856,0.01340286061167717
1782951193515907000,5.984906982421875,-0.019480859860777855,0.01109616830945015,0.0061016809195280075
1782951193525834000,5.994833984375,-0.02391635626554489,0.0002973168157041073,0.002878723666071892
1782951193535761200,6.00476123046875,-0.023653104901313782,0.0047831241972744465,-0.004611857235431671
1782951193545687000,6.01468701171875,-0.013296871446073055,0.009580275043845177,-0.007791405078023672
1782951193555614000,6.024614013671875,-0.004674906376749277,0.010419821366667747,-0.0059292977675795555
1782951193565541000,6.034541015625,0.004839769098907709,0.0020849257707595825,0.006970521528273821
1782951193575468000,6.044468017578125,0.008163797669112682,-0.007069136016070843,0.009385650046169758
1782951193585395200,6.054395263671875,0.008540901355445385,-0.006562602706253529,0.009550233371555805
1782951193595322000,6.064322021484375,0.008313843980431557,-0.00475368881598115,0.0052876947447657585
1782951193605248000,6.074248046875,0.0031342627480626106,-0.010628622025251389,-0.011317114345729351
1782951193615175000,6.0841748046875,0.007716461084783077,-0.012907253578305244,-0.01963678002357483
1782951193625102000,6.09410205078125,0.012570338323712349,-0.025473378598690033,-0.01652274653315544
1782951193635029000,6.104029052734375,0.02101663500070572,-0.0259233471006155,-0.0003057118155993521
1782951193644956200,6.1139560546875,0.02516051195561886,-0.016420122236013412,0.01163483690470457
1782951193654882300,6.12388232421875,0.027720090001821518,-0.010885168798267841,0.026032045483589172
1782951193664809000,6.13380908203125,0.024077950045466423,-0.004821683745831251,0.03349582478404045
1782951193674736000,6.143736083984375,0.01622176170349121,0.00038481736555695534,0.02614833600819111
1782951193684663000,6.1536630859375,0.006794171407818794,-0.0008578135166317225,0.0153241828083992
1782951193694590200,6.163590087890625,-0.003913371358066797,0.00702644232660532,0.008067118935286999
1782951193704517000,6.17351708984375,-0.013433373533189297,0.0024047931656241417,0.007474565412849188
1782951193714443000,6.183443115234375,-0.024472558870911598,-0.005280961748212576,0.010025674477219582
1782951193724370000,6.193369873046875,-0.023190513253211975,-0.015002565458416939,0.007589681539684534
1782951193734297000,6.203297119140625,-0.019126981496810913,-0.023789823055267334,0.008687417954206467
1782951193744223700,6.2132236328125,-0.013718102127313614,-0.03126931190490723,0.011105835437774658
1782951193754151000,6.22315087890625,-0.014051859267055988,-0.03670930862426758,0.014896038919687271
1782951193764077000,6.2330771484375,-0.017471622675657272,-0.03833756595849991,0.013180430978536606
1782951193774004000,6.24300390625,-0.011408553458750248,-0.03198206052184105,0.012136670760810375
1782951193783931100,6.25293115234375,-0.005783424247056246,-0.000985527876764536,0.008503586053848267
1782951193793858000,6.262858154296875,0.00024515489349141717,0.02167009934782982,0.004849487449973822
1782951193803785000,6.272784912109375,-0.0035053747706115246,0.03938118740916252,0.005040968768298626
1782951193813712000,6.2827119140625,-0.017568252980709076,0.05003897845745087,0.006940409075468779
1782951193823638000,6.292637939453125,-0.025855211541056633,0.04054667428135872,0.008278115652501583
1782951193833565000,6.30256494140625,-0.02784954011440277,0.024812279269099236,0.005565803498029709
1782951193843492000,6.3124921875,-0.02127739228308201,0.017829203978180885,0.00353327882476151
1782951193853419000,6.3224189453125,-0.012370183132588863,0.00997847132384777,0.007701658643782139
1782951193863346000,6.332345947265625,0.008551876060664654,0.006974958349019289,0.013055943883955479
1782951193873272000,6.34227197265625,0.020861998200416565,-0.0006899484433233738,0.016694186255335808
1782951193883199000,6.352198974609375,0.02112937904894352,-0.017340565100312233,0.019560281187295914
1782951193893126000,6.3621259765625,0.019515255466103554,-0.01892712712287903,0.0273023322224617
1782951193903053000,6.372052978515625,0.017963964492082596,-0.010833514854311943,0.034916043281555176
1782951193912980000,6.38197998046875,0.016911538317799568,-0.0042827557772397995,0.03778818994760513
1782951193922907000,6.391906982421875,0.013685652054846287,0.0039040674455463886,0.03787713870406151
1782951193932833000,6.4018330078125,0.012490838766098022,0.01173388957977295,0.03162729740142822
1782951193942760000,6.411760009765625,0.01211613230407238,0.01324603334069252,0.019899267703294754
1782951193952687000,6.42168701171875,0.010018415749073029,0.006085772067308426,0.0061943018808960915
1782951193962614000,6.431614013671875,0.010855713859200478,0.0015109940432012081,-0.0024854731746017933
1782951193972541000,6.441541015625,0.011210720054805279,-0.004596923943608999,-0.00008854561019688845
1782951193982466800,6.451466796875,0.008080973289906979,-0.009201263077557087,0.012998227961361408
1782951193992394000,6.46139404296875,-0.002161569893360138,-0.020903384312987328,0.02692011184990406
1782951194002321000,6.47132080078125,-0.011408064514398575,-0.016617558896541595,0.03301475569605827
1782951194012248000,6.481248046875,-0.013328691944479942,-0.002195668173953891,0.0301340464502573
1782951194022174700,6.4911748046875,-0.013306587934494019,0.0077485754154622555,0.01665365882217884
1782951194032102000,6.501101806640625,-0.011682078242301941,0.007383306510746479,0.008068717084825039
1782951194042028000,6.511028076171875,-0.01477454137057066,0.005368624813854694,0.002386330161243677
1782951194051955000,6.520954833984375,-0.01770152896642685,0.0029690638184547424,0.009152499958872795
1782951194061882000,6.530882080078125,-0.02245074324309826,-0.003075246699154377,0.009682734496891499
1782951194071809000,6.54080908203125,-0.019693491980433464,-0.02036251686513424,0.004166510421782732
1782951194081736000,6.55073583984375,-0.020230919122695923,-0.02825665846467018,-0.004785439465194941
1782951194091661800,6.560661865234375,-0.01706952415406704,-0.028004266321659088,-0.012540595605969429
1782951194101589000,6.570589111328125,-0.014750976115465164,-0.020533833652734756,-0.010820992290973663
1782951194111516000,6.580515869140625,-0.02007809653878212,-0.00603771535679698,0.00564187066629529
1782951194121443000,6.590443115234375,-0.01736273802816868,-0.003256576368585229,0.01568465121090412
1782951194131370000,6.600369873046875,-0.003842024365440011,-0.014532836154103279,0.01692207157611847
1782951194141297000,6.610296875,0.01007219310849905,-0.02158435434103012,0.01970001496374607
1782951194151223000,6.62022314453125,0.014082269743084908,-0.033168137073516846,0.012955177575349808
1782951194161150000,6.63014990234375,0.002914037788286805,-0.03120565228164196,0.007379317190498114
1782951194171077000,6.6400771484375,-0.00671452097594738,-0.02142919972538948,-0.003037414513528347
1782951194181004000,6.650004150390625,-0.015642503276467323,-0.0028033163398504257,-0.011131294071674347
1782951194190931000,6.659930908203125,-0.0165912676602602,0.00576447881758213,-0.0154185201972723
1782951194200856800,6.66985693359375,-0.018042689189314842,0.008309662342071533,-0.011752945370972157
1782951194210784000,6.679783935546875,-0.02055678516626358,-0.003609050065279007,-0.006438162177801132
1782951194220711000,6.6897109375,-0.018183110281825066,-0.009732989594340324,0.0011446565622463822
1782951194230638000,6.69963818359375,-0.007467130199074745,-0.017305560410022736,0.0035717524588108063
1782951194240565000,6.70956494140625,0.002564198337495327,-0.01594575121998787,0.010409684851765633
1782951194250492000,6.719491943359375,0.00782374944537878,-0.009717883542180061,0.019029440358281136
1782951194260418000,6.72941796875,0.0042734891176223755,-0.009396440349519253,0.022562121972441673
1782951194270345000,6.739344970703125,-0.002549466211348772,-0.006816944107413292,0.014820318669080734
1782951194280272100,6.749272216796875,-0.0027750360313802958,0.001755771692842245,0.012040244415402412
1782951194290199000,6.759198974609375,-0.011273420415818691,0.002448979765176773,0.0118291936814785
1782951194300126000,6.7691259765625,-0.011844402179121971,-0.0045857601799070835,0.023650165647268295
1782951194310051800,6.7790517578125,-0.005614128895103931,-0.013796238228678703,0.039764318615198135
1782951194319979000,6.78897900390625,0.0029434063471853733,-0.01972017250955105,0.04281630367040634
1782951194329906000,6.798906005859375,0.009803835302591324,-0.006600992754101753,0.03531898185610771
1782951194339833000,6.8088330078125,0.009760958142578602,0.007506836671382189,0.021273205056786537
1782951194349760000,6.818760009765625,0.00939856842160225,0.018182935193181038,0.004888196010142565
1782951194359687000,6.82868701171875,0.0047822450287640095,0.019911060109734535,-0.004868560470640659
1782951194369613000,6.838613037109375,-0.004320062231272459,0.009013501927256584,-0.004123825114220381
1782951194379540000,6.8485400390625,-0.008351288735866547,-0.006224839482456446,-0.007197379134595394
1782951194389467000,6.858466796875,-0.011440345086157322,-0.014637414366006851,-0.011820019222795963
1782951194399394000,6.86839404296875,-0.007181684020906687,-0.012682121247053146,-0.018491502851247787
1782951194409321000,6.878321044921875,-0.011524667032063007,0.014148151502013206,-0.015310666523873806
1782951194419246800,6.888246826171875,-0.01478677336126566,0.032731156796216965,-0.013661370612680912
1782951194429174000,6.898174072265625,-0.014879507012665272,0.02443842589855194,-0.022243598476052284
1782951194439101000,6.908100830078125,-0.01149915624409914,0.002898511476814747,-0.020872870460152626
1782951194449028000,6.918028076171875,-0.012509182095527649,-0.023455502465367317,-0.015777859836816788
1782951194458955000,6.927955078125,-0.012017029337584972,-0.04066884517669678,-0.013577556237578392
1782951194468882000,6.9378818359375,-0.005644314922392368,-0.047861479222774506,-0.010166361927986145
1782951194478807800,6.947807861328125,-0.0029145749285817146,-0.032874539494514465,-0.0040397606790065765
1782951194488735000,6.95773486328125,-0.004098009783774614,0.00665855361148715,0.0010475764283910394
1782951194498662000,6.967661865234375,-0.003663115669041872,0.04487438499927521,0.016181521117687225
1782951194508589000,6.977589111328125,-0.009047246538102627,0.07548647373914719,0.02000558003783226
1782951194518516000,6.987515869140625,-0.007056533824652433,0.07592163234949112,0.024620570242404938
1782951194528441900,6.99744189453125,-0.004449887201189995,0.040663059800863266,0.017258336767554283
1782951194538369000,7.007369140625,0.004059711005538702,-0.00306870648637414,0.00908829178661108
1782951194548296000,7.0172958984375,0.008454111404716969,-0.03287411108613014,0.0024602324701845646
1782951194558223000,7.02722314453125,0.010257870890200138,-0.04386710748076439,0.006480540614575148
1782951194568150000,7.03714990234375,0.006984605919569731,-0.029578259214758873,0.0148168271407485
1782951194578077000,7.047076904296875,0.004872186575084925,-0.014011815190315247,0.027375493198633194
1782951194588002800,7.0570029296875,0.007894792594015598,-0.0070879701524972916,0.03345977142453194
1782951194597930000,7.066929931640625,0.00925380364060402,-0.015110742300748825,0.039222318679094315
1782951194607857000,7.07685693359375,0.00019216869259253144,-0.029060082510113716,0.03718201816082001
1782951194617784000,7.0867841796875,-0.010239699855446815,-0.03973482921719551,0.0278143510222435
1782951194627711000,7.0967109375,-0.021148476749658585,-0.030236443504691124,0.00207277643494308
1782951194637636900,7.106636962890625,-0.026795443147420883,-0.018263403326272964,-0.019475659355521202
1782951194647564000,7.11656396484375,-0.02626330591738224,0.004020095337182283,-0.03599689528346062
1782951194657491000,7.126490966796875,-0.025273941457271576,0.028026627376675606,-0.03745417669415474
1782951194667418000,7.136418212890625,-0.02713562175631523,0.025266017764806747,-0.016189461573958397
1782951194677345000,7.146344970703125,-0.027168378233909607,0.006491797510534525,-0.002603344153612852
1782951194687272000,7.15627197265625,-0.026215845718979836,-0.014043411239981651,0.01453038677573204
1782951194697197800,7.16619775390625,-0.02203415147960186,-0.024542391300201416,0.018291568383574486
1782951194707125000,7.176125,-0.01506016869097948,-0.022762367501854897,0.006929775234311819
1782951194717052200,7.18605224609375,-0.012012713588774204,-0.007327484432607889,-0.003678127657622099
1782951194726979300,7.195979248046875,-0.0048331161960959435,0.015618428587913513,-0.008406545966863632
1782951194736906200,7.20590625,0.0013637932715937495,0.0182456374168396,-0.011764791794121265
1782951194746832400,7.215832275390625,0.0051893615163862705,0.007399158552289009,-0.004490909166634083
1782951194756759300,7.22575927734375,0.003675087820738554,-0.006663663778454065,0.009386290796101093
1782951194766686500,7.2356865234375,0.0026907280553132296,-0.012980330735445023,0.01027692761272192
1782951194776613000,7.245613037109375,0.0025421236641705036,-0.013790730386972427,0.003974024206399918
1782951194786540300,7.255540283203125,0.0050921449437737465,-0.010444927029311657,-0.009373173117637634
1782951194796467200,7.26546728515625,0.005213318858295679,-0.005311684217303991,-0.02637825533747673
1782951194806393300,7.275393310546875,0.008132465183734894,0.0005668923258781433,-0.03535931184887886
1782951194816320500,7.285320556640625,0.014473718591034412,0.00015410222113132477,-0.026001492515206337
1782951194826247200,7.2952470703125,0.01226526964455843,-0.0038290913216769695,-0.016157003119587898
1782951194836174300,7.30517431640625,0.01009612437337637,-0.009725863113999367,-0.0008179931901395321
1782951194846101200,7.315101318359375,0.01136645209044218,-0.020722053945064545,0.0077746957540512085
1782951194856027400,7.32502734375,0.01097416877746582,-0.02640950120985508,0.010327336378395557
1782951194865954300,7.334954345703125,0.01107341144233942,-0.026387078687548637,-0.003028824459761381
1782951194875881500,7.344881591796875,0.008305322378873825,-0.02472100406885147,-0.019149737432599068
1782951194885808000,7.35480810546875,0.0035204763989895582,-0.008114948868751526,-0.02566656842827797
1782951194895735300,7.3647353515625,-0.003248213790357113,0.012165023945271969,-0.019363397732377052
1782951194905661400,7.374661376953125,-0.007743858732283115,0.020267456769943237,-0.008019180968403816
1782951194915588400,7.38458837890625,-0.010374795645475388,0.018793396651744843,0.0165583323687315
1782951194925515500,7.394515625,-0.007189747411757708,0.022316278889775276,0.03072727471590042
1782951194935442200,7.404442138671875,-0.0033513333182781935,0.015824291855096817,0.03227989748120308
1782951194945369300,7.414369384765625,0.0026773938443511724,0.009781025350093842,0.013292982243001461
1782951194955296300,7.424296142578125,0.0037482508923858404,0.005281614605337381,-0.002350692404434085
1782951194965222400,7.434222412109375,0.0044816299341619015,-0.002648395486176014,-0.018892575055360794
1782951194975149300,7.4441494140625,0.013550492003560066,-0.01348692923784256,-0.02037222869694233
1782951194985076500,7.454076416015625,0.020740477368235588,-0.01252833940088749,-0.017653649672865868
1782951194995003100,7.464003173828125,0.026073457673192024,-0.01775878667831421,-0.007272913120687008
1782951195004930300,7.473930419921875,0.02072201855480671,-0.013123927637934685,0.008867190219461918
1782951195014856400,7.4838564453125,0.01058203261345625,0.002433727029711008,0.014532266184687614
1782951195024783400,7.493783447265625,0.0021325109992176294,0.01049475185573101,0.013358228839933872
1782951195034710500,7.50371044921875,-0.0025679683312773705,0.007496298756450415,-0.0030218088068068027
1782951195044637400,7.513637451171875,-0.0002857502840925008,-0.0031844046898186207,-0.014305206015706062
1782951195054564400,7.523564453125,0.0032011265866458416,-0.005310938693583012,-0.019917551428079605
1782951195064491300,7.5334912109375,0.011785505339503288,-0.011894186958670616,-0.018051400780677795
1782951195074417400,7.54341748046875,0.020069267600774765,-0.007797446567565203,-0.002591217402368784
1782951195084344300,7.55334423828125,0.020090701058506966,0.002149971667677164,0.009170458652079105
1782951195094271500,7.563271484375,0.014058375731110573,0.008479772135615349,0.02420027367770672
1782951195104198100,7.5731982421875,0.010888570919632912,0.017365580424666405,0.02086162008345127
1782951195114125300,7.583125244140625,0.005302057601511478,0.019697444513440132,0.013510762713849545
1782951195124051500,7.593051513671875,0.0044663939625024796,0.012168185785412788,0.006794486660510302
1782951195133978400,7.602978271484375,0.004131368827074766,0.0005735820159316063,0.002631433540955186
1782951195143905300,7.6129052734375,0.0051345000974833965,-0.008854113519191742,-0.0004114789189770818
1782951195153832400,7.62283251953125,0.007088727783411741,-0.016507772728800774,0.0042093717493116856
1782951195163759000,7.632759033203125,0.004676499404013157,-0.019253002479672432,0.007803050801157951
1782951195173685200,7.642685302734375,0.010817215777933598,-0.017150437459349632,0.008396402932703495
1782951195183612400,7.6526123046875,0.011358876712620258,-0.005790114402770996,0.005523324944078922
1782951195193539300,7.662539306640625,0.015549893490970135,-0.006356834899634123,-0.009551764465868473
1782951195203466500,7.672466552734375,0.017975565046072006,-0.011780939064919949,-0.01693030819296837
1782951195213393200,7.68239306640625,0.014364583417773247,-0.00895639043301344,-0.016477838158607483
1782951195223320300,7.6923203125,0.010982920415699482,0.009287211112678051,0.003416482824832201
1782951195233246200,7.70224609375,0.00635274825617671,0.038102079182863235,0.01784708723425865
1782951195243173400,7.71217333984375,0.005490775685757399,0.05717531964182854,0.028813593089580536
1782951195253100300,7.722100341796875,0.011068766936659813,0.053442634642124176,0.024647077545523643
1782951195263027500,7.73202734375,0.01436338946223259,0.0273427814245224,0.014520199969410896
1782951195272954000,7.7419541015625,0.011581450700759888,-0.005490531213581562,0.0012613857397809625
1782951195282880300,7.75188037109375,0.01395629532635212,-0.02371448650956154,-0.006068400107324123
1782951195292807400,7.761807373046875,0.011683819815516472,-0.02738858386874199,-0.0063674733974039555
1782951195302734300,7.771734375,0.009481293149292469,-0.013205600902438164,-0.007984418421983719
1782951195312661500,7.78166162109375,0.014476317912340164,-0.0029385825619101524,-0.0052208565175533295
1782951195322588400,7.79158837890625,0.006799645256251097,-0.0010073557496070862,-0.0034734057262539864
1782951195332515300,7.801515380859375,0.00800259504467249,0.0015743128024041653,0.007031966000795364
1782951195342441200,7.811441162109375,0.001818938530050218,0.010697548277676105,0.02064417116343975
1782951195352368400,7.821368408203125,-0.0014937674859538674,0.012697848491370678,0.029444852843880653
1782951195362295300,7.83129541015625,-0.005028444342315197,0.01549791544675827,0.022252362221479416
1782951195372222500,7.841222412109375,-0.006489720661193132,0.01471761055290699,0.013021315447986126
1782951195382149000,7.851149169921875,-0.0030152054969221354,0.020961027592420578,0.0063944547437131405
1782951195392075300,7.8610751953125,-0.005430159624665976,0.014153189957141876,0.008445089682936668
1782951195402002400,7.87100244140625,-0.00557655980810523,0.012500762939453125,0.011916419491171837
1782951195411929300,7.880929443359375,0.0017886784626170993,0.008210409432649612,0.008810906670987606
1782951195421856500,7.8908564453125,0.004618719685822725,-0.004279536660760641,0.0013708740007132292
1782951195431783400,7.900783447265625,0.00920175388455391,-0.01956634782254696,-0.015386268496513367
1782951195441710300,7.91071044921875,0.01218141708523035,-0.025565514340996742,-0.022205356508493423
1782951195451636200,7.92063623046875,0.011253837496042252,-0.023763885721564293,-0.026562554761767387
1782951195461563400,7.9305634765625,0.008861079812049866,-0.019465861842036247,-0.012804791331291199
1782951195471489500,7.940489501953125,0.0013734917156398296,-0.006338172592222691,0.0026933602057397366
1782951195481416200,7.950416259765625,-0.004381865728646517,-0.007332064211368561,0.011805897578597069
1782951195491343400,7.96034326171875,-0.004147433675825596,-0.007232929579913616,0.014042586088180542
1782951195501270300,7.970270263671875,-0.0014909303281456232,-0.0027218011673539877,0.014651916921138763
1782951195511196400,7.980196533203125,0.00322314933873713,0.006488624028861523,0.014791442081332207
1782951195521123300,7.990123291015625,0.00371050788089633,0.0013625710271298885,0.011854775249958038
1782951195531050500,8.000050537109376,-0.0031672166660428047,0.006898121442645788,0.025129184126853943
1782951195540977200,8.00997705078125,-0.00759099330753088,0.015068434178829193,0.03831076622009277
1782951195550904300,8.019904296875,-0.008949912153184414,0.013218283653259277,0.04436773434281349
1782951195560830500,8.02983056640625,0.002819928340613842,-0.001827511703595519,0.040951166301965714
1782951195570757400,8.03975732421875,0.005048250779509544,-0.009312411770224571,0.030300309881567955
1782951195580684500,8.0496845703125,0.0008535055676475167,-0.014250444248318672,0.013530918397009373
1782951195590611200,8.059611083984375,-0.00303906318731606,-0.01450259331613779,-0.0060751475393772125
1782951195600538400,8.069538330078124,-0.008900946006178856,-0.00571256410330534,-0.02677110582590103
1782951195610464300,8.07946435546875,-0.00731640262529254,-0.0011412801686674356,-0.042798224836587906
1782951195620391400,8.089391357421874,-0.004407431930303574,0.0026398757472634315,-0.041701801121234894
1782951195630318300,8.099318359375,0.00440886989235878,-0.00022696424275636673,-0.03233427181839943
1782951195640245500,8.10924560546875,0.008581510744988918,-0.0037668379954993725,-0.02398712746798992
1782951195650172200,8.119172119140625,0.006586399860680103,-0.003077632514759898,-0.009111151099205017
1782951195660099300,8.129099365234374,0.01027035154402256,-0.004580188076943159,-0.0024575097486376762
1782951195670025500,8.139025390625,0.006811914499849081,-0.0013933642767369747,-0.008171780034899712
1782951195679952400,8.148952392578124,0.00593493552878499,0.002934538759291172,-0.010828282684087753
1782951195689879300,8.15887939453125,0.009795335121452808,0.001172720454633236,-0.010610104538500309
1782951195699806200,8.16880615234375,0.009243794716894627,0.014613693580031395,-0.00607474148273468
1782951195709733000,8.178733154296875,0.0029298614244908094,0.015682324767112732,-0.000934689654968679
1782951195719658800,8.18865869140625,-0.005330997984856367,0.007518137339502573,-0.002255617640912533
1782951195729586000,8.1985859375,-0.00933119561523199,0.0008554612286388874,-0.0012985687935724854
1782951195739512800,8.208512939453126,-0.011972784996032715,-0.003202929859980941,-0.0032527963630855083
1782951195749440000,8.21843994140625,-0.013862837105989456,-0.0020743224304169416,-0.004823613911867142
1782951195759367000,8.228366943359376,-0.010063571855425835,-0.0038775489665567875,-0.010376570746302605
1782951195769294000,8.238294189453125,-0.012688878923654556,-0.009140456095337868,-0.013891461305320263
1782951195779220000,8.248219970703126,-0.015929680317640305,-0.0036215870641171932,-0.010791009292006493
1782951195789147000,8.25814697265625,-0.026724493131041527,0.0011135856620967388,-0.004732281900942326
1782951195799074000,8.268073974609376,-0.031244676560163498,0.010170996189117432,0.004206351935863495
1782951195809001000,8.2780009765625,-0.02944403886795044,0.00605221651494503,0.0027985048945993185
1782951195818928000,8.28792822265625,-0.026407768949866295,-0.000361474696546793,-0.005004823207855225
1782951195828853800,8.297853759765625,-0.018651440739631653,-0.016680240631103516,-0.012773089110851288
1782951195838781000,8.307781005859376,-0.018357960507273674,-0.01463200245052576,-0.019747909158468246
1782951195848708900,8.317708984375,-0.016264982521533966,-0.008077696897089481,-0.01700139045715332
1782951195858635800,8.3276357421875,-0.01591029390692711,0.0207245834171772,-0.010605310089886189
1782951195868563000,8.33756298828125,-0.015215476043522358,0.033090438693761826,-0.008497685194015503
1782951195878489000,8.347489013671876,-0.014473344199359417,0.031098447740077972,-0.009187850169837475
1782951195888416000,8.357416015625,-0.015943942591547966,0.02368553914129734,-0.010151914320886135
1782951195898343000,8.367343017578126,-0.019211165606975555,0.009556755423545837,-0.008410665206611156
1782951195908269800,8.377269775390625,-0.020401597023010254,-0.006323407869786024,-0.009873539209365845
1782951195918197000,8.387197021484376,-0.020502567291259766,-0.02240973338484764,-0.01797589100897312
1782951195928123000,8.397122802734375,-0.014617781154811382,-0.02775762602686882,-0.02964479848742485
1782951195938050000,8.407050048828125,-0.00983426719903946,-0.025845924392342567,-0.03125273808836937
1782951195947977000,8.41697705078125,0.0004964017425663769,-0.021392585709691048,-0.01711508259177208
1782951195957904000,8.42690380859375,0.009085270576179028,-0.014271238818764687,0.0006986598018556833
1782951195967830800,8.436830810546875,0.008036517538130283,-0.023700427263975143,0.01092972606420517
1782951195977758000,8.446758056640626,0.005360214505344629,-0.025191742926836014,0.012068350799381733
1782951195987684000,8.45668408203125,-0.0012995523866266012,-0.02137516811490059,0.010965002700686455
1782951195997611000,8.466611083984375,-0.003370700404047966,-0.012603292241692543,0.007461001165211201
1782951196007538000,8.476537841796874,-0.0050950972363352776,-0.012548429891467094,0.00772598572075367
1782951196017464800,8.48646484375,-0.01311615388840437,-0.02241583541035652,0.024870816618204117
1782951196027392000,8.49639208984375,-0.026537686586380005,-0.03433587774634361,0.06135639175772667
1782951196037318000,8.50631787109375,-0.10883616656064987,0.08901102840900421,0.1061190739274025
1782951196047245000,8.5162451171875,-0.10563104599714279,0.08577076345682144,0.11986950784921646
1782951196057172000,8.526171875,-0.05131779983639717,-0.0011850930750370026,0.09556318074464798
1782951196067099000,8.536098876953124,-0.025967437773942947,-0.021108999848365784,0.055928148329257965
1782951196077025800,8.54602587890625,-0.0015251928707584739,-0.021031085401773453,0.011531898751854897
1782951196086952000,8.555951904296874,0.008066714741289616,-0.02678058296442032,-0.015476549044251442
1782951196096879000,8.565879150390625,0.0022335925605148077,-0.022922463715076447,-0.02081378921866417
1782951196106806000,8.575805908203124,-0.010240120813250542,-0.0066026123240590096,-0.014956166967749596
1782951196116733000,8.58573291015625,-0.009430594742298126,0.006294745020568371,-0.019561471417546272
1782951196126659800,8.595659912109374,0.008886095136404037,0.0023902850225567818,-0.03464961051940918
1782951196136587000,8.6055869140625,0.02383929304778576,-0.013193096965551376,-0.05178280547261238
1782951196146513000,8.615512939453126,0.022608380764722824,-0.020952748134732246,-0.06166047230362892
1782951196156440000,8.625440185546875,0.015761330723762512,-0.010722704231739044,-0.0737520307302475
1782951196166367000,8.635366943359376,0.011934634298086166,0.017729977145791054,-0.08692535758018494
1782951196176294000,8.6452939453125,0.010176533833146095,0.02327188476920128,-0.09617564082145691
1782951196186220800,8.655220703125,0.01568128727376461,0.025064457207918167,-0.08997233957052231
1782951196196147000,8.66514697265625,0.0041042231023311615,0.03318627178668976,-0.07359997928142548
1782951196206074000,8.67507421875,-0.007832065224647522,0.05826498940587044,-0.0506531186401844
1782951196216001000,8.6850009765625,-0.009798157960176468,0.058943167328834534,-0.011424290016293526
1782951196225928200,8.69492822265625,0.026740677654743195,0.09198367595672607,0.023617049679160118
1782951196235854800,8.704854736328125,0.03140660375356674,0.10559245198965073,0.037162505090236664
1782951196245781000,8.714781005859376,0.03476192057132721,0.09503195434808731,0.04445716738700867
1782951196255708000,8.7247080078125,0.03022182546555996,0.0812135636806488,0.04413413628935814
1782951196265635000,8.734635009765626,0.029595715925097466,0.043498411774635315,0.042423851788043976
1782951196275562000,8.74456201171875,0.022339146584272385,0.0006533190608024597,0.03115404210984707
1782951196285489000,8.754489013671876,0.01148117147386074,-0.027047552168369293,0.006433251313865185
1782951196295415800,8.764415771484375,0.005326284561306238,-0.03236500173807144,-0.026913709938526154
1782951196305342000,8.774342041015625,-0.003193966578692198,-0.008716128766536713,-0.04795295000076294
1782951196315269000,8.78426904296875,-0.005972076207399368,0.06287229061126709,-0.0482158437371254
1782951196325196000,8.794196044921875,-0.00929117389023304,0.12574872374534607,-0.034005485475063324
1782951196335123000,8.804123046875,-0.00870662834495306,0.13144640624523163,-0.011176841333508492
1782951196345049900,8.8140498046875,-0.016701171174645424,0.09618856012821198,0.009214717894792557
1782951196354976000,8.82397607421875,-0.028686819598078728,0.04721147567033768,0.022407876327633858
1782951196364903000,8.83390283203125,-0.02977978065609932,0.010360252112150192,0.02218097448348999
1782951196374830000,8.843830078125,-0.0178851205855608,-0.021068084985017776,-0.003979772794991732
1782951196384757000,8.853757080078125,-0.01229061745107174,-0.037660907953977585,-0.05148071050643921
1782951196394684000,8.863683837890624,-0.009874524548649788,-0.046235159039497375,-0.11078141629695892
1782951196404610800,8.87361083984375,-0.010155221447348595,-0.04227370768785477,-0.17074516415596008
1782951196414537000,8.883536865234374,-0.009837092831730843,-0.021354448050260544,-0.212296262383461
1782951196424464000,8.8934638671875,-0.007618945557624102,0.002715736161917448,-0.22023062407970428
1782951196434391000,8.90339111328125,-0.010418947786092758,0.006907889619469643,-0.20657815039157867
1782951196444318000,8.91331787109375,-0.010925214737653732,0.004845005460083485,-0.1696172058582306
1782951196454244900,8.923244873046874,-0.006097611039876938,0.013091165572404861,-0.12481683492660522
1782951196464171000,8.9331708984375,-0.0064621977508068085,0.02276935800909996,-0.08990386128425598
1782951196474098000,8.943097900390624,0.0014472168404608965,0.033248044550418854,-0.06635098904371262
1782951196484025000,8.953025146484375,0.016067439690232277,0.03207013010978699,-0.05145060643553734
1782951196493952000,8.962951904296874,0.0296937208622694,-0.005597228650003672,-0.03535216674208641
1782951196503879200,8.972879150390625,0.03815591707825661,-0.03221738710999489,-0.007736252620816231
1782951196513804800,8.9828046875,0.0276278518140316,-0.0449000746011734,0.021921582520008087
1782951196523732000,8.99273193359375,0.011439559981226921,-0.04706602543592453,0.04305402934551239
1782951196533659000,9.002658935546876,0.0074813333339989185,-0.03179014101624489,0.04188503697514534
1782951196543586000,9.0125859375,0.00009425704774912447,0.004074650350958109,0.02798280119895935
1782951196553513000,9.022512939453126,-0.011150041595101357,0.04354747757315636,0.014302902854979038
1782951196563439900,9.03243994140625,-0.02231055125594139,0.05649576708674431,-0.006884674075990915
1782951196573366000,9.042365966796876,-0.026084287092089653,0.02796156331896782,-0.023278778418898582
1782951196583293000,9.05229296875,-0.025299718603491783,-0.005953260697424412,-0.029201380908489227
1782951196593220000,9.06222021484375,-0.008716655895113945,-0.02409077249467373,-0.01737094670534134
1782951196603147000,9.07214697265625,-0.002994321985170245,-0.021176209673285484,0.00955867301672697
1782951196613074200,9.08207421875,-0.0014519814867526293,-0.012501435354351997,0.02655818685889244
1782951196622999800,9.091999755859375,-0.0042317891493439674,0.0013909447006881237,0.0334768109023571
1782951196632927000,9.101927001953126,-0.005990663077682257,0.0065396917052567005,0.014891677536070347
1782951196642854000,9.11185400390625,-0.006729690358042717,0.0022767698392271996,-0.011833676137030125
1782951196652781000,9.121781005859376,-0.007013986352831125,-0.005609668791294098,-0.037763454020023346
1782951196662708000,9.1317080078125,-0.016726801171898842,-0.015098512172698975,-0.05327290669083595
1782951196672633900,9.1416337890625,-0.018020199611783028,-0.016131030395627022,-0.0413379892706871
1782951196682561000,9.15156103515625,-0.01797306165099144,-0.013137372210621834,-0.008564063347876072
1782951196692488000,9.161488037109375,-0.018362754955887794,-0.013823999091982841,0.02036302536725998
1782951196702415000,9.1714150390625,-0.0136452317237854,-0.010699046775698662,0.03660990670323372
1782951196712342000,9.181342041015625,-0.007564150262624025,-0.007941992953419685,0.03323965147137642
1782951196722269200,9.191269287109375,-0.000984811456874013,-0.014497896656394005,0.0071771577931940556
1782951196732195000,9.201195068359375,-0.00171267194673419,-0.019798003137111664,-0.012071346864104271
1782951196742122200,9.211122314453124,0.004910875577479601,-0.010092644020915031,-0.012430073693394661
1782951196752049200,9.221049072265625,0.002015294972807169,0.022043252363801003,0.01910564675927162
1782951196761976000,9.23097607421875,-0.0010832931147888303,0.046612776815891266,0.06459616869688034
1782951196771903000,9.240903076171875,-0.0036724256351590157,0.05200377479195595,0.09816709160804749
1782951196781829000,9.2508291015625,0.004284300841391087,0.025989484041929245,0.10636643320322037
1782951196791756000,9.260756103515625,0.007143403869122267,-0.0004842258058488369,0.09201563894748688
1782951196801683200,9.27068310546875,0.007954336702823639,-0.01489432342350483,0.05943053215742111
1782951196811610000,9.280610107421875,0.009031355381011963,-0.022386830300092697,0.011120742186903954
1782951196821537000,9.290537109375,0.010372789576649666,-0.02126430720090866,-0.04092967510223389
1782951196831463200,9.300463134765625,0.012651879340410233,-0.023758962750434875,-0.07236167043447495
1782951196841390000,9.31039013671875,0.013999970629811287,-0.03219452500343323,-0.07340510189533234
1782951196851317200,9.320317138671875,0.006918377708643675,-0.022011514753103256,-0.04638468846678734
1782951196861244200,9.330244140625,-0.00559714762493968,-0.005848255939781666,-0.0009005616884678602
1782951196871171300,9.34017138671875,-0.01843399927020073,0.004640741273760796,0.04188891500234604
1782951196881098000,9.350097900390624,-0.016847554594278336,0.012019827961921692,0.06078404560685158
1782951196891024100,9.360024169921875,-0.006596154998987913,0.03281480073928833,0.06352431327104568
1782951196900951000,9.369950927734376,-0.00487868208438158,0.042645860463380814,0.05474573001265526
1782951196910878200,9.379878173828125,-0.0035390492994338274,0.026850340887904167,0.03100978583097458
1782951196920805000,9.38980517578125,-0.0019539357163012028,0.015282902866601944,0.009035244584083557
1782951196930732000,9.39973193359375,-0.0038405267987400293,0.00004212372004985809,-0.008975266478955746
1782951196940658200,9.409658203125,0.004355085082352161,-0.020475134253501892,-0.0198577418923378
1782951196950585000,9.419585205078125,0.00920605193823576,-0.043943025171756744,-0.0204726904630661
1782951196960512300,9.42951220703125,0.01245297770947218,-0.05691395699977875,-0.010682111606001854
1782951196970439200,9.439439208984375,0.01217913068830967,-0.045739661902189255,0.014895521104335785
1782951196980366300,9.449366455078126,0.0006535021821036935,-0.01905132457613945,0.02365865372121334
1782951196990292000,9.4592919921875,-0.00347882485948503,0.00668385298922658,0.029547927901148796
1782951197000219100,9.46921923828125,-0.006255436688661575,0.022997578606009483,0.01855359971523285
1782951197010146000,9.47914599609375,-0.012824023142457008,0.027926016598939896,0.002468330319970846
1782951197020073200,9.4890732421875,-0.013242672197520733,0.01977168209850788,-0.009903384372591972
1782951197030000000,9.499000244140625,-0.008403053507208824,0.013505467213690281,-0.014674963429570198
1782951197039927000,9.508927001953126,-0.007997187785804272,0.002787310164421797,-0.012928196229040623
1782951197049853200,9.518853271484375,-0.006621088366955519,-0.009792058728635311,-0.012237070128321648
1782951197059780000,9.528780029296875,0.0009228476556017995,-0.01642466150224209,-0.005365581717342138
1782951197069707300,9.538707275390625,0.0015559366438537836,-0.022200608626008034,-0.0016207199078053236
1782951197079634200,9.54863427734375,-0.0007775250123813748,-0.025170300155878067,0.0018738799262791872
1782951197089561300,9.558561279296875,-0.002875755773857236,-0.0164936576038599,0.00664429971948266
1782951197099487000,9.568487060546875,-0.007761057931929827,0.0025263726711273193,0.019188588485121727
1782951197109414100,9.5784140625,-0.01682634837925434,0.011697864159941673,0.019283510744571686
1782951197119341000,9.588341064453125,-0.022696221247315407,0.007477019913494587,0.012622945010662079
1782951197129268200,9.598268310546874,-0.020961740985512733,0.004449239932000637,-0.00009173410944640636
1782951197139195100,9.608195068359375,-0.016706543043255806,0.0022380175068974495,-0.00772089185193181
1782951197149121000,9.61812109375,-0.01941440813243389,0.0058018919080495834,-0.011059481650590897
1782951197159048200,9.628048095703125,-0.019362209364771843,0.004629301838576794,-0.0065946923568844795
1782951197168975000,9.63797509765625,-0.018890755251049995,-0.0017630183137953281,-0.0010958985658362508
1782951197178902300,9.64790234375,-0.016018269583582878,-0.010088326409459114,0.010680600069463253
1782951197188829200,9.6578291015625,-0.015388591215014458,-0.0082158287987113,0.02904260903596878
1782951197198755000,9.667755126953125,-0.013441820628941059,-0.015913695096969604,0.036044858396053314
1782951197208682000,9.677681884765626,-0.008263993076980114,-0.020488912239670753,0.039050884544849396
1782951197218609200,9.687609130859375,-0.005265539512038231,-0.009421879425644875,0.03370671719312668
1782951197228536000,9.6975361328125,-0.00531299551948905,0.005986261647194624,0.030249008908867836
1782951197238463200,9.707463134765625,-0.012583158910274506,0.015339815989136696,0.026623383164405823
1782951197248390100,9.71739013671875,-0.007333824411034584,0.019239528104662895,0.02302274852991104
1782951197258316000,9.72731591796875,-0.0021989834494888783,-0.0004409654065966606,0.014452164992690086
1782951197268243200,9.7372431640625,0.00870035495609045,-0.01766478642821312,-0.0026727053336799145
1782951197278170000,9.747170166015625,0.01014591846615076,-0.02073274552822113,-0.010569510981440544
1782951197288097000,9.757096923828126,0.0026191261131316423,-0.0156429260969162,-0.01696113683283329
1782951197298024200,9.767024169921875,-0.005695262923836708,-0.012415707111358643,-0.016205864027142525
1782951197307950000,9.7769501953125,-0.01995786651968956,-0.0019817806314677,-0.0038163429126143456
1782951197317877000,9.786876953125,-0.02927786484360695,0.0010411734692752361,0.015195165760815144
1782951197327804200,9.79680419921875,-0.02517126314342022,-0.0131140211597085,0.026578402146697044
1782951197337731000,9.80673095703125,-0.020381834357976913,-0.027668729424476624,0.02209070883691311
1782951197347658200,9.816658203125,-0.01544671319425106,-0.026838472113013268,0.009338670410215855
1782951197357584000,9.826583984375,-0.017176436260342598,-0.020924124866724014,-0.009621172212064266
1782951197367511000,9.836510986328125,-0.016352782025933266,-0.01074015162885189,-0.017430903390049934
1782951197377438000,9.84643798828125,-0.01650085300207138,0.004467297345399857,-0.015521683730185032
1782951197387365000,9.856365234375,-0.01983434520661831,0.010578876361250877,-0.010530275292694569
1782951197397292000,9.8662919921875,-0.013932245783507824,0.005158544983714819,0.0014808474807068706
1782951197407219200,9.87621923828125,-0.01264269556850195,0.00975104235112667,0.012608703225851059
1782951197417145000,9.88614501953125,-0.013206220231950283,0.005183720495551825,0.022150542587041855
1782951197427072000,9.896072021484375,-0.017013752833008766,-0.011840913444757462,0.014412308111786842
1782951197436999200,9.905999267578125,-0.020396767184138298,-0.019821874797344208,0.010943541303277016
1782951197446926000,9.915926025390625,-0.01870214194059372,-0.012513978406786919,0.009645174257457256
1782951197456853200,9.925853271484375,-0.01882917433977127,0.0014031687751412392,0.002963304053992033
1782951197466779100,9.935779052734375,-0.008020184002816677,0.0030568744987249374,-0.007545821368694305
1782951197476706000,9.9457060546875,0.003678550012409687,-0.005721969995647669,-0.024094438180327415
1782951197486633000,9.955633056640625,0.00919278059154749,-0.015736617147922516,-0.03662552684545517
1782951197496560000,9.96556005859375,0.011979245580732822,-0.020563330501317978,-0.034498460590839386
1782951197506487000,9.975487060546875,0.012292462401092052,-0.01340129878371954,-0.026656918227672577
1782951197516413200,9.9854130859375,0.013164381496608257,-0.019076760858297348,-0.011587155051529408
1782951197526340000,9.995340087890625,0.00983528234064579,-0.001538377720862627,0.009287171065807343
1782951197536267000,10.00526708984375,0.005384607706218958,0.014594253152608871,0.03022254817187786
1782951197546194200,10.015194091796875,0.0019717856775969267,0.024620670825242996,0.0447242297232151
1782951197556121000,10.02512109375,0.012672366574406624,0.02229919284582138,0.049008723348379135
1782951197566048300,10.03504833984375,0.012505101971328259,0.007709182798862457,0.04141474515199661
1782951197575974100,10.04497412109375,0.012387123890221119,-0.010473283007740974,0.017196226865053177
1782951197585901000,10.054901123046875,0.01500380877405405,-0.013193455524742603,-0.011598847806453705
1782951197595828000,10.064827880859376,0.016551105305552483,-0.013119419105350971,-0.03756333887577057
1782951197605755100,10.074755126953125,0.014225540682673454,-0.005534684751182795,-0.049793243408203125
1782951197615682000,10.08468212890625,0.009031577967107296,-0.0014704344794154167,-0.0422397181391716
1782951197625608200,10.094608154296875,0.012312197126448154,-0.0006405739113688469,-0.007517515681684017
1782951197635535000,10.10453515625,0.003505921456962824,0.0024050171487033367,0.0349109023809433
1782951197645462000,10.1144619140625,-0.007720641791820526,0.007059384603053331,0.06743360310792923
1782951197655389200,10.12438916015625,-0.01705901511013508,0.00974278524518013,0.07307044416666031
1782951197665316000,10.134316162109375,-0.016773220151662827,0.014239300042390823,0.05202103778719902
1782951197675242200,10.1442421875,-0.01538784522563219,0.02168256975710392,0.024921776726841927
1782951197685169200,10.154169189453125,-0.017576534301042557,0.022871877998113632,0.0016870013205334544
1782951197695096000,10.164095947265626,-0.019498538225889206,-0.011282363906502724,0.005841799080371857
1782951197705023000,10.17402294921875,-0.029861895367503166,-0.017185768112540245,0.027642246335744858
1782951197714950400,10.183950439453126,-0.03878588229417801,-0.008601333945989609,0.03770473599433899
1782951197724877300,10.193877197265625,-0.03905683755874634,-0.0024833520874381065,0.02483888901770115
1782951197734803500,10.203803466796876,-0.032727569341659546,0.005511723458766937,-0.009431998245418072
1782951197744730400,10.21373046875,-0.03497403487563133,0.015066665597259998,-0.050565727055072784
1782951197754657300,10.2236572265625,-0.035898152738809586,0.019579924643039703,-0.0737868919968605
1782951197764584200,10.233584228515625,-0.03666812926530838,0.02163543738424778,-0.06888340413570404
1782951197774511400,10.243511474609376,-0.0356377512216568,0.016136275604367256,-0.04178627207875252
1782951197784437500,10.2534375,-0.03242496773600578,0.0034445342607796192,-0.0002294345758855343
1782951197794364400,10.263364501953125,-0.02778840810060501,-0.005604886915534735,0.03304489701986313
1782951197804291600,10.27329150390625,-0.020414846017956734,-0.009907465428113937,0.0392080619931221
1782951197814218200,10.28321826171875,-0.012832826934754848,-0.012261966243386269,0.026118362322449684
1782951197824145400,10.2931455078125,-0.013443241827189922,-0.005615663714706898,0.0041451770812273026
1782951197834071300,10.3030712890625,-0.009231719188392162,-0.002761820564046502,-0.010266252793371677
1782951197843998500,10.31299853515625,-0.00872398354113102,0.0008153566159307957,-0.02015013061463833
1782951197853925400,10.32292529296875,-0.0076520610600709915,0.008817623369395733,-0.019085397943854332
1782951197863852300,10.332852294921874,-0.0037279119715094566,0.012760017067193985,-0.015796102583408356
1782951197873779200,10.342779296875,-0.005541258025914431,0.009614823386073112,-0.012132925912737846
1782951197883706400,10.352706298828124,-0.004848303738981485,0.005749511998146772,-0.007412206381559372
1782951197893632500,10.362632568359375,-0.002694871509447694,-0.0005171722732484341,-0.0034179973881691694
1782951197903559400,10.372559326171874,-0.005640135146677494,-0.007522948086261749,-0.014254831708967686
1782951197913486600,10.382486572265625,-0.007326981518417597,-0.02973663993179798,-0.02008582279086113
1782951197923413200,10.392413330078124,-0.0068115307949483395,-0.030947599560022354,-0.005156318657100201
1782951197933340400,10.40234033203125,-0.014795687049627304,-0.014797125943005085,0.015857353806495667
1782951197943266300,10.412266357421874,-0.024937840178608894,-0.0024456840474158525,0.022973904386162758
1782951197953193500,10.422193359375,-0.024114923551678658,0.008714292198419571,0.020234310999512672
1782951197963120400,10.432120361328124,-0.021644173189997673,0.011965231969952583,0.009683575481176376
1782951197973047300,10.44204736328125,-0.020763199776411057,0.011661631986498833,-0.0036998745054006577
1782951197982974200,10.45197412109375,-0.017360100522637367,0.012409545481204987,-0.005943738855421543
1782951197992900400,10.461900390625,-0.012134445831179619,0.008751960471272469,-0.007070256397128105
1782951198002827500,10.47182763671875,-0.017106926068663597,-0.0066722179763019085,-0.015971746295690536
1782951198012754400,10.48175439453125,-0.01279180683195591,-0.020332369953393936,-0.02278491109609604
1782951198022681600,10.491681640625,-0.008508855476975441,-0.016580060124397278,-0.028356585651636124
1782951198032608300,10.501608154296875,-0.007732544094324112,-0.0139432642608881,-0.023595919832587242
1782951198042534400,10.511534423828126,-0.006110752932727337,0.0026335162110626698,-0.010146055370569229
1782951198052461300,10.52146142578125,-0.0070055751129984856,0.013182030990719795,0.007441726513206959
1782951198062388500,10.531388427734376,-0.012274527922272682,0.01345270499587059,0.021695345640182495
1782951198072315400,10.5413154296875,-0.014193069189786911,0.009233726188540459,0.030856087803840637
1782951198082242300,10.5512421875,-0.015436609275639057,0.02037549577653408,0.03858180344104767
1782951198092168400,10.56116845703125,-0.02006651647388935,0.025812605395913124,0.045247163623571396
1782951198102095400,10.571095458984376,-0.020915742963552475,0.002367914654314518,0.03272543475031853
1782951198112022300,10.581022216796875,-0.005860892590135336,-0.019403960555791855,0.007113283034414053
1782951198121949400,10.590949462890626,0.00777726573869586,-0.022346388548612595,-0.019883599132299423
1782951198131876400,10.60087646484375,0.008259564638137817,-0.01978522725403309,-0.04069487378001213
1782951198141803300,10.61080322265625,0.0076154195703566074,-0.023303197696805,-0.05415778607130051
1782951198151729400,10.6207294921875,0.008516632951796055,-0.005696773529052734,-0.048253823071718216
1782951198161656300,10.63065625,0.00728596793487668,0.010163798928260803,-0.020149724557995796
1782951198171583500,10.64058349609375,-0.0036641512997448444,0.013369712047278881,0.010373029857873917
1782951198181510400,10.650510498046875,-0.007640498224645853,0.013733649626374245,0.034908439964056015
1782951198191437600,10.6604375,-0.004542709328234196,0.022638194262981415,0.04757310450077057
1782951198201363200,10.67036328125,-0.004302999470382929,0.02265596017241478,0.04720458760857582
1782951198211290400,10.680290283203124,-0.005183174274861813,-0.0038427587132900953,0.03138061612844467
1782951198221217300,10.69021728515625,0.0008527436293661594,-0.01679612696170807,0.012294627726078033
1782951198231144400,10.70014453125,0.0038195049855858088,-0.013847742229700089,-0.01125304214656353
1782951198241071400,10.7100712890625,0.0012477644486352801,-0.004975622054189444,-0.035067129880189896
1782951198250997200,10.719997314453124,-0.00017462982214055955,-0.0018195097800344229,-0.05356224998831749
1782951198260924400,10.72992431640625,-0.00047408023965545,-0.003125887829810381,-0.05274823680520058
1782951198270851300,10.739851318359374,-0.003913020249456167,-0.0027085705660283566,-0.03898422420024872
1782951198280778500,10.749778564453125,-0.006508166436105967,0.0026439111679792404,-0.015862103551626205
1782951198290705400,10.759705322265624,-0.0035123766865581274,0.005702818278223276,0.0063124410808086395
1782951198300632600,10.769632568359375,0.0012632107827812433,0.017508115619421005,0.028597066178917885
1782951198310558200,10.77955810546875,-0.0029392573051154613,0.027672335505485535,0.04704371839761734
1782951198320485400,10.7894853515625,-0.009692649357020855,0.020691528916358948,0.04688626155257225
1782951198330412300,10.799412353515624,-0.016714872792363167,0.0008834684267640114,0.03821687400341034
1782951198340339500,10.80933935546875,-0.01627206988632679,-0.01421675831079483,0.025894174352288246
1782951198350266400,10.819266357421874,-0.018814323469996452,-0.022970568388700485,0.011945068836212158
1782951198360192300,10.829192138671875,-0.01636575721204281,-0.009763505309820175,-0.006383948028087616
1782951198370119400,10.839119384765626,-0.006736832670867443,0.012668035924434662,-0.018902402371168137
1782951198380046300,10.84904638671875,-0.0015253110323101282,0.020015278831124306,-0.03248023986816406
1782951198389973500,10.858973388671876,0.0006070820381864905,0.01077464409172535,-0.02685484103858471
1782951198399900400,10.868900390625,-0.00295565789565444,-0.0020681514870375395,-0.016207842156291008
1782951198409826300,10.878826416015626,-0.014076219871640205,-0.02030840888619423,-0.004492862615734339
1782951198419753200,10.888753173828125,-0.020363235846161842,-0.022563520818948746,-0.0026743286289274693
1782951198429680400,10.898680419921876,-0.026583315804600716,-0.01073855347931385,-0.01608520932495594
1782951198439607300,10.908607177734375,-0.02965928427875042,-0.007291240617632866,-0.02738124690949917
1782951198449534500,10.918534423828126,-0.036259133368730545,-0.0020541343837976456,-0.03147505968809128
1782951198459460400,10.92846044921875,-0.0428834967315197,-0.005437297746539116,-0.026699718087911606
1782951198469387300,10.93838720703125,-0.044790320098400116,-0.014734925702214241,-0.028909876942634583
1782951198479314400,10.948314453125,-0.04100245237350464,-0.010283268988132477,-0.034764379262924194
1782951198489241300,10.958241455078126,-0.032072074711322784,-0.001973408041521907,-0.04111974686384201
1782951198499168500,10.96816845703125,-0.030501944944262505,0.0010129958391189575,-0.04545287415385246
1782951198509095400,10.978095458984376,-0.024601446464657784,0.007651191204786301,-0.029994823038578033
1782951198519021300,10.988021240234374,-0.02470175363123417,0.0134176816791296,-0.002760665724053979
1782951198528948200,10.9979482421875,-0.02297149784862995,0.02026520110666752,0.036834150552749634
1782951198538875400,11.00787548828125,-0.018754128366708755,0.02019079029560089,0.06216545030474663
1782951198548802300,11.01780224609375,-0.010515905916690826,0.011014334857463837,0.06875544041395187
1782951198558729500,11.0277294921875,0.0020838307682424784,0.00692736404016614,0.05711469054222107
1782951198568655400,11.0376552734375,0.009050127118825912,0.009277071803808212,0.03437502309679985
1782951198578582300,11.047582275390624,0.012450333684682846,0.0031878817826509476,0.011409050785005093
1782951198588509400,11.057509521484375,0.020787624642252922,0.0004520164802670479,-0.007995273917913437
1782951198598436400,11.067436279296874,0.02444634959101677,0.0018236101604998112,-0.01820193976163864
1782951198608363300,11.07736328125,0.024721721187233925,0.00015274295583367348,-0.01916121132671833
1782951198618289400,11.087289306640624,0.021402429789304733,-0.00030152685940265656,-0.013659488409757614
1782951198628216300,11.09721630859375,0.026127144694328308,-0.0029729437083005905,-0.002856376115232706
1782951198638143200,11.107143310546874,0.023655107244849205,-0.0019747395999729633,0.008095202967524529
1782951198648070400,11.1170703125,0.023588260635733604,-0.00302908499725163,0.010178860276937485
1782951198657997300,11.126997314453124,0.023709626868367195,-0.0027295444160699844,-0.0010728937340900302
1782951198667924500,11.136924560546875,0.023819882422685623,0.0057185348123312,-0.014924527145922184
1782951198677850400,11.146850341796876,0.01731128990650177,0.01830202341079712,-0.019874950870871544
1782951198687777300,11.15677734375,0.004541432484984398,0.02233218587934971,-0.015050634741783142
1782951198697704200,11.1667041015625,0.0013708950718864799,0.021601608023047447,-0.0027319551445543766
1782951198707631400,11.17663134765625,0.0023932824842631817,0.014676857739686966,0.011434996500611305
1782951198717558300,11.186558349609374,0.003280363045632839,0.0030040722340345383,0.016131507232785225
1782951198727484200,11.196484130859375,0.006413572002202272,0.0013545104302465916,0.013217209838330746
1782951198737411300,11.206411376953126,0.004719845950603485,0.0024416837841272354,0.0029867147095501423
1782951198747338200,11.216338134765625,-0.0027204935904592276,0.006000998429954052,-0.011740831658244133
1782951198757265400,11.226265380859376,-0.003156589576974511,0.013864228501915932,-0.028429174795746803
1782951198767192300,11.2361923828125,-0.005138780456036329,0.012802958488464355,-0.04441560059785843
1782951198777118500,11.246118408203126,0.0012592345010489225,-0.00013038422912359238,-0.051976896822452545
1782951198787045000,11.256045166015625,0.006719513796269894,-0.013690933585166931,-0.04413308948278427
1782951198796972300,11.26597216796875,0.011185047216713428,-0.01185433380305767,-0.026592634618282318
1782951198806899200,11.275899169921875,-0.0032767169177532196,0.008621913380920887,-0.01165176834911108
1782951198816826400,11.285826416015626,-0.019344806671142578,0.04356200248003006,-0.024000441655516624
1782951198826752500,11.29575244140625,-0.023643679916858673,0.06139586493372917,-0.05501801148056984
1782951198836679200,11.30567919921875,-0.032097749412059784,0.030527710914611816,-0.08256397396326065
1782951198846606300,11.3156064453125,-0.03738013282418251,-0.007518206723034382,-0.11586813628673553
1782951198856533200,11.325533203125,-0.02170807681977749,-0.025944756343960762,-0.14068473875522614
1782951198866460400,11.33546044921875,0.006099052727222443,-0.031192781403660774,-0.1467767208814621
1782951198876387300,11.34538720703125,0.014518662355840206,-0.030413882806897163,-0.1349138617515564
1782951198886313500,11.3553134765625,0.0137604596093297,0.014011107385158539,-0.11478250473737717
1782951198896240000,11.365240234375,0.01778697595000267,0.03218542039394379,-0.09944137930870056
1782951198906167300,11.375167236328124,0.010299497283995152,0.02798455022275448,-0.083408884704113
1782951198916094200,11.38509423828125,-0.013240475207567215,0.04659932479262352,-0.07148383557796478
1782951198926021400,11.395021484375,-0.03149857744574547,0.050894204527139664,-0.05828601494431496
1782951198935947500,11.404947509765625,-0.0348796583712101,0.04276067018508911,-0.03388526290655136
1782951198945874200,11.414874267578124,-0.039428602904081345,0.053934499621391296,-0.010127467103302479
1782951198955801300,11.42480126953125,-0.02506421133875847,0.08790602535009384,-0.01130222249776125
1782951198965728300,11.434728271484374,-0.0028835420962423086,0.07387090474367142,-0.02452082373201847
1782951198975655400,11.444655517578125,0.002269371645525098,0.02080525830388069,-0.0322873480618
1782951198985581300,11.454581298828124,-0.0011511925840750337,0.027381934225559235,-0.024464843794703484
1782951198995508500,11.464508544921875,-0.011212348937988281,0.017353001981973648,-0.04164010286331177
1782951199005435100,11.47443505859375,-0.01848624087870121,-0.016421472653746605,-0.07168188691139221
1782951199015362300,11.4843623046875,-0.017356453463435173,-0.03182273358106613,-0.07999212294816971
1782951199025289200,11.494289306640624,-0.018878715112805367,-0.017538869753479958,-0.06646806001663208
1782951199035215400,11.50421533203125,-0.029664382338523865,0.023443469777703285,-0.04081284999847412
1782951199045142500,11.514142578125,-0.03991489112377167,0.057940997183322906,-0.030733851715922356
1782951199055069200,11.524069091796875,-0.040900297462940216,0.053149398416280746,-0.024090010672807693
1782951199064996400,11.533996337890626,-0.04147900268435478,0.04284962639212608,-0.015187330543994904
1782951199074923300,11.54392333984375,-0.04578714072704315,0.051430776715278625,-0.018819425255060196
1782951199084850400,11.553850341796876,-0.032995712012052536,0.07457870990037918,-0.04501773789525032
1782951199094776300,11.5637763671875,-0.005216278601437807,0.10783413052558899,-0.07974722236394882
1782951199104703500,11.573703369140626,0.011150444857776165,0.12915273010730743,-0.10266026109457016
1782951199114630100,11.583630126953125,0.029325930401682854,0.13380137085914612,-0.11815046519041061
1782951199124557300,11.593557373046876,0.061877213418483734,0.14274746179580688,-0.10289748013019562
1782951199134484200,11.603484130859375,0.061376091092824936,0.13283021748065948,-0.0933641716837883
1782951199144410400,11.613410400390626,0.033089593052864075,0.15402339398860931,-0.0410892516374588
1782951199154337300,11.623337158203125,-0.00711566349491477,0.10150178521871567,-0.0019541336223483086
1782951199164264400,11.633264404296876,-0.009777226485311985,0.03863201290369034,0.026509732007980347
1782951199174191400,11.64319140625,0.005031206179410219,-0.00453256955370307,0.03538055345416069
1782951199184118300,11.6531181640625,-0.00023839049390517175,-0.03156791627407074,-0.00006585090886801481
1782951199194044400,11.66304443359375,0.008583497256040573,-0.012602733448147774,-0.043791454285383224
1782951199203971300,11.672971435546875,0.020830310881137848,0.007421042304486036,-0.07459571212530136
1782951199213898500,11.6828984375,0.02247384563088417,-0.012990502640604973,-0.07575102150440216
1782951199223825200,11.6928251953125,0.02127728797495365,-0.09365499019622803,-0.06932774186134338
