time,seconds_elapsed,z,y,x
1782970008002663700,0.06366357421875,-0.0024684839881956577,0.00392736354842782,0.002130528911948204
1782970008012590600,0.073590576171875,-0.0015331818722188473,0.006036587059497833,0.0013140037190169096
1782970008022516700,0.083516845703125,-0.00031372037483379245,0.006652310024946928,0.0017230651574209332
1782970008032442600,0.093442626953125,-0.0003432814555708319,0.006216350477188826,0.0013989584986120462
1782970008042369500,0.10336962890625,-0.0014745922526344657,0.005221659783273935,0.004299940075725317
1782970008052295700,0.113295654296875,0.0004340952436905354,0.005791576579213142,0.0005928196478635073
1782970008062221800,0.123221923828125,0.00013315805699676275,0.007719971239566803,0.0035151063930243254
1782970008072147700,0.133147705078125,-0.00038935415796004236,0.005826463922858238,0.000004793690095539205
1782970008082074600,0.14307470703125,-0.001508680754341185,0.00472418125718832,0.0001358212175546214
1782970008092000800,0.153000732421875,-0.0005387574783526361,0.0067817396484315395,0.0026530411560088396
1782970008101926700,0.1629267578125,0.00022849922243040055,0.002697515767067671,0.0035246936604380608
1782970008111853600,0.172853515625,0.0019571571610867977,0.003924167715013027,0.0012042814632877707
1782970008121779700,0.18277978515625,-0.0015267902053892612,0.005916212219744921,0.0027481159195303917
1782970008131705900,0.192705810546875,-0.0018258632626384497,0.004677043296396732,0.0018074874533340335
1782970008141632500,0.202632568359375,0.0011677960865199566,0.005081577692180872,0.00021891183860134333
1782970008151558700,0.21255859375,-0.0036075180396437645,0.005812615156173706,0.000937166390940547
1782970008161484800,0.22248486328125,-0.0016138756182044744,0.00478436890989542,-0.0001310275256400928
1782970008171410700,0.23241064453125,-0.0011379687348380685,0.0049127331003546715,0.001240766723640263
1782970008181337600,0.242337646484375,0.0007566040731035173,0.003995540551841259,0.0024618261959403753
1782970008191263700,0.252263671875,-0.0016626114957034588,0.006469084415584803,0.00006231796578504145
1782970008201189600,0.262189697265625,-0.0001685781026026234,0.0038573225028812885,0.004342017695307732
1782970008211116500,0.272116455078125,-0.0010287790792062879,0.0026756778825074434,0.0009387642494402826
1782970008221042700,0.282042724609375,-0.0012412993237376213,0.00487145408987999,0.0032708945218473673
1782970008230968800,0.29196875,0.0015715312911197543,0.004292482975870371,0.0019265307346358895
1782970008240895700,0.301895751953125,-0.0012998889433220029,0.00583631731569767,0.0005302353529259562
1782970008250821600,0.311821533203125,-0.002469549188390374,0.005987851414829493,0.003335609333589673
1782970008260747800,0.321747802734375,-0.0007659250986762345,0.006050169467926025,-0.000027430558475316502
1782970008270673700,0.331673583984375,0.0006202502408996224,0.0027142937760800123,0.0007006776868365705
1782970008280600600,0.3416005859375,-0.0015824503498151898,0.005359877832233906,-0.000060986389144090936
1782970008290526700,0.351526611328125,-0.0011350392596796155,0.004826446995139122,-0.00036964676110073924
1782970008300452600,0.36145263671875,-0.0012570120161399245,0.0029023129027336836,0.0035025894176214933
1782970008310379800,0.3713798828125,-0.0006311691831797361,0.006792126223444939,0.0010077401529997587
1782970008320305700,0.3813056640625,-0.0012897689593955874,0.007330616936087608,0.001199221471324563
1782970008330231600,0.3912314453125,-0.0005488775204867125,0.0054632085375487804,0.0043896883726119995
1782970008340158700,0.40115869140625,0.0008812400046736002,0.007869641296565533,0.00032570460462011397
1782970008350084600,0.411084716796875,-0.0022069616243243217,0.006060289219021797,0.0002335592289455235
1782970008360010500,0.421010498046875,0.0008636631537228823,0.006397977937012911,-0.0009446232579648495
1782970008369936600,0.4309365234375,-0.001525991247035563,0.005874134600162506,-0.00013528858835343271
1782970008379863800,0.44086376953125,-0.00007776429993100464,0.005997438915073872,0.0020248014479875565
1782970008389789700,0.450789794921875,-0.0020903151016682386,0.007171892561018467,0.0010002832859754562
1782970008399715600,0.460715576171875,0.0005643238546326756,0.0036943370942026377,0.0012325108982622623
1782970008409642800,0.470642822265625,-0.0003355582884978503,0.005847768858075142,0.0036607813090085983
1782970008419568600,0.480568603515625,-0.0005869606975466013,0.006834470201283693,0.0009518137667328119
1782970008429494500,0.49049462890625,-0.0026080335956066847,0.006549245677888393,-0.0004577973741106689
1782970008439421700,0.500421630859375,0.0014298511669039726,0.00675244489684701,0.0012295814231038094
1782970008449347800,0.510347900390625,-0.0025337315164506435,0.007674697786569595,-0.000716922979336232
1782970008459273500,0.5202734375,-0.0007315703551284969,0.004037618637084961,-0.000036751622246811166
1782970008469199600,0.53019970703125,0.0021933794487267733,0.003656520042568445,0.00037736992817372084
1782970008479126800,0.540126708984375,-0.001213868847116828,0.006741526070982218,0.0009712548344396055
1782970008489052700,0.550052734375,-0.0007629956235177815,0.006342584267258644,0.0006420881254598498
1782970008498978600,0.559978515625,0.0004519384237937629,0.005754292011260986,0.002581668319180608
1782970008508905700,0.56990576171875,0.00029401297797448933,0.006200371775776148,0.0023438481148332357
1782970008518831600,0.57983154296875,0.0005171858938410878,0.0051960935816168785,0.0016189356101676822
1782970008528757500,0.589757568359375,-0.0009406284661963582,0.005338040180504322,0.004839229863137007
1782970008538684700,0.5996845703125,-0.0019065570086240768,0.005269863177090883,0.0022658174857497215
1782970008548610600,0.609610595703125,0.0005597964627668262,0.003922570031136274,-0.00006471481174230576
1782970008558536700,0.61953662109375,-0.0020359866321086884,0.00583631731569767,0.0011145329335704446
1782970008568462600,0.629462646484375,-0.002031725598499179,0.004340420011430979,0.0011773834703490138
1782970008578389800,0.6393896484375,-0.00014674017438665032,0.0031491878908127546,0.0006849650526419282
1782970008588315600,0.649315673828125,0.0025065671652555466,0.0059692091308534145,0.000358461489668116
1782970008598241500,0.659241455078125,-0.0014628743520006537,0.004883971065282822,-0.0014748586108908057
1782970008608168700,0.669168701171875,0.0009116000146605074,0.006130064371973276,0.003177417442202568
1782970008618094600,0.679094482421875,0.0004950816510245204,0.0038959383964538574,0.001898034941405058
1782970008628020700,0.689020751953125,-0.0002633866388350725,0.006882673595100641,0.000651675509288907
1782970008637946600,0.698946533203125,-0.000969656917732209,0.00538304727524519,0.001130511867813766
1782970008647873500,0.70887353515625,0.00010199906682828441,0.006780674215406179,0.0037268276792019606
1782970008657799700,0.718799560546875,0.0002892192860599607,0.00583738274872303,0.001341434195637703
1782970008667725600,0.7287255859375,-0.00042211104300804436,0.005945773329585791,0.0030682277865707874
1782970008677652500,0.738652587890625,-0.001068193931132555,0.005970008205622435,0.0030746194534003735
1782970008687578600,0.74857861328125,-0.000333161442540586,0.005103415343910456,0.0018639464396983385
1782970008697504800,0.7585048828125,-0.0012828446924686432,0.00538517814129591,-0.0011403656098991632
1782970008707431700,0.768431640625,-0.00043356261448934674,0.005773467011749744,0.00213532242923975
1782970008717357600,0.778357666015625,-0.0023310647811740637,0.004354001954197884,0.000565122754778713
1782970008727283700,0.78828369140625,0.0016168050933629274,0.0017715347930788994,-0.0002902845444623381
1782970008737209600,0.798209716796875,0.0012452941155061126,0.004095675423741341,0.0009246495319530368
1782970008747136500,0.808136474609375,0.00018881811411119998,0.005336442030966282,-0.0012199940392747521
1782970008757062700,0.818062744140625,0.00038535939529538155,0.0027776770293712616,0.0028250813484191895
1782970008766988800,0.82798876953125,-0.0014799186028540134,0.004542553797364235,0.0021944446489214897
1782970008776915500,0.83791552734375,-0.0007432882557623088,0.005821936298161745,-0.00022796659322921187
1782970008786841600,0.847841552734375,0.0010964233661070466,0.002038117265328765,0.0014034858904778957
1782970008796767700,0.857767822265625,0.0001478054327890277,0.0056983656249940395,-0.0004420847399160266
1782970008806693600,0.867693603515625,0.0012844426091760397,0.004573180340230465,0.0016900419723242521
1782970008816620500,0.87762060546875,-0.0030101709999144077,0.006421680096536875,-0.00007723167072981596
1782970008826546700,0.887546630859375,0.0013622068800032139,0.006232596002519131,0.0027209515683352947
1782970008836472800,0.897472900390625,0.0007470166892744601,0.005584648810327053,0.0013872405979782343
1782970008846399500,0.9073994140625,-0.001710814656689763,0.005880259443074465,0.002499376656487584
1782970008856325600,0.91732568359375,-0.002636795863509178,0.007361776195466518,0.0031092404387891293
1782970008866251800,0.927251708984375,-0.0021763353142887354,0.0031073763966560364,0.0016740630380809307
1782970008876178700,0.9371787109375,-0.0007848335662856698,0.006075735669583082,0.0004463458026293665
1782970008886104600,0.9471044921875,-0.0022865901701152325,0.003981692250818014,0.00009614011651137844
1782970008896030700,0.95703076171875,-0.0011595403775572777,0.0016817862633615732,0.00007882956560933962
1782970008905956900,0.966956787109375,-0.0019217369845137,0.004923652391880751,0.0011012171162292361
1782970008915883500,0.976883544921875,0.00040746363811194897,0.007181213703006506,0.001970206620171666
1782970008925809700,0.9868095703125,0.00041784998029470444,0.005019525997340679,0.0020639498252421618
1782970008935735800,0.99673583984375,0.0018738001817837358,0.0041425470262765884,-0.00003222424857085571
1782970008945662700,1.006662841796875,0.00072597770486027,0.0065226140432059765,0.0005518069956451654
1782970008955588600,1.016588623046875,-0.0013382384786382318,0.004780640359967947,0.0021350563038140535
1782970008965514800,1.0265146484375,-0.0009584716754034162,0.005555087700486183,0.00282082031480968
1782970008975441700,1.036441650390625,-0.001103880233131349,0.0034943337086588144,0.004801146686077118
1782970008985367600,1.046367431640625,-0.002674879040569067,0.00589490681886673,0.0008410262526012957
1782970008995293700,1.056293701171875,0.0012314456980675459,0.004367584362626076,0.0015701997326686978
1782970009005219600,1.066219482421875,0.0010721886064857244,0.006588127929717302,0.0035838158801198006
1782970009015146800,1.076146728515625,-0.002144909929484129,0.004236822947859764,0.0031305458396673203
1782970009025072600,1.08607275390625,-0.0006090649403631687,0.006174538750201464,0.004780640359967947
1782970009034998500,1.09599853515625,0.00041252365917898715,0.0029313412960618734,0.0015651397407054901
1782970009044925700,1.10592578125,0.0001882854849100113,0.006431533955037594,0.001529187080450356
1782970009054851800,1.115851806640625,0.0009603358921594918,0.005791043862700462,0.0025044367648661137
1782970009064777700,1.12577783203125,0.0007629956235177815,0.003890611929818988,-0.0003992078418377787
1782970009074703600,1.13570361328125,-0.0007984156836755574,0.006600910797715187,0.002083390951156616
1782970009084630800,1.145630859375,-0.0007326356135308743,0.0032682311721146107,0.0017273263074457645
1782970009094556700,1.155556640625,-0.00029401297797448933,0.006200904026627541,0.001883387565612793
1782970009104482600,1.165482666015625,0.002671416848897934,0.0046360306441783905,0.0028969866689294577
1782970009114409700,1.17540966796875,0.0009369000908918679,0.006155630573630333,0.0011638014111667871
1782970009124335900,1.1853359375,0.0010602044640108943,0.0031933963764458895,0.0015512913232669234
1782970009134261500,1.195261474609375,0.0017600831342861056,0.004061320796608925,0.0020908478181809187
1782970009144188700,1.205188720703125,0.00006924218905624002,0.005498894955962896,0.0004753742541652173
1782970009154114800,1.21511474609375,0.0010657970560714602,0.004091946873813868,0.002965163439512253
1782970009164040400,1.22504052734375,-0.0013795174891129136,0.00675164582207799,0.0016290555940940976
1782970009173966600,1.234966552734375,0.00043782367720268667,0.004142014309763908,0.0006498112925328314
1782970009183893800,1.244893798828125,-0.0035449336282908916,0.007151652593165636,0.0007206514128483832
1782970009193819600,1.254819580078125,0.0011765845119953156,0.003944407682865858,0.0035723643377423286
1782970009203745500,1.26474560546875,-0.002026133006438613,0.004600876942276955,0.0034208304714411497
1782970009213672700,1.274672607421875,0.0001968075957847759,0.006942594423890114,0.004021106753498316
1782970009223598600,1.2845986328125,0.0010010822443291545,0.004876514431089163,0.0017267935909330845
1782970009233524500,1.2945244140625,-0.002132659312337637,0.005234176758676767,0.002257827902212739
1782970009243450600,1.30445068359375,0.0014082795241847634,0.004788896068930626,0.0028716865926980972
1782970009253377800,1.314377685546875,-0.00112438655924052,0.005090099759399891,0.0020333235152065754
1782970009263303700,1.3243037109375,-0.00044821001938544214,0.00464694993570447,0.003409645054489374
1782970009273229600,1.3342294921875,0.0000015978966985130683,0.0060357884503901005,0.0031619712244719267
1782970009283156700,1.34415673828125,0.0011251855175942183,0.005601160228252411,-0.0006958839949220419
1782970009293082600,1.35408251953125,0.0006876281695440412,0.005311941262334585,0.0006418218254111707
1782970009303008500,1.364008544921875,-0.002484462922438979,0.0036461339332163334,0.0006266417913138866
1782970009312935700,1.373935791015625,-0.0016487629618495703,0.005353220272809267,0.00047857005847617984
1782970009322861600,1.383861572265625,0.0006146575906313956,0.004224838688969612,0.0012186624808236957
1782970009332787700,1.39378759765625,0.0003478088474366814,0.006990797817707062,0.004084490239620209
1782970009342713600,1.403713623046875,-0.0017180051654577255,0.006924751214683056,0.0023550332989543676
1782970009352640500,1.413640625,0.00006205165118444711,0.004677842371165752,0.004327103961259127
1782970009362566700,1.423566650390625,0.0005624596378766,0.005583050660789013,0.0014176006661728024
1782970009372492500,1.433492431640625,-0.0020578245166689157,0.002823749789968133,0.0010191916953772306
1782970009382419700,1.443419677734375,-0.0005089300684630871,0.004080495331436396,0.0010402307379990816
1782970009392345600,1.453345703125,0.00022503710351884365,0.004165450111031532,0.004697549622505903
1782970009402272300,1.463272216796875,-0.0006452839006669819,0.006689327768981457,0.0007651261985301971
1782970009412198400,1.473198486328125,0.0023334617726504803,0.006207562051713467,0.001627457677386701
1782970009422125000,1.483125,-0.0025710156187415123,0.006941529456526041,0.000940095866099
1782970009432051200,1.49305126953125,-0.000464188982732594,0.00561181316152215,0.0007866977830417454
1782970009441977300,1.502977294921875,-0.0000679106087773107,0.005172924138605595,0.0007134608458727598
1782970009451904300,1.512904296875,0.000290018244413659,0.004457066301256418,0.0011171960504725575
1782970009461830100,1.522830078125,-0.00035127095179632306,0.00515774404630065,-0.00035180358099751174
1782970009471756300,1.53275634765625,0.001580053474754095,0.006450708955526352,0.00169563468080014
1782970009481682200,1.54268212890625,-0.0023963123094290495,0.006485329940915108,0.0020242687314748764
1782970009491609000,1.552609130859375,0.002418150193989277,0.005832855589687824,0.00039228363311849535
1782970009501535200,1.56253515625,-0.000752875639591366,0.0049319081008434296,-0.0000399474156438373
1782970009511461400,1.57246142578125,-0.0008929579053074121,0.002912166528403759,-0.0012564794160425663
1782970009521388300,1.58238818359375,-0.00019627496658358723,0.0037673076149076223,0.0022218753583729267
1782970009531314200,1.592314208984375,0.0021350563038140535,0.005772934295237064,0.0016498282784596086
1782970009541240300,1.602240234375,0.0003475425182841718,0.005630188621580601,0.0006559365428984165
1782970009551167200,1.612167236328125,-0.00015899071877356619,0.004674113821238279,0.0012918994762003422
1782970009561093000,1.622093017578125,0.0010149306617677212,0.005086104851216078,0.0022309301421046257
1782970009571019300,1.632019287109375,0.0010450243717059493,0.005056543741375208,0.0004809668753296137
1782970009580945200,1.641945068359375,-0.0006021407316438854,0.0057444386184215546,0.0034168355632573366
1782970009590872300,1.651872314453125,-0.001059139147400856,0.00663579860702157,0.001032241270877421
1782970009600798200,1.661798095703125,-0.003710582386702299,0.0028613002505153418,0.0017443705582991242
1782970009610724000,1.67172412109375,-0.0006317017832770944,0.005760417319834232,0.00027324032271280885
1782970009620651300,1.6816513671875,0.0004572647449094802,0.007697068154811859,-0.0011611381778493524
1782970009630577200,1.6915771484375,0.00250603468157351,0.0038956720381975174,0.0004945489927195013
1782970009640503300,1.70150341796875,-0.0006125270738266408,0.005360943265259266,0.0012202603975310922
1782970009650429200,1.71142919921875,0.0002641855680849403,0.005656820256263018,0.0009701895760372281
1782970009660356400,1.7213564453125,-0.00032570460462011397,0.005572131834924221,0.0011515507940202951
1782970009670282200,1.7312822265625,-0.0015188007382676005,0.0046818372793495655,0.0010982876410707831
1782970009680208100,1.7412080078125,0.0019797938875854015,0.003719637170433998,-0.0005339637864381075
1782970009690135300,1.75113525390625,-0.0011209244839847088,0.0043532028794288635,0.0015094797126948833
1782970009700061200,1.761061279296875,-0.0036852823104709387,0.005911685060709715,0.0014682007022202015
1782970009709987000,1.770987060546875,0.0012538161827251315,0.005298891570419073,-0.001540638622827828
1782970009719913200,1.780913330078125,0.003698864486068487,0.0037316211964935064,-0.00034434671397320926
1782970009729840400,1.79084033203125,0.0008069378091022372,0.00458596320822835,0.0015369103057309985
1782970009739766000,1.80076611328125,0.002918558195233345,0.006398777011781931,0.0006924218614585698
1782970009749692200,1.810692138671875,-0.002552373567596078,0.004971322603523731,0.0035337484441697598
1782970009759619300,1.820619384765625,-0.0003616572648752481,0.005605954211205244,0.0010210559703409672
1782970009769545000,1.830544921875,0.000699079770129174,0.005089567042887211,0.00041305628838017583
1782970009779471000,1.84047119140625,0.00022130868455860764,0.004569451790302992,-0.00039654469583183527
1782970009789398300,1.850398193359375,-0.0019033611752092838,0.007237140089273453,0.003668504301458597
1782970009799324200,1.86032421875,0.0013640711549669504,0.0028660940006375313,0.0026791400741785765
1782970009809250000,1.87025,-0.0024807346053421497,0.003686613868921995,-0.0024458470288664103
1782970009819176200,1.88017626953125,-0.0005747101386077702,0.005790777504444122,0.0013883059145882726
1782970009829103000,1.89010302734375,0.001514806062914431,0.0037880802992731333,0.00162399560213089
1782970009839029200,1.900029296875,0.0006948187365196645,0.005652293097227812,0.0016903083305805922
1782970009848955100,1.909955078125,0.0003147856332361698,0.0039041941054165363,0.003867975203320384
1782970009858882300,1.91988232421875,0.0004218447138555348,0.007527690846472979,0.0002258360618725419
1782970009868808200,1.92980810546875,-0.001002413802780211,0.004508465528488159,0.000023435817638528533
1782970009878734000,1.939734130859375,-0.0024051007349044085,0.004231763072311878,-0.0010191916953772306
1782970009888660200,1.94966015625,-0.0007107976707629859,0.005164402071386576,-0.0005163869354873896
1782970009898587100,1.959587158203125,-0.0004495415778364986,0.006223807577043772,-0.0005542038124985993
1782970009908513300,1.96951318359375,0.001020523370243609,0.004185690078884363,-0.000027963191314483993
1782970009918439200,1.979439208984375,0.0001549959706608206,0.005494633689522743,0.002406165935099125
1782970009928366000,1.989365966796875,-0.0019411781104281545,0.002398442942649126,0.002020274056121707
1782970009938292200,1.999292236328125,0.00023222764139063656,0.003975034225732088,0.0013206616276875138
1782970009948218000,2.009218017578125,-0.0015819176333025098,0.005245894659310579,0.00041998049709945917
1782970009958144300,2.019144287109375,-0.002445580903440714,0.005572398193180561,0.0016674051294103265
1782970009968071200,2.0290712890625,-0.00044581317342817783,0.006624879315495491,-0.0022682142443954945
1782970009977997300,2.038997314453125,-0.0014354437589645386,0.0037651772145181894,0.0023843280505388975
1782970009987923200,2.048923095703125,-0.0033635725267231464,0.004083691164851189,0.0021784657146781683
1782970009997850000,2.05885009765625,0.0013424995122477412,0.00481419637799263,0.0031286815647035837
1782970010007776300,2.0687763671875,0.00020133497309871018,0.006740726996213198,0.00242161238566041
1782970010017702100,2.0787021484375,0.0012985573848709464,0.004366252571344376,0.0020335898734629154
1782970010027629000,2.088629150390625,-0.0013132047606632113,0.003537210635840893,0.00279046013019979
1782970010037555200,2.09855517578125,0.0015523566398769617,0.005164402071386576,0.001005343277938664
1782970010047481300,2.1084814453125,-0.0007640608819201589,0.005256281234323978,-0.0000679106087773107
1782970010057407200,2.1184072265625,-0.0000399474156438373,0.004604605492204428,0.000565389113035053
1782970010067334100,2.128334228515625,0.0008583368035033345,0.006296778097748756,0.0011787151452153921
1782970010077260300,2.13826025390625,0.001291100517846644,0.005213404074311256,0.0016157397767528892
1782970010087186200,2.148186279296875,-0.0024833977222442627,0.004322310443967581,0.00290364446118474
1782970010097113000,2.158113037109375,0.0032890038564801216,0.0034706315491348505,0.0012655340833589435
1782970010107039200,2.168039306640625,0.0035425368696451187,0.003912183456122875,0.0011350392596796155
1782970010116965400,2.17796533203125,0.0010106696281582117,0.005392901133745909,0.0017619474092498422
1782970010126891300,2.187891357421875,0.0010093380697071552,0.0060267336666584015,-0.0012207929976284504
1782970010136818200,2.197818115234375,-0.0004972121678292751,0.006298109423369169,0.0027798074297606945
1782970010146744300,2.207744384765625,-0.0001496696495451033,0.004547880031168461,0.002900714986026287
1782970010156670200,2.217670166015625,0.0009150621481239796,0.005603556986898184,0.0010847054654732347
1782970010166597000,2.22759716796875,0.000678307143971324,0.005852829199284315,0.004502073861658573
1782970010176523300,2.237523193359375,0.0008641957538202405,0.003305515507236123,0.0008335694437846541
1782970010186449400,2.247449462890625,-0.0007275756215676665,0.004623514134436846,0.00040000680019147694
1782970010196375000,2.257375,0.0005275722360238433,0.004460528492927551,0.0032839439809322357
1782970010206302200,2.26730224609375,-0.001306280493736267,0.003907123580574989,0.002802710747346282
1782970010216228400,2.277228271484375,-0.003582750679925084,0.005893309134989977,-0.0015715312911197543
1782970010226154000,2.287154052734375,-0.0025963156949728727,0.005783054046332836,0.000009321063771494664
1782970010236081200,2.2970810546875,-0.0013606089632958174,0.0029031119775027037,0.001356347929686308
1782970010246007300,2.30700732421875,0.000461259507574141,0.004203000571578741,0.0009882990270853043
1782970010255933200,2.31693310546875,-0.0027180220931768417,0.00501206936314702,-0.0013246563030406833
1782970010265860000,2.326860107421875,-0.0013544837711378932,0.0049188584089279175,0.0036647759843617678
1782970010275786200,2.3367861328125,-0.000070307454734575,0.004608334042131901,0.003555319970473647
1782970010285712100,2.346712158203125,-0.0009353021741844714,0.00344479875639081,0.002290584845468402
1782970010295638000,2.356637939453125,-0.0017827199772000313,0.005802761763334274,0.0003206445835530758
1782970010305565200,2.366565185546875,-0.001561677665449679,0.0038567897863686085,0.0017259946325793862
1782970010315491000,2.376490966796875,-0.0004825647920370102,0.0036549223586916924,-0.00043063313933089375
1782970010325417200,2.386417236328125,0.0006229133578017354,0.004547081422060728,-0.001347293145954609
1782970010335344400,2.396344482421875,-0.0008482168195769191,0.0049470881931483746,0.0006452839006669819
1782970010345270300,2.406270263671875,-0.0018138790037482977,0.0038096518255770206,0.0012484899489209056
1782970010355196200,2.416196044921875,-0.0018279937794432044,0.006087719928473234,0.0009811085183173418
1782970010365122000,2.4261220703125,0.0020911141764372587,0.00373002327978611,0.002344913315027952
1782970010375049200,2.43604931640625,0.0002463423879817128,0.005789712071418762,0.0027225494850426912
1782970010384975000,2.44597509765625,0.0013004215434193611,0.005557218100875616,0.004798483569175005
1782970010394901200,2.4559013671875,-0.001591505017131567,0.005595567636191845,0.0015747271245345473
1782970010404827600,2.46582763671875,-0.000901480030734092,0.003373159794136882,0.004525776021182537
1782970010414753500,2.47575341796875,-0.0024612934794276953,0.005118595436215401,0.001680987305007875
1782970010424679400,2.485679443359375,-0.0018961706664413214,0.004743356257677078,-0.00016325176693499088
1782970010434605600,2.49560546875,0.001264468883164227,0.004800613969564438,0.004169178660959005
1782970010444532700,2.50553271484375,0.0012144014472141862,0.004245345015078783,0.004264520015567541
1782970010454458400,2.515458251953125,-0.0016974988393485546,0.005037102848291397,0.0010982876410707831
1782970010464384500,2.525384521484375,-0.002177933230996132,0.006293315906077623,0.0023209447972476482
1782970010474311700,2.535311767578125,0.0008391620358452201,0.006301837973296642,0.0022157500497996807
1782970010484237300,2.5452373046875,-0.0013965616235509515,0.004845088813453913,-0.0014642059104517102
1782970010494163500,2.55516357421875,0.002778209513053298,0.004582235123962164,0.0007432882557623088
1782970010504089600,2.565089599609375,-0.0012668657582253218,0.006281598005443811,0.0010213222121819854
1782970010514016500,2.5750166015625,0.00046339002437889576,0.006388657260686159,-0.0010996191995218396
1782970010523942400,2.5849423828125,-0.0010101370280608535,0.004342284053564072,0.0020362529903650284
1782970010533868500,2.59486865234375,0.00008681904728291556,0.0037286917213350534,-0.0014801849611103535
1782970010543795700,2.604795654296875,0.00018748654110822827,0.006208361126482487,0.0020538298413157463
1782970010553721300,2.614721435546875,-0.0013038836186751723,0.004006459377706051,0.00037497308221645653
1782970010563647500,2.6246474609375,0.00034700988908298314,0.005672000348567963,0.0003478088474366814
1782970010573573600,2.63457373046875,-0.0026314693968743086,0.00577879324555397,0.0032953955233097076
1782970010583500500,2.64450048828125,0.00006205165118444711,0.006010221783071756,-0.0002623213513288647
1782970010593426400,2.654426513671875,0.0003009371866937727,0.00515827676281333,0.0030157635919749737
1782970010603352600,2.6643525390625,-0.0011140003334730864,0.005585181526839733,-0.0007190534961409867
1782970010613279500,2.674279541015625,-0.0013845774810761213,0.005079447291791439,0.002529470482841134
1782970010623205400,2.684205322265625,-0.0010934938909485936,0.0068901302292943,0.0037233654875308275
1782970010633131500,2.694131591796875,-0.002633600030094385,0.0074605792760849,0.001186970854178071
1782970010643058400,2.704058349609375,-0.002280997345224023,0.005490106530487537,0.0012463594321161509
1782970010652984600,2.713984619140625,-0.001603222917765379,0.00549170421436429,0.0012452941155061126
1782970010662910500,2.723910400390625,0.0022234732750803232,0.0029356025625020266,0.0011896340874955058
1782970010672836600,2.733836669921875,-0.00044288369826972485,0.005682120565325022,0.0026056368369609118
1782970010682763500,2.743763427734375,-0.0002287655370309949,0.004780374001711607,0.0008705873624421656
1782970010692689400,2.753689453125,-0.0002745719102676958,0.004354801028966904,0.0018847191240638494
1782970010702615600,2.763615478515625,-0.0016961672808974981,0.004481833893805742,0.004756139125674963
1782970010712542500,2.77354248046875,-0.0008660599705763161,0.006105030421167612,0.003184075467288494
1782970010722468600,2.783468505859375,-0.0014325142838060856,0.005291700828820467,0.0034700988326221704
1782970010732394500,2.79339453125,-0.00045140579459257424,0.004573446698486805,-0.00047617321251891553
1782970010742320600,2.803320556640625,-0.0011547466274350882,0.004999818746000528,0.0028929917607456446
1782970010752247600,2.81324755859375,0.0011310444679111242,0.004354268312454224,0.0011195929255336523
1782970010762173400,2.82317333984375,0.0002205097407568246,0.002779008587822318,0.0030160299502313137
1782970010772099600,2.833099609375,-0.0010556770721450448,0.0045572011731565,0.002126800362020731
1782970010782026500,2.843026611328125,0.000036751622246811166,0.0046512107364833355,0.002257561543956399
1782970010791952600,2.85295263671875,0.0010807107901200652,0.00458836043253541,0.0015883093001320958
1782970010801878500,2.86287841796875,0.0004988100845366716,0.0041191112250089645,0.0002671150432433933
1782970010811804400,2.872804443359375,-0.0009046758059412241,0.004345479886978865,0.00006498113361885771
1782970010821731600,2.882731689453125,-0.0010468886466696858,0.005146292503923178,0.0008532768115401268
1782970010831657700,2.89265771484375,0.0010761833982542157,0.005629390012472868,0.0016447682864964008
1782970010841583600,2.90258349609375,0.0010519486386328936,0.006559898145496845,0.0028991170693188906
1782970010851510500,2.912510498046875,-0.0013635384384542704,0.003917243797332048,0.000483363721286878
1782970010861436700,2.922436767578125,-0.0019856528379023075,0.0049462891183793545,-0.0002378202771069482
1782970010871362600,2.932362548828125,0.001186970854178071,0.004804342519491911,0.00216568261384964
1782970010881288400,2.942288330078125,-0.00046685212873853743,0.0056799896992743015,0.00035926041891798377
1782970010891215600,2.952215576171875,0.0008516788948327303,0.005497829522937536,0.0018469021888449788
1782970010901141800,2.962141845703125,0.0003842941368930042,0.004446680191904306,0.0015211976133286953
1782970010911067400,2.9720673828125,-0.001190433045849204,0.006132194772362709,0.00318940170109272
1782970010920994600,2.98199462890625,-0.00024394555657636374,0.005258411634713411,-0.0005398227367550135
1782970010930920700,2.991920654296875,-0.000925448490306735,0.0034264230635017157,-0.0012122709304094315
1782970010940846300,3.001846435546875,0.001958488719537854,0.005622465629130602,0.0007866977830417454
1782970010950772500,3.0117724609375,0.00011424961121520028,0.005279717035591602,0.0017872473690658808
1782970010960699600,3.02169970703125,0.0014282532501965761,0.006731139495968819,0.0007534082396887243
1782970010970625500,3.03162548828125,-0.0001257012045243755,0.006991330534219742,0.0006562029011547565
1782970010980551400,3.041551513671875,-0.0017262609908357263,0.007667240686714649,0.002463423879817128
1782970010990478600,3.051478515625,0.0015683355741202831,0.003102316288277507,0.0010689928894862533
1782970011000404500,3.061404541015625,0.0003608583356253803,0.006484264507889748,0.003088467987254262
1782970011010330400,3.071330322265625,0.0005744438385590911,0.006362025626003742,0.0005462143453769386
1782970011020257500,3.081257568359375,0.0012865731259807944,0.0037326866295188665,-0.0020628846250474453
1782970011030183700,3.09118359375,-0.0007707187905907631,0.006854710169136524,0.0008663262706249952
1782970011040109600,3.101109619140625,-0.0004988100845366716,0.0027060380671173334,0.0019379822770133615
1782970011050035500,3.111035400390625,-0.0005179848521947861,0.005132444202899933,0.002168345730751753
1782970011059962600,3.120962646484375,0.0003150519623886794,0.005784119479358196,0.003543602069839835
1782970011069888500,3.130888427734375,-0.0019145464757457376,0.006376140285283327,0.0021944446489214897
1782970011079814400,3.140814453125,0.0003312972257845104,0.0070555126294493675,0.002031192881986499
1782970011089741600,3.150741455078125,-0.0019859191961586475,0.004593953024595976,0.0024804682470858097
1782970011099667500,3.16066748046875,-0.0008964200387708843,0.0054943677969276905,0.0016610135789960623
1782970011109593600,3.170593505859375,-0.00105328019708395,0.0038772961124777794,-0.0005307680112309754
1782970011119519500,3.18051953125,0.0015307849971577525,0.007784419693052769,0.0014804512029513717
1782970011129446400,3.1904462890625,-0.00008628641808172688,0.0028485171496868134,0.00023302659974433482
1782970011139372500,3.20037255859375,-0.00045833003241568804,0.006013950332999229,0.0008327704854309559
1782970011149298400,3.21029833984375,0.0033124396577477455,0.004176901653409004,0.0030652983114123344
1782970011159225300,3.220225341796875,0.0007254450465552509,0.005528988782316446,0.0017339842161163688
1782970011169151500,3.2301513671875,-0.0026466494891792536,0.0027334685437381268,0.002520415699109435
1782970011179077600,3.24007763671875,-0.00010386328358436003,0.004268780816346407,0.0009195895399898291
1782970011189003500,3.25000341796875,0.0014516890514642,0.005560680292546749,0.0007699198904447258
1782970011198930400,3.259930419921875,0.0017757958266884089,0.004230164922773838,-0.0013363742036744952
1782970011208856600,3.269856689453125,-0.0017353157745674253,0.006617955397814512,0.002395247109234333
1782970011218782500,3.279782470703125,-0.001116130850277841,0.004544950556010008,0.0012695288751274347
1782970011228709400,3.28970947265625,0.00023515711654908955,0.005879460833966732,0.003835750976577401
1782970011238635500,3.299635498046875,-0.0001715075777610764,0.004503671545535326,-0.00029880666988901794
1782970011248561700,3.309561767578125,0.00021944446780253202,0.004312989301979542,0.00224877311848104
1782970011258487600,3.319487548828125,0.00022929816623218358,0.004144677426666021,0.0018407768802717328
1782970011268414500,3.32941455078125,0.0006141249323263764,0.003285009181126952,0.004277036525309086
1782970011278340600,3.339340576171875,0.000535561703145504,0.0043958136811852455,0.004260258749127388
1782970011288266500,3.3492666015625,0.0006431533838622272,0.004284493625164032,0.004532167688012123
1782970011298193400,3.359193359375,-0.0022628880105912685,0.005081311333924532,0.0014405038673430681
1782970011308119600,3.36911962890625,-0.0023427826818078756,0.003999535460025072,0.00034647725988179445
1782970011318045700,3.379045654296875,-0.0014176006661728024,0.006399576086550951,0.001419198582880199
1782970011327971600,3.3889716796875,0.0011222560424357653,0.0046091326512396336,0.0011084076249971986
1782970011337898500,3.3988984375,0.0003914846747647971,0.005064267199486494,0.0022053637076169252
1782970011347824600,3.40882470703125,0.000011984225238848012,0.00492098880931735,0.004592354875057936
1782970011357750500,3.41875048828125,-0.0031017838045954704,0.004568119999021292,0.003599262097850442
1782970011367677400,3.428677490234375,0.001261805766262114,0.005664810072630644,-0.000895621080417186
1782970011377603600,3.438603515625,0.0010309095960110426,0.006600644905120134,2.6631610694494157e-7
1782970011387529700,3.44852978515625,-0.001142229768447578,0.0054184673354029655,0.002127066720277071
1782970011397455400,3.458455322265625,0.0009323726990260184,0.0026999127585440874,0.001996571896597743
1782970011407383300,3.46838330078125,-0.001255946815945208,0.004123372491449118,0.0010807107901200652
1782970011417309000,3.478308837890625,-0.0012540825409814715,0.0029379993211477995,0.0036916739773005247
1782970011427235000,3.488235107421875,0.0010958907660096884,0.006758836563676596,0.001847967505455017
1782970011437162200,3.498162353515625,0.0005755090969614685,0.004166249185800552,0.0025835325941443443
1782970011447088000,3.508088134765625,0.0007004113867878914,0.00680118054151535,-0.0004844290087930858
1782970011457014000,3.518013916015625,-0.0008399609941989183,0.004252269398421049,0.0004543352697510272
1782970011466941200,3.527941162109375,-0.0013017531018704176,0.0027838023379445076,0.0007861651247367263
1782970011476867000,3.5378671875,0.0010980212828144431,0.0062421830371022224,0.0006993460701778531
1782970011486793000,3.54779296875,-0.0010926949325948954,0.004456001333892345,0.004485029727220535
1782970011496719000,3.557718994140625,-0.0007949535502120852,0.005517004523426294,0.0010213222121819854
1782970011506646300,3.567646240234375,-0.0008969526388682425,0.005373992491513491,0.002603239845484495
1782970011516572200,3.577572265625,0.0001893507578643039,0.006699980702251196,0.00036378781078383327
1782970011526498000,3.587498046875,-0.0025989788118749857,0.006930876523256302,0.00024580975878052413
1782970011536425200,3.59742529296875,0.0013760552974417806,0.005179848056286573,-0.0007257114048115909
1782970011546351000,3.60735107421875,-0.0021752698812633753,0.0029827402904629707,0.002636795863509178
1782970011556277000,3.617277099609375,0.001430916483514011,0.005029912106692791,0.0035657063126564026
1782970011566203100,3.627203125,-0.0007094661123119295,0.004098604898899794,0.0002814961189869791
1782970011576130000,3.637130126953125,0.001478587044402957,0.005636846646666527,0.0034045851789414883
1782970011586056200,3.64705615234375,0.00005805691034765914,0.003763312939554453,0.00015659387281630188
1782970011595982000,3.656982177734375,0.0022450448013842106,0.00577879324555397,0.003739877138286829
1782970011605909000,3.666908935546875,-0.00041864890954457223,0.006399309728294611,0.0025779400020837784
1782970011615835100,3.676835205078125,-0.000883636821527034,0.0025132251903414726,0.00472418125718832
1782970011625761300,3.68676123046875,0.001534779672510922,0.0067599015310406685,-0.0018399780383333564
1782970011635687200,3.696687255859375,-0.0004905542591586709,0.00654631620272994,0.0013148026773706079
1782970011645614000,3.706614013671875,0.001534779672510922,0.005388906225562096,0.0008130630594678223
1782970011655540200,3.716540283203125,0.004285558592528105,0.0026881948579102755,0.002261822810396552
1782970011665466000,3.726466064453125,-0.001047421246767044,0.006031527183949947,-0.00032890037982724607
1782970011675393000,3.73639306640625,-0.0002383529208600521,0.0036426717415452003,0.003478354774415493
1782970011685319200,3.746319091796875,-0.001353684812784195,0.006359096150845289,-0.001071123406291008
1782970011695245300,3.756245361328125,-0.000035952674807049334,0.006443784572184086,0.00035952674807049334
1782970011705171200,3.766171142578125,-0.0006000102148391306,0.003982490859925747,0.001353418454527855
1782970011715098000,3.77609814453125,-0.0008471515611745417,0.005916478578001261,0.002413090318441391
1782970011725024300,3.786024169921875,-0.00040240364614874125,0.0057534934021532536,0.001008539111353457
1782970011734950100,3.7959501953125,-0.00020825919636990875,0.006097307428717613,0.0006745787104591727
1782970011744877000,3.805876953125,-0.0033190976828336716,0.0070741549134254456,-0.0003382214636076242
1782970011754803200,3.81580322265625,0.0018434401135891676,0.002627208363264799,0.002005626680329442
1782970011764729300,3.825729248046875,0.00028282770654186606,0.007155114784836769,-0.0025662221014499664
1782970011774655000,3.835655029296875,0.00130894361063838,0.005417402368038893,0.0019856528379023075
1782970011784582100,3.84558203125,0.001106809708289802,0.0027949875220656395,0.0007424892974086106
1782970011794508300,3.85550830078125,-0.0011467571603134274,0.006848052144050598,0.0008474178612232208
1782970011804434200,3.86543408203125,0.0012511530658230186,0.005507150664925575,0.0016788567882031202
1782970011814361000,3.875361083984375,0.0003254382754676044,0.005394499283283949,0.001538241864182055
1782970011824287200,3.885287353515625,-0.0027893949300050735,0.006856574676930904,0.001213868847116828
1782970011834213400,3.89521337890625,0.001496430253610015,0.004789695143699646,0.0001661812566453591
1782970011844139000,3.905138916015625,0.00007110639853635803,0.0041183121502399445,0.0016471651615574956
1782970011854066200,3.915066162109375,0.00002609897819638718,0.004920456558465958,0.00020479709201026708
1782970011863992300,3.924992431640625,-0.0025811356026679277,0.0018578211311250925,-0.0012548814993351698
1782970011873918000,3.93491796875,-0.0005275722360238433,0.006639793049544096,0.0005446164286695421
1782970011883845000,3.94484521484375,-0.0012924320762977004,0.0018162758788093925,0.0026969832833856344
1782970011893771300,3.954771240234375,-0.001475657569244504,0.006171077024191618,0.002153964713215828
1782970011903697200,3.964697265625,-0.0009118663729168475,0.0073053170926868916,0.0015715312911197543
1782970011913623000,3.974623046875,-0.0035055188927799463,0.004315918777137995,0.0031904669012874365
1782970011923550200,3.98455029296875,-0.0003448793722782284,0.00649704784154892,0.0005803027888759971
1782970011933474000,3.99447412109375,-0.0025542378425598145,0.005191300064325333,-0.00041199102997779846
1782970011943400200,4.004400146484375,-0.000984836951829493,0.006850449368357658,0.0016916398890316486
1782970011953326300,4.014326416015625,-0.0013451626291498542,0.007366303354501724,0.0022149509750306606
1782970011963252000,4.024251953125,0.00032650353386998177,0.004912200383841991,0.0002508697798475623
1782970011973179100,4.03417919921875,-0.0016295883106067777,0.004523645620793104,0.0022535668686032295
1782970011983105300,4.044105224609375,-0.0017675400013104081,0.006117813754826784,0.002153431996703148
1782970011993031200,4.05403125,-0.002680205274373293,0.004422178957611322,0.00011345066013745964
1782970012002958000,4.0639580078125,-0.003138535423204303,0.004571848548948765,-0.0001323590986430645
1782970012012884200,4.07388427734375,0.001332912128418684,0.004979046061635017,-0.0001691107318038121
1782970012022810000,4.08381005859375,0.0004242415598127991,0.004487692844122648,0.0012181298807263374
1782970012032737300,4.0937373046875,-0.00046312372433021665,0.005544701125472784,0.0015875103417783976
1782970012042663200,4.1036630859375,0.0021608888637274504,0.0037734329234808683,0.0007331682136282325
1782970012052589000,4.113589111328125,-0.0011014834744855762,0.004627774935215712,0.0012359730899333954
1782970012062515200,4.12351513671875,-0.0009925601771101356,0.00430153775960207,-0.0004396878939587623
1782970012072442000,4.133442138671875,0.0012775183422490954,0.005083441734313965,0.0016365124611184
1782970012082368300,4.1433681640625,-0.0015664712991565466,0.003841609926894307,0.0011789813870564103
1782970012092294100,4.153294189453125,0.001862348522990942,0.0028567728586494923,0.0023550332989543676
1782970012102220000,4.163219970703125,-0.0010831075487658381,0.006731139495968819,0.0011800467036664486
1782970012112147200,4.173147216796875,0.00213638786226511,0.004452805500477552,0.0007014766451902688
1782970012122073000,4.183072998046875,0.00012010856153210625,0.004344148561358452,0.001773132593370974
1782970012131999200,4.192999267578125,0.0008130630594678223,0.003213636577129364,0.0023529028985649347
1782970012141926100,4.202926025390625,0.0011398328933864832,0.006160956807434559,0.0008588694618083537
1782970012151852000,4.21285205078125,0.0025073662400245667,0.005109807010740042,0.00004394215648062527
1782970012161778200,4.222778076171875,0.00007270430069183931,0.006061088293790817,0.004760400392115116
1782970012171705300,4.232705322265625,-0.0008641957538202405,0.005263205152004957,-0.0015273229219019413
1782970012181631000,4.242630859375,-0.0019294602097943425,0.003151318524032831,0.0033691651187837124
1782970012191557000,4.25255712890625,0.0018301242962479591,0.006140450481325388,0.0018815232906490564
1782970012201483300,4.262483154296875,0.002254898427054286,0.0049034119583666325,-0.0002069276088150218
1782970012211410000,4.272409912109375,-0.002924417145550251,0.0073231603018939495,-0.000355532014509663
1782970012221336000,4.282336181640625,0.00042823629337362945,0.004328169394284487,0.0007725830073468387
1782970012231262200,4.29226220703125,0.00011398329661460593,0.0038072550669312477,0.0010271812789142132
1782970012241189000,4.302189208984375,0.0003656520275399089,0.005136172287166119,0.0018216022290289402
1782970012251115000,4.312114990234375,-0.0002711098059080541,0.004722317215055227,-0.0001395496365148574
1782970012261041200,4.322041259765625,-0.0006239786162041128,0.006281065288931131,0.0030445256270468235
1782970012270967300,4.33196728515625,-0.00049108691746369,0.005283445119857788,0.001398159540258348
1782970012280894000,4.34189404296875,-0.000031158982892520726,0.005626460537314415,0.0033513219095766544
1782970012290820000,4.351820068359375,0.0025161546654999256,0.005133509170264006,0.0022833943367004395
1782970012300746200,4.361746337890625,-0.0014085458824411035,0.002383262850344181,0.0028181569650769234
1782970012310673200,4.371673095703125,0.0012274509062990546,0.003096457337960601,0.0006458165589720011
1782970012320599000,4.38159912109375,-0.0005933523061685264,0.004936168901622295,0.0021758025977760553
1782970012330525200,4.391525146484375,-0.0014413028256967664,0.0046813045628368855,0.003757453989237547
1782970012340451300,4.401451416015625,0.00010945591930067167,0.006054163910448551,0.003166498616337776
1782970012350378000,4.4113779296875,0.0006223807577043772,0.00555295730009675,0.0009768474847078323
1782970012360304000,4.42130419921875,-0.0018016285030171275,0.007833954878151417,0.0024674187880009413
1782970012370230300,4.431230224609375,-0.0006572681595571339,0.005509547423571348,0.000333161442540586
1782970012380156200,4.44115625,0.00002157160452043172,0.0057463026605546474,-0.0009416937828063965
1782970012390083000,4.4510830078125,-0.0023515713401138783,0.006993194576352835,0.00017257283616345376
1782970012400009200,4.46100927734375,0.001294029993005097,0.003946005832403898,0.005224322900176048
1782970012409934800,4.470934814453125,-0.0024716798216104507,0.005518868565559387,0.0016410398529842496
1782970012419861500,4.480861572265625,-0.0012005530297756195,0.001898301183246076,0.004706604406237602
1782970012429787600,4.49078759765625,0.0009092031978070736,0.005923669319599867,0.0003182477375958115
1782970012439713800,4.5007138671875,0.00021598236344289035,0.005041630007326603,-0.000523843802511692
1782970012449640700,4.510640625,-0.0029196233954280615,0.0033957967534661293,0.0034756914246827364
1782970012459566600,4.520566650390625,-0.00021891183860134333,0.003820038167759776,0.002141447737812996
1782970012469492700,4.53049267578125,-0.0008458199445158243,0.0032983249984681606,0.001193362521007657
1782970012479419000,4.5404189453125,0.00195156445261091,0.0038016624748706818,-0.0007781756576150656
1782970012489345500,4.550345458984375,-0.0003989415417890996,0.004727909807115793,0.0022034994326531887
1782970012499271700,4.560271728515625,-0.002883404493331909,0.005001949146389961,0.0016940367640927434
1782970012509197800,4.57019775390625,-0.00023622238950338215,0.006741792429238558,0.002246376359835267
1782970012519124700,4.580124755859375,0.0009270463488064706,0.005277053453028202,0.00021198761533014476
1782970012529050600,4.590050537109375,0.0013992248568683863,0.0038927425630390644,-0.00012436961696948856
1782970012538976800,4.599976806640625,0.0008194546680897474,0.006106095854192972,0.003431216813623905
1782970012548902700,4.609902587890625,0.002517752582207322,0.006624879315495491,0.0004194478678982705
1782970012558829600,4.61982958984375,-0.0002556634717620909,0.0033100428991019726,0.002749181119725108
1782970012568755700,4.629755615234375,0.0006149238906800747,0.007888282649219036,0.0027917916886508465
1782970012578681600,4.639681640625,-0.0020841897930949926,0.004849882796406746,0.0007795072160661221
1782970012588608800,4.64960888671875,-0.0001752359967213124,0.005584116093814373,0.0017696705181151628
1782970012598534700,4.65953466796875,-0.0026048377621918917,0.006484264507889748,0.002246642718091607
1782970012608460500,4.66946044921875,0.0016594156622886658,0.0053553506731987,0.0027449200861155987
1782970012618386700,4.67938671875,0.0013382384786382318,0.003102849004790187,0.002124403603374958
1782970012628313600,4.689313720703125,-0.00024101608141791075,0.005021656397730112,0.0018751317402347922
1782970012638239700,4.69923974609375,-0.0007757788407616317,0.006435528863221407,0.00108257494866848
1782970012648165600,4.70916552734375,-0.0010301107540726662,0.0029020465444773436,-0.00016245282313320786
1782970012658092800,4.7190927734375,-0.0005874933558516204,0.004280765075236559,0.0005925533478148282
1782970012668018700,4.729018798828125,0.0004596615908667445,0.004393683280795813,0.002073537092655897
1782970012677944600,4.738944580078125,-0.0014386395923793316,0.006201436743140221,0.0012737899087369442
1782970012687870700,4.74887060546875,-0.001745968358591199,0.0016261261189356446,0.003644536016508937
1782970012697797600,4.758797607421875,-0.00039601203752681613,0.003007774008437991,0.0008197209681384265
1782970012707723500,4.7687236328125,0.0009645969257690012,0.0043803672306239605,0.002154231071472168
1782970012717649700,4.778649658203125,-0.0016474314033985138,0.005720470100641251,0.0016908409306779504
1782970012727576800,4.788576904296875,0.0016735304379835725,0.005322860088199377,0.0006926882197149098
1782970012737502500,4.79850244140625,-0.002412557601928711,0.006025934591889381,-0.0004386226355563849
1782970012747428600,4.8084287109375,-0.001208009896799922,0.00418276060372591,0.0023813985753804445
1782970012757354800,4.818354736328125,0.0005938849062658846,0.0047177900560200214,0.005645635072141886
1782970012767281700,4.82828173828125,-0.0034288198221474886,0.00493217445909977,0.0009882990270853043
1782970012777207600,4.83820751953125,-0.0014836470363661647,0.003941744565963745,0.0013712616637349129
1782970012787133700,4.8481337890625,-0.0014141384745016694,0.004650145769119263,0.0011717908782884479
1782970012797060600,4.858060546875,-0.0020996362436562777,0.0049492185935378075,0.002211222657933831
1782970012806986500,4.867986572265625,-0.0018322548130527139,0.008918393403291702,0.0001227717293659225
1782970012816912600,4.87791259765625,0.0026114957872778177,0.0049161952920258045,0.002662362065166235
1782970012826838800,4.8878388671875,0.0007257114048115909,0.004984638653695583,0.003456516657024622
1782970012836765700,4.897765625,-0.0010346380295231938,0.00481472909450531,0.0019156117923557758
1782970012846691600,4.907691650390625,0.000925448490306735,0.004837632179260254,0.0017185378819704056
1782970012856617700,4.91761767578125,-0.0010317085543647408,0.003990214318037033,0.0006255765329115093
1782970012866544600,4.927544677734375,-0.0011179950088262558,0.004048271104693413,0.00001864212754298933
1782970012876470500,4.937470458984375,0.00033688987605273724,0.003862116253003478,0.001496430253610015
1782970012886396700,4.947396728515625,-0.0018607506062835455,0.005137504078447819,-0.001085770782083273
1782970012896322800,4.95732275390625,-0.0007432882557623088,0.003719637170433998,-0.00004207794336252846
1782970012906249700,4.967249755859375,0.003436276689171791,0.0057404437102377415,0.0018218684708699584
1782970012916175600,4.977175537109375,0.0007121292874217033,0.005624596029520035,0.00138058268930763
1782970012926101800,4.987101806640625,-0.0015062838792800903,0.005281048361212015,0.002725212834775448
1782970012936028700,4.997028564453125,0.0011893677292391658,0.005323659162968397,0.0009606021922081709
1782970012945954600,5.00695458984375,0.0009813748765736818,0.004507932811975479,0.0007107976707629859
1782970012955880700,5.016880615234375,-0.0011022823164239526,0.004679972771555185,0.0024746092967689037
1782970012965806800,5.026806884765625,-0.0005062668933533132,0.005161738954484463,0.0012452941155061126
1782970012975733800,5.036733642578125,-0.0005211806274019182,0.0044077979400753975,0.0023004384711384773
1782970012985659600,5.04665966796875,0.000248472933890298,0.0040884846821427345,0.0021976404823362827
1782970012995585800,5.056585693359375,0.001431182725355029,0.0054128747433424,0.0022562299855053425
1782970013005512700,5.0665126953125,0.00011371697473805398,0.004831773228943348,0.0023299995809793472
1782970013015438600,5.0764384765625,-0.002670884132385254,0.008105064742267132,-0.00027324032271280885
1782970013025364700,5.08636474609375,-0.001463406952098012,0.004926847759634256,0.001133707701228559
1782970013035290600,5.09629052734375,0.0023257385473698378,0.006454437039792538,0.0005211806274019182
1782970013045217800,5.1062177734375,0.0022740731947124004,0.004470914602279663,0.00284984870813787
1782970013055143700,5.116143798828125,-0.0002519350382499397,0.003950532991439104,0.002543052425608039
1782970013065069600,5.126069580078125,0.000556600687559694,0.006566822528839111,0.0009025452891364694
1782970013074996700,5.135996826171875,0.0011733887949958444,0.0031345405150204897,-0.00028815402765758336
1782970013084922600,5.145922607421875,-0.00004926848123432137,0.004990231245756149,0.00036618465674109757
1782970013094848500,5.1558486328125,-0.0001960086519829929,0.005929528269916773,0.001412806916050613
1782970013104774700,5.165774658203125,0.0013512879377231002,0.005259210709482431,0.0009286442655138671
1782970013114701800,5.175701904296875,-0.0023076289799064398,0.005830991081893444,0.002862099092453718
1782970013124627700,5.185627685546875,-0.00018881811411119998,0.002295911079272628,0.0030897995457053185
1782970013134553600,5.1955537109375,0.00008495483780279756,0.005811550188809633,0.0022008363157510757
1782970013144480800,5.205480712890625,0.002513491315767169,0.005846437532454729,0.0010362359462305903
1782970013154406700,5.21540673828125,-0.0007984156836755574,0.007384945638477802,0.0005400890368036926
1782970013164332500,5.22533251953125,0.0000804274677648209,0.006388390902429819,0.0021939121652394533
1782970013174258700,5.2352587890625,0.0004972121678292751,0.0032176312524825335,-0.000031691615731688216
1782970013184185900,5.245185791015625,-0.0008474178612232208,0.0005587312043644488,0.00026764770154841244
1782970013194111500,5.255111572265625,0.0016370450612157583,0.003254649229347706,0.004511661361902952
1782970013204037600,5.26503759765625,-0.000401604687795043,0.006868292577564716,-0.0007701861904934049
1782970013213963800,5.2749638671875,-0.0021654162555933,0.0038567897863686085,0.0007813714328221977
1782970013223890400,5.284890380859375,-0.0003616572648752481,0.005117264110594988,0.0021587584633380175
1782970013233816600,5.294816650390625,-0.0021885856986045837,0.006737797521054745,0.0017931063193827868
1782970013243742700,5.30474267578125,0.0006660565850324929,0.005868807900696993,0.0001347559446003288
1782970013253669600,5.314669677734375,-0.0026554379146546125,0.006952448282390833,0.0021015002857893705
1782970013263595500,5.324595458984375,-0.0019355855183675885,0.006623547989875078,0.001181111903861165
1782970013273521700,5.334521728515625,0.0014471617760136724,0.0057676080614328384,0.0014263890916481614
1782970013283448600,5.344448486328125,0.0020658141002058983,0.002740126335993409,0.0011949603212997317
1782970013293374500,5.35437451171875,-0.00022077605535741895,0.007530088070780039,0.005101018585264683
1782970013303300600,5.364300537109375,0.0013643373968079686,0.005995574407279491,0.0019896477460861206
1782970013313226800,5.374226806640625,0.0021755362395197153,0.005785451270639896,0.0013944311067461967
1782970013323153700,5.384153564453125,-0.0011789813870564103,0.00264744833111763,-0.00023222764139063656
1782970013333079600,5.39407958984375,0.0007691209320910275,0.007749532349407673,0.0020242687314748764
1782970013343005700,5.404005615234375,0.0011281149927526712,0.006417952012270689,0.00017683389887679368
1782970013352931800,5.413931884765625,-0.002025600289925933,0.005489307455718517,0.0007358313887380064
1782970013362858800,5.423858642578125,0.001073786523193121,0.00452923821285367,0.0005845638806931674
1782970013372784600,5.43378466796875,0.00016165387933142483,0.004291151650249958,-0.00011638013529591262
1782970013382710800,5.443710693359375,-0.0002378202771069482,0.006358297076076269,-0.0008468852029182017
1782970013392637700,5.4536376953125,0.0007986819837242365,0.005802229046821594,-0.00043063313933089375
1782970013402563600,5.4635634765625,0.0022892532870173454,0.0054395063780248165,0.0008175904513336718
1782970013412489700,5.47348974609375,0.0003222425002604723,0.0046762446872889996,0.00023382554354611784
1782970013422416600,5.483416748046875,0.0009398295660503209,0.0027092336677014828,0.0031217574141919613
1782970013432342800,5.4933427734375,-0.00036139096482656896,0.00688933115452528,0.0010016148444265127
1782970013442268700,5.5032685546875,-0.004221110139042139,0.0057130130007863045,0.0009110674145631492
1782970013452194800,5.51319482421875,-0.001785383210517466,0.006077866069972515,0.000740625080652535
1782970013462121700,5.523121826171875,-0.0015965650090947747,0.007134608458727598,0.0011528824688866735
1782970013472047600,5.533047607421875,0.00047697214176878333,0.008050736039876938,-0.0019736685790121555
1782970013481973800,5.542973876953125,-0.0021020330023020506,0.006601976230740547,-0.002385659608989954
1782970013491899600,5.552899658203125,0.001312139444053173,0.0054666707292199135,0.004731904715299606
1782970013501826800,5.562826904296875,-0.000574177538510412,0.005033107940107584,0.002371278591454029
1782970013511752700,5.572752685546875,0.0014956312952563167,0.00577772781252861,0.001615207176655531
1782970013521678600,5.5826787109375,-0.0012572783743962646,0.004768389742821455,0.00045327001134864986
1782970013531605800,5.592605712890625,-0.000925182132050395,0.004804076161235571,0.001895105466246605
1782970013541531600,5.60253173828125,-0.00015419702685903758,0.004174771253019571,0.0021521004382520914
1782970013551457500,5.61245751953125,-0.0021486382465809584,0.00657481187954545,0.0013022858183830976
1782970013561383700,5.6223837890625,-0.0005512743373401463,0.00612340634688735,0.0008072041091509163
1782970013571310800,5.632310791015625,-0.0014229270163923502,0.0028759476263076067,0.001478587044402957
1782970013581236500,5.642236572265625,-0.0003731088654603809,0.0033547841012477875,0.0011299792677164078
1782970013591162600,5.65216259765625,0.0011803129455074668,0.0057127466425299644,0.002120941411703825
1782970013601089800,5.66208984375,0.000916393706575036,0.003932956140488386,0.0004500742070376873
1782970013611015700,5.672015625,0.0004809668753296137,0.006405435036867857,0.0007185208378359675
1782970013620941600,5.681941650390625,-0.0005060005933046341,0.006708236411213875,0.0015574166318401694
1782970013630867700,5.69186767578125,0.002668487373739481,0.006818757392466068,0.0009315737406723201
1782970013640795000,5.701794921875,-0.0023342606145888567,0.006185458041727543,-0.00020000340009573847
1782970013650720500,5.711720458984375,0.0004577973741106689,0.007692274637520313,0.0021145499777048826
1782970013660646700,5.721646728515625,-0.0005291700945235789,0.008653408847749233,-0.0006135923322290182
1782970013670573800,5.73157373046875,-0.001332645770162344,0.004746818449348211,-0.00010972223390126601
1782970013680499500,5.74149951171875,-0.0002372876479057595,0.005373193882405758,0.0008380967774428427
1782970013690425600,5.751425537109375,0.002572879893705249,0.004057592246681452,0.0036794233601540327
1782970013700351700,5.761351806640625,0.0010937602492049336,0.004565989598631859,0.004092213232070208
1782970013710278700,5.771278564453125,-0.0026610305067151785,0.0054339137859642506,0.0006117281154729426
1782970013720204500,5.78120458984375,0.00004846953015658073,0.005410477984696627,-0.0007068029372021556
1782970013730130700,5.791130615234375,-0.00023808660625945777,0.005844573490321636,0.0012130698887631297
1782970013740057600,5.8010576171875,-0.0009526127250865102,0.007931692525744438,0.0021401161793619394
1782970013749983500,5.8109833984375,0.0006093312404118478,0.005605687852948904,0.0017150756902992725
1782970013759909600,5.82090966796875,0.0003981425834354013,0.004316185135394335,0.0019038938917219639
1782970013769835800,5.830835693359375,0.0022237394005060196,0.0028493159916251898,0.0014088122406974435
1782970013779762700,5.8407626953125,0.0005813680472783744,0.004501807503402233,0.0022828616201877594
1782970013789688600,5.8506884765625,-0.00019867181254085153,0.0052024852484464645,-0.00004953479583491571
1782970013799614700,5.86061474609375,-0.0008748483960516751,0.005002481862902641,0.0009688580175861716
1782970013809541600,5.870541748046875,-0.00009747169679030776,0.00666482700034976,0.001350488979369402
1782970013819467500,5.880467529296875,0.001353684812784195,0.00341523764654994,0.003221093211323023
1782970013829393700,5.8903935546875,0.0009784454014152288,0.003774498123675585,0.0018727348651736975
1782970013839319800,5.90031982421875,0.000401604687795043,0.005314071662724018,0.0003779025573749095
1782970013849246700,5.910246826171875,-0.0001371527905575931,0.005005944054573774,0.001924932817928493
1782970013859172600,5.920172607421875,-0.0014242585748434067,0.005628590937703848,-0.0009725864510983229
1782970013869098800,5.9300986328125,-0.0001054611784638837,0.005006742663681507,0.0025331987999379635
1782970013879025700,5.940025634765625,0.0011920308461412787,0.0032802154310047626,-0.0013962953817099333
1782970013888951600,5.94995166015625,0.0015369103057309985,0.004052532371133566,0.0018969696247950196
1782970013898877700,5.959877685546875,-0.0011406318517401814,0.005633118096739054,0.0012964267516508698
1782970013908803600,5.969803466796875,0.0010436928132548928,0.0055803875438869,0.0017145430902019143
1782970013918730800,5.979730712890625,-0.0008471515611745417,0.005948436446487904,0.0028940571937710047
1782970013928656600,5.98965673828125,0.0001328917423961684,0.00600409647449851,0.0013797837309539318
1782970013938582800,5.999582763671875,-0.00047084689140319824,0.005221393425017595,0.000964064325671643
1782970013948508700,6.0095087890625,0.0026469158474355936,0.0026791400741785765,-0.00041305628838017583
1782970013958435600,6.019435546875,0.0007872303831391037,0.002484196564182639,0.0034751589410007
1782970013968361700,6.02936181640625,0.0008857673965394497,0.004729241598397493,0.0018514295807108283
1782970013978287600,6.03928759765625,-0.001270594191737473,0.007173224352300167,0.0009867012267932296
1782970013988214800,6.04921484375,0.002269279444590211,0.0059628174640238285,0.0006894923863001168
1782970013998140700,6.059140625,0.0013851100811734796,0.002429868094623089,0.0025129588320851326
1782970014008066600,6.069066650390625,0.0005984122981317341,0.0012873720843344927,-0.00010439591278554872
1782970014017992700,6.07899267578125,0.00010998855577781796,0.004262122791260481,0.0036365464329719543
1782970014027920000,6.088919921875,-0.0016591493040323257,0.004774781409651041,0.0010697918478399515
1782970014037845500,6.098845458984375,-0.0011659319279715419,0.005844040773808956,0.002382996492087841
1782970014047771600,6.108771728515625,-0.00192200334277004,0.002737196860834956,0.00029348034877330065
1782970014057698800,6.11869873046875,-0.00026045716367661953,0.004255731590092182,0.0006916229031048715
1782970014067624400,6.12862451171875,-0.0000673779723001644,0.003946272190660238,0.002058623591437936
1782970014077550600,6.138550537109375,0.0006649913266301155,0.0035475967451930046,-0.00013555490295402706
1782970014087476700,6.148476806640625,-0.0007483482477255166,0.004744421225041151,0.0003400856803636998
1782970014097403600,6.158403564453125,-0.0013006879016757011,0.002703374717384577,0.002977946773171425
1782970014107329500,6.16832958984375,0.0024658208712935448,0.006827812176197767,0.0024895230308175087
1782970014117255700,6.178255615234375,0.0016085492679849267,0.004683168604969978,0.0033252229914069176
1782970014127182800,6.188182861328125,-0.0008135957177728415,0.0067969197407364845,0.003207511268556118
1782970014137108500,6.1981083984375,0.00024181502521969378,0.004512459971010685,0.001794171635992825
1782970014147034600,6.20803466796875,0.00047830372932367027,0.004318315535783768,0.0026788737159222364
1782970014156960800,6.217960693359375,0.0014990933705121279,0.006619819439947605,0.003197923768311739
1782970014166887700,6.2278876953125,-0.00047883635852485895,0.005586512852460146,0.003605387406423688
1782970014176813600,6.2378134765625,-0.004757737275213003,0.004117513541132212,-0.0012460930738598108
1782970014186739700,6.24773974609375,0.000532632227987051,0.0029851372819393873,0.0033899378031492233
1782970014196666600,6.25766650390625,-0.0011281149927526712,0.005525526590645313,-0.0010479538468644023
1782970014206592500,6.267592529296875,0.0017861821688711643,0.0044046021066606045,0.0015188007382676005
1782970014216518700,6.2775185546875,0.0013166668359190226,0.0034197650384157896,0.0026823359075933695
1782970014226444800,6.28744482421875,-0.0013662016717717052,0.006041114684194326,0.003216566052287817
1782970014236371700,6.297371826171875,-0.0008777778712101281,0.0036365464329719543,0.0020666129421442747
1782970014246297600,6.307297607421875,0.00004394215648062527,0.005110073368996382,0.00207726564258337
1782970014256223700,6.3172236328125,-0.00022983079543337226,0.003181145992130041,0.00010839065362233669
1782970014266150700,6.327150634765625,-0.0024549018125981092,0.005441637244075537,0.00045566685730591416
1782970014276076500,6.33707666015625,-0.0010064085945487022,0.0036195022985339165,0.0011789813870564103
1782970014286002700,6.347002685546875,0.000898550555575639,0.0038040592335164547,0.00008202536264434457
1782970014295928800,6.3569287109375,0.0006631271098740399,0.003437075763940811,0.0013100089272484183
1782970014305855700,6.366855712890625,0.002728142309933901,0.0027379959356039762,0.003379285102710128
1782970014315781600,6.37678173828125,0.0003326288133393973,0.005605421494692564,0.0011355718597769737
1782970014325707800,6.386707763671875,0.0012903015594929457,0.004807271994650364,-0.000005060006060375599
1782970014335633700,6.396633544921875,-0.0011142665753141046,0.0036935380194336176,0.0013171994360163808
1782970014345560600,6.406560546875,-0.002373941708356142,0.006415554787963629,0.0018309232546016574
1782970014355486700,6.41648681640625,-0.000003994741746282671,0.006421680096536875,-0.0000018642127770363004
1782970014365412600,6.42641259765625,0.0002767024270724505,0.005763346794992685,0.0017627463676035404
1782970014375339800,6.43633984375,-0.001181111903861165,0.004741491749882698,0.0001174454009742476
1782970014385265700,6.446265625,-0.0002844255941454321,0.0065468489192426205,0.0024778051301836967
1782970014395191600,6.456191650390625,-0.000016777914424892515,0.0031611721497029066,0.0008322378271259367
1782970014405117700,6.46611767578125,0.0020716730505228043,0.0056983656249940395,0.0005962817813269794
1782970014415045400,6.47604541015625,-0.000023169501218944788,0.00475400872528553,0.002942260354757309
1782970014424971300,6.48597119140625,0.0015425028977915645,0.004396346397697926,-0.0000029294772048160667
1782970014434897400,6.4958974609375,-0.0021286646369844675,0.00296276668086648,0.0024551681708544493
1782970014444824600,6.505824462890625,-0.0010881676571443677,0.004750280175358057,0.0014173343079164624
1782970014454750200,6.515750244140625,0.0009355684742331505,0.004370513837784529,0.0033747577108442783
1782970014464676400,6.52567626953125,-0.0013606089632958174,0.004854942671954632,0.0020634171087294817
1782970014474602500,6.5356025390625,-0.00012836436508223414,0.0032024511601775885,0.0035976641811430454
1782970014484529400,6.545529296875,-0.00011052118497900665,0.006808104924857616,0.000791491474956274
1782970014494455300,6.555455322265625,-0.0013145363191142678,0.004811266902834177,0.004664793144911528
1782970014504381400,6.56538134765625,0.00011211907985853031,0.004650411661714315,0.002438656520098448
1782970014514308400,6.575308349609375,0.0001739044237183407,0.005636313930153847,0.0014498248929157853
1782970014524234200,6.585234130859375,-0.00010359696898376569,0.004798217210918665,0.0015062838792800903
1782970014534160400,6.595160400390625,-0.0022120214998722076,0.00899962056428194,0.0011531487107276917
1782970014544086500,6.60508642578125,-0.0015808524331077933,0.005567071959376335,-0.0015632755821570754
1782970014554013400,6.615013427734375,0.0014583469601348042,0.004808337427675724,0.002234924817457795
1782970014563939300,6.624939208984375,-0.0022855247370898724,0.005007541738450527,0.0013017531018704176
1782970014573865500,6.634865478515625,-0.0012399677652865648,0.006570817437022924,0.0006159891490824521
1782970014583792400,6.64479248046875,-0.000598145998083055,0.0067748152650892735,0.0016197345685213804
1782970014593718300,6.65471826171875,-0.002808836055919528,0.004918059334158897,0.0005416869535110891
1782970014603644400,6.66464453125,0.0001030643325066194,0.004196875728666782,0.0011515507940202951
1782970014613570600,6.674570556640625,0.0012213257141411304,0.0033595776185393333,0.002118544653058052
1782970014623497500,6.68449755859375,-0.0011198592837899923,0.005155880004167557,0.003049319377169013
1782970014633423400,6.69442333984375,-0.0015909724170342088,0.0079735042527318,-0.0012309130979701877
1782970014643349500,6.704349609375,-0.0010692591313272715,0.005230448208749294,0.0026059031952172518
1782970014653275400,6.714275390625,-0.0007424892974086106,0.005139900837093592,-0.00006285060226218775
1782970014663202300,6.724202392578125,0.00046845004544593394,0.004079164005815983,0.0026698189321905375
1782970014673128400,6.73412841796875,-0.00016165387933142483,0.006156163290143013,0.00041864890954457223
1782970014683054300,6.744054443359375,-0.001278849900700152,0.0041486723348498344,0.0025537051260471344
1782970014692981500,6.7539814453125,0.00007270430069183931,0.006226470693945885,-0.00026019083452410996
1782970014702907400,6.763907470703125,-0.0032415995374321938,0.0043595945462584496,0.001026115962304175
1782970014712833300,6.773833251953125,0.0008934905636124313,0.00683233980089426,0.0022274679504334927
1782970014722759400,6.783759521484375,-0.00015899071877356619,0.006804376374930143,-0.0005083974683657289
1782970014732686600,6.7936865234375,0.0017057546647265553,0.0025457157753407955,0.0006761765689589083
1782970014742612500,6.803612548828125,0.00001651159800530877,0.004837365821003914,0.0000876179983606562
1782970014752538400,6.813538330078125,-0.0005012069013901055,0.0038128476589918137,0.000303334032651037
1782970014762465500,6.823465576171875,-0.0016029566759243608,0.005574262235313654,-0.00011531487689353526
1782970014772391400,6.833391357421875,-0.0031678301747888327,0.004445614758878946,0.0017012272728607059
1782970014782317300,6.8433173828125,0.0005368932615965605,0.00458676228299737,-0.0026354643050581217
1782970014792243500,6.853243408203125,-0.0006391586503013968,0.0047849016264081,0.0008218514849431813
1782970014802170600,6.863170654296875,-0.0003182477375958115,0.005081311333924532,-0.00040080572944134474
1782970014812096300,6.87309619140625,0.00041864890954457223,0.005172657780349255,0.0010809770319610834
1782970014822022400,6.8830224609375,-0.0007238471880555153,0.004175836686044931,0.002484729280695319
1782970014831949600,6.892949462890625,-0.0012341088149696589,0.005331382155418396,0.00019627496658358723
1782970014841875200,6.902875244140625,-0.002252235310152173,0.0066650933586061,0.002100168727338314
1782970014851801300,6.91280126953125,-0.0007685882737860084,0.0062493737787008286,-0.000627973407972604
1782970014861727500,6.9227275390625,0.001249821507371962,0.005025384947657585,0.001383512164466083
1782970014871654400,6.932654296875,-0.0021675468888133764,0.0065045044757425785,-0.00018216021999251097
1782970014881580300,6.942580322265625,-0.0011102718999609351,0.005877862684428692,0.003634948516264558
1782970014891506400,6.95250634765625,0.0018429075134918094,0.004877579398453236,0.0006673881434835494
1782970014901432600,6.9624326171875,-0.0007142598042264581,0.006929545197635889,-0.0003462109307292849
1782970014911359200,6.972359130859375,0.00022024342615623027,0.0022650184109807014,0.0011379687348380685
1782970014921285400,6.982285400390625,-0.0026059031952172518,0.005092496518045664,0.0006862966110929847
1782970014931211500,6.99221142578125,0.0002641855680849403,0.0037790255155414343,0.002749447477981448
1782970014941138400,7.002138427734375,-0.001130511867813766,0.004467186518013477,0.001335841603577137
1782970014951064300,7.012064208984375,0.0008767126128077507,0.004595284350216389,0.0027656927704811096
1782970014960990500,7.021990478515625,0.0021907163318246603,0.004582235123962164,0.0010764497565105557
1782970014970916600,7.03191650390625,-0.0004082625964656472,0.004866394214332104,0.0007430219557136297
1782970014980843300,7.04184326171875,-0.0007118629291653633,0.003967044875025749,0.0009366337326355278
1782970014990769400,7.051769287109375,-0.0003507383225951344,0.004954811185598373,0.0012543488992378116
1782970015000695600,7.061695556640625,0.0014767227694392204,0.005721268709748983,0.00047936898772604764
1782970015010622500,7.07162255859375,-0.00010572749306447804,0.007968178018927574,0.0022559636272490025
1782970015020548400,7.08154833984375,-0.00321922916918993,0.005616340320557356,0.0023398532066494226
1782970015030474500,7.091474609375,0.0010431602131575346,0.005115133244544268,0.0016847157385200262
1782970015040400400,7.101400390625,0.00028043086058460176,0.003150785807520151,0.0005917543894611299
1782970015050327300,7.111327392578125,0.0005222458858042955,0.006056827027350664,0.00119575927965343
1782970015060253400,7.12125341796875,-0.0014239922165870667,0.0030336068011820316,0.0025861957110464573
1782970015070179600,7.1311796875,0.00044314999831840396,0.005453088786453009,0.0007424892974086106
1782970015080106500,7.1411064453125,0.00020586235041264445,0.004742290824651718,0.00011531487689353526
1782970015090032400,7.151032470703125,0.0002865561400540173,0.005816610064357519,0.0008202536264434457
1782970015099958500,7.16095849609375,0.00023409185814671218,0.005130579695105553,0.00010945591930067167
1782970015109884400,7.170884521484375,-0.0023124227300286293,0.004295146092772484,0.0019342538435012102
1782970015119811300,7.180811279296875,-0.0006580671179108322,0.005004878621548414,0.0030487868934869766
1782970015129737500,7.190737548828125,-0.001891909632831812,0.0035113778430968523,-0.0003504719934426248
1782970015139663400,7.200663330078125,-0.0003235740587115288,0.006813963875174522,0.001674861996434629
1782970015149589200,7.21058935546875,-0.0020213392563164234,0.004825381562113762,0.00041864890954457223
1782970015159516400,7.220516357421875,-0.0025531724095344543,0.006000102031975985,0.0017233315156772733
1782970015169442300,7.2304423828125,-0.00007669904152862728,0.004625910893082619,-0.00011717908637365326
1782970015179368400,7.240368408203125,-0.0007531419396400452,0.005820072256028652,0.002028263406828046
1782970015189295400,7.25029541015625,-0.001038366463035345,0.0034562505315989256,0.0007968177669681609
1782970015199221200,7.26022119140625,-0.0017515610670670867,0.0038477350026369095,0.0019510318525135517
1782970015209147400,7.2701474609375,0.0004996090428903699,0.004099936690181494,0.001121989800594747
1782970015219073300,7.2800732421875,-0.002722017001360655,0.0046690539456903934,0.000472977408207953
1782970015229000400,7.29000048828125,0.0009097357979044318,0.007819839753210545,-0.001017327536828816
1782970015238926300,7.29992626953125,0.00020772656716872007,0.004997687879949808,0.0012807141756638885
1782970015248852500,7.3098525390625,-0.0010631339391693473,0.006884004920721054,-0.0004348942020442337
1782970015258779400,7.319779296875,0.00014993596414569765,0.007701063062995672,0.0005941512063145638
1782970015268705300,7.329705322265625,-0.0008575378451496363,0.0035417377948760986,0.0004593952908180654
1782970015278631400,7.33963134765625,0.0005757753970101476,0.005276521202176809,0.003981159534305334
1782970015288557300,7.349557373046875,0.0006114617572166026,0.006942860782146454,0.000556600687559694
1782970015298484200,7.359484130859375,-0.0022594258189201355,0.006431533955037594,0.001776062068529427
1782970015308410400,7.369410400390625,0.0010881676571443677,0.004704207647591829,0.002293780678883195
1782970015318336500,7.37933642578125,0.0026469158474355936,0.004604605492204428,0.003951332066208124
1782970015328262400,7.389262451171875,0.0008085357258096337,0.004700212739408016,0.002626675646752119
1782970015338189300,7.399189208984375,-0.0008839031797833741,0.006485063582658768,0.0004063983797095716
1782970015348115500,7.409115478515625,-0.0006993460701778531,0.007668838836252689,-0.0004295678809285164
1782970015358041300,7.419041259765625,0.0013409015955403447,0.005936452187597752,0.0010005496442317963
1782970015367968300,7.42896826171875,-0.0006194512825459242,0.005556951742619276,0.0017398431664332747
1782970015377894400,7.438894287109375,0.001068193931132555,0.006518619135022163,-0.0027305390685796738
1782970015387820500,7.448820556640625,-0.001966744428500533,0.007840346544981003,-0.000892425247002393
1782970015397746400,7.458746337890625,-0.000547279603779316,0.008052866905927658,0.0024652881547808647
1782970015407673300,7.46867333984375,-0.0007113303290680051,0.004860801622271538,-0.000928377965465188
1782970015417599000,7.478598876953125,-0.0007432882557623088,0.005889047868549824,0.0016639430541545153
1782970015427525000,7.488525146484375,-0.0011954930378124118,0.003950266633182764,0.0006226470577530563
1782970015437451800,7.49845166015625,-0.0006439523422159255,0.004540956113487482,0.0012492889072746038
1782970015447378000,7.5083779296875,-0.0016729978378862143,0.005319131538271904,0.0035502600949257612
1782970015457304000,7.518303955078125,0.00022077605535741895,0.0032714270055294037,0.00264771468937397
1782970015467230000,7.52822998046875,-0.0011883024126291275,0.006118878722190857,0.0006173207075335085
1782970015477156900,7.538156982421875,-0.001341700553894043,0.005796103738248348,-0.00002956108801299706
1782970015487083000,7.5480830078125,-0.0002868224401026964,0.005497563164681196,0.001719869440421462
1782970015497009200,7.558009033203125,-0.0003741741238627583,0.002980876248329878,0.0006404902087524533
1782970015506934800,7.567934814453125,-0.000461259507574141,0.006359628401696682,0.0033718282356858253
1782970015516862000,7.577862060546875,-0.0012756541837006807,0.0044195158407092094,0.00005805691034765914
1782970015526788000,7.5877880859375,-0.0028719529509544373,0.0040914141573011875,-0.000023435817638528533
1782970015536713700,7.597713623046875,0.002409095410257578,0.004354801028966904,0.0012602078495547175
1782970015546641000,7.607640869140625,0.0006263754912652075,0.0038748993538320065,0.0010761833982542157
1782970015556567000,7.617567138671875,-0.000150202278746292,0.007427290081977844,0.000041545314161339775
1782970015566493000,7.627492919921875,-0.0014620753936469555,0.004287423100322485,0.0043923514895141125
1782970015576418800,7.637418701171875,-0.002977680414915085,0.005224056541919708,0.0012319782981649041
1782970015586346000,7.647345947265625,-0.000928111607208848,0.005304217804223299,0.004197674337774515
1782970015596271900,7.65727197265625,0.0004780374001711607,0.004504204262048006,0.002629871480166912
1782970015606197800,7.66719775390625,-0.0025220136158168316,0.00498064374551177,0.00006897587445564568
1782970015616125000,7.677125,0.0015052186790853739,0.004863198380917311,0.0005739112384617329
1782970015626051000,7.687051025390625,-0.0008380967774428427,0.005030977539718151,0.0016961672808974981
1782970015635977000,7.69697705078125,-0.0011153318919241428,0.004038417246192694,-0.0000029294772048160667
1782970015645902800,7.70690283203125,-0.00003328951424919069,0.005228584166616201,0.0017752632265910506
1782970015655830000,7.716830078125,0.00016724651504773647,0.0011350392596796155,0.004550276789814234
1782970015665756000,7.726755859375,-0.0007531419396400452,0.005094626918435097,0.004596882499754429
1782970015675681800,7.736681884765625,-0.0013915016315877438,0.005395297892391682,0.0029502499382942915
1782970015685608000,7.74660791015625,0.000806138850748539,0.003907656297087669,0.0015078817959874868
1782970015695534800,7.756534912109375,-0.0020122844725847244,0.006837666034698486,0.0024770060554146767
1782970015705461000,7.7664609375,0.0011137339752167463,0.005747634451836348,0.003442401997745037
1782970015715387000,7.776386962890625,-0.0007118629291653633,0.004737763665616512,0.002671949565410614
1782970015725313800,7.786313720703125,-0.0003605920064728707,0.005091963801532984,0.004195810295641422
1782970015735240000,7.796239990234375,-0.002490588231012225,0.004237888380885124,-0.0009289105655625463
1782970015745166000,7.806166015625,0.0012444951571524143,0.0044141896069049835,-0.00038722361205145717
1782970015755092000,7.816092041015625,-0.001454618526622653,0.0037638454232364893,0.0017204020405188203
1782970015765019000,7.826018798828125,0.001583249308168888,0.0057558901607990265,0.0013917679898440838
1782970015774945000,7.835945068359375,-0.001508414396084845,0.004584365524351597,0.003088467987254262
1782970015784871000,7.845870849609375,-0.0013275857781991363,0.006688795518130064,0.002347310073673725
1782970015794797800,7.8557978515625,0.00020106865849811584,0.0054576159454882145,0.0013097425689920783
1782970015804724000,7.865723876953125,-0.0020391824655234814,0.005249090492725372,-0.00015339808305725455
1782970015814650000,7.875650146484375,0.0014362427173182368,0.004876514431089163,0.0023254721891134977
1782970015824576000,7.885575927734375,-0.001303084660321474,0.0046544065698981285,0.0007962851668708026
1782970015834503000,7.8955029296875,-0.0006492786924354732,0.004083691164851189,0.0032953955233097076
1782970015844429000,7.905428955078125,0.0013552826130762696,0.0032056469935923815,0.00034727618913166225
1782970015854355000,7.91535498046875,-0.0006993460701778531,0.005004878621548414,0.0023015039041638374
1782970015864281900,7.92528173828125,0.00358834327198565,0.003186205867677927,0.001711081014946103
1782970015874208000,7.9352080078125,-0.0005350290448404849,0.00526533555239439,-0.0001882854849100113
1782970015884134100,7.945134033203125,0.0008410262526012957,0.006009955424815416,-0.0013797837309539318
1782970015894059800,7.955059814453125,0.0011978897964581847,0.003766775131225586,0.00061279337387532
1782970015903987000,7.964987060546875,0.0002460760879330337,0.006165483966469765,0.0023763386998325586
1782970015913913000,7.9749130859375,0.002353968098759651,0.004217914305627346,0.001062334980815649
1782970015923839000,7.9848388671875,-0.0010932276491075754,0.005478122271597385,-0.0007962851668708026
1782970015933764900,7.994764892578125,-0.0016173376934602857,0.005630721338093281,0.0003328951424919069
1782970015943692000,8.004692138671874,0.002375007141381502,0.004133225884288549,0.0033606430515646935
1782970015953618200,8.0146181640625,0.0010516822803765535,0.0046354979276657104,0.002133724745362997
1782970015963543800,8.024543701171876,-0.0012170645641162992,0.004632036201655865,0.0044381581246852875
1782970015973471000,8.034470947265625,-0.002429601736366749,0.004839762579649687,0.0025545042008161545
1782970015983397000,8.044397216796876,-0.0005259743193164468,0.0057377805933356285,0.0037643781397491693
1782970015993322800,8.05432275390625,0.0007416903390549123,0.005185174755752087,0.0006804376607760787
1782970016003249000,8.064248779296875,-0.0005328985280357301,0.006908239796757698,0.0011606055777519941
1782970016013176000,8.074176025390624,-0.002133724745362997,0.004257062915712595,0.002356631215661764
1782970016023102000,8.08410205078125,-0.001336107961833477,0.005645901430398226,0.002127865795046091
1782970016033027800,8.09402783203125,0.002615756820887327,0.004422178957611322,0.002371012233197689
1782970016042954000,8.1039541015625,-0.001466602785512805,0.005122590344399214,0.00412363838404417
1782970016052881000,8.113880859375,-0.001341966912150383,0.0036938043776899576,-0.0015078817959874868
1782970016062806800,8.123806884765624,0.0002918824611697346,0.0028101676143705845,0.003817108692601323
1782970016072733000,8.13373291015625,-0.0008247809601016343,0.002796319080516696,0.0032115059439092875
1782970016082659800,8.143659912109374,0.0019403791520744562,0.006336991675198078,0.002270344877615571
1782970016092586000,8.1535859375,0.0012687299167737365,0.0037521275226026773,0.0028911277186125517
1782970016102511900,8.163511962890626,-0.0023470439482480288,0.0034229608718305826,0.0006013417732901871
1782970016112438000,8.17343798828125,-0.0004700479330495,0.004985171370208263,0.0037638454232364893
1782970016122365000,8.183364990234375,-0.0011270497925579548,0.004264520015567541,0.004102333448827267
1782970016132290800,8.193290771484374,-0.0002372876479057595,0.004261856433004141,0.003537743119522929
1782970016142217000,8.203217041015625,-0.0007217166712507606,0.00510021997615695,0.003254382871091366
1782970016152144000,8.213143798828124,-0.0020503676496446133,0.00686003640294075,0.0005547364708036184
1782970016162070000,8.223070068359375,-0.0009536779834888875,0.0057044909335672855,0.0035507925786077976
1782970016171996000,8.232995849609376,-0.0014202637830749154,0.005446430761367083,0.0009134642314165831
1782970016181922000,8.242922119140625,-0.000029827404432580806,0.005804093088954687,0.0022447784431278706
1782970016191849000,8.252848876953125,0.0005424859118647873,0.004452805500477552,-0.0010852381819859147
1782970016201774800,8.26277490234375,-0.00185063062235713,0.003905792022123933,0.00044288369826972485
1782970016211701000,8.272700927734375,-0.0009688580175861716,0.006203301250934601,0.00001704423084447626
1782970016221627000,8.282626953125,0.0015864450251683593,0.004207261838018894,0.0043502734042704105
1782970016231554000,8.292553955078125,-0.00221921200864017,0.006271477788686752,0.0020812603179365396
1782970016241480000,8.30247998046875,-0.0001270327775273472,0.005317800212651491,0.002502572489902377
1782970016251406000,8.312406005859375,0.00042024682625196874,0.006653375457972288,0.00013182646944187582
1782970016261333000,8.3223330078125,0.00011771172285079956,0.005711681675165892,0.0033159018494188786
1782970016271259000,8.3322587890625,0.0009392969077453017,0.006807838566601276,0.0020359866321086884
1782970016281185000,8.34218505859375,-0.0004474110610317439,0.005589175969362259,0.0007757788407616317
1782970016291111000,8.35211083984375,-0.00009960222087102011,0.006894391495734453,0.0006681871018372476
1782970016301038000,8.3620380859375,0.0006223807577043772,0.0044197821989655495,0.0005523395957425237
1782970016310964000,8.3719638671875,0.000931307440623641,0.005169195588678122,0.001055943313986063
1782970016320889900,8.381889892578124,-0.001389371114782989,0.004076766781508923,0.00301736150868237
1782970016330817000,8.391817138671875,-0.0003299656673334539,0.0037438718136399984,0.0017118799732998013
1782970016340744000,8.401743896484374,-0.0023286680225282907,0.006231264211237431,0.0025768745690584183
1782970016350669800,8.411669921875,-0.00008096009696600959,0.005689843557775021,0.0007898935582488775
1782970016360596000,8.421595947265626,0.0008719189208932221,0.004387557972222567,0.0010524812387302518
1782970016370522000,8.431522216796875,-0.002552373567596078,0.005736448802053928,0.0018008295446634293
1782970016380449000,8.441448974609376,0.00042504051816649735,0.004433364141732454,0.0032924660481512547
1782970016390375000,8.451375,-0.0004138552176300436,0.005340436939150095,0.000988032785244286
1782970016400301000,8.461301025390625,-0.0004111920716241002,0.004422178957611322,-0.00014940333494450897
1782970016410227000,8.47122705078125,0.0013819142477586865,0.00321949552744627,0.001561677665449679
1782970016420153900,8.48115380859375,-0.00021731393644586205,0.0037385455798357725,0.001657018787227571
1782970016430079700,8.491079833984376,0.0013973605819046497,0.0036738307680934668,0.005152950529009104
1782970016440006000,8.501005859375,0.00006870955257909372,0.0023819312918931246,0.0031340080313384533
1782970016449932800,8.510932861328126,-0.0005283711361698806,0.004461860284209251,0.0010040117194876075
1782970016459859000,8.52085888671875,-0.0007009439868852496,0.005626726895570755,-0.00010412959818495438
1782970016469784800,8.530784912109375,0.0015576828736811876,0.003611779073253274,0.0024828650057315826
1782970016479710700,8.540710693359374,0.0007062703371047974,0.005858954507857561,0.0007574030314572155
1782970016489638000,8.550637939453125,-0.0004993426846340299,0.006461894139647484,0.0011861718958243728
1782970016499563800,8.560563720703126,-0.0011233213590458035,0.004986769054085016,-0.00047697214176878333
1782970016509489700,8.57048974609375,0.001445830101147294,0.007724765222519636,-0.0007371630053967237
1782970016519416800,8.580416748046876,-0.002031192881986499,0.0036783581599593163,0.0009329052991233766
1782970016529343000,8.590343017578125,-0.0005328985280357301,0.005645102355629206,0.0024056334514170885
1782970016539268600,8.6002685546875,0.000006125270374468528,0.003537743119522929,0.0022884542122483253
1782970016549194800,8.61019482421875,0.0010074737947434187,0.003019491909071803,0.0013054815353825688
1782970016559122000,8.620121826171875,-0.0000756337758502923,0.006009955424815416,0.0016548882704228163
1782970016569047800,8.6300478515625,0.002513491315767169,0.005446430761367083,0.000630902883131057
1782970016578973700,8.6399736328125,-0.0002913498319685459,0.005309011787176132,0.002526008291170001
1782970016588900900,8.64990087890625,0.001228516222909093,0.0057617491111159325,-0.0009890979854390025
1782970016598827000,8.659826904296875,0.00019201391842216253,0.0035198999103158712,0.0007739146240055561
1782970016608752600,8.669752685546875,0.000708134553860873,0.004111654590815306,0.00282002124004066
1782970016618678800,8.6796787109375,-0.0013574132462963462,0.0037936728913336992,0.0022775353863835335
1782970016628606000,8.68960595703125,0.00016351809608750045,0.00717721926048398,0.0002926813904196024
1782970016638531600,8.699531494140626,-0.00007110639853635803,0.005657352972775698,0.0008122641011141241
1782970016648457700,8.709457763671875,0.0015776565996930003,0.005350823048502207,0.002132659312337637
1782970016658384000,8.7193837890625,-0.001526523963548243,0.006342051550745964,-0.0003350256592966616
1782970016668310800,8.729310791015624,0.00042530681821517646,0.0023608922492712736,0.0005491438205353916
1782970016678236700,8.739236572265625,0.0005968143814243376,0.0032410670537501574,0.0021028320770710707
1782970016688162800,8.749162841796876,-0.0010490191634744406,0.005991579964756966,0.002005360322073102
1782970016698089700,8.75908984375,-0.00023542344570159912,0.006205698009580374,0.0008793757879175246
1782970016708015600,8.769015625,-0.002376871183514595,0.005785451270639896,0.0008990831556729972
1782970016717941800,8.778941650390625,-0.0016626114957034588,0.005519134923815727,0.002317216480150819
1782970016727868000,8.788867919921875,-0.0014988270122557878,0.006906908005475998,0.004668254870921373
1782970016737794800,8.798794921875,0.000907338981050998,0.006656837183982134,0.0012263857061043382
1782970016747720700,8.808720703125,-0.0006404902087524533,0.003910319413989782,0.0023640880826860666
1782970016757646800,8.818646728515626,0.00014221279707271606,0.006730074528604746,0.00040559942135587335
1782970016767573000,8.828572998046875,0.0007422229973599315,0.0035326832439750433,0.004366252571344376
1782970016777499600,8.838499755859376,-0.0005182511522434652,0.005931125953793526,0.0036812876351177692
1782970016787425800,8.84842578125,-0.0018184063956141472,0.0062371231615543365,0.0009092031978070736
1782970016797352000,8.85835205078125,-0.0024051007349044085,0.006656837183982134,0.00037630466977134347
1782970016807278800,8.86827880859375,-0.0010452907299622893,0.005994243081659079,0.0024943165481090546
1782970016817204700,8.878204833984375,0.0004487426485866308,0.006609699688851833,0.0006167881074361503
1782970016827131000,8.888130859375,-0.0015728629659861326,0.004497013986110687,0.0011677960865199566
1782970016837056800,8.898056884765625,-0.0014793860027566552,0.0027081684675067663,0.003591539105400443
1782970016846983700,8.907983642578126,-0.0000250337143370416,0.004338289611041546,-0.00039468047907575965
1782970016856909800,8.917909912109375,-0.0007954862085171044,0.006412891671061516,0.0022205437999218702
1782970016866835700,8.927835693359375,-0.0018628811230883002,0.003768372815102339,0.003585680155083537
1782970016876763000,8.937762939453124,-0.0003134540456812829,0.005252552684396505,0.0035507925786077976
1782970016886688800,8.947688720703125,0.0005723133217543364,0.0065223476849496365,0.0002996056282427162
1782970016896615000,8.957614990234376,-0.00036938043194822967,0.005885319784283638,0.0020501012913882732
1782970016906540800,8.967540771484375,-0.00016538229829166085,0.004222974646836519,0.0024580976460129023
1782970016916467700,8.9774677734375,-0.00037736992817372084,0.007785751484334469,0.0017097494564950466
1782970016926393900,8.987393798828125,0.0036509274505078793,0.005336442030966282,0.000931307440623641
1782970016936319700,8.99731982421875,0.002296976512297988,0.005691708065569401,0.0008974852971732616
1782970016946247000,9.007246826171874,-0.0011771172285079956,0.005907690152525902,0.001332912128418684
1782970016956172800,9.0171728515625,-0.0012570120161399245,0.007834753952920437,-0.001606418751180172
1782970016966098700,9.0270986328125,-0.0015614113071933389,0.007003581151366234,0.0024583640042692423
1782970016976024800,9.03702490234375,0.0006239786162041128,0.00538411270827055,0.002668487373739481
1782970016985951700,9.04695166015625,-0.0006191849242895842,0.007231014780700207,0.002320412313565612
1782970016995877600,9.056877685546874,-0.0014615427935495973,0.00561181316152215,0.0008932242053560913
1782970017005803800,9.0668037109375,-0.0007752461824566126,0.007241667713969946,-0.000027963191314483993
1782970017015729700,9.076729736328126,-0.00016112125013023615,0.0052355085499584675,0.002567820018157363
1782970017025656600,9.086656494140625,0.00004900216299574822,0.006842992268502712,0.001927862293086946
1782970017035582700,9.096582763671876,0.0011914982460439205,0.007269630674272776,-0.000365918327588588
1782970017045508900,9.1065087890625,0.002526274649426341,0.003743072971701622,0.00039494677912443876
1782970017055435800,9.116435791015626,-0.0015219965716823936,0.006869890261441469,-0.00014141385327093303
1782970017065361700,9.126361572265624,-0.0019590212032198906,0.005545500200241804,0.0008881642133928835
1782970017075287800,9.136287841796875,-0.0015792545164003968,0.005004878621548414,0.0026607641484588385
1782970017085213700,9.146213623046876,-0.0014945659786462784,0.005254683084785938,0.0032205607276409864
1782970017095140600,9.156140625,-0.001612011343240738,0.004867991898208857,0.0009118663729168475
1782970017105066800,9.166066650390626,-0.002755572786554694,0.004491687286645174,0.002231995342299342
1782970017114993000,9.175992919921875,0.0008165251929312944,0.007081877905875444,0.001621332485228777
1782970017124918800,9.185918701171875,-0.0015989618841558695,0.007577492389827967,0.0001954760227818042
1782970017134845700,9.195845703125,-0.00004873584839515388,0.006676544900983572,0.002374740783125162
1782970017144771800,9.205771728515625,0.0009957558941096067,0.003826962551102042,0.003070358419790864
1782970017154698000,9.215697998046876,0.00042344260145910084,0.0038008634001016617,0.001567802974022925
1782970017164624600,9.225624755859375,0.0022562299855053425,0.00686030276119709,0.0022897860035300255
1782970017174550800,9.23555078125,0.0003400856803636998,0.0037084517534822226,0.000618918624240905
1782970017184477000,9.245476806640625,-0.001341966912150383,0.0027955202385783195,0.001933454885147512
1782970017194402800,9.25540283203125,-0.00044341632747091353,0.006307696923613548,0.002186455298215151
1782970017204329700,9.265329833984374,0.0023995081428438425,0.006048038601875305,0.0015361113473773003
1782970017214255900,9.275255859375,0.0018777948571369052,0.005584382452070713,0.0020716730505228043
1782970017224182000,9.28518212890625,-0.001333178486675024,0.0041372207924723625,0.0029385320376604795
1782970017234107600,9.295107666015625,0.0013845774810761213,0.005303152836859226,-0.0003403519804123789
1782970017244034800,9.305034912109376,-0.0024791366886347532,0.003979295492172241,0.0014759238110855222
1782970017253961000,9.3149609375,0.000642620783764869,0.005599029827862978,0.0018168084789067507
1782970017263886600,9.324886474609375,0.0009116000146605074,0.003745203372091055,0.0022714100778102875
1782970017273813800,9.334813720703124,-0.0004087952256668359,0.005283977836370468,-0.000036218989407643676
1782970017283740000,9.344739990234375,0.0001893507578643039,0.004191815387457609,-0.0009094694978557527
1782970017293665800,9.354665771484376,-0.0010881676571443677,0.004265052266418934,0.0005805690889246762
1782970017303591700,9.364591796875,0.000645550258923322,0.0017776599852368236,0.00033928672201000154
1782970017313518800,9.374518798828126,-0.0007574030314572155,0.00358807691372931,0.0030804784037172794
1782970017323444700,9.38444482421875,0.00041039311327040195,0.004347078036516905,0.0002561961009632796
1782970017333370600,9.39437060546875,0.0009134642314165831,0.0029198897536844015,-0.00038056570338085294
1782970017343296800,9.404296875,-0.0007254450465552509,0.007486412301659584,0.002037318190559745
1782970017353223700,9.4142236328125,-0.00007270430069183931,0.005757754202932119,0.0005613943794742227
1782970017363149800,9.42414990234375,-0.00015472965606022626,0.005303685087710619,0.002403236459940672
1782970017373075700,9.43407568359375,-0.0023398532066494226,0.0038535939529538155,0.0005725796218030155
1782970017383003000,9.4440029296875,0.0007611314067617059,0.0041153826750814915,0.0025718146935105324
1782970017392928800,9.4539287109375,0.0018719359068199992,0.003997138235718012,0.0009544769418425858
1782970017402854700,9.463854736328125,0.0003294330381322652,0.00299286050722003,0.0013552826130762696
1782970017412780500,9.473780517578126,-0.00043356261448934674,0.00657614367082715,0.0002258360618725419
1782970017422707500,9.48370751953125,-0.0014271880500018597,0.0062760054133832455,0.0006668555433861911
1782970017432633600,9.493633544921876,-0.002825613832101226,0.005821137689054012,0.00002902845517382957
1782970017442559500,9.5035595703125,0.0011704593198373914,0.004567055031657219,0.0034205641131848097
1782970017452486400,9.513486328125,0.0012652678415179253,0.004180363845080137,0.003082609036937356
1782970017462412500,9.52341259765625,0.0004900216590613127,0.007281614933162928,0.002624545246362686
1782970017472338700,9.533338623046875,-0.0002335592289455235,0.002520415699109435,-0.0011203918838873506
1782970017482264600,9.5432646484375,-0.0010607370641082525,0.006247776094824076,0.002207760466262698
1782970017492191500,9.55319140625,0.0013350426452234387,0.0059257997199893,0.0020128171890974045
1782970017502117600,9.56311767578125,0.0011374361347407103,0.0038519962690770626,-0.00003834952076431364
1782970017512043500,9.57304345703125,-0.0005081311101093888,0.004525776021182537,0.003472495824098587
1782970017521969700,9.5829697265625,-0.0010876349406316876,0.006183593533933163,0.001996305538341403
1782970017531896600,9.592896484375,0.0003355582884978503,0.006435795221477747,0.00028762139845639467
1782970017541822700,9.60282275390625,0.0001816275907913223,0.0054794540628790855,0.001838646363466978
1782970017551748600,9.61274853515625,-0.0010122675448656082,0.006399043370038271,0.0023558323737233877
1782970017561674500,9.622674560546875,-0.0008620652370154858,0.0049153962172567844,0.0028328043408691883
1782970017571601700,9.6326015625,0.0001483380765421316,0.004544950556010008,0.0010301107540726662
1782970017581527600,9.642527587890624,-0.0003235740587115288,0.003819771809503436,0.0011677960865199566
1782970017591453400,9.652453369140625,-0.0031097731553018093,0.00487305223941803,0.0024399880785495043
1782970017601380600,9.662380615234374,0.00021172130072955042,0.006884004920721054,0.000005858954409632133
1782970017611306800,9.672306640625,0.0007456850726157427,0.003963049966841936,-0.001535312389023602
1782970017621232400,9.682232421875,-0.002160090021789074,0.0068118334747850895,-0.0004599279200192541
1782970017631158500,9.692158447265625,0.0007685882737860084,0.005321261938661337,0.0014085458824411035
1782970017641085700,9.702085693359376,0.0000577905957470648,0.004769455175846815,0.0004961469094268978
1782970017651011600,9.712011474609374,0.0024980450980365276,0.005449626594781876,0.001416269107721746
1782970017660937500,9.7219375,0.0010128001449629664,0.005507150664925575,0.001714010490104556
1782970017670864600,9.73186474609375,0.0011036139912903309,0.004080761689692736,0.003195793367922306
1782970017680790800,9.741790771484375,-0.0006311691831797361,0.002680737990885973,0.0020788635592907667
1782970017690716400,9.75171630859375,-0.00126766471657902,0.006313555873930454,0.00047084689140319824
1782970017700642600,9.761642578125,0.00119575927965343,0.005694104824215174,0.0020237360149621964
1782970017710569700,9.77156982421875,-0.002275138394907117,0.0065100970678031445,0.001973402453586459
1782970017720495400,9.781495361328124,0.0020817930344492197,0.0068123661912977695,0.0005603290628641844
1782970017730421500,9.79142138671875,-0.00021118867152836174,0.005543103441596031,0.0011377023765817285
1782970017740347600,9.80134765625,0.0017022925894707441,0.005735650192946196,0.0013539510546252131
1782970017750274600,9.811274658203125,0.002541188383474946,0.003878894029185176,0.00020213393145240843
1782970017760200400,9.821200439453126,-0.0037209687288850546,0.007223558146506548,0.001939846551977098
1782970017770126600,9.831126708984375,-0.0001613875647308305,0.004283694550395012,0.0024953819811344147
1782970017780053500,9.841053466796875,0.0018546254141256213,0.007479487918317318,0.0008261125767603517
1782970017789979400,9.8509794921875,-0.0018674085149541497,0.005883455276489258,0.001490304945036769
1782970017799905500,9.860905517578125,0.001407214323990047,0.003855458227917552,0.002522546099498868
1782970017809831700,9.870831787109376,0.0019177423091605306,0.007778028026223183,0.0022210762836039066
1782970017819758600,9.880758544921875,-0.0014021543320268393,0.006053098943084478,-0.0015925703337416053
1782970017829684500,9.8906845703125,-0.0006498112925328314,0.002892725635319948,0.0024229439441114664
1782970017839610600,9.900610595703125,-0.002906573936343193,0.00535508431494236,0.0009861685102805495
1782970017849536800,9.910536865234375,-0.00224903947673738,0.004991828929632902,0.0022445120848715305
1782970017859463400,9.92046337890625,0.0008724515791982412,0.0062421830371022224,0.00239205127581954
1782970017869389600,9.9303896484375,-0.0024232103023678064,0.003790477057918906,0.0011443602852523327
1782970017879315700,9.940315673828126,-0.0013203952694311738,0.006514624692499638,0.0006905576447024941
1782970017889242600,9.95024267578125,0.000437291048001498,0.0054546864703297615,0.0006415555253624916
1782970017899168500,9.96016845703125,-0.0014269216917455196,0.005123389419168234,0.0026549051981419325
1782970017909094700,9.9700947265625,-0.0009086705395020545,0.005638711154460907,0.0028567728586494923
1782970017919020500,9.9800205078125,-0.0013584784464910626,0.011684618890285492,0.004535097163170576
1782970017928947700,9.98994775390625,-0.0017366473330184817,0.008592423051595688,0.007985488511621952
1782970017938873600,9.99987353515625,-0.001532382913865149,0.011724034324288368,0.006689061876386404
1782970017948799500,10.009799560546876,-0.0005917543894611299,0.008737565018236637,0.0018138790037482977
1782970017958725400,10.019725341796875,-0.001207743538543582,0.011707521975040436,0.005185973364859819
1782970017968652500,10.029652587890626,-0.0016418388113379478,0.009787383489310741,0.004971855320036411
1782970017978578700,10.03957861328125,-0.003001915058121085,0.01002307329326868,0.004168113227933645
1782970017988504600,10.049504638671875,0.0010492854053154588,0.006398244295269251,0.002540122950449586
1782970017998431700,10.059431640625,-0.00007882956560933962,0.005044027231633663,0.0015281217638403177
1782970018008357600,10.069357666015625,0.0014346449170261621,0.005149754695594311,0.004732437431812286
1782970018018283500,10.079283447265626,-0.0003920173039659858,0.007507717236876488,0.0027869981713593006
1782970018028209700,10.089209716796875,-0.0006966829532757401,0.007289072033017874,0.003002181416377425
1782970018038136600,10.099136474609375,-0.002100701443850994,0.005915679503232241,0.004785966593772173
1782970018048062500,10.1090625,-0.0013110742438584566,0.004458664450794458,0.00310524576343596
1782970018057988600,10.118988525390625,0.001204547705128789,0.004025101661682129,0.0007504787645302713
1782970018067914500,10.12891455078125,0.0008804410463199019,0.0015970977256074548,0.0022836606949567795
1782970018077841400,10.13884130859375,-0.0007603325066156685,0.0033156354911625385,0.0026732811238616705
1782970018087767600,10.148767578125,0.0024021712597459555,-0.009281915612518787,-0.004436826333403587
1782970018097693700,10.158693603515625,0.0015225291717797518,-0.013953632675111294,-0.009959423914551735
1782970018107620400,10.168620361328125,-0.0015691345324739814,-0.00019121496006846428,-0.0011209244839847088
1782970018117546500,10.17854638671875,-0.0022272015921771526,0.005228317808359861,0.001710548298433423
1782970018127472600,10.18847265625,-0.0012660667998716235,0.0019571571610867977,0.0002263686910737306
1782970018137398500,10.1983984375,0.00040506679215468466,0.005216333549469709,0.0005587312043644488
