time,seconds_elapsed,z,y,x
1782951214685191400,0.05819140625,-0.942901611328125,-0.1585845947265625,-0.069091796875
1782951214695118000,0.0681181640625,-0.9701080322265625,-0.163177490234375,-0.067962646484375
1782951214705045200,0.078045166015625,-1.0007171630859375,-0.16375732421875,-0.0755767822265625
1782951214714971400,0.087971435546875,-1.025604248046875,-0.15753173828125,-0.0809326171875
1782951214724898600,0.097898681640625,-1.0430145263671875,-0.1529388427734375,-0.0781097412109375
1782951214734825700,0.10782568359375,-1.042144775390625,-0.1524200439453125,-0.0716552734375
1782951214744752600,0.117752685546875,-1.029388427734375,-0.1496429443359375,-0.064605712890625
1782951214754679600,0.127679443359375,-1.0126495361328125,-0.1516265869140625,-0.0537109375
1782951214764605400,0.13760546875,-0.9971771240234375,-0.1531829833984375,-0.046539306640625
1782951214774532600,0.14753271484375,-0.9829864501953125,-0.152862548828125,-0.0479736328125
1782951214784459500,0.15745947265625,-0.971893310546875,-0.1562347412109375,-0.049224853515625
1782951214794386700,0.16738671875,-0.9639434814453125,-0.162445068359375,-0.0514984130859375
1782951214804312600,0.1773125,-0.9620361328125,-0.1629791259765625,-0.0513916015625
1782951214814239500,0.187239501953125,-0.960113525390625,-0.1576385498046875,-0.05316162109375
1782951214824166700,0.197166748046875,-0.9657745361328125,-0.1557769775390625,-0.0580902099609375
1782951214834093600,0.207093505859375,-0.975799560546875,-0.1565704345703125,-0.0613250732421875
1782951214844020500,0.2170205078125,-0.9847412109375,-0.1588287353515625,-0.0614013671875
1782951214853946400,0.2269462890625,-0.9916229248046875,-0.1604156494140625,-0.057281494140625
1782951214863873500,0.23687353515625,-0.9965667724609375,-0.1580810546875,-0.0582122802734375
1782951214873800400,0.246800537109375,-0.99737548828125,-0.15765380859375,-0.0683135986328125
1782951214883727600,0.2567275390625,-0.9917449951171875,-0.16094970703125,-0.07476806640625
1782951214893653500,0.266653564453125,-0.97674560546875,-0.1652069091796875,-0.071014404296875
1782951214903580400,0.276580322265625,-0.9728851318359375,-0.1696319580078125,-0.0670013427734375
1782951214913507600,0.286507568359375,-0.9720611572265625,-0.16961669921875,-0.064056396484375
1782951214923434500,0.2964345703125,-0.969696044921875,-0.166534423828125,-0.059906005859375
1782951214933361400,0.306361328125,-0.972076416015625,-0.1667022705078125,-0.0600128173828125
1782951214943287600,0.31628759765625,-0.9749755859375,-0.168121337890625,-0.06268310546875
1782951214953214700,0.326214599609375,-0.97705078125,-0.17059326171875,-0.0623931884765625
1782951214963141400,0.336141357421875,-0.9784088134765625,-0.170501708984375,-0.0635833740234375
1782951214973068500,0.346068603515625,-0.9764251708984375,-0.171051025390625,-0.0646209716796875
1782951214982994400,0.355994384765625,-0.9772796630859375,-0.1714935302734375,-0.06500244140625
1782951214992921600,0.365921630859375,-0.984344482421875,-0.171234130859375,-0.065948486328125
1782951215002848500,0.3758486328125,-0.985382080078125,-0.1690216064453125,-0.0664520263671875
1782951215012775400,0.385775390625,-0.9848785400390625,-0.16827392578125,-0.06329345703125
1782951215022702300,0.395702392578125,-0.9839324951171875,-0.1674957275390625,-0.05743408203125
1782951215032628500,0.40562841796875,-0.98919677734375,-0.16693115234375,-0.0592498779296875
1782951215042555600,0.4155556640625,-0.9878387451171875,-0.1647796630859375,-0.06341552734375
1782951215052482600,0.425482666015625,-0.9829559326171875,-0.166748046875,-0.061859130859375
1782951215062409700,0.43540966796875,-0.9754638671875,-0.1680450439453125,-0.061767578125
1782951215072336400,0.44533642578125,-0.9745025634765625,-0.1693572998046875,-0.063323974609375
1782951215082262500,0.455262451171875,-0.9821624755859375,-0.1685028076171875,-0.0669403076171875
1782951215092189400,0.465189453125,-0.9895477294921875,-0.1656494140625,-0.0679779052734375
1782951215102116600,0.47511669921875,-0.99346923828125,-0.163421630859375,-0.0696563720703125
1782951215112043500,0.48504345703125,-0.9893341064453125,-0.16314697265625,-0.0708160400390625
1782951215121969400,0.494969482421875,-0.9840545654296875,-0.1641845703125,-0.07012939453125
1782951215131896600,0.504896484375,-0.976226806640625,-0.167999267578125,-0.070159912109375
1782951215141823500,0.514823486328125,-0.96343994140625,-0.1691131591796875,-0.0704803466796875
1782951215151750700,0.524750732421875,-0.9569549560546875,-0.172271728515625,-0.069793701171875
1782951215161677600,0.534677490234375,-0.96087646484375,-0.1766815185546875,-0.0701141357421875
1782951215171603500,0.544603515625,-0.9701080322265625,-0.17803955078125,-0.076446533203125
1782951215181530400,0.5545302734375,-0.9823760986328125,-0.176116943359375,-0.0825347900390625
1782951215191457500,0.56445751953125,-0.986907958984375,-0.17816162109375,-0.0827178955078125
1782951215201384400,0.574384521484375,-0.9825897216796875,-0.182037353515625,-0.0808563232421875
1782951215211310600,0.584310546875,-0.974456787109375,-0.1853179931640625,-0.0751495361328125
1782951215221237500,0.594237548828125,-0.9682464599609375,-0.1850433349609375,-0.0695037841796875
1782951215231164400,0.604164306640625,-0.96539306640625,-0.1851043701171875,-0.070220947265625
1782951215241091600,0.614091552734375,-0.9706268310546875,-0.1859893798828125,-0.0692138671875
1782951215251018500,0.6240185546875,-0.9784698486328125,-0.184906005859375,-0.069610595703125
1782951215260944600,0.633944580078125,-0.98583984375,-0.183013916015625,-0.06719970703125
1782951215270871600,0.64387158203125,-0.9992828369140625,-0.184234619140625,-0.06549072265625
1782951215280798500,0.653798583984375,-1.009246826171875,-0.180328369140625,-0.0661773681640625
1782951215290725400,0.663725341796875,-1.0063323974609375,-0.1771697998046875,-0.067626953125
1782951215300651500,0.673651611328125,-0.993804931640625,-0.1783447265625,-0.06597900390625
1782951215310578700,0.68357861328125,-0.981689453125,-0.18310546875,-0.065185546875
1782951215320505600,0.693505615234375,-0.983001708984375,-0.1830902099609375,-0.0661773681640625
1782951215330432500,0.7034326171875,-0.9820404052734375,-0.1788330078125,-0.0709381103515625
1782951215340359400,0.713359375,-0.980743408203125,-0.1760406494140625,-0.0696868896484375
1782951215350285600,0.72328564453125,-0.98052978515625,-0.17474365234375,-0.0664215087890625
1782951215360212500,0.73321240234375,-0.9720458984375,-0.1726837158203125,-0.0657196044921875
1782951215370139600,0.7431396484375,-0.959381103515625,-0.17633056640625,-0.0643157958984375
1782951215380066600,0.753066650390625,-0.9485931396484375,-0.1790313720703125,-0.06207275390625
1782951215389992400,0.762992431640625,-0.9459381103515625,-0.183258056640625,-0.060760498046875
1782951215399919600,0.772919677734375,-0.9571685791015625,-0.184326171875,-0.0648040771484375
1782951215409846500,0.782846435546875,-0.9794158935546875,-0.1799163818359375,-0.0716552734375
1782951215419773700,0.792773681640625,-0.9982757568359375,-0.174560546875,-0.07501220703125
1782951215429700600,0.80270068359375,-1.0108489990234375,-0.17626953125,-0.0703125
1782951215439626500,0.81262646484375,-1.010101318359375,-0.177825927734375,-0.068572998046875
1782951215449553400,0.822553466796875,-0.992095947265625,-0.1819305419921875,-0.067474365234375
1782951215459480600,0.83248046875,-0.9708709716796875,-0.189300537109375,-0.0653076171875
1782951215469407500,0.842407470703125,-0.955078125,-0.1932373046875,-0.065704345703125
1782951215479334700,0.852334716796875,-0.95343017578125,-0.19110107421875,-0.070098876953125
1782951215489260500,0.862260498046875,-0.9612884521484375,-0.1874847412109375,-0.069854736328125
1782951215499187500,0.8721875,-0.9717559814453125,-0.1844024658203125,-0.0688629150390625
1782951215509114600,0.882114501953125,-0.97998046875,-0.181396484375,-0.066497802734375
1782951215519041500,0.89204150390625,-0.985198974609375,-0.18011474609375,-0.068084716796875
1782951215528967700,0.9019677734375,-0.9873809814453125,-0.1796875,-0.0647735595703125
1782951215538894300,0.911894287109375,-0.98712158203125,-0.1815032958984375,-0.064483642578125
1782951215548821500,0.921821533203125,-0.9959259033203125,-0.1834259033203125,-0.0650634765625
1782951215558748400,0.93174853515625,-1.0058746337890625,-0.1810455322265625,-0.0658721923828125
1782951215568675600,0.941675537109375,-1.0033721923828125,-0.17413330078125,-0.0660400390625
1782951215578601500,0.9516015625,-0.98883056640625,-0.173095703125,-0.061614990234375
1782951215588528600,0.961528564453125,-0.97222900390625,-0.1735992431640625,-0.055328369140625
1782951215598455600,0.97145556640625,-0.958831787109375,-0.176605224609375,-0.0526123046875
1782951215608382500,0.981382568359375,-0.949554443359375,-0.181640625,-0.053466796875
1782951215618309400,0.991309326171875,-0.9518890380859375,-0.1850738525390625,-0.056549072265625
1782951215628235500,1.001235595703125,-0.95758056640625,-0.1834869384765625,-0.0631561279296875
1782951215638162700,1.01116259765625,-0.9690399169921875,-0.184661865234375,-0.0664520263671875
1782951215648089300,1.02108935546875,-0.9850006103515625,-0.18701171875,-0.0676727294921875
1782951215658016500,1.0310166015625,-0.997711181640625,-0.1860809326171875,-0.0711822509765625
1782951215667942400,1.0409423828125,-0.999725341796875,-0.1837615966796875,-0.0714263916015625
1782951215677869600,1.05086962890625,-0.993255615234375,-0.1851654052734375,-0.0694427490234375
1782951215687796500,1.06079638671875,-0.984283447265625,-0.185150146484375,-0.06756591796875
1782951215697723600,1.0707236328125,-0.9727783203125,-0.1825408935546875,-0.06689453125
1782951215707649500,1.0806494140625,-0.9666748046875,-0.1835784912109375,-0.06793212890625
1782951215717576400,1.090576416015625,-0.972198486328125,-0.184722900390625,-0.0674896240234375
1782951215727503000,1.100503173828125,-0.98193359375,-0.182098388671875,-0.0685882568359375
1782951215737430000,1.110429931640625,-0.9878692626953125,-0.1780548095703125,-0.0696563720703125
1782951215747357200,1.120357177734375,-0.985504150390625,-0.1760711669921875,-0.0699615478515625
1782951215757283000,1.130282958984375,-0.9749908447265625,-0.177520751953125,-0.0666656494140625
1782951215767210000,1.1402099609375,-0.9684600830078125,-0.179779052734375,-0.0662994384765625
1782951215777137200,1.15013720703125,-0.96832275390625,-0.1800689697265625,-0.068359375
1782951215787064000,1.16006396484375,-0.97296142578125,-0.177947998046875,-0.071868896484375
1782951215796991200,1.1699912109375,-0.977508544921875,-0.179351806640625,-0.071929931640625
1782951215806916900,1.179916748046875,-0.9822235107421875,-0.180877685546875,-0.071929931640625
1782951215816844000,1.189843994140625,-0.985595703125,-0.1819000244140625,-0.0729522705078125
1782951215826771000,1.19977099609375,-0.9830169677734375,-0.18133544921875,-0.0750579833984375
1782951215836698000,1.209697998046875,-0.9739837646484375,-0.18475341796875,-0.070587158203125
1782951215846624300,1.219624267578125,-0.9684295654296875,-0.1860198974609375,-0.066192626953125
1782951215856551000,1.229551025390625,-0.9661407470703125,-0.185394287109375,-0.066375732421875
1782951215866478000,1.23947802734375,-0.9691619873046875,-0.1869354248046875,-0.0687103271484375
1782951215876405000,1.249405029296875,-0.978851318359375,-0.1894989013671875,-0.0725860595703125
1782951215886332200,1.259332275390625,-0.9898681640625,-0.1889190673828125,-0.0788116455078125
1782951215896258000,1.269258056640625,-0.990142822265625,-0.189208984375,-0.0802001953125
1782951215906185000,1.27918505859375,-0.9864959716796875,-0.1876983642578125,-0.0758056640625
1782951215916112000,1.28911181640625,-0.979278564453125,-0.187835693359375,-0.07391357421875
1782951215926039000,1.2990390625,-0.974365234375,-0.18853759765625,-0.071685791015625
1782951215935965200,1.308965087890625,-0.975128173828125,-0.185760498046875,-0.072418212890625
1782951215945892000,1.31889208984375,-0.9783477783203125,-0.18487548828125,-0.0713958740234375
1782951215955819000,1.328819091796875,-0.9858245849609375,-0.1820068359375,-0.071624755859375
1782951215965746000,1.338745849609375,-0.9910736083984375,-0.1804046630859375,-0.0749359130859375
1782951215975673000,1.348673095703125,-0.9821319580078125,-0.181121826171875,-0.0711212158203125
1782951215985599000,1.358598876953125,-0.97076416015625,-0.1865081787109375,-0.069610595703125
1782951215995526100,1.368526123046875,-0.964630126953125,-0.1862640380859375,-0.0713653564453125
1782951216005453000,1.378453125,-0.96209716796875,-0.1803436279296875,-0.0683441162109375
1782951216015380200,1.388380126953125,-0.9681243896484375,-0.183624267578125,-0.069427490234375
1782951216025307000,1.398306884765625,-0.9767913818359375,-0.185394287109375,-0.0767059326171875
1782951216035233000,1.40823291015625,-0.978668212890625,-0.1828460693359375,-0.078369140625
1782951216045160000,1.418159912109375,-0.97332763671875,-0.185333251953125,-0.073394775390625
1782951216055087000,1.428087158203125,-0.9720001220703125,-0.1886749267578125,-0.0635833740234375
1782951216065014000,1.438013916015625,-0.9801177978515625,-0.1893157958984375,-0.05987548828125
1782951216074940000,1.44793994140625,-0.99224853515625,-0.1846466064453125,-0.0653228759765625
1782951216084867000,1.4578671875,-0.9987640380859375,-0.18212890625,-0.0680084228515625
1782951216094794000,1.4677939453125,-0.9930572509765625,-0.181488037109375,-0.0695037841796875
1782951216104721200,1.47772119140625,-0.97802734375,-0.1842193603515625,-0.0705413818359375
1782951216114648000,1.48764794921875,-0.964447021484375,-0.187835693359375,-0.068359375
1782951216124574000,1.497573974609375,-0.953582763671875,-0.1869354248046875,-0.06787109375
1782951216134500900,1.5075009765625,-0.948272705078125,-0.186676025390625,-0.067718505859375
1782951216144428000,1.517427978515625,-0.951934814453125,-0.1869049072265625,-0.067474365234375
1782951216154355000,1.52735498046875,-0.9632720947265625,-0.185089111328125,-0.06573486328125
1782951216164281000,1.537281005859375,-0.9745330810546875,-0.1829071044921875,-0.064666748046875
1782951216174208000,1.5472080078125,-0.9830474853515625,-0.185089111328125,-0.0636138916015625
1782951216184135000,1.557135009765625,-0.985443115234375,-0.186126708984375,-0.062835693359375
1782951216194062000,1.56706201171875,-0.9889678955078125,-0.1869354248046875,-0.0638885498046875
1782951216203989000,1.576989013671875,-0.9947357177734375,-0.1871795654296875,-0.0643463134765625
1782951216213915100,1.5869150390625,-0.9963531494140625,-0.1860198974609375,-0.0605316162109375
1782951216223842000,1.596842041015625,-0.999847412109375,-0.187225341796875,-0.0590362548828125
1782951216233769000,1.60676904296875,-1.0010986328125,-0.183868408203125,-0.062286376953125
1782951216243695900,1.61669580078125,-0.9935150146484375,-0.18548583984375,-0.0716094970703125
1782951216253622000,1.6266220703125,-0.978668212890625,-0.188568115234375,-0.0763092041015625
1782951216263549200,1.636549072265625,-0.9630279541015625,-0.1898651123046875,-0.0733642578125
1782951216273476000,1.64647607421875,-0.951263427734375,-0.19091796875,-0.0675048828125
1782951216283403000,1.656403076171875,-0.9501495361328125,-0.189178466796875,-0.0633087158203125
1782951216293330000,1.666329833984375,-0.9560394287109375,-0.18505859375,-0.0648345947265625
1782951216303256000,1.676256103515625,-0.9639129638671875,-0.1822509765625,-0.068145751953125
1782951216313183000,1.686182861328125,-0.9716339111328125,-0.1841583251953125,-0.0732574462890625
1782951216323110100,1.696110107421875,-0.9771728515625,-0.1877288818359375,-0.077667236328125
1782951216333037000,1.706037109375,-0.9842987060546875,-0.1898651123046875,-0.0803070068359375
1782951216342963000,1.715962890625,-0.9888458251953125,-0.1889801025390625,-0.0807952880859375
1782951216352890000,1.72589013671875,-0.9892425537109375,-0.188262939453125,-0.082061767578125
1782951216362817000,1.735817138671875,-0.9871978759765625,-0.1861114501953125,-0.0764007568359375
1782951216372744200,1.745744140625,-0.9817047119140625,-0.186981201171875,-0.0762176513671875
1782951216382671000,1.755671142578125,-0.972991943359375,-0.1891937255859375,-0.077606201171875
1782951216392597000,1.765596923828125,-0.96826171875,-0.1914215087890625,-0.0722808837890625
1782951216402524000,1.77552392578125,-0.9730377197265625,-0.1892547607421875,-0.0718841552734375
1782951216412451000,1.785451171875,-0.9786834716796875,-0.1858978271484375,-0.0775146484375
1782951216422378000,1.7953779296875,-0.978973388671875,-0.183349609375,-0.07958984375
1782951216432305200,1.80530517578125,-0.979705810546875,-0.185760498046875,-0.075897216796875
1782951216442231000,1.81523095703125,-0.98663330078125,-0.186798095703125,-0.074249267578125
1782951216452158000,1.825157958984375,-0.9895172119140625,-0.1855621337890625,-0.0792999267578125
1782951216462085000,1.835085205078125,-0.9823150634765625,-0.1866607666015625,-0.0793609619140625
1782951216472012000,1.845011962890625,-0.9803924560546875,-0.1928558349609375,-0.07220458984375
1782951216481938200,1.854938232421875,-1.00592041015625,-0.192352294921875,-0.072509765625
1782951216491864800,1.86486474609375,-0.99017333984375,-0.1863250732421875,-0.0864715576171875
1782951216501792000,1.8747919921875,-0.9715118408203125,-0.19146728515625,-0.074310302734375
1782951216511719000,1.884718994140625,-0.9589080810546875,-0.195587158203125,-0.0645904541015625
1782951216521646000,1.89464599609375,-0.952362060546875,-0.1934814453125,-0.0711212158203125
1782951216531572200,1.904572265625,-0.952606201171875,-0.19012451171875,-0.0762939453125
1782951216541499100,1.9144990234375,-0.9600677490234375,-0.19329833984375,-0.0768890380859375
1782951216551426000,1.924426025390625,-0.9701385498046875,-0.1928558349609375,-0.078399658203125
1782951216561353000,1.93435302734375,-0.9741363525390625,-0.189117431640625,-0.0816650390625
1782951216571279000,1.944279052734375,-0.9744110107421875,-0.1879425048828125,-0.0783233642578125
1782951216581206000,1.9542060546875,-0.9718475341796875,-0.1888885498046875,-0.071044921875
1782951216591133200,1.96413330078125,-0.9762420654296875,-0.1911468505859375,-0.071044921875
1782951216601059800,1.974059814453125,-0.9885101318359375,-0.190093994140625,-0.0775909423828125
1782951216610987000,1.983987060546875,-0.9958343505859375,-0.190185546875,-0.07952880859375
1782951216620913200,1.9939130859375,-0.990631103515625,-0.1923675537109375,-0.08251953125
1782951216630840000,2.003840087890625,-0.9830780029296875,-0.1958770751953125,-0.078857421875
1782951216640767000,2.01376708984375,-0.9773712158203125,-0.1956634521484375,-0.0747833251953125
1782951216650694100,2.023694091796875,-0.9701080322265625,-0.1904754638671875,-0.0731353759765625
1782951216660620000,2.0336201171875,-0.96697998046875,-0.1886444091796875,-0.0718994140625
1782951216670547000,2.043546875,-0.969940185546875,-0.19049072265625,-0.0697479248046875
1782951216680474000,2.05347412109375,-0.9757232666015625,-0.1883087158203125,-0.0724945068359375
1782951216690401000,2.063401123046875,-0.978607177734375,-0.186767578125,-0.0799407958984375
1782951216700328200,2.073328125,-0.9786529541015625,-0.1873931884765625,-0.0835418701171875
1782951216710254000,2.083254150390625,-0.9746551513671875,-0.189361572265625,-0.082244873046875
1782951216720181000,2.093180908203125,-0.9660797119140625,-0.1893768310546875,-0.0822601318359375
1782951216730108200,2.103108154296875,-0.95831298828125,-0.187225341796875,-0.07696533203125
1782951216740035300,2.113035400390625,-0.963714599609375,-0.1873931884765625,-0.0749664306640625
1782951216749962200,2.122962158203125,-0.9760284423828125,-0.1867218017578125,-0.0745391845703125
1782951216759888400,2.132888427734375,-0.9886474609375,-0.1862335205078125,-0.0716552734375
1782951216769815300,2.142815185546875,-0.9961395263671875,-0.1850738525390625,-0.0700531005859375
1782951216779742200,2.1527421875,-0.9960174560546875,-0.1855010986328125,-0.0718536376953125
1782951216789669400,2.16266943359375,-0.9932403564453125,-0.1885986328125,-0.0690155029296875
1782951216799595300,2.17259521484375,-0.982666015625,-0.1878204345703125,-0.06903076171875
1782951216809522400,2.1825224609375,-0.9696197509765625,-0.1898193359375,-0.07171630859375
1782951216819449300,2.192449462890625,-0.957763671875,-0.1928558349609375,-0.0690155029296875
1782951216829376300,2.202376220703125,-0.9530181884765625,-0.195098876953125,-0.0690460205078125
1782951216839303200,2.21230322265625,-0.9566192626953125,-0.19189453125,-0.068572998046875
1782951216849229300,2.222229248046875,-0.9677581787109375,-0.18902587890625,-0.0673675537109375
1782951216859156500,2.232156494140625,-0.9764862060546875,-0.1864013671875,-0.069732666015625
1782951216869083400,2.24208349609375,-0.97845458984375,-0.186614990234375,-0.070526123046875
1782951216879010300,2.25201025390625,-0.97772216796875,-0.1904296875,-0.0703582763671875
1782951216888936200,2.261936279296875,-0.9783172607421875,-0.1929931640625,-0.0708465576171875
1782951216898863400,2.27186328125,-0.9817657470703125,-0.1949005126953125,-0.073883056640625
1782951216908790300,2.281790283203125,-0.989166259765625,-0.1999053955078125,-0.0754241943359375
1782951216918717400,2.291717529296875,-0.9935760498046875,-0.197601318359375,-0.0768585205078125
1782951216928644400,2.301644287109375,-0.995452880859375,-0.19244384765625,-0.079437255859375
1782951216938570200,2.3115703125,-0.9907073974609375,-0.1884002685546875,-0.079620361328125
1782951216948497400,2.321497314453125,-0.9786834716796875,-0.1897125244140625,-0.078277587890625
1782951216958424300,2.33142431640625,-0.96466064453125,-0.19085693359375,-0.076324462890625
1782951216968351500,2.3413515625,-0.9546966552734375,-0.1929931640625,-0.0766448974609375
1782951216978278400,2.3512783203125,-0.947357177734375,-0.193267822265625,-0.0748291015625
1782951216988204300,2.361204345703125,-0.945465087890625,-0.1939239501953125,-0.0707550048828125
1782951216998131200,2.371131103515625,-0.9558868408203125,-0.1954193115234375,-0.0706024169921875
1782951217008058400,2.381058349609375,-0.971405029296875,-0.1930084228515625,-0.0698699951171875
1782951217017985300,2.3909853515625,-0.9871826171875,-0.190887451171875,-0.0744171142578125
1782951217027911400,2.400911376953125,-0.997802734375,-0.191986083984375,-0.07489013671875
1782951217037838300,2.41083837890625,-1.0026092529296875,-0.1886749267578125,-0.074188232421875
1782951217047765200,2.42076513671875,-0.9951171875,-0.184539794921875,-0.0739898681640625
1782951217057692400,2.4306923828125,-0.97955322265625,-0.1856842041015625,-0.070648193359375
1782951217067619300,2.440619384765625,-0.9698028564453125,-0.188934326171875,-0.069610595703125
1782951217077545500,2.45054541015625,-0.9643402099609375,-0.18890380859375,-0.0714569091796875
1782951217087472000,2.46047216796875,-0.9652557373046875,-0.188873291015625,-0.07452392578125
1782951217097399300,2.4703994140625,-0.971649169921875,-0.1865234375,-0.07415771484375
1782951217107326200,2.480326171875,-0.9757080078125,-0.1842193603515625,-0.0746917724609375
1782951217117253400,2.49025341796875,-0.9799041748046875,-0.1869354248046875,-0.0797882080078125
1782951217127179300,2.50017919921875,-0.98077392578125,-0.18896484375,-0.0794677734375
1782951217137106400,2.5101064453125,-0.977142333984375,-0.190673828125,-0.08380126953125
1782951217147033000,2.520033203125,-0.9721832275390625,-0.1932830810546875,-0.085968017578125
1782951217156960300,2.529960205078125,-0.9662933349609375,-0.195892333984375,-0.0848388671875
1782951217166886400,2.539886474609375,-0.9652252197265625,-0.197296142578125,-0.0862579345703125
1782951217176813300,2.549813232421875,-0.9675445556640625,-0.19561767578125,-0.0906219482421875
1782951217186740500,2.559740478515625,-0.971771240234375,-0.192901611328125,-0.091461181640625
1782951217196667400,2.56966748046875,-0.9703521728515625,-0.1916351318359375,-0.090972900390625
1782951217206594300,2.57959423828125,-0.9722442626953125,-0.1949005126953125,-0.090362548828125
1782951217216520200,2.589520263671875,-0.9701995849609375,-0.195556640625,-0.0868377685546875
1782951217226447400,2.599447265625,-0.9718017578125,-0.1941680908203125,-0.0845947265625
1782951217236374300,2.609374267578125,-0.98028564453125,-0.1925506591796875,-0.08209228515625
1782951217246301400,2.619301513671875,-0.9893798828125,-0.1932373046875,-0.081573486328125
1782951217256227300,2.629227294921875,-0.994171142578125,-0.1889495849609375,-0.07525634765625
1782951217266154200,2.639154296875,-0.998382568359375,-0.18572998046875,-0.0699615478515625
1782951217276081400,2.649081298828125,-1.0013580322265625,-0.184814453125,-0.0689849853515625
1782951217286008300,2.65900830078125,-0.997589111328125,-0.185943603515625,-0.0670928955078125
1782951217295935500,2.668935546875,-0.992156982421875,-0.18585205078125,-0.0670013427734375
1782951217305861000,2.678861083984375,-0.9856414794921875,-0.1864471435546875,-0.0684356689453125
1782951217315788300,2.688788330078125,-0.980987548828125,-0.1866607666015625,-0.0674896240234375
1782951217325715200,2.698715087890625,-0.9775543212890625,-0.1866912841796875,-0.0684356689453125
1782951217335642400,2.708642333984375,-0.9795379638671875,-0.1850128173828125,-0.068206787109375
1782951217345568500,2.718568603515625,-0.9772186279296875,-0.1829071044921875,-0.0693817138671875
1782951217355495200,2.7284951171875,-0.9715728759765625,-0.1837158203125,-0.069549560546875
1782951217365422300,2.73842236328125,-0.9654388427734375,-0.18609619140625,-0.0696258544921875
1782951217375349200,2.748349365234375,-0.9652557373046875,-0.186065673828125,-0.07220458984375
1782951217385276400,2.7582763671875,-0.9628448486328125,-0.182586669921875,-0.0743255615234375
1782951217395202300,2.768202392578125,-0.9669189453125,-0.178131103515625,-0.0646209716796875
1782951217405129500,2.77812939453125,-0.971923828125,-0.185333251953125,-0.0678863525390625
1782951217415056100,2.78805615234375,-0.978515625,-0.190521240234375,-0.0855712890625
1782951217424983300,2.7979833984375,-0.9837646484375,-0.1907196044921875,-0.096588134765625
1782951217434910200,2.80791015625,-0.983795166015625,-0.1939849853515625,-0.09820556640625
1782951217444836400,2.81783642578125,-0.978179931640625,-0.1951141357421875,-0.0924224853515625
1782951217454763500,2.827763427734375,-0.97119140625,-0.1957244873046875,-0.087249755859375
1782951217464690200,2.837690185546875,-0.9674224853515625,-0.196319580078125,-0.0835418701171875
1782951217474617300,2.847617431640625,-0.96875,-0.19140625,-0.07879638671875
1782951217484543200,2.857543212890625,-0.972320556640625,-0.1891632080078125,-0.0784149169921875
1782951217494470400,2.867470458984375,-0.977386474609375,-0.1893463134765625,-0.0786285400390625
1782951217504397300,2.877397216796875,-0.98193359375,-0.187713623046875,-0.0791473388671875
1782951217514324500,2.887324462890625,-0.9865264892578125,-0.1870574951171875,-0.082916259765625
1782951217524251100,2.897251220703125,-0.9824981689453125,-0.1847381591796875,-0.0801849365234375
1782951217534177300,2.90717724609375,-0.9705657958984375,-0.1864471435546875,-0.0748443603515625
1782951217544104400,2.9171044921875,-0.9638671875,-0.1900177001953125,-0.0733184814453125
1782951217554031400,2.92703125,-0.9669952392578125,-0.1912689208984375,-0.0718994140625
1782951217563958500,2.93695849609375,-0.9682464599609375,-0.1909942626953125,-0.072235107421875
1782951217573885200,2.94688525390625,-0.973541259765625,-0.190216064453125,-0.0671539306640625
1782951217583811300,2.956811279296875,-0.9810638427734375,-0.1900634765625,-0.0615997314453125
1782951217593738200,2.96673828125,-0.9872589111328125,-0.1875457763671875,-0.0629730224609375
1782951217603665400,2.97666552734375,-0.9896697998046875,-0.188232421875,-0.0641937255859375
1782951217613592300,2.98659228515625,-0.9875030517578125,-0.1907501220703125,-0.06597900390625
1782951217623518200,2.996518310546875,-0.9789276123046875,-0.1928558349609375,-0.070159912109375
1782951217633445400,3.0064453125,-0.970458984375,-0.1936492919921875,-0.0717620849609375
1782951217643372300,3.016372314453125,-0.9668121337890625,-0.19085693359375,-0.0763092041015625
1782951217653299500,3.026299560546875,-0.9660186767578125,-0.1896514892578125,-0.079620361328125
1782951217663226400,3.036226318359375,-0.96942138671875,-0.1899566650390625,-0.0835113525390625
1782951217673152300,3.04615234375,-0.96954345703125,-0.190643310546875,-0.084259033203125
1782951217683079200,3.0560791015625,-0.969146728515625,-0.1956634521484375,-0.08184814453125
1782951217693006300,3.06600634765625,-0.9736328125,-0.1953582763671875,-0.0838470458984375
1782951217702933200,3.075933349609375,-0.9745025634765625,-0.193206787109375,-0.084014892578125
1782951217712860400,3.0858603515625,-0.9716033935546875,-0.191650390625,-0.0842437744140625
1782951217722786300,3.095786376953125,-0.9705352783203125,-0.1942596435546875,-0.0831451416015625
1782951217732714000,3.1057138671875,-0.978424072265625,-0.197540283203125,-0.0841217041015625
1782951217742641000,3.115640869140625,-0.98760986328125,-0.19708251953125,-0.0873260498046875
1782951217752568000,3.125568115234375,-0.9880218505859375,-0.1953277587890625,-0.089080810546875
1782951217762494000,3.135493896484375,-0.9850921630859375,-0.1984100341796875,-0.084197998046875
1782951217772420900,3.1454208984375,-0.98138427734375,-0.1989898681640625,-0.08233642578125
1782951217782348000,3.15534814453125,-0.9786529541015625,-0.1935577392578125,-0.083740234375
1782951217792275000,3.16527490234375,-0.971435546875,-0.1905517578125,-0.083404541015625
1782951217802202000,3.1752021484375,-0.9680328369140625,-0.1930084228515625,-0.0794219970703125
1782951217812127700,3.185127685546875,-0.974273681640625,-0.1920623779296875,-0.0773162841796875
1782951217822055000,3.195054931640625,-0.978759765625,-0.1847991943359375,-0.07781982421875
1782951217831981800,3.20498193359375,-0.976593017578125,-0.1855621337890625,-0.0756988525390625
1782951217841909000,3.214908935546875,-0.9726715087890625,-0.18658447265625,-0.07110595703125
1782951217851835100,3.224835205078125,-0.9721527099609375,-0.1874542236328125,-0.0724945068359375
1782951217861761800,3.23476171875,-0.9727020263671875,-0.1876373291015625,-0.076202392578125
1782951217871689000,3.24468896484375,-0.974029541015625,-0.1861114501953125,-0.0788726806640625
1782951217881616000,3.254615966796875,-0.972015380859375,-0.18780517578125,-0.0805511474609375
1782951217891542800,3.264542724609375,-0.97332763671875,-0.1909637451171875,-0.077178955078125
1782951217901469000,3.274468994140625,-0.9841156005859375,-0.19439697265625,-0.0818023681640625
1782951217911395800,3.284395751953125,-0.9956207275390625,-0.196258544921875,-0.0899505615234375
1782951217921322800,3.29432275390625,-0.9914093017578125,-0.195587158203125,-0.09307861328125
1782951217931250000,3.30425,-0.97576904296875,-0.1989898681640625,-0.0858917236328125
1782951217941176800,3.3141767578125,-0.96124267578125,-0.1998748779296875,-0.082305908203125
1782951217951103000,3.32410302734375,-0.9512176513671875,-0.1978302001953125,-0.0820465087890625
1782951217961030000,3.33402978515625,-0.9490509033203125,-0.1971282958984375,-0.07763671875
1782951217970956800,3.343956787109375,-0.95361328125,-0.194915771484375,-0.0738525390625
1782951217980883700,3.3538837890625,-0.966827392578125,-0.1898345947265625,-0.0739898681640625
1782951217990809900,3.363809814453125,-0.9861907958984375,-0.1889190673828125,-0.0770721435546875
1782951218000737000,3.373737060546875,-1.002349853515625,-0.1898040771484375,-0.0836029052734375
1782951218010664000,3.383663818359375,-0.99957275390625,-0.1899261474609375,-0.0863800048828125
1782951218020591000,3.393591064453125,-0.9831085205078125,-0.1947479248046875,-0.079986572265625
1782951218030517800,3.403517822265625,-0.965606689453125,-0.1973724365234375,-0.0735015869140625
1782951218040444000,3.41344384765625,-0.95660400390625,-0.19793701171875,-0.070220947265625
1782951218050370800,3.423370849609375,-0.95648193359375,-0.1942901611328125,-0.068115234375
1782951218060298000,3.433298095703125,-0.967041015625,-0.193572998046875,-0.0663909912109375
1782951218070225000,3.443224853515625,-0.97796630859375,-0.1925048828125,-0.0671234130859375
1782951218080151800,3.45315185546875,-0.9816131591796875,-0.192291259765625,-0.072998046875
1782951218090078000,3.463077880859375,-0.9799957275390625,-0.1965179443359375,-0.073974609375
1782951218100004900,3.4730048828125,-0.9788665771484375,-0.196380615234375,-0.075775146484375
1782951218109932000,3.48293212890625,-0.975982666015625,-0.196197509765625,-0.07427978515625
1782951218119859000,3.49285888671875,-0.975372314453125,-0.1976165771484375,-0.0722808837890625
1782951218129784800,3.502784912109375,-0.977996826171875,-0.19439697265625,-0.0698699951171875
1782951218139711700,3.512711669921875,-0.98431396484375,-0.1939239501953125,-0.0750885009765625
1782951218149639000,3.522638916015625,-0.9834442138671875,-0.1931304931640625,-0.0803070068359375
1782951218159565800,3.53256591796875,-0.9810943603515625,-0.1958465576171875,-0.0808563232421875
1782951218169493000,3.542492919921875,-0.976165771484375,-0.19671630859375,-0.083221435546875
1782951218179419000,3.5524189453125,-0.9691009521484375,-0.1952667236328125,-0.083831787109375
1782951218189345800,3.562345703125,-0.961181640625,-0.19781494140625,-0.0803680419921875
1782951218199273000,3.57227294921875,-0.96063232421875,-0.19683837890625,-0.0778656005859375
1782951218209199900,3.582199951171875,-0.9669952392578125,-0.195556640625,-0.0763702392578125
1782951218219127000,3.592126953125,-0.9776458740234375,-0.1949005126953125,-0.0751190185546875
1782951218229053000,3.602052978515625,-0.985321044921875,-0.1960906982421875,-0.0765838623046875
1782951218238979800,3.611979736328125,-0.9868011474609375,-0.19683837890625,-0.081787109375
1782951218248906800,3.62190673828125,-0.9819488525390625,-0.1949615478515625,-0.0810394287109375
1782951218258834000,3.631833984375,-0.976348876953125,-0.1997833251953125,-0.0792388916015625
1782951218268760000,3.641760009765625,-0.971832275390625,-0.1999359130859375,-0.07952880859375
1782951218278687000,3.65168701171875,-0.966064453125,-0.197418212890625,-0.077667236328125
1782951218288614000,3.66161376953125,-0.96185302734375,-0.197509765625,-0.070648193359375
1782951218298540800,3.671540771484375,-0.966064453125,-0.196990966796875,-0.06097412109375
1782951218308468000,3.681468017578125,-0.9705963134765625,-0.1914825439453125,-0.0599365234375
1782951218318393900,3.691393798828125,-0.9751129150390625,-0.1905059814453125,-0.0645751953125
1782951218328321000,3.701321044921875,-0.9803314208984375,-0.19488525390625,-0.0691986083984375
1782951218338248000,3.711248046875,-0.984222412109375,-0.1966705322265625,-0.0716705322265625
1782951218348174800,3.7211748046875,-0.9885711669921875,-0.1958160400390625,-0.0750732421875
1782951218358101800,3.731101806640625,-0.9918365478515625,-0.1965789794921875,-0.077484130859375
1782951218368028000,3.74102783203125,-0.9923248291015625,-0.1981658935546875,-0.0766448974609375
1782951218377955000,3.750955078125,-0.9895172119140625,-0.199676513671875,-0.0780487060546875
1782951218387882000,3.760882080078125,-0.981414794921875,-0.1981201171875,-0.07965087890625
1782951218397809000,3.770808837890625,-0.970855712890625,-0.194854736328125,-0.084320068359375
1782951218407734800,3.78073486328125,-0.9582366943359375,-0.1959686279296875,-0.0855865478515625
1782951218417662000,3.790661865234375,-0.9479522705078125,-0.198944091796875,-0.086395263671875
1782951218427588900,3.8005888671875,-0.9462127685546875,-0.19879150390625,-0.083038330078125
1782951218437516000,3.81051611328125,-0.9497528076171875,-0.1998291015625,-0.079315185546875
1782951218447443000,3.82044287109375,-0.9605560302734375,-0.1981964111328125,-0.079132080078125
1782951218457368800,3.830368896484375,-0.9756927490234375,-0.1992034912109375,-0.07958984375
1782951218467296000,3.8402958984375,-0.9834747314453125,-0.1989593505859375,-0.07958984375
1782951218477223000,3.850222900390625,-0.9883575439453125,-0.20123291015625,-0.082244873046875
1782951218487150000,3.860150146484375,-0.9893646240234375,-0.19976806640625,-0.0810089111328125
1782951218497077000,3.870076904296875,-0.9890289306640625,-0.1987152099609375,-0.081878662109375
1782951218507003000,3.8800029296875,-0.983978271484375,-0.1956939697265625,-0.077178955078125
1782951218516929800,3.8899296875,-0.9825897216796875,-0.19354248046875,-0.0707550048828125
1782951218526857000,3.89985693359375,-0.9804229736328125,-0.191162109375,-0.069244384765625
1782951218536784000,3.909783935546875,-0.97943115234375,-0.1890106201171875,-0.0711669921875
1782951218546710000,3.9197099609375,-0.9759979248046875,-0.1902618408203125,-0.0699310302734375
1782951218556637000,3.929636962890625,-0.9693145751953125,-0.1885223388671875,-0.0700836181640625
1782951218566563800,3.939563720703125,-0.9650115966796875,-0.189453125,-0.0678558349609375
1782951218576490800,3.94949072265625,-0.96783447265625,-0.1912841796875,-0.063140869140625
1782951218586418000,3.95941796875,-0.9759368896484375,-0.190216064453125,-0.0657958984375
1782951218596344000,3.969343994140625,-0.9809722900390625,-0.190216064453125,-0.0741729736328125
1782951218606270700,3.979270751953125,-0.982818603515625,-0.1960601806640625,-0.0764312744140625
1782951218616195800,3.98919580078125,-0.981536865234375,-0.2002410888671875,-0.0791778564453125
1782951218626123000,3.999123046875,-0.977935791015625,-0.2019805908203125,-0.0850677490234375
1782951218636050000,4.0090498046875,-0.9716949462890625,-0.2031402587890625,-0.0895843505859375
1782951218645977000,4.01897705078125,-0.9652557373046875,-0.2054443359375,-0.08758544921875
1782951218655903000,4.028903076171875,-0.9696502685546875,-0.2062835693359375,-0.0866546630859375
1782951218665830000,4.038829833984375,-0.997894287109375,-0.2026214599609375,-0.08770751953125
1782951218675757000,4.048757080078125,-0.9870147705078125,-0.1964263916015625,-0.088775634765625
1782951218685684000,4.05868408203125,-0.9694061279296875,-0.2042236328125,-0.082550048828125
1782951218695611000,4.06861083984375,-0.96844482421875,-0.207183837890625,-0.0778656005859375
1782951218705536800,4.078536865234375,-0.9692535400390625,-0.2001953125,-0.0837860107421875
1782951218715464000,4.0884638671875,-0.9691619873046875,-0.195281982421875,-0.0784149169921875
1782951218725390300,4.098390380859375,-0.9712066650390625,-0.1966705322265625,-0.0693817138671875
1782951218735317500,4.1083173828125,-0.97216796875,-0.1963348388671875,-0.0697174072265625
1782951218745243600,4.11824365234375,-0.9727630615234375,-0.1919403076171875,-0.0728607177734375
1782951218755170300,4.12817041015625,-0.9694671630859375,-0.19207763671875,-0.0736541748046875
1782951218765097500,4.138097412109375,-0.9664459228515625,-0.190826416015625,-0.0736846923828125
1782951218775024400,4.1480244140625,-0.9674530029296875,-0.1899261474609375,-0.0738677978515625
1782951218784951600,4.15795166015625,-0.9625091552734375,-0.1939849853515625,-0.0740203857421875
1782951218794877400,4.16787744140625,-0.9669189453125,-0.1984710693359375,-0.0747528076171875
1782951218804804400,4.177804443359375,-0.9742889404296875,-0.19903564453125,-0.07958984375
1782951218814731300,4.187731201171875,-0.980133056640625,-0.19940185546875,-0.08489990234375
1782951218824658400,4.197658447265625,-0.9839630126953125,-0.2007598876953125,-0.0824432373046875
1782951218834585300,4.20758544921875,-0.979248046875,-0.199859619140625,-0.078704833984375
1782951218844511500,4.217511474609375,-0.975921630859375,-0.202606201171875,-0.0746917724609375
1782951218854438700,4.227438720703125,-0.9709014892578125,-0.2018280029296875,-0.0754852294921875
1782951218864365300,4.237365234375,-0.9713287353515625,-0.2021331787109375,-0.076995849609375
1782951218874292500,4.24729248046875,-0.97430419921875,-0.20281982421875,-0.08087158203125
1782951218884218400,4.25721826171875,-0.982177734375,-0.2034912109375,-0.089508056640625
1782951218894145500,4.2671455078125,-0.9972991943359375,-0.2043609619140625,-0.0935211181640625
1782951218904072400,4.277072509765625,-0.9918212890625,-0.200897216796875,-0.095916748046875
1782951218913999600,4.28699951171875,-0.9752349853515625,-0.1996307373046875,-0.0890655517578125
1782951218923926300,4.29692626953125,-0.9573822021484375,-0.1982421875,-0.0778045654296875
1782951218933852400,4.306852294921875,-0.953399658203125,-0.198822021484375,-0.0772705078125
1782951218943779600,4.316779541015625,-0.955322265625,-0.1965789794921875,-0.073394775390625
1782951218953706500,4.32670654296875,-0.9591827392578125,-0.198455810546875,-0.0725555419921875
1782951218963633700,4.336633544921875,-0.9758453369140625,-0.1999053955078125,-0.0710296630859375
1782951218973560300,4.346560302734375,-0.988739013671875,-0.197845458984375,-0.0758056640625
1782951218983486500,4.356486572265625,-0.9963836669921875,-0.1959228515625,-0.079071044921875
1782951218993413400,4.366413330078125,-0.9942779541015625,-0.196990966796875,-0.07611083984375
1782951219003340500,4.376340576171875,-0.9804534912109375,-0.1987762451171875,-0.0753326416015625
1782951219013267500,4.386267333984375,-0.964996337890625,-0.2003326416015625,-0.07159423828125
1782951219023194600,4.396194580078125,-0.9568023681640625,-0.20367431640625,-0.0711517333984375
1782951219033120500,4.40612060546875,-0.9576263427734375,-0.202423095703125,-0.070037841796875
1782951219043047400,4.41604736328125,-0.963470458984375,-0.2006072998046875,-0.0706024169921875
1782951219052974300,4.425974365234375,-0.966552734375,-0.19921875,-0.0698699951171875
1782951219062901500,4.435901611328125,-0.968048095703125,-0.19921875,-0.0668792724609375
1782951219072827400,4.445827392578125,-0.9688720703125,-0.2025909423828125,-0.0650177001953125
1782951219082754300,4.45575439453125,-0.974365234375,-0.203643798828125,-0.066925048828125
1782951219092681500,4.465681396484375,-0.9799652099609375,-0.2036285400390625,-0.0733642578125
1782951219102608400,4.4756083984375,-0.9864501953125,-0.206451416015625,-0.0732879638671875
1782951219112535600,4.48553564453125,-0.991180419921875,-0.210662841796875,-0.0732879638671875
1782951219122461400,4.49546142578125,-0.99041748046875,-0.2091064453125,-0.0803985595703125
1782951219132388400,4.505388427734375,-0.9865570068359375,-0.2060546875,-0.0900421142578125
1782951219142315300,4.515315185546875,-0.984100341796875,-0.208526611328125,-0.087127685546875
1782951219152242400,4.525242431640625,-0.977081298828125,-0.2091522216796875,-0.0825347900390625
1782951219162168600,4.53516845703125,-0.96343994140625,-0.203857421875,-0.07720947265625
1782951219172095500,4.545095458984375,-0.958343505859375,-0.201385498046875,-0.0677947998046875
1782951219182022400,4.5550224609375,-0.9586639404296875,-0.201568603515625,-0.06427001953125
1782951219191949300,4.56494921875,-0.9589385986328125,-0.1986846923828125,-0.066741943359375
1782951219201876500,4.57487646484375,-0.963287353515625,-0.2018280029296875,-0.06854248046875
1782951219211802400,4.58480224609375,-0.9700164794921875,-0.20068359375,-0.068328857421875
1782951219221729500,4.5947294921875,-0.9767913818359375,-0.1992645263671875,-0.0715789794921875
1782951219231656400,4.604656494140625,-0.982513427734375,-0.197021484375,-0.07452392578125
1782951219241583400,4.614583251953125,-0.984283447265625,-0.195892333984375,-0.0735931396484375
1782951219251510300,4.62451025390625,-0.985107421875,-0.1951141357421875,-0.074676513671875
1782951219261436400,4.6344365234375,-0.98309326171875,-0.194061279296875,-0.078369140625
1782951219271363600,4.644363525390625,-0.9769287109375,-0.1977386474609375,-0.076934814453125
1782951219281290500,4.65429052734375,-0.9692535400390625,-0.199920654296875,-0.0751495361328125
1782951219291217400,4.664217529296875,-0.9586181640625,-0.199676513671875,-0.0759735107421875
1782951219301144300,4.674144287109375,-0.9558563232421875,-0.2056884765625,-0.0797882080078125
1782951219311070500,4.684070556640625,-0.96063232421875,-0.208038330078125,-0.0839996337890625
1782951219320997400,4.693997314453125,-0.9694671630859375,-0.20849609375,-0.0902252197265625
1782951219330924500,4.703924560546875,-0.97930908203125,-0.20855712890625,-0.09490966796875
1782951219340851500,4.7138515625,-0.986907958984375,-0.209564208984375,-0.0941314697265625
1782951219350778400,4.7237783203125,-0.98846435546875,-0.207061767578125,-0.0919342041015625
1782951219360704500,4.73370458984375,-0.992584228515625,-0.205078125,-0.087066650390625
1782951219370631400,4.74363134765625,-0.9918060302734375,-0.203948974609375,-0.086944580078125
1782951219380558600,4.75355859375,-0.9790802001953125,-0.19903564453125,-0.084808349609375
1782951219390485500,4.763485595703125,-0.9660797119140625,-0.2019500732421875,-0.0800018310546875
1782951219400411400,4.773411376953125,-0.961669921875,-0.2050018310546875,-0.0767364501953125
1782951219410338300,4.78333837890625,-0.9593048095703125,-0.202301025390625,-0.0759429931640625
1782951219420265500,4.793265380859375,-0.9590606689453125,-0.197906494140625,-0.073760986328125
1782951219430192400,4.8031923828125,-0.963653564453125,-0.200164794921875,-0.0684967041015625
1782951219440119600,4.81311962890625,-0.9738922119140625,-0.1970062255859375,-0.0691986083984375
1782951219450045400,4.82304541015625,-0.9800872802734375,-0.1954345703125,-0.0723724365234375
1782951219459972400,4.832972412109375,-0.97869873046875,-0.20050048828125,-0.0696868896484375
1782951219469899500,4.8428994140625,-0.976715087890625,-0.20025634765625,-0.0656280517578125
1782951219479826400,4.852826416015625,-0.97393798828125,-0.199432373046875,-0.07012939453125
1782951219489753600,4.862753662109375,-0.9715576171875,-0.2028350830078125,-0.0745849609375
1782951219499679200,4.87267919921875,-0.9733734130859375,-0.20745849609375,-0.0750274658203125
1782951219509606400,4.8826064453125,-0.9741668701171875,-0.2063751220703125,-0.0760040283203125
1782951219519533300,4.892533203125,-0.9742889404296875,-0.2046356201171875,-0.07696533203125
1782951219529460500,4.90246044921875,-0.9753875732421875,-0.207244873046875,-0.076568603515625
1782951219539386600,4.91238671875,-0.975250244140625,-0.2084197998046875,-0.0806121826171875
1782951219549313500,4.9223134765625,-0.9710540771484375,-0.209503173828125,-0.0826416015625
1782951219559240400,4.932240478515625,-0.96710205078125,-0.2099761962890625,-0.081146240234375
1782951219569167400,4.94216748046875,-0.9730224609375,-0.2083282470703125,-0.080810546875
1782951219579094500,4.952094482421875,-0.977508544921875,-0.2056427001953125,-0.0802459716796875
1782951219589020400,4.9620205078125,-0.979766845703125,-0.2021026611328125,-0.0772857666015625
1782951219598947600,4.971947509765625,-0.9790191650390625,-0.2040557861328125,-0.07373046875
1782951219608874500,4.98187451171875,-0.9761505126953125,-0.2030029296875,-0.0713653564453125
1782951219618801400,4.991801513671875,-0.976654052734375,-0.202117919921875,-0.071685791015625
1782951219628728300,5.001728271484375,-0.9739227294921875,-0.2001495361328125,-0.07110595703125
1782951219638654500,5.011654541015625,-0.97198486328125,-0.1971282958984375,-0.0695037841796875
1782951219648581600,5.02158154296875,-0.9695892333984375,-0.195556640625,-0.0638275146484375
1782951219658508500,5.031508544921875,-0.96978759765625,-0.1950836181640625,-0.061614990234375
1782951219668435500,5.041435546875,-0.9737091064453125,-0.1921844482421875,-0.0646514892578125
1782951219678361300,5.051361328125,-0.9786834716796875,-0.19305419921875,-0.070281982421875
1782951219688288500,5.06128857421875,-0.9767608642578125,-0.1910400390625,-0.0754241943359375
1782951219698215400,5.07121533203125,-0.96826171875,-0.1945343017578125,-0.07965087890625
1782951219708142600,5.081142578125,-0.95965576171875,-0.1973876953125,-0.0785675048828125
1782951219718069500,5.091069580078125,-0.9561004638671875,-0.1989288330078125,-0.076690673828125
1782951219727995400,5.100995361328125,-0.958953857421875,-0.201934814453125,-0.07476806640625
1782951219737922600,5.110922607421875,-0.9692535400390625,-0.2042236328125,-0.0766448974609375
1782951219747849700,5.120849609375,-0.9859619140625,-0.2052154541015625,-0.0810394287109375
1782951219757776600,5.130776611328125,-0.9996795654296875,-0.20526123046875,-0.086395263671875
1782951219767703800,5.140703857421875,-1.005218505859375,-0.2039337158203125,-0.0871429443359375
1782951219777629700,5.150629638671875,-1.0019073486328125,-0.2042999267578125,-0.088592529296875
1782951219787556600,5.160556640625,-0.98370361328125,-0.20660400390625,-0.0866851806640625
1782951219797483800,5.17048388671875,-0.9622039794921875,-0.2085113525390625,-0.0807952880859375
1782951219807410700,5.18041064453125,-0.951507568359375,-0.2084808349609375,-0.0716705322265625
1782951219817337900,5.190337890625,-0.9511260986328125,-0.20489501953125,-0.0686798095703125
1782951219827263500,5.200263427734375,-0.959716796875,-0.2027587890625,-0.066497802734375
1782951219837190700,5.210190673828125,-0.96685791015625,-0.1997222900390625,-0.0655975341796875
1782951219847117600,5.22011767578125,-0.9692230224609375,-0.1969146728515625,-0.063751220703125
1782951219857044700,5.230044677734375,-0.96875,-0.1977081298828125,-0.064971923828125
1782951219866971600,5.2399716796875,-0.969879150390625,-0.199920654296875,-0.0634765625
1782951219876897800,5.249897705078125,-0.973968505859375,-0.200958251953125,-0.0650787353515625
1782951219886824700,5.25982470703125,-0.9771881103515625,-0.2024993896484375,-0.0662078857421875
1782951219896751600,5.269751708984375,-0.985504150390625,-0.206787109375,-0.0669403076171875
1782951219906678800,5.2796787109375,-0.9976043701171875,-0.209075927734375,-0.072784423828125
1782951219916604700,5.289604736328125,-1.0057220458984375,-0.20513916015625,-0.07958984375
1782951219926531800,5.29953173828125,-1.001434326171875,-0.2035369873046875,-0.0773162841796875
1782951219936458500,5.30945849609375,-0.98553466796875,-0.2034912109375,-0.0712127685546875
1782951219946385700,5.3193857421875,-0.9648590087890625,-0.2055511474609375,-0.0669403076171875
1782951219956312600,5.3293125,-0.948974609375,-0.208099365234375,-0.066253662109375
1782951219966238700,5.33923876953125,-0.9414825439453125,-0.205108642578125,-0.0687408447265625
1782951219976166000,5.349165771484375,-0.943572998046875,-0.2066497802734375,-0.073974609375
1782951219986092800,5.3590927734375,-0.9549102783203125,-0.20562744140625,-0.0756988525390625
1782951219996019700,5.369019775390625,-0.970977783203125,-0.2043914794921875,-0.0778961181640625
1782951220005946600,5.378946533203125,-0.98779296875,-0.2029876708984375,-0.078277587890625
1782951220015872800,5.388872802734375,-0.9915008544921875,-0.2031402587890625,-0.077911376953125
1782951220025799700,5.398799560546875,-0.99102783203125,-0.203125,-0.0770111083984375
1782951220035726800,5.408726806640625,-0.9871063232421875,-0.2035064697265625,-0.075225830078125
1782951220045653500,5.418653564453125,-0.9777069091796875,-0.202392578125,-0.0780487060546875
1782951220055579600,5.42857958984375,-0.9730224609375,-0.202484130859375,-0.0779266357421875
1782951220065506800,5.4385068359375,-0.9714813232421875,-0.2013702392578125,-0.077117919921875
1782951220075433700,5.448433837890625,-0.9668731689453125,-0.1988677978515625,-0.0743560791015625
1782951220085360600,5.458360595703125,-0.9644622802734375,-0.198944091796875,-0.075531005859375
1782951220095287800,5.468287841796875,-0.9673919677734375,-0.20086669921875,-0.076690673828125
1782951220105213700,5.478213623046875,-0.9726409912109375,-0.2016448974609375,-0.0783233642578125
1782951220115140600,5.488140625,-0.97833251953125,-0.201690673828125,-0.0791473388671875
1782951220125067800,5.49806787109375,-0.981597900390625,-0.2039794921875,-0.0840911865234375
1782951220134994700,5.50799462890625,-0.9854583740234375,-0.203369140625,-0.0870361328125
1782951220144921900,5.517921875,-0.9808197021484375,-0.2018890380859375,-0.08624267578125
1782951220154847700,5.52784765625,-0.97021484375,-0.201568603515625,-0.0850372314453125
1782951220164774700,5.537774658203125,-0.9600677490234375,-0.20440673828125,-0.080322265625
1782951220174701600,5.54770166015625,-0.95733642578125,-0.2058258056640625,-0.079925537109375
1782951220184628700,5.557628662109375,-0.961151123046875,-0.205322265625,-0.080291748046875
1782951220194555000,5.567554931640625,-0.968658447265625,-0.202484130859375,-0.082916259765625
1782951220204481500,5.5774814453125,-0.9707794189453125,-0.203125,-0.0822601318359375
1782951220214408700,5.58740869140625,-0.9708709716796875,-0.2049407958984375,-0.081695556640625
1782951220224335600,5.597335693359375,-0.9732818603515625,-0.2062835693359375,-0.08154296875
1782951220234262800,5.6072626953125,-0.9736328125,-0.207489013671875,-0.0826568603515625
1782951220244188700,5.617188720703125,-0.9722137451171875,-0.203582763671875,-0.08056640625
1782951220254115600,5.627115478515625,-0.975982666015625,-0.2043609619140625,-0.0732421875
1782951220264042500,5.63704248046875,-0.9817657470703125,-0.201324462890625,-0.0669403076171875
1782951220273969700,5.6469697265625,-0.9864654541015625,-0.195068359375,-0.0661773681640625
1782951220283896600,5.656896484375,-0.9848785400390625,-0.1985015869140625,-0.06549072265625
1782951220293822700,5.66682275390625,-0.9817657470703125,-0.20343017578125,-0.066650390625
1782951220303750000,5.67675,-0.9728240966796875,-0.2037353515625,-0.0712890625
1782951220313676500,5.686676513671875,-0.9640350341796875,-0.204620361328125,-0.0719146728515625
1782951220323603700,5.696603759765625,-0.959014892578125,-0.2073516845703125,-0.06768798828125
1782951220333530600,5.706530517578125,-0.9650115966796875,-0.2058563232421875,-0.0655517578125
1782951220343456800,5.716456787109375,-0.9716796875,-0.204132080078125,-0.063873291015625
1782951220353383700,5.7263837890625,-0.976104736328125,-0.205413818359375,-0.0642852783203125
1782951220363310600,5.736310546875,-0.97918701171875,-0.2076873779296875,-0.0650787353515625
1782951220373237500,5.746237548828125,-0.977569580078125,-0.2111358642578125,-0.067840576171875
1782951220383164700,5.75616455078125,-0.970611572265625,-0.2126312255859375,-0.072479248046875
1782951220393090800,5.7660908203125,-0.9628448486328125,-0.2171630859375,-0.075286865234375
1782951220403017700,5.776017822265625,-0.9656829833984375,-0.2208404541015625,-0.077117919921875
1782951220412945000,5.78594482421875,-0.973968505859375,-0.216949462890625,-0.0804290771484375
1782951220422871600,5.79587158203125,-0.9827880859375,-0.2126312255859375,-0.0859832763671875
1782951220432797700,5.805797607421875,-0.99542236328125,-0.2076416015625,-0.0810089111328125
1782951220442724600,5.815724609375,-1.0030364990234375,-0.2021942138671875,-0.076202392578125
1782951220452651800,5.82565185546875,-0.99176025390625,-0.1965179443359375,-0.0716552734375
1782951220462578700,5.83557861328125,-0.97406005859375,-0.197967529296875,-0.0688934326171875
1782951220472505900,5.845505859375,-0.95697021484375,-0.200836181640625,-0.0672454833984375
1782951220482431700,5.855431640625,-0.948455810546875,-0.1992340087890625,-0.0730133056640625
1782951220492358700,5.865358642578125,-0.949859619140625,-0.1978302001953125,-0.075897216796875
1782951220502285800,5.875285888671875,-0.95941162109375,-0.1974945068359375,-0.0770111083984375
1782951220512212700,5.885212646484375,-0.9675445556640625,-0.1946563720703125,-0.0787353515625
1782951220522140000,5.895139892578125,-0.9722442626953125,-0.1948699951171875,-0.079437255859375
1782951220532065500,5.9050654296875,-0.97930908203125,-0.201141357421875,-0.074951171875
1782951220541992700,5.91499267578125,-0.9843292236328125,-0.2009735107421875,-0.0767669677734375
1782951220551919600,5.924919677734375,-0.9846343994140625,-0.20068359375,-0.0778045654296875
1782951220561846800,5.9348466796875,-0.98406982421875,-0.20269775390625,-0.0780029296875
1782951220571772700,5.944772705078125,-0.9855499267578125,-0.2025299072265625,-0.07989501953125
1782951220581699600,5.954699462890625,-0.9842681884765625,-0.198028564453125,-0.085174560546875
1782951220591626800,5.964626708984375,-0.9782867431640625,-0.199737548828125,-0.0849151611328125
1782951220601553700,5.9745537109375,-0.96734619140625,-0.2034912109375,-0.08184814453125
1782951220611480800,5.984480712890625,-0.9600067138671875,-0.206787109375,-0.082916259765625
1782951220621406700,5.99440673828125,-0.954254150390625,-0.2081146240234375,-0.0846099853515625
1782951220631333600,6.004333740234375,-0.952239990234375,-0.2091217041015625,-0.0856781005859375
1782951220641260500,6.014260498046875,-0.9627532958984375,-0.2137451171875,-0.0836181640625
1782951220651187700,6.024187744140625,-0.977569580078125,-0.211639404296875,-0.0846710205078125
1782951220661114600,6.034114501953125,-0.9859161376953125,-0.2111968994140625,-0.08349609375
1782951220671040800,6.044040771484375,-0.9905853271484375,-0.2098388671875,-0.076568603515625
1782951220680967700,6.0539677734375,-0.990020751953125,-0.206695556640625,-0.0717010498046875
1782951220690894600,6.06389453125,-0.986053466796875,-0.2086029052734375,-0.0728759765625
1782951220700821800,6.07382177734375,-0.986053466796875,-0.212890625,-0.07867431640625
1782951220710748700,6.083748779296875,-0.9900970458984375,-0.2143096923828125,-0.0800018310546875
1782951220720674800,6.0936748046875,-0.996795654296875,-0.212188720703125,-0.0807342529296875
1782951220730601500,6.1036015625,-0.9989471435546875,-0.2049560546875,-0.08197021484375
1782951220740528600,6.113528564453125,-0.9914703369140625,-0.19775390625,-0.0799102783203125
1782951220750455600,6.12345556640625,-0.9724578857421875,-0.1988677978515625,-0.07562255859375
1782951220760381400,6.13338134765625,-0.9539031982421875,-0.2029876708984375,-0.0719146728515625
1782951220770308600,6.14330859375,-0.944000244140625,-0.201873779296875,-0.06439208984375
1782951220780235500,6.153235595703125,-0.9401397705078125,-0.1984710693359375,-0.0638275146484375
1782951220790162700,6.16316259765625,-0.9432525634765625,-0.196258544921875,-0.0656890869140625
1782951220800089600,6.173089599609375,-0.94976806640625,-0.1965179443359375,-0.0712432861328125
1782951220810015500,6.183015380859375,-0.9661102294921875,-0.198394775390625,-0.079010009765625
1782951220819942400,6.1929423828125,-0.9769744873046875,-0.1956939697265625,-0.0838623046875
1782951220829869600,6.20286962890625,-0.971710205078125,-0.193328857421875,-0.083526611328125
1782951220839796500,6.21279638671875,-0.96343994140625,-0.200103759765625,-0.077362060546875
1782951220849723600,6.2227236328125,-0.959381103515625,-0.204986572265625,-0.07769775390625
1782951220859649500,6.2326494140625,-0.959808349609375,-0.204864501953125,-0.0819244384765625
1782951220869576400,6.242576416015625,-0.9648284912109375,-0.2067413330078125,-0.0811614990234375
1782951220879503600,6.252503662109375,-0.97198486328125,-0.208251953125,-0.081146240234375
1782951220889430500,6.262430419921875,-0.9740753173828125,-0.2084503173828125,-0.0843963623046875
1782951220899357400,6.272357421875,-0.973602294921875,-0.2096099853515625,-0.0862579345703125
1782951220909283600,6.28228369140625,-0.9755859375,-0.21063232421875,-0.0811309814453125
1782951220919210500,6.29221044921875,-0.9773712158203125,-0.209991455078125,-0.079833984375
1782951220929137400,6.302137451171875,-0.985687255859375,-0.206573486328125,-0.0780029296875
1782951220939064600,6.312064697265625,-0.990814208984375,-0.2043304443359375,-0.077484130859375
1782951220948990500,6.321990478515625,-0.991302490234375,-0.2046051025390625,-0.075775146484375
1782951220958917600,6.331917724609375,-0.9875946044921875,-0.20452880859375,-0.0735321044921875
1782951220968844300,6.34184423828125,-0.985260009765625,-0.2022247314453125,-0.0707244873046875
1782951220978771500,6.351771484375,-0.9799957275390625,-0.199951171875,-0.0729217529296875
1782951220988698400,6.361698486328125,-0.9665679931640625,-0.202056884765625,-0.0718841552734375
1782951220998624500,6.37162451171875,-0.9580230712890625,-0.203216552734375,-0.0669708251953125
1782951221008551700,6.3815517578125,-0.95355224609375,-0.202545166015625,-0.065948486328125
1782951221018478600,6.391478515625,-0.955078125,-0.201324462890625,-0.067138671875
1782951221028405500,6.401405517578125,-0.96136474609375,-0.2032928466796875,-0.0678558349609375
1782951221038332400,6.41133251953125,-0.9702606201171875,-0.2044677734375,-0.0684814453125
1782951221048258600,6.421258544921875,-0.9735565185546875,-0.203155517578125,-0.0709381103515625
1782951221058185500,6.431185546875,-0.9765777587890625,-0.20697021484375,-0.0751190185546875
1782951221068112600,6.441112548828125,-0.97845458984375,-0.2100830078125,-0.078399658203125
1782951221078039600,6.45103955078125,-0.9809417724609375,-0.21417236328125,-0.0841064453125
1782951221087966500,6.460966552734375,-0.9832000732421875,-0.214813232421875,-0.085662841796875
1782951221097892600,6.470892578125,-0.982818603515625,-0.2129058837890625,-0.0828094482421875
1782951221107819500,6.480819580078125,-0.985198974609375,-0.2132568359375,-0.0790252685546875
1782951221117746700,6.49074658203125,-0.98809814453125,-0.208251953125,-0.07122802734375
1782951221127673600,6.500673583984375,-0.985595703125,-0.2038421630859375,-0.0682830810546875
1782951221137599500,6.510599609375,-0.976348876953125,-0.203948974609375,-0.0671844482421875
1782951221147526400,6.5205263671875,-0.9649200439453125,-0.205230712890625,-0.0659942626953125
1782951221157453600,6.53045361328125,-0.9578094482421875,-0.204010009765625,-0.068939208984375
1782951221167380500,6.54038037109375,-0.9534759521484375,-0.2027740478515625,-0.071563720703125
1782951221177307600,6.5503076171875,-0.9508514404296875,-0.2015533447265625,-0.070556640625
1782951221187233500,6.560233642578125,-0.9576873779296875,-0.1983795166015625,-0.0685882568359375
1782951221197160400,6.570160400390625,-0.97003173828125,-0.1974945068359375,-0.068603515625
1782951221207087600,6.580087646484375,-0.9830474853515625,-0.198486328125,-0.072601318359375
1782951221217014500,6.5900146484375,-0.9879302978515625,-0.1995391845703125,-0.0737762451171875
1782951221226941700,6.599941650390625,-0.98980712890625,-0.2028045654296875,-0.0738067626953125
1782951221236867300,6.609867431640625,-1.0000152587890625,-0.20416259765625,-0.0732574462890625
1782951221246794500,6.61979443359375,-0.985687255859375,-0.204345703125,-0.077117919921875
1782951221256721400,6.629721435546875,-0.9669647216796875,-0.208831787109375,-0.07080078125
1782951221266648600,6.639648681640625,-0.9574737548828125,-0.21087646484375,-0.0658416748046875
1782951221276574700,6.64957470703125,-0.951629638671875,-0.211822509765625,-0.07525634765625
1782951221286501600,6.659501708984375,-0.9564361572265625,-0.2129974365234375,-0.081146240234375
1782951221296428500,6.669428466796875,-0.96990966796875,-0.20989990234375,-0.08441162109375
1782951221306355500,6.67935546875,-0.9760284423828125,-0.2064666748046875,-0.0855712890625
1782951221316282600,6.68928271484375,-0.9749755859375,-0.2046966552734375,-0.0834808349609375
1782951221326208500,6.69920849609375,-0.966278076171875,-0.203216552734375,-0.0774688720703125
1782951221336135700,6.7091357421875,-0.9567718505859375,-0.20855712890625,-0.0723114013671875
1782951221346062300,6.719062255859375,-0.9589385986328125,-0.2085113525390625,-0.06829833984375
1782951221355989500,6.728989501953125,-0.9707794189453125,-0.20770263671875,-0.07135009765625
1782951221365916400,6.73891650390625,-0.9833831787109375,-0.2071380615234375,-0.0737152099609375
1782951221375842600,6.748842529296875,-0.9871368408203125,-0.2041168212890625,-0.0748443603515625
1782951221385769700,6.758769775390625,-0.988189697265625,-0.19970703125,-0.0751190185546875
1782951221395696600,6.768696533203125,-0.9832305908203125,-0.20013427734375,-0.0745849609375
1782951221405623600,6.77862353515625,-0.9709014892578125,-0.202972412109375,-0.0746002197265625
1782951221415550500,6.788550537109375,-0.9590911865234375,-0.2047119140625,-0.071136474609375
1782951221425476600,6.7984765625,-0.955230712890625,-0.2058258056640625,-0.06512451171875
1782951221435403500,6.808403564453125,-0.95794677734375,-0.207427978515625,-0.063934326171875
1782951221445330700,6.81833056640625,-0.967620849609375,-0.2064056396484375,-0.06463623046875
1782951221455257300,6.82825732421875,-0.9809417724609375,-0.2086029052734375,-0.0643768310546875
1782951221465184500,6.8381845703125,-0.99298095703125,-0.2099761962890625,-0.0685882568359375
1782951221475110700,6.848110595703125,-0.996856689453125,-0.20721435546875,-0.071624755859375
1782951221485037600,6.85803759765625,-0.9962310791015625,-0.2077484130859375,-0.0693359375
1782951221494964500,6.867964599609375,-0.98828125,-0.209930419921875,-0.0702362060546875
1782951221504891600,6.8778916015625,-0.98114013671875,-0.2111053466796875,-0.066680908203125
1782951221514817500,6.887817626953125,-0.9792022705078125,-0.2119293212890625,-0.06378173828125
1782951221524744400,6.897744384765625,-0.982086181640625,-0.21112060546875,-0.0667572021484375
1782951221534671600,6.907671630859375,-0.9769134521484375,-0.2121124267578125,-0.0761260986328125
1782951221544598500,6.9175986328125,-0.9615478515625,-0.2087554931640625,-0.077606201171875
1782951221554525700,6.927525634765625,-0.94549560546875,-0.2100677490234375,-0.080322265625
1782951221564451600,6.93745166015625,-0.93853759765625,-0.213897705078125,-0.0785980224609375
1782951221574378500,6.94737841796875,-0.941253662109375,-0.21588134765625,-0.07427978515625
1782951221584305400,6.957305419921875,-0.9531402587890625,-0.2173309326171875,-0.0763092041015625
1782951221594232600,6.967232666015625,-0.9741973876953125,-0.216949462890625,-0.0792083740234375
1782951221604159500,6.977159423828125,-0.994415283203125,-0.2133331298828125,-0.0848541259765625
1782951221614085400,6.98708544921875,-1.0030059814453125,-0.2093048095703125,-0.0863494873046875
1782951221624012500,6.997012451171875,-0.9976348876953125,-0.2129974365234375,-0.0804901123046875
1782951221633939500,7.006939453125,-0.98577880859375,-0.2152862548828125,-0.075836181640625
1782951221643866600,7.01686669921875,-0.974517822265625,-0.2155303955078125,-0.072418212890625
1782951221653793500,7.02679345703125,-0.96478271484375,-0.214569091796875,-0.0713958740234375
1782951221663719400,7.036719482421875,-0.9568939208984375,-0.213714599609375,-0.072662353515625
1782951221673646300,7.046646240234375,-0.957733154296875,-0.2100830078125,-0.07244873046875
1782951221683573500,7.056573486328125,-0.9639129638671875,-0.20294189453125,-0.0700531005859375
1782951221693500400,7.06650048828125,-0.96893310546875,-0.198944091796875,-0.0712738037109375
1782951221703426600,7.076426513671875,-0.972381591796875,-0.2002105712890625,-0.0681915283203125
1782951221713353700,7.086353759765625,-0.9729156494140625,-0.2023468017578125,-0.066162109375
1782951221723280400,7.0962802734375,-0.97357177734375,-0.205291748046875,-0.064117431640625
1782951221733207600,7.10620751953125,-0.9765777587890625,-0.2057952880859375,-0.06658935546875
1782951221743134500,7.116134521484375,-0.9861297607421875,-0.2052154541015625,-0.0694732666015625
1782951221753060600,7.126060546875,-0.99932861328125,-0.2020416259765625,-0.0701904296875
1782951221762987500,7.135987548828125,-1.0009613037109375,-0.19842529296875,-0.0739593505859375
1782951221772914400,7.14591455078125,-0.9879608154296875,-0.2000579833984375,-0.0718231201171875
1782951221782841300,7.15584130859375,-0.9690704345703125,-0.20556640625,-0.0707550048828125
1782951221792768500,7.1657685546875,-0.9536590576171875,-0.2112274169921875,-0.0755615234375
1782951221802694700,7.175694580078125,-0.9457244873046875,-0.212860107421875,-0.07586669921875
1782951221812621600,7.18562158203125,-0.944305419921875,-0.2112884521484375,-0.0746612548828125
1782951221822548700,7.195548828125,-0.9538116455078125,-0.2103729248046875,-0.0758209228515625
1782951221832475400,7.205475341796875,-0.96636962890625,-0.2081451416015625,-0.076568603515625
1782951221842401500,7.215401611328125,-0.979034423828125,-0.2071380615234375,-0.0774383544921875
1782951221852328400,7.225328369140625,-0.9812469482421875,-0.20599365234375,-0.0776519775390625
1782951221862255600,7.235255615234375,-0.983062744140625,-0.20770263671875,-0.0753173828125
1782951221872182500,7.2451826171875,-0.9803619384765625,-0.2103424072265625,-0.072357177734375
1782951221882109700,7.255109619140625,-0.9714813232421875,-0.212371826171875,-0.068084716796875
1782951221892035600,7.26503564453125,-0.9648590087890625,-0.212890625,-0.0678558349609375
1782951221901962500,7.27496240234375,-0.9665069580078125,-0.214935302734375,-0.0698394775390625
1782951221911889700,7.2848896484375,-0.9755859375,-0.21636962890625,-0.0741729736328125
1782951221921816600,7.294816650390625,-0.982177734375,-0.21435546875,-0.077056884765625
1782951221931743700,7.30474365234375,-0.98480224609375,-0.2115478515625,-0.0789031982421875
1782951221941669400,7.31466943359375,-0.9779052734375,-0.20941162109375,-0.0775146484375
1782951221951596500,7.324596435546875,-0.97344970703125,-0.2104034423828125,-0.0749053955078125
1782951221961523500,7.3345234375,-0.9756317138671875,-0.2126922607421875,-0.0726318359375
1782951221971450600,7.34445068359375,-0.97589111328125,-0.2099151611328125,-0.074127197265625
1782951221981377500,7.35437744140625,-0.9620513916015625,-0.21240234375,-0.0805206298828125
1782951221991303400,7.364303466796875,-0.950714111328125,-0.2183074951171875,-0.0741119384765625
1782951222001230600,7.374230712890625,-0.9464874267578125,-0.2202301025390625,-0.073516845703125
1782951222011157500,7.384157470703125,-0.95135498046875,-0.2149200439453125,-0.076629638671875
1782951222021084700,7.394084716796875,-0.96343994140625,-0.2129058837890625,-0.075897216796875
1782951222031011600,7.404011474609375,-0.9774169921875,-0.209075927734375,-0.07568359375
1782951222040937500,7.4139375,-0.9833984375,-0.208648681640625,-0.081451416015625
1782951222050864400,7.423864501953125,-0.9901885986328125,-0.210357666015625,-0.0832061767578125
1782951222060791600,7.43379150390625,-0.98974609375,-0.212493896484375,-0.081939697265625
1782951222070718500,7.443718505859375,-0.9870147705078125,-0.2116241455078125,-0.0799102783203125
1782951222080644600,7.45364453125,-0.9749908447265625,-0.208038330078125,-0.076629638671875
1782951222090571500,7.463571533203125,-0.9600677490234375,-0.2071075439453125,-0.0712127685546875
1782951222100498400,7.47349853515625,-0.9507293701171875,-0.2065277099609375,-0.0649261474609375
1782951222110425600,7.483425537109375,-0.94989013671875,-0.206268310546875,-0.062652587890625
1782951222120352500,7.4933525390625,-0.9577484130859375,-0.210906982421875,-0.0622406005859375
1782951222130278700,7.503278564453125,-0.9732208251953125,-0.2126312255859375,-0.0693359375
1782951222140205600,7.51320556640625,-0.9812774658203125,-0.20880126953125,-0.0753173828125
1782951222150132500,7.523132568359375,-0.9801177978515625,-0.2029876708984375,-0.0755767822265625
1782951222160059400,7.533059326171875,-0.9818878173828125,-0.2096710205078125,-0.08050537109375
1782951222169986600,7.542986572265625,-0.9785919189453125,-0.21124267578125,-0.07818603515625
1782951222179912400,7.552912353515625,-0.9726715087890625,-0.2098541259765625,-0.0760345458984375
1782951222189839600,7.562839599609375,-0.9642333984375,-0.2096099853515625,-0.071441650390625
1782951222199766500,7.5727666015625,-0.9620361328125,-0.2075042724609375,-0.06744384765625
1782951222209693400,7.582693359375,-0.972564697265625,-0.2046356201171875,-0.0671844482421875
1782951222219620400,7.592620361328125,-0.99053955078125,-0.20587158203125,-0.0697784423828125
1782951222229546500,7.60254638671875,-0.998046875,-0.204681396484375,-0.072418212890625
1782951222239473700,7.6124736328125,-0.9904632568359375,-0.2058563232421875,-0.0686798095703125
1782951222249400600,7.622400634765625,-0.97821044921875,-0.2106170654296875,-0.0668792724609375
1782951222259327500,7.632327392578125,-0.9666900634765625,-0.2103729248046875,-0.0683441162109375
1782951222269253400,7.64225341796875,-0.9632415771484375,-0.2144317626953125,-0.0654754638671875
1782951222279180500,7.6521806640625,-0.9749603271484375,-0.2161407470703125,-0.0635223388671875
1782951222289107500,7.662107421875,-0.9883270263671875,-0.2116241455078125,-0.0692596435546875
1782951222299034600,7.67203466796875,-0.98931884765625,-0.2067718505859375,-0.0749664306640625
1782951222308961500,7.68196142578125,-0.98309326171875,-0.20562744140625,-0.08087158203125
1782951222318887400,7.691887451171875,-0.9742889404296875,-0.21246337890625,-0.083099365234375
1782951222328814600,7.701814697265625,-0.9616546630859375,-0.21600341796875,-0.08056640625
1782951222338741500,7.711741455078125,-0.9544219970703125,-0.2159271240234375,-0.0789947509765625
1782951222348668700,7.721668701171875,-0.9581451416015625,-0.2170257568359375,-0.074920654296875
1782951222358595600,7.731595703125,-0.9613800048828125,-0.215362548828125,-0.0738067626953125
1782951222368521500,7.741521484375,-0.9625701904296875,-0.2108306884765625,-0.075286865234375
1782951222378448400,7.751448486328125,-0.965972900390625,-0.211761474609375,-0.0770416259765625
1782951222388375600,7.76137548828125,-0.9713592529296875,-0.2139739990234375,-0.0794219970703125
1782951222398302500,7.771302490234375,-0.9710693359375,-0.2164306640625,-0.0796051025390625
1782951222408228600,7.781228515625,-0.9661865234375,-0.2137908935546875,-0.0839080810546875
1782951222418155500,7.791155517578125,-0.96710205078125,-0.2112884521484375,-0.094818115234375
1782951222428082400,7.80108251953125,-0.963958740234375,-0.2168426513671875,-0.091033935546875
1782951222438009600,7.811009521484375,-0.9612884521484375,-0.217681884765625,-0.090667724609375
1782951222447936500,7.8209365234375,-0.9632110595703125,-0.2171173095703125,-0.089996337890625
1782951222457862700,7.830862548828125,-0.967254638671875,-0.21124267578125,-0.0821685791015625
1782951222467789300,7.840789306640625,-0.9698333740234375,-0.20660400390625,-0.0790252685546875
1782951222477716500,7.850716552734375,-0.976806640625,-0.2073974609375,-0.07666015625
1782951222487643400,7.860643310546875,-0.9785614013671875,-0.2052154541015625,-0.070953369140625
1782951222497570600,7.870570556640625,-0.975799560546875,-0.204986572265625,-0.0698394775390625
1782951222507496700,7.88049658203125,-0.9706878662109375,-0.207061767578125,-0.0691986083984375
1782951222517423600,7.890423583984375,-0.9704742431640625,-0.20745849609375,-0.070556640625
1782951222527350500,7.9003505859375,-0.971710205078125,-0.2056884765625,-0.071929931640625
1782951222537277400,7.91027734375,-0.983306884765625,-0.2051544189453125,-0.070281982421875
1782951222547204600,7.92020458984375,-0.9902496337890625,-0.20166015625,-0.06866455078125
1782951222557130500,7.930130615234375,-0.9909210205078125,-0.2011566162109375,-0.0694732666015625
1782951222567057700,7.9400576171875,-0.9881439208984375,-0.202850341796875,-0.06622314453125
1782951222576984600,7.949984619140625,-0.986846923828125,-0.2034759521484375,-0.0677032470703125
1782951222586911500,7.959911376953125,-0.9853973388671875,-0.2044677734375,-0.0710296630859375
1782951222596838400,7.96983837890625,-0.977447509765625,-0.208038330078125,-0.0756683349609375
1782951222606764500,7.9797646484375,-0.9691009521484375,-0.2100982666015625,-0.074462890625
1782951222616691700,7.989691650390625,-0.9614410400390625,-0.21002197265625,-0.0746307373046875
1782951222626618600,7.99961865234375,-0.9571685791015625,-0.2079315185546875,-0.0735015869140625
1782951222636545500,8.009545654296875,-0.9593963623046875,-0.207305908203125,-0.0733184814453125
1782951222646471400,8.019471435546874,-0.958740234375,-0.21160888671875,-0.0771331787109375
1782951222656398600,8.029398681640625,-0.965850830078125,-0.2175140380859375,-0.0833282470703125
1782951222666325500,8.039325439453124,-0.97845458984375,-0.2161407470703125,-0.089813232421875
1782951222676252700,8.049252685546875,-0.980194091796875,-0.2158966064453125,-0.095245361328125
1782951222686179600,8.0591796875,-0.9700469970703125,-0.21466064453125,-0.092803955078125
1782951222696105500,8.06910546875,-0.9608917236328125,-0.216583251953125,-0.085052490234375
1782951222706032600,8.07903271484375,-0.9589996337890625,-0.212554931640625,-0.0794830322265625
1782951222715959600,8.08895947265625,-0.9680023193359375,-0.2088470458984375,-0.07427978515625
1782951222725886500,8.098886474609374,-0.9799957275390625,-0.208740234375,-0.0711822509765625
1782951222735812900,8.108812744140625,-0.9865570068359375,-0.2095184326171875,-0.0710296630859375
1782951222745739000,8.118739013671876,-0.9929351806640625,-0.2097625732421875,-0.07275390625
1782951222755666000,8.128666015625,-0.989105224609375,-0.2088165283203125,-0.0725555419921875
1782951222765592800,8.1385927734375,-0.9732208251953125,-0.209747314453125,-0.06964111328125
1782951222775519700,8.148519775390625,-0.95867919921875,-0.21197509765625,-0.066375732421875
1782951222785447000,8.158447021484376,-0.9521484375,-0.2146453857421875,-0.0670318603515625
1782951222795373000,8.168373046875,-0.956146240234375,-0.213287353515625,-0.070526123046875
1782951222805300000,8.178300048828126,-0.9666290283203125,-0.2132720947265625,-0.0716552734375
1782951222815227000,8.188226806640625,-0.977203369140625,-0.2142791748046875,-0.0730133056640625
1782951222825153800,8.19815380859375,-0.98370361328125,-0.21319580078125,-0.0740814208984375
1782951222835080000,8.208079833984375,-0.982696533203125,-0.2139129638671875,-0.07958984375
1782951222845006800,8.2180068359375,-0.9734649658203125,-0.2170257568359375,-0.082916259765625
1782951222854934000,8.22793408203125,-0.969635009765625,-0.21868896484375,-0.084136962890625
1782951222864861000,8.23786083984375,-0.9703369140625,-0.21710205078125,-0.0871734619140625
1782951222874787800,8.247787841796875,-0.9670562744140625,-0.2109375,-0.0892486572265625
1782951222884714000,8.2577138671875,-0.95770263671875,-0.210845947265625,-0.0861053466796875
1782951222894641000,8.267640869140624,-0.95751953125,-0.216461181640625,-0.0766143798828125
1782951222904568000,8.277568115234375,-0.9719085693359375,-0.2182159423828125,-0.073028564453125
1782951222914495000,8.287494873046874,-0.988525390625,-0.2122650146484375,-0.0779266357421875
1782951222924422000,8.297421875,-0.989776611328125,-0.2098541259765625,-0.084381103515625
1782951222934347800,8.30734765625,-0.9796600341796875,-0.2136383056640625,-0.079010009765625
1782951222944275000,8.31727490234375,-0.977294921875,-0.2169342041015625,-0.0772857666015625
1782951222954201900,8.327201904296874,-0.974273681640625,-0.211639404296875,-0.08026123046875
1782951222964129000,8.33712890625,-0.960205078125,-0.208526611328125,-0.078216552734375
1782951222974055000,8.347054931640624,-0.945404052734375,-0.2100830078125,-0.07061767578125
1782951222983981800,8.35698193359375,-0.941619873046875,-0.2155303955078125,-0.066070556640625
1782951222993909800,8.36690966796875,-0.952423095703125,-0.212493896484375,-0.07122802734375
1782951223003837000,8.3768369140625,-0.965118408203125,-0.210540771484375,-0.077972412109375
1782951223013763800,8.386763916015624,-0.97100830078125,-0.2105712890625,-0.0790557861328125
1782951223023690000,8.39668994140625,-0.9765625,-0.21337890625,-0.069915771484375
1782951223033617000,8.406616943359374,-0.9870147705078125,-0.2096405029296875,-0.0699005126953125
1782951223043543800,8.416543701171875,-0.993072509765625,-0.2069244384765625,-0.0757293701171875
1782951223053471000,8.426470947265624,-0.9949493408203125,-0.21124267578125,-0.073089599609375
1782951223063396900,8.43639697265625,-0.99688720703125,-0.2168426513671875,-0.068634033203125
1782951223073324000,8.446323974609374,-0.9993133544921875,-0.2183685302734375,-0.075103759765625
1782951223083251000,8.4562509765625,-0.98956298828125,-0.2158203125,-0.081329345703125
1782951223093177900,8.466177734375,-0.9704132080078125,-0.2173309326171875,-0.08306884765625
1782951223103104800,8.476104736328125,-0.9510650634765625,-0.21746826171875,-0.081390380859375
1782951223113031000,8.486031005859376,-0.9432220458984375,-0.2186737060546875,-0.07879638671875
1782951223122957800,8.495957763671875,-0.94305419921875,-0.217559814453125,-0.08099365234375
1782951223132885000,8.505885009765626,-0.9471588134765625,-0.2208251953125,-0.0825042724609375
1782951223142812000,8.51581201171875,-0.9523162841796875,-0.2258148193359375,-0.0782318115234375
1782951223152738800,8.52573876953125,-0.9613494873046875,-0.224090576171875,-0.0798187255859375
1782951223162665000,8.5356650390625,-0.9717864990234375,-0.222930908203125,-0.0832366943359375
1782951223172591900,8.545591796875,-0.9856414794921875,-0.2188873291015625,-0.0803680419921875
1782951223182519000,8.55551904296875,-0.987396240234375,-0.2144012451171875,-0.078826904296875
1782951223192446000,8.565446044921876,-0.98175048828125,-0.2143707275390625,-0.075714111328125
1782951223202372900,8.575372802734375,-0.9804840087890625,-0.2131805419921875,-0.068603515625
1782951223212298800,8.585298828125,-0.9759368896484375,-0.2100677490234375,-0.0667724609375
1782951223222226000,8.595225830078125,-0.9695281982421875,-0.20965576171875,-0.0702362060546875
1782951223232152800,8.60515283203125,-0.9688568115234375,-0.2122650146484375,-0.07196044921875
1782951223242080000,8.615080078125,-0.9683837890625,-0.2121734619140625,-0.07275390625
1782951223252006000,8.625005859375,-0.9682159423828125,-0.21136474609375,-0.0758514404296875
1782951223261932800,8.634932861328124,-0.9695892333984375,-0.211669921875,-0.0754852294921875
1782951223271860000,8.64485986328125,-0.9711456298828125,-0.2128448486328125,-0.0729522705078125
1782951223281787000,8.654786865234374,-0.9710235595703125,-0.212677001953125,-0.0729217529296875
1782951223291714000,8.664714111328125,-0.9621734619140625,-0.2162628173828125,-0.0733489990234375
1782951223301639700,8.6746396484375,-0.9586334228515625,-0.2218475341796875,-0.07275390625
1782951223311566800,8.68456689453125,-0.9640655517578125,-0.2248992919921875,-0.077789306640625
1782951223321493800,8.69449365234375,-0.9716339111328125,-0.2221527099609375,-0.0879058837890625
1782951223331421000,8.7044208984375,-0.975341796875,-0.2251739501953125,-0.0968017578125
1782951223341347800,8.714347900390624,-0.97955322265625,-0.229644775390625,-0.099334716796875
1782951223351274000,8.72427392578125,-0.9781036376953125,-0.2273406982421875,-0.096435546875
1782951223361201000,8.734200927734374,-0.9736480712890625,-0.2241058349609375,-0.0909423828125
1782951223371127800,8.7441279296875,-0.9727325439453125,-0.2252960205078125,-0.081878662109375
1782951223381055000,8.754054931640624,-0.9761962890625,-0.2226409912109375,-0.0775604248046875
1782951223390982000,8.76398193359375,-0.9800262451171875,-0.2162628173828125,-0.0778961181640625
1782951223400908000,8.773907958984376,-0.9796295166015625,-0.213623046875,-0.0766143798828125
1782951223410834700,8.783834716796875,-0.9753570556640625,-0.2149200439453125,-0.076385498046875
1782951223420761900,8.793761962890626,-0.969940185546875,-0.21563720703125,-0.07733154296875
1782951223430688800,8.803688720703125,-0.9639129638671875,-0.216278076171875,-0.0757598876953125
1782951223440615000,8.813614990234376,-0.9620819091796875,-0.216217041015625,-0.074981689453125
1782951223450542000,8.8235419921875,-0.9620208740234375,-0.21832275390625,-0.0769805908203125
1782951223460469000,8.833468994140626,-0.962860107421875,-0.219024658203125,-0.07269287109375
1782951223470396000,8.84339599609375,-0.962860107421875,-0.2189483642578125,-0.0699462890625
1782951223480322800,8.85332275390625,-0.9639739990234375,-0.2174224853515625,-0.0695648193359375
1782951223490249000,8.8632490234375,-0.9658355712890625,-0.2156524658203125,-0.0728607177734375
1782951223500176000,8.87317578125,-0.963592529296875,-0.218048095703125,-0.0765380859375
1782951223510103000,8.88310302734375,-0.96392822265625,-0.2232208251953125,-0.0758209228515625
1782951223520029700,8.89302978515625,-0.9677581787109375,-0.2267913818359375,-0.0773773193359375
1782951223529956900,8.902956787109375,-0.97894287109375,-0.2261505126953125,-0.08038330078125
1782951223539883000,8.912883056640625,-0.99053955078125,-0.224700927734375,-0.0841064453125
1782951223549810000,8.922809814453124,-0.992950439453125,-0.22357177734375,-0.0859527587890625
1782951223559737000,8.932737060546875,-0.98687744140625,-0.2254791259765625,-0.0809173583984375
1782951223569664000,8.9426640625,-0.9744873046875,-0.22760009765625,-0.078704833984375
1782951223579591000,8.9525908203125,-0.96759033203125,-0.2265472412109375,-0.0758819580078125
1782951223589516800,8.962516845703124,-0.9639892578125,-0.2257232666015625,-0.075103759765625
1782951223599444000,8.97244384765625,-0.961395263671875,-0.220672607421875,-0.07769775390625
1782951223609371000,8.982370849609374,-0.961944580078125,-0.2164764404296875,-0.0784912109375
1782951223619298000,8.992298095703125,-0.959869384765625,-0.2166595458984375,-0.073699951171875
1782951223629224000,9.002223876953124,-0.958892822265625,-0.2162933349609375,-0.06805419921875
1782951223639150800,9.01215087890625,-0.95745849609375,-0.215789794921875,-0.0651397705078125
1782951223649078000,9.022078125,-0.9577484130859375,-0.216705322265625,-0.06585693359375
1782951223659005000,9.0320048828125,-0.962158203125,-0.21661376953125,-0.075927734375
1782951223668931800,9.041931884765624,-0.9695892333984375,-0.2194976806640625,-0.0823211669921875
1782951223678857700,9.051857666015625,-0.9750823974609375,-0.2213287353515625,-0.088226318359375
1782951223688785000,9.061784912109376,-0.9748382568359375,-0.2221527099609375,-0.0889434814453125
1782951223698711800,9.0717119140625,-0.9696807861328125,-0.2250213623046875,-0.085845947265625
1782951223708639000,9.081638916015624,-0.964141845703125,-0.2289581298828125,-0.081390380859375
1782951223718566000,9.09156591796875,-0.963897705078125,-0.2303466796875,-0.0789031982421875
1782951223728491800,9.10149169921875,-0.9701995849609375,-0.2298736572265625,-0.077056884765625
1782951223738419200,9.111419189453125,-0.9735565185546875,-0.2267608642578125,-0.0758056640625
1782951223748346400,9.121346435546876,-0.978240966796875,-0.2283935546875,-0.0752716064453125
1782951223758273300,9.131273193359375,-0.983795166015625,-0.2264251708984375,-0.0778350830078125
1782951223768200200,9.1412001953125,-0.9878387451171875,-0.223602294921875,-0.08001708984375
1782951223778126300,9.151126220703125,-0.9831695556640625,-0.2185516357421875,-0.08148193359375
1782951223788053200,9.16105322265625,-0.973846435546875,-0.2203216552734375,-0.0793304443359375
1782951223797980400,9.17098046875,-0.9600677490234375,-0.220703125,-0.073944091796875
1782951223807907300,9.1809072265625,-0.9434051513671875,-0.2196197509765625,-0.068756103515625
1782951223817834500,9.19083447265625,-0.937164306640625,-0.220977783203125,-0.0626220703125
1782951223827760000,9.200760009765625,-0.9421539306640625,-0.2185516357421875,-0.0642547607421875
1782951223837687300,9.210687255859375,-0.9541778564453125,-0.2161407470703125,-0.0682373046875
1782951223847614200,9.2206142578125,-0.965362548828125,-0.2168731689453125,-0.0738983154296875
1782951223857541400,9.230541259765625,-0.9714508056640625,-0.2191314697265625,-0.0761260986328125
1782951223867467300,9.24046728515625,-0.978668212890625,-0.2226715087890625,-0.0788116455078125
1782951223877394200,9.250394287109375,-0.978485107421875,-0.224853515625,-0.0795440673828125
1782951223887321300,9.2603212890625,-0.978118896484375,-0.2251434326171875,-0.0777435302734375
1782951223897248300,9.270248291015625,-0.9779205322265625,-0.2287445068359375,-0.0767059326171875
1782951223907175400,9.280175537109375,-0.9802703857421875,-0.227142333984375,-0.0765380859375
1782951223917101300,9.290101318359374,-0.9831085205078125,-0.22283935546875,-0.086273193359375
1782951223927028200,9.3000283203125,-0.974212646484375,-0.2219085693359375,-0.0909576416015625
1782951223936955100,9.309955078125,-0.958526611328125,-0.2238006591796875,-0.0861968994140625
1782951223946882300,9.31988232421875,-0.9449462890625,-0.2265625,-0.07958984375
1782951223956809200,9.329809326171874,-0.9409942626953125,-0.22711181640625,-0.0761566162109375
1782951223966735400,9.3397353515625,-0.9512786865234375,-0.22418212890625,-0.0769195556640625
1782951223976662300,9.349662353515624,-0.9649200439453125,-0.2223968505859375,-0.078704833984375
1782951223986589200,9.359589111328125,-0.9753875732421875,-0.2193145751953125,-0.0788116455078125
1782951223996516400,9.369516357421874,-0.98284912109375,-0.2221221923828125,-0.07574462890625
1782951224006443300,9.379443359375,-0.98468017578125,-0.221832275390625,-0.0742340087890625
1782951224016369400,9.389369384765626,-0.97796630859375,-0.2203216552734375,-0.075531005859375
1782951224026296300,9.39929638671875,-0.9664764404296875,-0.219207763671875,-0.07293701171875
1782951224036223200,9.40922314453125,-0.957916259765625,-0.217437744140625,-0.0715179443359375
1782951224046150100,9.419150146484375,-0.9504241943359375,-0.216705322265625,-0.0723724365234375
1782951224056076300,9.429076171875,-0.9496002197265625,-0.2156219482421875,-0.077056884765625
1782951224066003200,9.439003173828125,-0.950897216796875,-0.2174072265625,-0.080810546875
1782951224075930400,9.448930419921876,-0.954498291015625,-0.2198944091796875,-0.085235595703125
1782951224085857300,9.458857177734375,-0.9670562744140625,-0.22222900390625,-0.0871429443359375
1782951224095784200,9.4687841796875,-0.980560302734375,-0.2222900390625,-0.0885467529296875
1782951224105710300,9.47871044921875,-0.9999542236328125,-0.2230987548828125,-0.0912933349609375
1782951224115637200,9.48863720703125,-1.0079345703125,-0.2231903076171875,-0.0919342041015625
1782951224125564400,9.498564453125,-0.999176025390625,-0.2261199951171875,-0.09197998046875
1782951224135491300,9.5084912109375,-0.982330322265625,-0.2308807373046875,-0.08441162109375
1782951224145418200,9.518418212890625,-0.96820068359375,-0.2301025390625,-0.0785064697265625
1782951224155344100,9.52834423828125,-0.9563751220703125,-0.226287841796875,-0.0819091796875
1782951224165271300,9.538271240234375,-0.9507904052734375,-0.222900390625,-0.0816802978515625
1782951224175198200,9.5481982421875,-0.9518585205078125,-0.2235260009765625,-0.08270263671875
1782951224185125400,9.55812548828125,-0.952667236328125,-0.2240447998046875,-0.086669921875
1782951224195051300,9.56805126953125,-0.9545745849609375,-0.223785400390625,-0.082794189453125
1782951224204978200,9.577978271484374,-0.95880126953125,-0.2238311767578125,-0.0801849365234375
1782951224214905300,9.5879052734375,-0.969879150390625,-0.22021484375,-0.082855224609375
1782951224224832300,9.597832275390624,-0.9806060791015625,-0.2180938720703125,-0.081634521484375
1782951224234759400,9.607759521484375,-0.987762451171875,-0.215545654296875,-0.0771636962890625
1782951224244685000,9.61768505859375,-0.990081787109375,-0.2185516357421875,-0.074249267578125
1782951224254612200,9.6276123046875,-0.98516845703125,-0.21954345703125,-0.0725555419921875
1782951224264539100,9.6375390625,-0.976287841796875,-0.21929931640625,-0.0720062255859375
1782951224274466300,9.64746630859375,-0.967864990234375,-0.2220306396484375,-0.07183837890625
1782951224284393200,9.657393310546874,-0.96136474609375,-0.2203216552734375,-0.0711669921875
1782951224294319400,9.6673193359375,-0.95782470703125,-0.2208251953125,-0.0711212158203125
1782951224304246300,9.677246337890624,-0.9537353515625,-0.223052978515625,-0.0712127685546875
1782951224314173200,9.687173095703125,-0.95709228515625,-0.229705810546875,-0.07562255859375
1782951224324100400,9.697100341796874,-0.9663848876953125,-0.2321929931640625,-0.08349609375
1782951224334027300,9.70702734375,-0.9733428955078125,-0.23101806640625,-0.0912933349609375
1782951224343953400,9.716953369140626,-0.975372314453125,-0.229766845703125,-0.0930023193359375
1782951224353880000,9.726880126953125,-0.9736175537109375,-0.2310333251953125,-0.08831787109375
1782951224363807200,9.73680712890625,-0.971527099609375,-0.230133056640625,-0.08294677734375
1782951224373734100,9.746734130859375,-0.9662628173828125,-0.22711181640625,-0.078155517578125
1782951224383660300,9.756660400390626,-0.961669921875,-0.2264862060546875,-0.069793701171875
1782951224393587500,9.76658740234375,-0.958251953125,-0.2224578857421875,-0.0644378662109375
1782951224403514400,9.776514404296876,-0.9577789306640625,-0.2156524658203125,-0.065887451171875
1782951224413441300,9.786441162109375,-0.9604644775390625,-0.2122344970703125,-0.072479248046875
1782951224423368200,9.7963681640625,-0.96337890625,-0.21185302734375,-0.0752105712890625
1782951224433294300,9.80629443359375,-0.97021484375,-0.212982177734375,-0.0769500732421875
1782951224443221200,9.81622119140625,-0.9732208251953125,-0.212371826171875,-0.076202392578125
1782951224453148400,9.8261484375,-0.9798583984375,-0.2102508544921875,-0.072509765625
1782951224463075000,9.836074951171875,-0.98699951171875,-0.2076873779296875,-0.0648651123046875
1782951224473002200,9.846002197265625,-0.9818267822265625,-0.2080841064453125,-0.061553955078125
1782951224482928400,9.855928466796875,-0.9721832275390625,-0.2125244140625,-0.0612030029296875
1782951224492855300,9.865855224609374,-0.962432861328125,-0.21453857421875,-0.055755615234375
1782951224502782500,9.875782470703125,-0.955718994140625,-0.2155914306640625,-0.0600738525390625
1782951224512709400,9.88570947265625,-0.958282470703125,-0.2163543701171875,-0.0668487548828125
1782951224522636300,9.89563623046875,-0.966766357421875,-0.219146728515625,-0.0716552734375
1782951224532562200,9.905562255859374,-0.972991943359375,-0.222137451171875,-0.0788116455078125
1782951224542489300,9.9154892578125,-0.9736328125,-0.2282562255859375,-0.0775604248046875
1782951224552416300,9.925416259765624,-0.9729461669921875,-0.22967529296875,-0.0719146728515625
1782951224562343400,9.935343505859375,-0.9684295654296875,-0.2295989990234375,-0.0800933837890625
1782951224572270300,9.945270263671874,-0.963623046875,-0.227813720703125,-0.0776519775390625
1782951224582196200,9.9551962890625,-0.95904541015625,-0.2251739501953125,-0.0752410888671875
1782951224592123400,9.965123291015624,-0.962310791015625,-0.226531982421875,-0.0778961181640625
1782951224602050300,9.97505029296875,-0.9715118408203125,-0.2278289794921875,-0.0806732177734375
1782951224611977200,9.984977294921874,-0.9802093505859375,-0.2238006591796875,-0.082550048828125
1782951224621903000,9.994903076171875,-0.9840850830078125,-0.2177886962890625,-0.079132080078125
1782951224631830300,10.004830322265626,-0.9843292236328125,-0.2146453857421875,-0.07257080078125
1782951224641757200,10.014757080078125,-0.98040771484375,-0.2120819091796875,-0.066497802734375
1782951224651684400,10.024684326171876,-0.9725189208984375,-0.216400146484375,-0.06329345703125
1782951224661611300,10.034611328125,-0.970550537109375,-0.2194061279296875,-0.0608673095703125
1782951224671537200,10.044537109375,-0.9801483154296875,-0.216033935546875,-0.064544677734375
1782951224681464300,10.05446435546875,-0.9842987060546875,-0.211181640625,-0.073486328125
1782951224691391200,10.06439111328125,-0.9771575927734375,-0.2097930908203125,-0.07720947265625
1782951224701318100,10.074318115234375,-0.9602203369140625,-0.2164459228515625,-0.0721435546875
1782951224711245300,10.084245361328126,-0.943511962890625,-0.2223052978515625,-0.0656280517578125
1782951224721171500,10.09417138671875,-0.9365692138671875,-0.224273681640625,-0.065460205078125
1782951224731098000,10.10409814453125,-0.9445037841796875,-0.2236328125,-0.06884765625
1782951224741025300,10.114025390625,-0.961151123046875,-0.2235870361328125,-0.0747833251953125
1782951224750952200,10.1239521484375,-0.9816131591796875,-0.2216033935546875,-0.0782470703125
1782951224760878300,10.13387841796875,-0.99554443359375,-0.2205352783203125,-0.0802459716796875
1782951224770805200,10.14380517578125,-1.00054931640625,-0.21795654296875,-0.0803985595703125
1782951224780732400,10.153732421875,-0.99371337890625,-0.219482421875,-0.079193115234375
1782951224790659300,10.163659423828125,-0.9804534912109375,-0.219635009765625,-0.075836181640625
1782951224800586200,10.173586181640625,-0.966064453125,-0.2181549072265625,-0.0751190185546875
1782951224810512400,10.183512451171875,-0.958526611328125,-0.21820068359375,-0.0765380859375
1782951224820439300,10.193439208984374,-0.9587249755859375,-0.216583251953125,-0.0773773193359375
1782951224830366500,10.203366455078125,-0.96209716796875,-0.2172088623046875,-0.0787353515625
1782951224840293400,10.21329345703125,-0.9628753662109375,-0.21490478515625,-0.0781402587890625
1782951224850220300,10.22322021484375,-0.9653472900390625,-0.2175140380859375,-0.076324462890625
1782951224860146200,10.233146240234374,-0.9669189453125,-0.218170166015625,-0.0796661376953125
1782951224870073300,10.2430732421875,-0.96685791015625,-0.2193145751953125,-0.080078125
1782951224880000300,10.253000244140624,-0.967376708984375,-0.2217864990234375,-0.079071044921875
1782951224889927400,10.262927490234375,-0.9716033935546875,-0.220855712890625,-0.0802154541015625
1782951224899854300,10.272854248046874,-0.979522705078125,-0.2194366455078125,-0.07891845703125
1782951224909780200,10.2827802734375,-0.98382568359375,-0.2176971435546875,-0.079193115234375
1782951224919707400,10.292707275390624,-0.98468017578125,-0.217193603515625,-0.07977294921875
1782951224929634300,10.30263427734375,-0.9820709228515625,-0.2158355712890625,-0.07501220703125
1782951224939561500,10.3125615234375,-0.9752197265625,-0.2166595458984375,-0.0732421875
1782951224949488400,10.32248828125,-0.9669952392578125,-0.2167205810546875,-0.073028564453125
1782951224959414300,10.332414306640626,-0.960479736328125,-0.21588134765625,-0.07177734375
1782951224969341200,10.342341064453125,-0.9587249755859375,-0.217376708984375,-0.0733184814453125
1782951224979268400,10.352268310546876,-0.9622955322265625,-0.21923828125,-0.076690673828125
1782951224989195300,10.3621953125,-0.968841552734375,-0.2176971435546875,-0.0777435302734375
1782951224999121400,10.372121337890626,-0.9777984619140625,-0.21533203125,-0.0772857666015625
1782951225009048300,10.38204833984375,-0.980316162109375,-0.2151641845703125,-0.0770416259765625
1782951225018975200,10.391975341796876,-0.9780731201171875,-0.2152099609375,-0.076751708984375
1782951225028902400,10.40190234375,-0.9718170166015625,-0.218231201171875,-0.0743560791015625
1782951225038829300,10.411829345703126,-0.96417236328125,-0.21923828125,-0.07598876953125
1782951225048755500,10.42175537109375,-0.9597015380859375,-0.218170166015625,-0.0758209228515625
1782951225058682000,10.43168212890625,-0.95660400390625,-0.2176055908203125,-0.076904296875
1782951225068609300,10.441609375,-0.955841064453125,-0.22015380859375,-0.0767822265625
1782951225078536200,10.4515361328125,-0.9633636474609375,-0.221893310546875,-0.0727386474609375
1782951225088463400,10.46146337890625,-0.97430419921875,-0.217803955078125,-0.0759735107421875
1782951225098389500,10.471389404296875,-0.9790802001953125,-0.2153778076171875,-0.075408935546875
1782951225108316400,10.48131640625,-0.9767608642578125,-0.2154388427734375,-0.0732574462890625
1782951225118243300,10.491243408203125,-0.9749755859375,-0.217071533203125,-0.070709228515625
1782951225128170200,10.501170166015624,-0.9733734130859375,-0.2196807861328125,-0.0736236572265625
1782951225138096400,10.511096435546875,-0.9757080078125,-0.22064208984375,-0.0796966552734375
1782951225148023300,10.521023193359374,-0.9757080078125,-0.2208404541015625,-0.0823974609375
1782951225157950500,10.530950439453125,-0.97491455078125,-0.2194366455078125,-0.082183837890625
1782951225167877400,10.54087744140625,-0.968902587890625,-0.220428466796875,-0.0791015625
1782951225177804300,10.55080419921875,-0.9661407470703125,-0.218017578125,-0.0753021240234375
1782951225187730400,10.56073046875,-0.9620361328125,-0.2114410400390625,-0.0740509033203125
1782951225197657300,10.5706572265625,-0.9550323486328125,-0.2100830078125,-0.07281494140625
1782951225207584300,10.580584228515624,-0.9540557861328125,-0.212432861328125,-0.0711669921875
1782951225217511400,10.590511474609375,-0.9600372314453125,-0.214263916015625,-0.0735626220703125
1782951225227438300,10.600438232421874,-0.9708251953125,-0.2144317626953125,-0.071746826171875
1782951225237364200,10.6103642578125,-0.979400634765625,-0.21319580078125,-0.068359375
1782951225247291400,10.62029150390625,-0.9832000732421875,-0.2150115966796875,-0.067718505859375
1782951225257218300,10.63021826171875,-0.9907379150390625,-0.21673583984375,-0.0692596435546875
1782951225267145500,10.6401455078125,-0.9897003173828125,-0.214263916015625,-0.073974609375
1782951225277072400,10.650072265625,-0.98089599609375,-0.2158050537109375,-0.072723388671875
1782951225286998300,10.659998291015626,-0.96685791015625,-0.2160491943359375,-0.06982421875
1782951225296925200,10.66992529296875,-0.950775146484375,-0.216400146484375,-0.0686492919921875
1782951225306852400,10.679852294921876,-0.94189453125,-0.2176971435546875,-0.0679931640625
1782951225316779300,10.689779296875,-0.9439697265625,-0.2177581787109375,-0.068572998046875
1782951225326705200,10.699705078125,-0.955169677734375,-0.2181854248046875,-0.0729522705078125
1782951225336632300,10.70963232421875,-0.9697265625,-0.2186737060546875,-0.0738677978515625
1782951225346559200,10.719559326171876,-0.9835205078125,-0.2181854248046875,-0.073638916015625
1782951225356486400,10.729486328125,-0.990936279296875,-0.2162322998046875,-0.0721588134765625
1782951225366413300,10.739413330078126,-0.9962921142578125,-0.2165985107421875,-0.071441650390625
1782951225376339500,10.74933935546875,-0.9954833984375,-0.2198486328125,-0.0699615478515625
1782951225386266000,10.75926611328125,-0.99652099609375,-0.2205352783203125,-0.0713348388671875
1782951225396193300,10.769193359375,-0.9908447265625,-0.218231201171875,-0.0770721435546875
1782951225406120200,10.7791201171875,-0.976318359375,-0.2173919677734375,-0.0824737548828125
1782951225416047400,10.78904736328125,-0.960540771484375,-0.2200469970703125,-0.0777740478515625
1782951225425973500,10.798973388671875,-0.9465179443359375,-0.220001220703125,-0.0731201171875
1782951225435900200,10.808900146484374,-0.9410247802734375,-0.2180938720703125,-0.0733184814453125
1782951225445827300,10.818827392578125,-0.940765380859375,-0.21820068359375,-0.069732666015625
1782951225455754200,10.828754150390624,-0.9536590576171875,-0.2190399169921875,-0.0706329345703125
1782951225465681400,10.838681396484375,-0.9713592529296875,-0.21783447265625,-0.076690673828125
1782951225475607300,10.848607177734374,-0.9825592041015625,-0.215911865234375,-0.079010009765625
1782951225485534500,10.858534423828125,-0.987762451171875,-0.212738037109375,-0.077301025390625
1782951225495461000,10.868461181640624,-0.9906005859375,-0.213409423828125,-0.074462890625
1782951225505388300,10.87838818359375,-0.9856719970703125,-0.212554931640625,-0.075439453125
1782951225515314400,10.888314453125,-0.978546142578125,-0.2130279541015625,-0.0758056640625
1782951225525241300,10.898241455078125,-0.977691650390625,-0.2189788818359375,-0.075592041015625
1782951225535168500,10.90816845703125,-0.9809417724609375,-0.2180328369140625,-0.08551025390625
1782951225545095200,10.91809521484375,-0.98028564453125,-0.2157440185546875,-0.0850677490234375
1782951225555022300,10.928022216796874,-0.9768218994140625,-0.21295166015625,-0.081024169921875
1782951225564948200,10.9379482421875,-0.9642333984375,-0.2118988037109375,-0.075897216796875
1782951225574875400,10.94787548828125,-0.9521484375,-0.211944580078125,-0.0710906982421875
1782951225584802300,10.95780224609375,-0.9456634521484375,-0.2159271240234375,-0.070770263671875
1782951225594729500,10.9677294921875,-0.9498138427734375,-0.2184600830078125,-0.072967529296875
1782951225604656000,10.97765625,-0.9589385986328125,-0.217864990234375,-0.0793304443359375
1782951225614582300,10.987582275390626,-0.96966552734375,-0.2168426513671875,-0.0861663818359375
1782951225624509400,10.997509521484375,-0.97808837890625,-0.2179412841796875,-0.086456298828125
1782951225634436400,11.007436279296876,-0.982635498046875,-0.2183074951171875,-0.0831146240234375
1782951225644363500,11.017363525390625,-0.9835357666015625,-0.21649169921875,-0.0799560546875
1782951225654289200,11.0272890625,-0.98480224609375,-0.2127838134765625,-0.075042724609375
1782951225664216300,11.03721630859375,-0.981201171875,-0.2114715576171875,-0.0730743408203125
1782951225674143200,11.047143310546875,-0.97430419921875,-0.2113494873046875,-0.072509765625
1782951225684070400,11.0570703125,-0.9637451171875,-0.21063232421875,-0.06982421875
1782951225693997300,11.066997314453126,-0.958709716796875,-0.210235595703125,-0.07061767578125
1782951225703923200,11.076923095703124,-0.9557037353515625,-0.208587646484375,-0.0717620849609375
1782951225713850400,11.086850341796875,-0.9564971923828125,-0.209716796875,-0.0716400146484375
1782951225723777300,11.09677734375,-0.9594573974609375,-0.2106475830078125,-0.07415771484375
1782951225733704700,11.10670458984375,-0.9607696533203125,-0.21038818359375,-0.073577880859375
1782951225743632000,11.1166318359375,-0.9681396484375,-0.212005615234375,-0.0714111328125
1782951225753558000,11.12655810546875,-0.978302001953125,-0.210296630859375,-0.0713958740234375
1782951225763485000,11.13648486328125,-0.98321533203125,-0.20916748046875,-0.0733642578125
1782951225773412000,11.146412109375,-0.98516845703125,-0.210205078125,-0.07550048828125
1782951225783338800,11.1563388671875,-0.9838409423828125,-0.216644287109375,-0.0843658447265625
1782951225793266000,11.166265869140625,-0.9747314453125,-0.2241973876953125,-0.09417724609375
1782951225803191800,11.17619189453125,-0.9654998779296875,-0.229217529296875,-0.08782958984375
1782951225813119000,11.186118896484375,-0.9598388671875,-0.229248046875,-0.079437255859375
1782951225823046000,11.1960458984375,-0.9656982421875,-0.2255401611328125,-0.07318115234375
1782951225832973000,11.20597314453125,-0.9759521484375,-0.21588134765625,-0.0695037841796875
1782951225842899000,11.21589892578125,-0.986236572265625,-0.209930419921875,-0.0690460205078125
1782951225852825900,11.225825927734375,-0.98968505859375,-0.2104339599609375,-0.067901611328125
1782951225862753000,11.2357529296875,-0.9819793701171875,-0.2125244140625,-0.06890869140625
1782951225872680000,11.245679931640625,-0.96807861328125,-0.2130889892578125,-0.06878662109375
1782951225882607000,11.255607177734374,-0.9565277099609375,-0.214019775390625,-0.068450927734375
1782951225892532700,11.26553271484375,-0.952178955078125,-0.2152862548828125,-0.06805419921875
1782951225902460000,11.2754599609375,-0.954498291015625,-0.21331787109375,-0.0708770751953125
1782951225912386800,11.28538671875,-0.9610595703125,-0.21014404296875,-0.0726318359375
1782951225922314000,11.29531396484375,-0.9703216552734375,-0.2095489501953125,-0.071502685546875
1782951225932241000,11.305240966796875,-0.9806365966796875,-0.2086334228515625,-0.0692138671875
1782951225942166800,11.315166748046876,-0.9854583740234375,-0.209320068359375,-0.0691070556640625
1782951225952094000,11.325093994140625,-0.981597900390625,-0.21014404296875,-0.0668182373046875
1782951225962020900,11.335020751953126,-0.9774169921875,-0.211273193359375,-0.0633087158203125
1782951225971948000,11.344947998046875,-0.9744415283203125,-0.21356201171875,-0.059417724609375
1782951225981875000,11.354875,-0.9754638671875,-0.2114715576171875,-0.0699920654296875
1782951225991800800,11.36480078125,-0.9795074462890625,-0.209930419921875,-0.0746002197265625
1782951226001727700,11.374727783203125,-0.9773101806640625,-0.2108917236328125,-0.07745361328125
1782951226011655000,11.384655029296875,-0.9739990234375,-0.2141876220703125,-0.07489013671875
1782951226021581800,11.394581787109376,-0.9709014892578125,-0.21435546875,-0.072418212890625
1782951226031508000,11.404508056640625,-0.964111328125,-0.21221923828125,-0.0760955810546875
1782951226041435000,11.414434814453125,-0.95819091796875,-0.2131500244140625,-0.07183837890625
1782951226051361800,11.42436181640625,-0.9537353515625,-0.2122039794921875,-0.0694580078125
1782951226061289000,11.4342890625,-0.954132080078125,-0.20947265625,-0.07208251953125
1782951226071215900,11.4442158203125,-0.9601593017578125,-0.20892333984375,-0.0731658935546875
1782951226081142000,11.45414208984375,-0.97088623046875,-0.2120361328125,-0.0734710693359375
1782951226091069000,11.46406884765625,-0.98199462890625,-0.2098236083984375,-0.0773162841796875
1782951226100996000,11.47399609375,-0.9949188232421875,-0.2101898193359375,-0.086944580078125
1782951226110922800,11.4839228515625,-1.002288818359375,-0.2150115966796875,-0.0893402099609375
1782951226120850000,11.493849853515625,-1.0029296875,-0.218292236328125,-0.0858306884765625
1782951226130775800,11.50377587890625,-0.997833251953125,-0.2132415771484375,-0.0849761962890625
1782951226140703000,11.513702880859375,-0.985687255859375,-0.207916259765625,-0.08392333984375
1782951226150630000,11.5236298828125,-0.9721221923828125,-0.20611572265625,-0.0806121826171875
1782951226160556800,11.533556884765625,-0.9553680419921875,-0.2041778564453125,-0.0749969482421875
1782951226170483700,11.543483642578124,-0.9390106201171875,-0.204315185546875,-0.071624755859375
1782951226180409900,11.553409912109375,-0.933319091796875,-0.207061767578125,-0.0687103271484375
1782951226190337000,11.5633369140625,-0.9348602294921875,-0.207733154296875,-0.069091796875
1782951226200264000,11.573263916015625,-0.9506683349609375,-0.208251953125,-0.0731964111328125
1782951226210191000,11.583191162109374,-0.972076416015625,-0.208526611328125,-0.0735321044921875
1782951226220116700,11.59311669921875,-0.991180419921875,-0.2053375244140625,-0.0760955810546875
1782951226230044000,11.6030439453125,-1.0007476806640625,-0.2034454345703125,-0.071746826171875
1782951226239970800,11.612970703125,-1.000030517578125,-0.207061767578125,-0.0665283203125
1782951226249898000,11.62289794921875,-0.9943389892578125,-0.2108612060546875,-0.0651702880859375
1782951226259825000,11.632824951171875,-0.9874725341796875,-0.213897705078125,-0.066314697265625
1782951226269750800,11.642750732421876,-0.9798736572265625,-0.215667724609375,-0.071441650390625
1782951226279678000,11.652677978515625,-0.9714508056640625,-0.217681884765625,-0.07379150390625
1782951226289604900,11.66260498046875,-0.962554931640625,-0.21820068359375,-0.0743255615234375
1782951226299532000,11.672531982421875,-0.95751953125,-0.2162933349609375,-0.0751800537109375
1782951226309459000,11.682458984375,-0.9546661376953125,-0.2178497314453125,-0.074798583984375
1782951226319384800,11.692384765625,-0.956268310546875,-0.2173309326171875,-0.0736083984375
1782951226329311700,11.702311767578125,-0.9583587646484375,-0.21343994140625,-0.0742034912109375
1782951226339239000,11.712239013671875,-0.969879150390625,-0.211822509765625,-0.077911376953125
1782951226349165800,11.722165771484375,-0.9822998046875,-0.21246337890625,-0.079498291015625
1782951226359092000,11.732092041015624,-0.988983154296875,-0.21405029296875,-0.081390380859375
1782951226369019000,11.742018798828125,-0.988311767578125,-0.214752197265625,-0.078826904296875
1782951226378945800,11.75194580078125,-0.9856719970703125,-0.2146148681640625,-0.073028564453125
1782951226388873000,11.761873046875,-0.982452392578125,-0.209259033203125,-0.072357177734375
1782951226398800000,11.7717998046875,-0.9762725830078125,-0.206817626953125,-0.0708770751953125
1782951226408726000,11.78172607421875,-0.9675750732421875,-0.206634521484375,-0.070098876953125
1782951226418653000,11.79165283203125,-0.962646484375,-0.2091827392578125,-0.070098876953125
1782951226428579800,11.801579833984375,-0.963409423828125,-0.2086181640625,-0.0713653564453125
1782951226438506800,11.8115068359375,-0.966796875,-0.2075347900390625,-0.07568359375
1782951226448434000,11.821433837890625,-0.970184326171875,-0.210235595703125,-0.07659912109375
1782951226458360000,11.831360107421874,-0.9723663330078125,-0.209808349609375,-0.074066162109375
1782951226468287000,11.841286865234375,-0.9716033935546875,-0.2088623046875,-0.0732269287109375
1782951226478214000,11.8512138671875,-0.9691162109375,-0.2089691162109375,-0.0713653564453125
1782951226488140800,11.861140869140625,-0.9668121337890625,-0.2091064453125,-0.0688629150390625
1782951226498067000,11.87106689453125,-0.9658203125,-0.209075927734375,-0.0697021484375
1782951226507993900,11.880993896484375,-0.970062255859375,-0.2110443115234375,-0.074676513671875
1782951226517921000,11.890921142578126,-0.97100830078125,-0.210845947265625,-0.0791015625
1782951226527848000,11.900847900390625,-0.9725341796875,-0.2123870849609375,-0.07818603515625
1782951226537774800,11.91077490234375,-0.97344970703125,-0.2175140380859375,-0.0782623291015625
1782951226547701000,11.920700927734375,-0.97802734375,-0.2176055908203125,-0.0763702392578125
1782951226557628000,11.9306279296875,-0.9831695556640625,-0.217926025390625,-0.08026123046875
1782951226567555000,11.94055517578125,-0.98443603515625,-0.2154541015625,-0.0801239013671875
1782951226577482000,11.95048193359375,-0.9846343994140625,-0.2137603759765625,-0.0758056640625
1782951226587409000,11.960408935546875,-0.984527587890625,-0.2110137939453125,-0.0719146728515625
1782951226597334800,11.970334716796875,-0.9813232421875,-0.20751953125,-0.073638916015625
1782951226607262000,11.980261962890625,-0.9720001220703125,-0.20623779296875,-0.073486328125
1782951226617188000,11.99018798828125,-0.9627227783203125,-0.205718994140625,-0.0754241943359375
1782951226627115000,12.000114990234374,-0.95745849609375,-0.207183837890625,-0.0810394287109375
1782951226637042000,12.0100419921875,-0.95257568359375,-0.20806884765625,-0.0867156982421875
1782951226646967800,12.0199677734375,-0.9528656005859375,-0.2072601318359375,-0.0872955322265625
1782951226656895000,12.02989501953125,-0.9593353271484375,-0.2061614990234375,-0.084930419921875
1782951226666822000,12.03982177734375,-0.961517333984375,-0.2003631591796875,-0.082672119140625
1782951226676749000,12.0497490234375,-0.9620819091796875,-0.2010955810546875,-0.0780029296875
1782951226686675700,12.05967578125,-0.9661102294921875,-0.2039031982421875,-0.0720062255859375
1782951226696601900,12.069601806640625,-0.9734039306640625,-0.2064971923828125,-0.0719757080078125
1782951226706529000,12.079529052734374,-0.981658935546875,-0.2074737548828125,-0.07598876953125
1782951226716456000,12.0894560546875,-0.9848785400390625,-0.2072906494140625,-0.0774993896484375
1782951226726382800,12.0993828125,-0.9897308349609375,-0.2096099853515625,-0.076171875
1782951226736308700,12.109308837890625,-0.9916229248046875,-0.2075042724609375,-0.080291748046875
1782951226746235000,12.11923486328125,-0.98504638671875,-0.2071990966796875,-0.08099365234375
1782951226756162000,12.129162109375,-0.97686767578125,-0.209869384765625,-0.074859619140625
1782951226766089000,12.1390888671875,-0.965789794921875,-0.209197998046875,-0.070159912109375
1782951226776016000,12.149015869140625,-0.956390380859375,-0.21051025390625,-0.069610595703125
1782951226785941800,12.158941650390625,-0.950286865234375,-0.2106170654296875,-0.0648956298828125
1782951226795869000,12.168868896484375,-0.9512481689453125,-0.2092437744140625,-0.06109619140625
1782951226805795800,12.1787958984375,-0.9601898193359375,-0.20947265625,-0.0619049072265625
1782951226815723000,12.188722900390625,-0.976776123046875,-0.2103118896484375,-0.064361572265625
1782951226825650000,12.19864990234375,-0.9913330078125,-0.209625244140625,-0.0706787109375
1782951226835575800,12.208575927734374,-0.9959259033203125,-0.2104644775390625,-0.0771026611328125
1782951226845503000,12.2185029296875,-0.994049072265625,-0.2155914306640625,-0.0781707763671875
1782951226855430000,12.228429931640624,-0.9840240478515625,-0.2177734375,-0.0787506103515625
1782951226865356800,12.238356689453125,-0.9752655029296875,-0.2166900634765625,-0.0794525146484375
1782951226875284000,12.248283935546874,-0.9696044921875,-0.212921142578125,-0.0811767578125
1782951226885209900,12.2582099609375,-0.967498779296875,-0.21051025390625,-0.084136962890625
1782951226895136800,12.26813671875,-0.962982177734375,-0.2098388671875,-0.082916259765625
1782951226905064000,12.27806396484375,-0.95574951171875,-0.2096710205078125,-0.078277587890625
1782951226914990800,12.287990966796874,-0.9517822265625,-0.210205078125,-0.0749359130859375
1782951226924918000,12.29791796875,-0.956451416015625,-0.209991455078125,-0.0727996826171875
1782951226934844000,12.307843994140624,-0.9637908935546875,-0.2092742919921875,-0.0762176513671875
1782951226944770800,12.317770751953125,-0.972259521484375,-0.2093658447265625,-0.0753021240234375
1782951226954697700,12.32769775390625,-0.9886627197265625,-0.208648681640625,-0.07562255859375
1782951226964625000,12.337625,-1.0006256103515625,-0.2058868408203125,-0.0789031982421875
1782951226974551000,12.347551025390626,-1.002105712890625,-0.200836181640625,-0.0775909423828125
1782951226984478000,12.35747802734375,-0.99066162109375,-0.20263671875,-0.0731353759765625
1782951226994407000,12.367406982421874,-0.9693756103515625,-0.204559326171875,-0.0695037841796875
1782951227004333000,12.3773330078125,-0.949066162109375,-0.207122802734375,-0.0679931640625
1782951227014259700,12.387259765625,-0.9398956298828125,-0.2052764892578125,-0.0685272216796875
1782951227024187000,12.397186767578125,-0.9451446533203125,-0.2043609619140625,-0.0691986083984375
1782951227034113800,12.40711376953125,-0.9573211669921875,-0.20416259765625,-0.0679473876953125
1782951227044041000,12.417041015625,-0.9714202880859375,-0.2036590576171875,-0.0665283203125
1782951227053967000,12.426967041015626,-0.9795379638671875,-0.2049713134765625,-0.0726776123046875
1782951227063893800,12.436893798828125,-0.9862060546875,-0.2101287841796875,-0.0759124755859375
1782951227073821000,12.446821044921874,-0.9868011474609375,-0.211090087890625,-0.0800628662109375
1782951227083747800,12.456747802734375,-0.9857940673828125,-0.211761474609375,-0.081268310546875
1782951227093675000,12.466675048828124,-0.981903076171875,-0.2108001708984375,-0.0799102783203125
1782951227103601000,12.476600830078125,-0.982147216796875,-0.2093353271484375,-0.0746612548828125
1782951227113528000,12.486528076171876,-0.9838714599609375,-0.2087249755859375,-0.0752410888671875
1782951227123454700,12.496454833984375,-0.9807586669921875,-0.204986572265625,-0.067108154296875
1782951227133382000,12.5063818359375,-0.9772186279296875,-0.2044677734375,-0.072113037109375
1782951227143308800,12.516308837890625,-0.9709930419921875,-0.2076416015625,-0.0704803466796875
1782951227153235000,12.52623486328125,-0.962890625,-0.2111968994140625,-0.0691375732421875
1782951227163162000,12.536162109375,-0.9544219970703125,-0.209930419921875,-0.0747833251953125
1782951227173088800,12.5460888671875,-0.95379638671875,-0.2117767333984375,-0.0762786865234375
1782951227183016000,12.556015869140625,-0.9573822021484375,-0.213409423828125,-0.0767364501953125
1782951227192941800,12.56594189453125,-0.9709930419921875,-0.2096099853515625,-0.074310302734375
1782951227202869000,12.575868896484375,-0.97882080078125,-0.2058868408203125,-0.0739288330078125
1782951227212796000,12.5857958984375,-0.97821044921875,-0.2029876708984375,-0.0709228515625
1782951227222723000,12.59572314453125,-0.9740142822265625,-0.2041473388671875,-0.0668487548828125
1782951227232649700,12.605649658203125,-0.9684600830078125,-0.2021026611328125,-0.064117431640625
1782951227242576000,12.615575927734374,-0.96435546875,-0.2010040283203125,-0.0660247802734375
1782951227252503000,12.6255029296875,-0.9636688232421875,-0.206085205078125,-0.0665740966796875
1782951227262430000,12.635429931640624,-0.9690399169921875,-0.207366943359375,-0.06854248046875
1782951227272356900,12.64535693359375,-0.979339599609375,-0.2081298828125,-0.072479248046875
1782951227282284000,12.655283935546874,-0.9960784912109375,-0.2057952880859375,-0.07037353515625
1782951227292210000,12.6652099609375,-1.0045166015625,-0.2016143798828125,-0.0710296630859375
1782951227302136800,12.67513671875,-0.9994049072265625,-0.201812744140625,-0.0696258544921875
1782951227312064000,12.68506396484375,-0.982635498046875,-0.206451416015625,-0.0671234130859375
1782951227321991000,12.694990966796874,-0.96856689453125,-0.213653564453125,-0.0679168701171875
1782951227331918000,12.70491796875,-0.9617767333984375,-0.2183685302734375,-0.0736083984375
