time,seconds_elapsed,z,y,x
1782951214697598200,0.07059814453125,0.21458616901040076,0.01776785801127553,-0.08163319460246711
1782951214707525400,0.080525390625,-0.0827355663537979,-0.007085720477253198,-0.12944098423160613
1782951214717451300,0.090451171875,-0.34827743109762666,0.036233781289309264,-0.18920151585247366
1782951214727378700,0.100378662109375,-0.5366746813625097,0.0938110871195793,-0.1807105316871777
1782951214737305600,0.1103056640625,-0.5818950483143329,0.10182488222718238,-0.11992321430183947
1782951214747232500,0.120232421875,-0.472903927719593,0.12992007298544048,-0.049038098609074945
1782951214757159400,0.130159423828125,-0.31482232074141503,0.12690832394883036,0.0505905156828463
1782951214767085600,0.14008544921875,-0.15638766254186628,0.12562237579151989,0.12232121535427867
1782951214777012500,0.150012451171875,-0.015016367346048354,0.13978095726445317,0.12539364506956188
1782951214786939600,0.159939697265625,0.08667992006540298,0.12178075180202722,0.10976641581617295
1782951214796866300,0.1698662109375,0.18175591255426407,0.06839987474828958,0.09986216731946915
1782951214806792400,0.17979248046875,0.2211585331380367,0.042145343420654534,0.09176800045203418
1782951214816719600,0.1897197265625,0.22274141841530798,0.09279679551050067,0.09445881043858825
1782951214826646500,0.199646484375,0.1986994485706091,0.12552914455011485,0.05307502597495913
1782951214836573700,0.20957373046875,0.10487550196945666,0.11462561935037374,0.0149430829141289
1782951214846500600,0.21950048828125,0.011166121658682823,0.10984203833565115,0.00700911157708615
1782951214856426500,0.229426513671875,-0.05857260047793388,0.07836684975028038,0.0365209642002359
1782951214866353400,0.239353515625,-0.12126198862493037,0.1041357895180583,0.0477584705946967
1782951214876280600,0.249280517578125,-0.1379267076998949,0.11901333291530608,-0.03108425303902477
1782951214886207500,0.25920751953125,-0.10661854624450207,0.09605652795881033,-0.12146357561163604
1782951214896133400,0.26913330078125,0.025000585743784904,0.05359101267307997,-0.11152999142259358
1782951214906060500,0.279060546875,0.10141630142629146,0.026477380298078057,-0.06142177936397492
1782951214915987500,0.288987548828125,0.1045557684957981,0.02426350364089012,-0.0304998407471925
1782951214925914600,0.29891455078125,0.1298959614574909,0.05345262711569666,0.014415332712978124
1782951214935841500,0.308841552734375,0.11057225230634211,0.06307371128946543,0.021239296981506048
1782951214945767700,0.318767578125,0.08363280745446681,0.04896875969991087,-0.00720481681227684
1782951214955694300,0.3286943359375,0.06482815374135971,0.036302608741819856,-0.016751739771291612
1782951214965621500,0.33862158203125,0.03802197988033294,0.02468348261862993,-0.017894297402538357
1782951214975548400,0.34854833984375,0.06098784492611885,0.02304667519703507,-0.035017793095670637
1782951214985474600,0.358474609375,0.05840659626126289,0.022603899865597486,-0.04074197942875325
1782951214995401700,0.368401611328125,-0.0019476269364356994,0.02980813215598464,-0.04228095249906182
1782951215005328400,0.378328369140625,-0.035551205852627756,0.04062032581046223,-0.06754117555972189
1782951215015255600,0.388255615234375,-0.022879940328001974,0.05990428747311234,-0.0392631755804643
1782951215025182500,0.398182373046875,-0.016255553752183915,0.07481558700948954,0.012232581846415996
1782951215035108600,0.408108642578125,-0.04454582869112492,0.08380801789090037,0.01958926475215703
1782951215045035500,0.418035400390625,-0.06063771631419658,0.10065744588300585,-0.02733779651969671
1782951215054962700,0.427962646484375,-0.025104630640149114,0.09648366732969879,-0.01671370931584388
1782951215064889300,0.437889404296875,0.05102934549152851,0.08256020978689194,-0.01778433422204107
1782951215074816500,0.44781640625,0.08492869248390197,0.07903890379294752,-0.02079549873676151
1782951215084742700,0.45774267578125,0.02021101337969303,0.07755816371589899,-0.05775682711564004
1782951215094669600,0.467669677734375,-0.048152913272380825,0.1024865610063076,-0.07725318941995502
1782951215104596700,0.4775966796875,-0.11027531518638134,0.12539865003824233,-0.09316142757181077
1782951215114523400,0.4875234375,-0.08411153088212013,0.14118790145292878,-0.11446637366805225
1782951215124449500,0.497449462890625,-0.033631051445007325,0.13293006845638156,-0.10678714427705853
1782951215134376400,0.50737646484375,0.03822831610739231,0.11415493309870361,-0.09817867121193558
1782951215144303600,0.5173037109375,0.14743687884509563,0.10363149325773119,-0.11234810287244618
1782951215154230500,0.52723046875,0.24068331781923769,0.07624868855252862,-0.09953067034278064
1782951215164157700,0.53715771484375,0.22726094166636465,0.04773410333842039,-0.09652513185124843
1782951215174083600,0.54708349609375,0.13785071985423564,0.021214052942395208,-0.13537428327072412
1782951215184010500,0.557010498046875,0.013848492610454559,0.03698620709180832,-0.20646025529783218
1782951215193937700,0.566937744140625,-0.04898410339951515,0.029553134481608866,-0.22312954095005988
1782951215203864600,0.576864501953125,-0.03597089256942272,0.004023118036240339,-0.20134627328496424
1782951215213790500,0.58679052734375,0.05813011740744114,-0.03519070197716355,-0.1607594844179228
1782951215223717400,0.59671728515625,0.1155529633283615,-0.038352819269895554,-0.09017554362881929
1782951215233644500,0.60664453125,0.15740999132692812,-0.0385793215021491,-0.09738196787629276
1782951215243571500,0.616571533203125,0.1255488721638918,-0.04642243621796369,-0.08399674539603293
1782951215253498600,0.62649853515625,0.04928454765081405,-0.05107639950364828,-0.08831080920286476
1782951215263424500,0.636424560546875,-0.017747838136553763,-0.0180228556856513,-0.06895206527095288
1782951215273351400,0.646351318359375,-0.13826339230835438,-0.031446400882303716,-0.044354653500579294
1782951215283278600,0.656278564453125,-0.26298282791078087,-0.00644318479001522,-0.03726100544519722
1782951215293205500,0.66620556640625,-0.2695405789911747,0.042636341807991265,-0.05121657515931874
1782951215303131600,0.676131591796875,-0.16679390574395656,0.04504223390594125,-0.05034443196728825
1782951215313058600,0.68605859375,-0.023849662142992018,0.009896101722866295,-0.03161730046980083
1782951215322985500,0.6959853515625,-0.013330021694302557,-0.01117021331191063,-0.03731226070839912
1782951215332912400,0.705912353515625,-0.014204466441273688,0.03800196000561118,-0.07592986839432268
1782951215342839600,0.715839599609375,0.0027671266257762906,0.07145473227426409,-0.09003310295082628
1782951215352765400,0.725765380859375,-0.0014110358417034148,0.09436448321864008,-0.05511255968455225
1782951215362692600,0.735692626953125,0.05687865604162216,0.12438874234333634,-0.03683876144513488
1782951215372619500,0.74561962890625,0.17689385947585104,0.10167743658050894,-0.026486659583076833
1782951215382546400,0.75554638671875,0.29795301900506016,0.07066533546224237,-0.006407930813543498
1782951215392472600,0.76547265625,0.34359131910800933,0.03981076299324631,0.0156722009062767
1782951215402399500,0.7753994140625,0.26764614354670047,0.005489245066046714,-0.009727174896746873
1782951215412326700,0.78532666015625,0.06316635800898075,0.03282835675999522,-0.06244381588809192
1782951215422253600,0.795253662109375,-0.13605565313100815,0.08856076537594199,-0.10983597392104566
1782951215432180700,0.8051806640625,-0.273669057098031,0.08164937855228781,-0.08819068995453416
1782951215442106400,0.8151064453125,-0.3058148384213447,0.0772416451126337,-0.0488446949288249
1782951215452033500,0.825033447265625,-0.16143150192797184,0.04879223408922553,-0.042432197538018225
1782951215461960400,0.83496044921875,0.04074818997383117,-0.00563888266980648,-0.024417232897877693
1782951215471887600,0.8448876953125,0.21302198843359946,-0.06434519253000617,-0.008783683501556516
1782951215481814500,0.854814453125,0.2789642408967018,-0.04828647652417421,-0.04916384388059378
1782951215491740400,0.864740478515625,0.2115302885711193,-0.023851123447716234,-0.062160030510649084
1782951215501667600,0.87466748046875,0.1031225208222866,0.009524345801025628,-0.04815832009986043
1782951215511594500,0.884594482421875,0.025732407149672506,0.03873465819433331,-0.026804785621538756
1782951215521521700,0.894521728515625,-0.03488952707350254,0.054580900493264195,-0.033831396322697396
1782951215531447300,0.904447265625,-0.07292027478218079,0.0633591041021049,-0.005813435519114137
1782951215541374500,0.91437451171875,-0.061736032944917675,0.050531917363405225,0.0054516895346343516
1782951215551301400,0.92430126953125,-0.12384791346490383,0.028533289914578198,0.0063315411090850825
1782951215561228500,0.934228515625,-0.23348726883530616,0.04011865989863872,-0.011764379812777042
1782951215571155500,0.944155517578125,-0.24009236618876456,0.11389058307409286,-0.010488806919008492
1782951215581081600,0.95408154296875,-0.12352116572856903,0.13749080050066112,0.009989844420924782
1782951215591008500,0.964008544921875,0.040381110227108,0.13846490622982383,0.07833893883004785
1782951215600935400,0.973935302734375,0.17696692471206188,0.12193477331995964,0.11066036898121237
1782951215610862600,0.983862548828125,0.29219021769464015,0.07995426507219672,0.11169124639891087
1782951215620789500,0.99378955078125,0.29382804802954193,0.026634908947348594,0.09361885248310864
1782951215630715600,1.003715576171875,0.23842589428126812,0.03555456685349345,0.03610774375684559
1782951215640642600,1.013642578125,0.14140578198730944,0.021324527579545973,-0.009387933005020022
1782951215650569500,1.023569580078125,-0.0054985974162817,0.007265460958331823,-0.022568609356507657
1782951215660496400,1.033496337890625,-0.15072656804025172,0.003945815016329288,-0.04535268809460103
1782951215670422500,1.043422607421875,-0.19450082783699035,0.03669248484224081,-0.06227635036669671
1782951215680349700,1.053349609375,-0.1480138019502163,0.041240065144002434,-0.047119697767123575
1782951215690276600,1.063276611328125,-0.06223989081382751,0.033227877471596,-0.02292662901394069
1782951215700203500,1.07320361328125,0.033306641796231266,0.05226546315774321,-0.013598901763558387
1782951215710129400,1.08312939453125,0.128763742557168,0.05337736992239952,-0.024039339496195314
1782951215720056600,1.093056640625,0.09443184936642646,0.04215601094514131,-0.021734715815633535
1782951215729983000,1.10298291015625,0.003202595433592796,0.05546572050377726,-0.03601348960213363
1782951215739910100,1.11291015625,-0.07115384963154793,0.09629559741169214,-0.045786330271512264
1782951215749836800,1.1228369140625,-0.07415303144752979,0.12931363152489064,-0.05044606571085751
1782951215759763000,1.132762939453125,0.01721124704182148,0.12499284571632742,-0.03357508347406983
1782951215769690000,1.142690185546875,0.09601941081881522,0.09721811908408999,-0.0011860679794102906
1782951215779617000,1.152616943359375,0.12070610830783843,0.09019275049194693,-0.02711312091834843
1782951215789544200,1.162544189453125,0.08010287976264953,0.10977774092778562,-0.05857128530368209
1782951215799471000,1.17247119140625,0.03402151206731796,0.11067118263617157,-0.0729379565693438
1782951215809397000,1.18239697265625,-0.014875497570633887,0.09099646809026599,-0.06389138434790075
1782951215819324000,1.192323974609375,-0.050720133411884305,0.08481763332486152,-0.07341375738754868
1782951215829251000,1.2022509765625,-0.04422024999856949,0.07940978293195367,-0.09591441607438027
1782951215839178000,1.212177978515625,0.0318324775904417,0.06294745456129312,-0.07331826112382113
1782951215849104000,1.222103759765625,0.1053185695618391,0.04132584373131394,-0.02419606442786753
1782951215859031000,1.232031005859375,0.13149696691334248,0.05090542685091495,-0.0059282940704375505
1782951215868958000,1.2419580078125,0.11122516325712203,0.034440906523168086,-0.023037030585855243
1782951215878885000,1.251885009765625,0.03857844471931457,0.011989420740306376,-0.05760865081660449
1782951215888812000,1.26181201171875,-0.08190496074855327,0.008409078035503625,-0.1284701664380729
1782951215898738200,1.27173828125,-0.11099836876392363,0.019935119047760963,-0.1574726082343608
1782951215908664800,1.281664794921875,-0.07673720272183418,0.02266439788118005,-0.11917794889248907
1782951215918592000,1.291592041015625,-0.014946224719285963,0.03161649675220251,-0.08964278845898807
1782951215928519000,1.301518798828125,0.03993395098149776,0.019325024325400588,-0.06292670403420925
1782951215938445000,1.311445068359375,0.04208382249176502,0.04336845547482371,-0.06865874488018453
1782951215948372200,1.321372314453125,0.025814824736118316,0.0582527208738029,-0.06811820826269686
1782951215958299000,1.331298828125,-0.04601239411234855,0.0855230051152408,-0.05607881090082228
1782951215968226000,1.34122607421875,-0.11065408537089824,0.10841565879434346,-0.09366327614672482
1782951215978153000,1.351153076171875,-0.05533318016529083,0.1227338147431612,-0.0727772861149162
1782951215988079000,1.3610791015625,0.05600070416331291,0.07071122043058276,-0.0328106749728322
1782951215998006000,1.371006103515625,0.13210077802538872,0.056894292002171276,-0.044762467116490005
1782951216007933200,1.38093310546875,0.16007891827523707,0.12525573443621396,-0.029979031743481755
1782951216017859800,1.39085986328125,0.1294300975114107,0.10375818837732076,-0.006509454959258437
1782951216027787000,1.400787109375,0.033435821133852,0.07448489375039935,-0.08337379119209945
1782951216037713200,1.410713134765625,0.0023100305080413818,0.10213584787249565,-0.12349815017916262
1782951216047640000,1.42064013671875,0.042757776230573655,0.08491305652335286,-0.08747954601049422
1782951216057567200,1.430567138671875,0.07319090841710567,0.05320858922675251,0.013604162460565566
1782951216067494000,1.440493896484375,0.023199673801660537,0.03852437644451857,0.07375986741147934
1782951216077420000,1.450419921875,-0.10206628976762294,0.06379354999661445,0.02932436722703278
1782951216087347000,1.460346923828125,-0.18978607427477837,0.10752323999926447,-0.001804857464879751
1782951216097274000,1.470274169921875,-0.16433131502270698,0.11253244646340609,-0.02652553028874099
1782951216107201000,1.480200927734375,-0.033318332234025,0.10129939704835414,-0.03130801532492041
1782951216117128200,1.490128173828125,0.10736965687274933,0.06897080650404096,-0.016525748995691536
1782951216127054000,1.50005419921875,0.22006781529188155,0.058217941821366546,0.0007592939347028732
1782951216136981000,1.50998095703125,0.29159809702038764,0.06872837605029344,0.00008892039246857166
1782951216146908200,1.519908203125,0.27434184179306026,0.06152735863029957,-0.009871186477318406
1782951216156835000,1.5298349609375,0.18415303682386874,0.07995689542070031,0.016520196037739514
1782951216166761000,1.539760986328125,0.06368892057836055,0.10616232690960169,0.029306247048452496
1782951216176687900,1.54968798828125,-0.02377601238489151,0.08853504641279578,0.03622793607041239
1782951216186615000,1.559614990234375,-0.06445230616629123,0.06898629633411765,0.046636005903407926
1782951216196542000,1.5695419921875,-0.08540858495533465,0.058863253987580536,0.04603372916132211
1782951216206469000,1.57946923828125,-0.151751819434762,0.05081774856746196,0.03949190630242228
1782951216216395300,1.589395263671875,-0.17034370718002317,0.06763400494232773,0.07247771864645183
1782951216226322000,1.599322021484375,-0.19137305120527742,0.05883592758923769,0.08873531822524965
1782951216236249000,1.6092490234375,-0.22332769387066362,0.08555033151358366,0.06935512964650987
1782951216246176000,1.619176025390625,-0.17413666972219943,0.08274784131348133,-0.003432604797184467
1782951216256102100,1.62910205078125,-0.03698445352613926,0.0551784279949963,-0.07724873244054616
1782951216266029000,1.639029052734375,0.1128168163627386,0.041068946360796686,-0.06657974664904177
1782951216275956000,1.6489560546875,0.24018530516922473,0.028004589865356682,-0.013103154135867953
1782951216285883000,1.6588828125,0.2855786906003952,0.03985474826544523,0.03966675141267478
1782951216295810000,1.66881005859375,0.23065116862654686,0.06873918970525264,0.03503996839486062
1782951216305736200,1.678736083984375,0.17346505407094953,0.11011793266758323,0.007478884513303637
1782951216315663000,1.6886630859375,0.08768646675944328,0.09814940858483313,-0.04453603794947266
1782951216325590000,1.698590087890625,0.028587796580791473,0.06616758565157652,-0.08026932237073779
1782951216335517000,1.708516845703125,-0.03602174597382545,0.03492679034397006,-0.11258534569442272
1782951216345443000,1.718443115234375,-0.09333353273570537,0.03749254917874932,-0.11135222370289266
1782951216355370000,1.728369873046875,-0.09990355877578258,0.044063159740716215,-0.13412578104697168
1782951216365297200,1.738297119140625,-0.09686930564641952,0.07164660158455372,-0.08095913126580416
1782951216375224000,1.74822412109375,-0.05035246914327144,0.062177200841158624,-0.05634053057692945
1782951216385151000,1.75815087890625,0.039220249754190445,0.05339329814389348,-0.08694507380761206
1782951216395076900,1.768076904296875,0.09644903440773486,0.021298077964037654,-0.047703123678267
1782951216405004000,1.778004150390625,0.07550152344703674,0.0349716523990035,-0.013918050715327262
1782951216414931000,1.787930908203125,-0.0005173018723726272,0.06316928061842918,-0.06937529565170407
1782951216424858000,1.797858154296875,0.0024590835899114608,0.10197086656913161,-0.10192213205657899
1782951216434785000,1.807784912109375,0.00210837045609951,0.08711714243888855,-0.07010923594944178
1782951216444711000,1.8177109375,-0.06855681887567043,0.06373845880851149,-0.04445486247204244
1782951216454638000,1.82763818359375,-0.11016717863678932,0.08204729182869196,-0.08037059078812599
1782951216464565000,1.83756494140625,-0.05475976419150829,0.0728738052919507,-0.10961714353859424
1782951216474492200,1.8474921875,0.009220248287916183,0.02932473255321383,-0.05336136863566935
1782951216484417800,1.857417724609375,-0.24067513451278208,0.004597118531912565,0.001503024974092841
1782951216494345000,1.867344970703125,-0.16981705295741556,0.0914800138235092,-0.15087781307920814
1782951216504272000,1.87727197265625,0.026304654079675673,0.0684567195020616,-0.09196925864517688
1782951216514199000,1.887198974609375,0.16679332122206686,0.017179828990250823,0.04358816264010965
1782951216524126000,1.8971259765625,0.2385346153527498,0.020055384426563978,0.009963321740180253
1782951216534052000,1.907052001953125,0.254552853217721,0.05469955843687057,-0.05898286177925765
1782951216543979000,1.91697900390625,0.19797171881794928,0.04450447376742959,-0.0691162793893367
1782951216553906000,1.926906005859375,0.09933832610845565,0.021108108349889517,-0.07723251195810735
1782951216563833000,1.9368330078125,0.03669277710318565,0.06370733301788568,-0.11314663283899426
1782951216573759000,1.946759033203125,0.030923546051979063,0.08177724271565676,-0.0955703518770635
1782951216583686100,1.95668603515625,0.050481063959002495,0.08136559317484497,-0.027284020505845545
1782951216593612800,1.96661279296875,0.0452262121707201,0.045394846735894674,0.006652589756995439
1782951216603540000,1.9765400390625,-0.07072597960829734,0.055077890229970214,-0.05373663168884813
1782951216613467000,1.986466796875,-0.16550795758664608,0.057217532607167956,-0.09149448074027895
1782951216623393000,1.99639306640625,-0.14591419932246208,0.05006532276496291,-0.11913235618509352
1782951216633320200,2.0063203125,-0.06393441977202892,0.015455489415675401,-0.102003234468773
1782951216643247000,2.0162470703125,-0.01179272912442684,0.004391220696270465,-0.05283106115125119
1782951216653174000,2.026174072265625,0.05278641829192638,0.056223114742338653,-0.03424969480000436
1782951216663100000,2.036099853515625,0.10031447766423225,0.08072218070477247,-0.02129325565844774
1782951216673027000,2.046027099609375,0.08489771282374858,0.07799129443615674,-0.007104863569140434
1782951216682954000,2.0559541015625,0.03632277474701404,0.07678440286442637,-0.009644026657938957
1782951216692881200,2.065881103515625,-0.00466682276725769,0.09761091779395938,-0.08760660645626485
1782951216702808000,2.07580810546875,-0.013239420801401138,0.10669088082835078,-0.1271448361184448
1782951216712734000,2.08573388671875,0.023657354441285132,0.08075769040957093,-0.12565839695297182
1782951216722661000,2.0956611328125,0.09786007024943828,0.07446896552890539,-0.11372677081450819
1782951216732588300,2.10558837890625,0.18188976806700227,0.10289689537286757,-0.08029869459569454
1782951216742515200,2.11551513671875,0.15949322734177113,0.09143310594186187,-0.03980696360096335
1782951216752442400,2.1254423828125,0.056069677746295926,0.0908608590118587,-0.04450630039833486
1782951216762368300,2.1353681640625,-0.08708031755983829,0.09841127439141273,-0.01423741886280477
1782951216772295200,2.145295166015625,-0.16339432643353938,0.11383008505851029,0.008517068454623222
1782951216782222300,2.155222412109375,-0.18702128573656082,0.1146848021917045,-0.0069705696649849415
1782951216792149200,2.165149169921875,-0.16487667394578456,0.08962152647525072,0.0053727790795266624
1782951216802075400,2.175075439453125,-0.08417465924620628,0.0943584918692708,0.02331160974353552
1782951216812002300,2.185002197265625,0.03889876271486282,0.08204495374113321,-0.010960589149221777
1782951216821929200,2.19492919921875,0.17516425920426845,0.05547507285401225,0.0075127137176692485
1782951216831856000,2.204856201171875,0.23607494724094866,0.026994536039978263,0.01654262706525624
1782951216841783300,2.214783203125,0.2312590713918209,0.043802901369333264,0.02301701071113348
1782951216851709400,2.22470947265625,0.1305722532838583,0.08019888748303056,0.02869417956471443
1782951216861636400,2.23463623046875,0.030085341662168502,0.09533990412205458,0.018892989583685994
1782951216871563500,2.2445634765625,-0.013299042034149168,0.11264102140441536,0.0023065233767032623
1782951216881490200,2.254490234375,-0.003291442760825157,0.0839385124027729,0.00445814845263958
1782951216891416300,2.264416259765625,-0.0033668460845947264,0.049714463500678534,0.01338438223004341
1782951216901343200,2.27434326171875,-0.038002106136083603,0.025372780057042837,-0.012835662306100129
1782951216911270400,2.2842705078125,-0.09198094908297061,-0.020073066213726995,-0.03334134778343141
1782951216921197300,2.294197265625,-0.1422089150637388,-0.0213550688482821,-0.05048793209120631
1782951216931124200,2.304124267578125,-0.1720510956197977,0.027601562022417783,-0.08054032133184373
1782951216941050400,2.31405029296875,-0.14597615864276886,0.0775171010531485,-0.07863733725473285
1782951216950977300,2.323977294921875,-0.04240004883408546,0.07913505764380097,-0.07276165015436709
1782951216960904400,2.333904541015625,0.09384089773595332,0.07001257064193486,-0.06026866380609572
1782951216970831400,2.343831298828125,0.21096856303513048,0.055419981665909286,-0.05503953098095953
1782951216980758500,2.353758544921875,0.2773006915986538,0.039338761567324396,-0.04459010622426867
1782951216990684200,2.36368408203125,0.3237164058148861,0.04021525214090943,-0.0004021510601043701
1782951217000611300,2.373611328125,0.25163141281306745,0.022702976325899363,0.010458119519799948
1782951217010538200,2.383538330078125,0.10233575435876846,0.030798750628530977,0.012675503308326005
1782951217020465400,2.39346533203125,-0.051631987559795374,0.05940612869262695,-0.009928688818216323
1782951217030391300,2.403391357421875,-0.16792320203483105,0.044607349620014426,-0.03931567295268178
1782951217040318200,2.413318115234375,-0.24018998134434222,0.05915215393155813,-0.025227964758872984
1782951217050245400,2.423245361328125,-0.1944505589544773,0.10799319559857248,-0.02506780576109886
1782951217060172300,2.43317236328125,-0.055251347100734705,0.12794541191160677,-0.006427987220883369
1782951217070099500,2.443099365234375,0.0632470220297575,0.08488748369067907,0.012209493231773375
1782951217080025300,2.453025390625,0.11676818433701991,0.07632876805141568,0.0015664455991238355
1782951217089952300,2.4629521484375,0.13650105881094932,0.07777399842366575,-0.024082886376976965
1782951217099879200,2.472879150390625,0.07453530876338481,0.09455109183192252,-0.03313311186023056
1782951217109806300,2.482806396484375,0.03104220399558544,0.12045987846180796,-0.026628771467506883
1782951217119733200,2.492733154296875,-0.014989479339122772,0.10095394461154937,-0.07028115845024585
1782951217129659400,2.502659423828125,-0.020148469537496567,0.07585472079887985,-0.07788936843164265
1782951217139586300,2.51258642578125,-0.0077209496408700935,0.06603957535773515,-0.11348843201398849
1782951217149513200,2.52251318359375,0.03631634500622749,0.03600084931626916,-0.13469364406280218
1782951217159440400,2.5324404296875,0.09615443537533283,0.012567951280623674,-0.13528532634563742
1782951217169366300,2.5423662109375,0.12294015097022055,-0.009684650929272174,-0.13356610133759678
1782951217179293400,2.55229345703125,0.11459317838549614,0.0018310148194432257,-0.17668313933461904
1782951217189220400,2.562220458984375,0.07294657826721668,0.012625234425812959,-0.18086042501926422
1782951217199147300,2.572147216796875,0.07707213376462459,0.04679711474925279,-0.17419066493175922
1782951217209074200,2.58207421875,0.058469140103459355,0.007448708570748567,-0.18558051234371958
1782951217219000300,2.592000244140625,0.07087970886528491,-0.003089052056521177,-0.14344810146987438
1782951217228927500,2.601927490234375,0.0781523302167654,-0.0005117489144206047,-0.11305493596754967
1782951217238854400,2.6118544921875,0.004211480215191841,0.010562895068526267,-0.09920585883520543
1782951217248781300,2.62178125,-0.08550736915469169,0.0033507717326283454,-0.08265636363774538
1782951217258707200,2.631707275390625,-0.1426759480535984,0.034936434955149885,-0.04449292946010828
1782951217268634400,2.64163427734375,-0.19054536820948123,0.06921133726164698,0.02267784188464284
1782951217278561300,2.651561279296875,-0.22310089937746524,0.09001169483661652,0.03448058094643056
1782951217288488400,2.661488525390625,-0.2011439191132784,0.08492182435169815,0.058229193867743015
1782951217298415400,2.671415283203125,-0.14976853666305542,0.07735328879356383,0.06354783160723745
1782951217308341200,2.68134130859375,-0.09185644592046738,0.08291866783574223,0.0378441390953958
1782951217318268400,2.691268310546875,-0.04042261128127575,0.08025850871577858,0.04256086541898548
1782951217328195300,2.7011953125,0.008780103304982185,0.08674538651704787,0.046990810690447686
1782951217338122200,2.711122314453125,-0.005775076270103454,0.09863675371035933,0.041745238187164066
1782951217348048100,2.721048095703125,-0.005157236632704735,0.13102584227025507,0.03600041092485189
1782951217357975300,2.730975341796875,0.04330255063176155,0.12766264944747088,0.027632760878279802
1782951217367902200,2.740902099609375,0.10716332064568995,0.1175052664399147,0.03480798626989126
1782951217377829400,2.750829345703125,0.12571253829300402,0.0989295991770923,0.016872589671984312
1782951217387756300,2.76075634765625,0.1416524502247572,0.13833426558747886,-0.01802095598950982
1782951217397682400,2.770682373046875,0.11361176613271236,0.183270408770442,0.053600584219023584
1782951217407609300,2.780609375,0.06710837363302707,0.14527327107042073,0.09307831586562096
1782951217417536300,2.790536376953125,0.013678981262445449,0.06759834910705685,-0.07046835158541798
1782951217427463200,2.800463134765625,-0.05008066646456718,0.0736136638738215,-0.19460399595052003
1782951217437390300,2.810390380859375,-0.07082534832954407,0.04643661087378859,-0.24106376850418745
1782951217447316500,2.82031640625,-0.03104045042991638,0.022218407679349184,-0.19092443065494297
1782951217457243100,2.8302431640625,0.03995966994464397,0.0369226403363049,-0.13480338804759084
1782951217467170300,2.84017041015625,0.08632569980025291,0.016978461199253798,-0.09213957371078431
1782951217477097200,2.85009716796875,0.09966156671345233,0.05580547385215759,-0.04752703645899892
1782951217487023400,2.8600234375,0.058301382321119304,0.08092544819191098,-0.033094533415511246
1782951217496950300,2.8699501953125,0.007147533667087555,0.08855930407121777,-0.03574709375090897
1782951217506877400,2.87987744140625,-0.03222995247542858,0.101239045163244,-0.03657667644284665
1782951217516804000,2.88980419921875,-0.08110299671590328,0.11430252487584948,-0.07856054569147526
1782951217526731300,2.899731201171875,-0.07044716266691685,0.1322425245836377,-0.06647920888401568
1782951217536657400,2.909657470703125,0.039216742622852324,0.1282242288529873,-0.020020605374127625
1782951217546584300,2.919584228515625,0.12062018359005451,0.09219561474695802,0.019967267751693725
1782951217556511500,2.929511474609375,0.10372048671543597,0.07432151988223194,0.019343875156342984
1782951217566438400,2.9394384765625,0.08922668193876743,0.07680705308765172,0.024049203303083775
1782951217576365300,2.949365234375,0.047827334579825395,0.07614215943813324,0.054625178026407956
1782951217586291200,2.959291259765625,-0.015579846447706222,0.09577610358223318,0.1275708795107901
1782951217596218400,2.96921826171875,-0.09091068950295447,0.11206599799543618,0.11975728315040468
1782951217606145300,2.979145263671875,-0.11742635598480701,0.11291764638870953,0.09809570563621818
1782951217616072400,2.989072509765625,-0.11831249116957188,0.09239815158173441,0.08681457929573953
1782951217625998300,2.998998291015625,-0.038547465059161186,0.07005830947980285,0.05348937892951071
1782951217635925200,3.00892529296875,0.04736790037453174,0.06310995164662599,0.032773996224254365
1782951217645852400,3.018852294921875,0.09051087653040886,0.07981748695001005,-0.006558993189409374
1782951217655779300,3.028779296875,0.10390987180769443,0.0963682242564857,-0.04298142891861498
1782951217665706500,3.03870654296875,0.08558627960979938,0.10194821634590626,-0.08644603824429213
1782951217675632000,3.048632080078125,0.06667641195654869,0.09558803366422652,-0.10504669381789862
1782951217685559300,3.058559326171875,0.08455167586505413,0.05405395400971174,-0.08854344891496002
1782951217695486200,3.068486328125,0.042782326149940486,0.03676788816601038,-0.0902337400894612
1782951217705413400,3.078413330078125,0.02778875515758991,0.06451046609431504,-0.09232968945540487
1782951217715340300,3.08834033203125,0.044244215396046636,0.08197948728948831,-0.10352993257939815
1782951217725266200,3.09826611328125,0.07138298221230506,0.0699783761113882,-0.09028137862347066
1782951217735193900,3.10819384765625,0.012317045259475707,0.028757892450690267,-0.08255516828559338
1782951217745121000,3.11812109375,-0.08834463840723038,0.015333908862620592,-0.12650544223636387
1782951217755047700,3.128047607421875,-0.11893559150397777,0.04432838654816151,-0.1462403625369072
1782951217764973800,3.137973876953125,-0.09420388582944869,0.030286855583637952,-0.11100443317852914
1782951217774901000,3.14790087890625,-0.05015957691967487,0.011254822855442761,-0.07778963438421488
1782951217784828000,3.157827880859375,-0.02309621342718601,0.0556907614313066,-0.08849018435776233
1782951217794755000,3.167755126953125,0.03806932615339756,0.0929496479846537,-0.09522526476643979
1782951217804682000,3.177681884765625,0.0982423475652933,0.0830352799527347,-0.06650244362913071
1782951217814608000,3.18760791015625,0.038998715957999225,0.0793088067755103,-0.036051191264018415
1782951217824534800,3.19753466796875,-0.014402619361877441,0.14352043605372308,-0.040671836801990865
1782951217834462000,3.2074619140625,-0.009603694647550582,0.1607873588055372,-0.02898717116191983
1782951217844388900,3.217388916015625,0.02926233484148979,0.14218904131948948,0.005502616004273295
1782951217854314800,3.227314697265625,0.045516135028004646,0.14000366010442375,0.012767127114534378
1782951217864242000,3.237241943359375,0.03623685002923011,0.1262181497275829,-0.021181611977517605
1782951217874168800,3.2471689453125,0.030818916633725164,0.1502816007517278,-0.05129040758050978
1782951217884096000,3.257095947265625,0.041920740884542465,0.13408040753528475,-0.07370711431093513
1782951217894023000,3.26702294921875,0.0400151995241642,0.1033972461104393,-0.049756987468153234
1782951217903948800,3.27694873046875,-0.03834463596343994,0.08502075468152762,-0.06171155609078705
1782951217913875700,3.286875732421875,-0.16825754855573177,0.049802726306021214,-0.1519713074043393
1782951217923803000,3.296802978515625,-0.16897534143626688,0.06488865175694226,-0.20748218222409487
1782951217933729800,3.306729736328125,-0.038414194068312646,0.05017696644589305,-0.1545380891524255
1782951217943657000,3.316656982421875,0.11728607073128222,0.025562457410246132,-0.09557963116206228
1782951217953583000,3.3265830078125,0.23197160357534885,0.043411417833715674,-0.09224062293246388
1782951217963509800,3.336509765625,0.27500059796273707,0.048146629662066696,-0.07030519691295921
1782951217973437000,3.34643701171875,0.24182196646034715,0.06125804016962647,-0.027926848454028368
1782951217983363800,3.35636376953125,0.13360299928188324,0.09633709846585989,-0.01441233703829348
1782951217993290000,3.3662900390625,-0.04210778788924217,0.12361585827469825,-0.02840381831601262
1782951218003217000,3.376216796875,-0.22331775699853895,0.1148940610282123,-0.0862190245553851
1782951218013144000,3.38614404296875,-0.25038345857858657,0.11755845793187618,-0.13559855701327322
1782951218023070700,3.39607080078125,-0.10763386076688766,0.09109335259348153,-0.09621084173768758
1782951218032998000,3.405997802734375,0.07041910561621188,0.047371699766814705,-0.013518237742781639
1782951218042924000,3.415924072265625,0.17754209425151346,0.03136354490444064,0.020022139744088053
1782951218052851000,3.425850830078125,0.21263094328939913,0.07051701303273439,0.0378583137512207
1782951218062778000,3.435778076171875,0.12386954077482223,0.081009327083081,0.057265171141177414
1782951218072704800,3.445704833984375,0.011249123767018317,0.08471841073408723,0.057010757988691325
1782951218082632000,3.4556318359375,-0.04460837253332138,0.09134922705069183,0.0068960431240499016
1782951218092557800,3.465557861328125,-0.03712883043289184,0.05406842092648148,-0.007391936882212758
1782951218102485000,3.475485107421875,-0.022861235627532003,0.03753068923205137,-0.03312638985849917
1782951218112412000,3.485411865234375,-0.006948796224594116,0.058844987678527826,-0.01734181461893022
1782951218122339000,3.495339111328125,0.009295651611685753,0.03882409004345536,-0.0037748423635959624
1782951218132265000,3.505264892578125,0.007766542348265648,0.055248278360813856,0.027156448603421448
1782951218142191900,3.51519189453125,-0.06242810686230659,0.07690919828787446,0.005387611322477459
1782951218152119000,3.525119140625,-0.07231237201690674,0.08239332878738641,-0.06467435141913593
1782951218162046000,3.5350458984375,-0.05467091686427593,0.07600289709791541,-0.06757949827611447
1782951218171972900,3.544972900390625,-0.012561959931254385,0.044862055033445356,-0.09052768153473734
1782951218181898800,3.554898681640625,0.05753741221129894,0.06925751449093222,-0.11087751886323094
1782951218191826000,3.564825927734375,0.1407803435653448,0.044991526632010934,-0.0901384630214423
1782951218201752800,3.5747529296875,0.16043723019361494,0.032947599225491286,-0.04861037471629679
1782951218211680000,3.584679931640625,0.12125497436225413,0.05828574636057019,-0.04433057850524783
1782951218221607000,3.59460693359375,0.017318214547634124,0.05557078831344842,-0.01577222721464932
1782951218231532800,3.60453271484375,-0.07083879233300686,0.059413142955303186,-0.026046368469670414
1782951218241460000,3.6144599609375,-0.1016366661787033,0.04266600629389286,-0.0779909291099757
1782951218251387000,3.624386962890625,-0.06387538306117058,0.06299772344380616,-0.07654606406390667
1782951218261313800,3.634313720703125,-0.006965747359395026,0.03211027161851525,-0.05682298033162951
1782951218271240000,3.644239990234375,0.031522680988907814,0.0091400226585567,-0.06304346228167414
1782951218281166800,3.654166748046875,0.0872059897661209,0.042201165261119604,-0.05810001453012228
1782951218291093800,3.66409375,0.14572656779587267,0.04488821238800883,-0.006060396017506718
1782951218301021000,3.67402099609375,0.12465689176023005,0.03587473871856928,0.09227613263726234
1782951218310947800,3.68394775390625,0.07106675586998462,0.08136442413106561,0.1318037678401917
1782951218320874000,3.6938740234375,0.02520458388328552,0.11033946646377443,0.09589943770095706
1782951218330801000,3.70380078125,-0.018251111483573914,0.07778685790523886,0.04418978179506957
1782951218340727800,3.713727783203125,-0.06262684430480003,0.04786372106745839,0.027443229655548927
1782951218350654700,3.72365478515625,-0.10640694932043551,0.056005526468902826,-0.011942001402005553
1782951218360582000,3.733581787109375,-0.13948971923291684,0.047685149630159136,-0.04577675872556865
1782951218370508000,3.743508056640625,-0.1568441741377115,0.03683043200820684,-0.04505333982184529
1782951218380435000,3.75343505859375,-0.13226385963261128,0.029560441005229948,-0.04545337199009954
1782951218390361900,3.76336181640625,-0.0641097763389349,0.03740720898285508,-0.0575857813976705
1782951218400288800,3.773288818359375,0.030072482180595397,0.05878785066381097,-0.10423318547792731
1782951218410215000,3.78321484375,0.15566753157377242,0.06857610809803008,-0.12803184808604418
1782951218420141800,3.793141845703125,0.27027707657217975,0.035073213077336546,-0.14589322959966958
1782951218430069000,3.803069091796875,0.29706922190785406,0.03837225462272763,-0.11718809024952351
1782951218439996000,3.812995849609375,0.2797182741343975,0.023334259966760872,-0.07666362602896988
1782951218449922800,3.8229228515625,0.19326164143085478,0.03727072312161326,-0.06380816304385661
1782951218459849000,3.832848876953125,0.043058805003762246,0.034646804358810186,-0.06437624525539577
1782951218469776000,3.84277587890625,-0.051285950601100916,0.032458646664768456,-0.06558642476275563
1782951218479703000,3.852703125,-0.10544248820245265,0.01582403046712279,-0.08547712014690041
1782951218489630000,3.8626298828125,-0.12552081511318683,0.019109628009051083,-0.08294789393022656
1782951218499557000,3.87255712890625,-0.12350421459376812,0.0252881705135107,-0.09499116374962031
1782951218509482800,3.882482666015625,-0.08009177384674548,0.05147051338776946,-0.054293096527829765
1782951218519410000,3.892409912109375,-0.06447276443243026,0.08118760625943541,0.0008281944524496794
1782951218529336800,3.9023369140625,-0.04285422234237194,0.10417919026836753,0.02656177064590156
1782951218539264000,3.912263916015625,-0.037006665357947346,0.13363821672573684,0.01295468557588756
1782951218549190000,3.92218994140625,0.00043371524214744564,0.13654314438700677,0.012093684832379221
1782951218559116800,3.93211669921875,0.0592471387386322,0.14444851068407297,0.032405528238043185
1782951218569044000,3.9420439453125,0.11089666195511817,0.14351605213955043,0.035910832945257425
1782951218578971000,3.951970947265625,0.10386077196896075,0.11824775537028909,0.0800925044991076
1782951218588898000,3.96189794921875,0.02347965978682041,0.12499021536782383,0.07107362400218845
1782951218598823700,3.97182373046875,-0.0320505042552948,0.13649565198346972,-0.0015313012205064296
1782951218608750800,3.981750732421875,-0.06342880833745003,0.0846662421554327,-0.03692497842386365
1782951218618677800,3.991677734375,-0.054201545786857604,0.04180456715896726,-0.05621902308911085
1782951218628605000,4.00160498046875,-0.02951367925405502,0.021826339621841905,-0.10288571639172732
1782951218638531800,4.01153173828125,0.03172434104084968,0.016930530404299496,-0.1634855849135667
1782951218648458000,4.0214580078125,0.10199264000952243,-0.003897884221374988,-0.14852211679853497
1782951218658385000,4.031385009765625,0.09506897822618483,-0.016839198859035967,-0.1478706671524793
1782951218668311800,4.041311767578125,-0.167697576585412,0.002904927661269903,-0.1379840639103204
1782951218678239000,4.051239013671875,-0.15755261466801165,0.0941863501727581,-0.15218955326490102
1782951218688164900,4.061164794921875,0.030126258194446563,0.029958646542578935,-0.10913776252381503
1782951218698092000,4.071092041015625,0.08396949206292628,-0.006244155086576939,-0.04631744147352874
1782951218708019000,4.08101904296875,0.06083703827857971,0.041701837436854836,-0.09512027002200484
1782951218717945900,4.09094580078125,0.05619125829935073,0.11342749560698866,-0.07174699321910738
1782951218727872300,4.100872314453125,0.04786825111210346,0.10202435032203792,0.017103402753174304
1782951218737798400,4.11079833984375,0.035978491353988645,0.09941519073694943,0.04433393950611353
1782951218747725600,4.1207255859375,0.02436287236213684,0.1370524090833962,0.008198942416161299
1782951218757652500,4.130652587890625,0.03990004871189594,0.1495665843501687,-0.008143632032349706
1782951218767579600,4.14057958984375,0.08122107013761996,0.15636019001305101,-0.007228051557391882
1782951218777506300,4.15050634765625,0.0744487995237112,0.1774330809190869,-0.010165274053066968
1782951218787432400,4.160432373046875,0.11288695898950099,0.1413569744095206,-0.023502383075281977
1782951218797359400,4.170359375,0.1071001922816038,0.09069587770849466,-0.02235935051999986
1782951218807286500,4.18028662109375,0.02486731475293636,0.07584712201431393,-0.0531794361975044
1782951218817213400,4.19021337890625,-0.03607318390011787,0.07099325224235653,-0.1179744913868606
1782951218827139300,4.200139404296875,-0.07266366967260837,0.06024608664810657,-0.11210618387535214
1782951218837066500,4.21006640625,-0.050505029356479644,0.06655410075113177,-0.08355053599849342
1782951218846993400,4.219993408203125,-0.002270283019542694,0.046941199395060536,-0.02435739246942103
1782951218856920600,4.229920654296875,0.031222821259498594,0.04409691587984561,-0.026548691968619823
1782951218866847500,4.239847412109375,0.044946226185560226,0.05452142539098859,-0.039166254544630644
1782951218876773400,4.2497734375,0.022815058398246765,0.04336684803962707,-0.06554185496866703
1782951218886700300,4.2597001953125,-0.042892800787091255,0.03565305879190564,-0.14096490635201334
1782951218896627500,4.26962744140625,-0.19014263262748718,0.02613645790591836,-0.19336086402162908
1782951218906554400,4.279554443359375,-0.19063889171183107,0.06214709796383976,-0.22722367839589713
1782951218916481500,4.2894814453125,-0.0365513228058815,0.08342121053040027,-0.19382665490247308
1782951218926407400,4.299407470703125,0.13429858033061026,0.10739552196636795,-0.07033917224779725
1782951218936334300,4.309334228515625,0.21466858659684657,0.09656257778480648,-0.05386844137497246
1782951218946261500,4.319261474609375,0.20368658933341502,0.11206219860315322,-0.01950454561077058
1782951218956188400,4.3291884765625,0.17547697841525076,0.10960019240379333,-0.00005319149196147918
1782951218966114600,4.339114501953125,0.04003565779030323,0.08365677285194396,0.014649214534088968
1782951218976041500,4.34904150390625,-0.11184709454774856,0.10169555675908923,-0.010473244023695587
1782951218985970400,4.358970458984375,-0.1971340989500284,0.11927636776566505,-0.054147477512061594
1782951218995897600,4.368897705078125,-0.19414953018128872,0.11327435087189078,-0.04549867243655026
1782951219005823500,4.378823486328125,-0.09129062873125075,0.10423252789080142,-0.03552709432467818
1782951219015750400,4.38875048828125,0.06744447371959686,0.08905161763280629,-0.0007128975097090006
1782951219025677600,4.398677490234375,0.17149112364947794,0.05731354032754898,0.002565612704306841
1782951219035604500,4.4086044921875,0.19422025732994078,0.05455211279019713,0.01190714928433299
1782951219045530600,4.418530517578125,0.13320084822177886,0.06947349532917141,0.019580460391193627
1782951219055457300,4.428457275390625,0.08300795355439186,0.09205971340760588,0.019864318833872675
1782951219065384400,4.438384521484375,0.07029927862882614,0.09679930915012955,0.05335070111118257
1782951219075311400,4.448311279296875,0.06353986749649047,0.06606105653718114,0.07196012451313435
1782951219085238500,4.458238525390625,0.02975684036016464,0.05058087107166648,0.0714790629979223
1782951219095164400,4.468164306640625,-0.03380757705569267,0.045829731021821495,0.005942030334845185
1782951219105091300,4.47809130859375,-0.08857903168499469,0.030677900727838277,-0.003376125369593501
1782951219115018200,4.488018310546875,-0.14535422735214232,-0.019701018030941486,-0.0012025807227939367
1782951219124945400,4.4979453125,-0.1543617096722126,-0.013949907158315181,-0.04778488367758691
1782951219134872300,4.507872314453125,-0.1106166759699583,0.02059884365350008,-0.14665113529488444
1782951219144798500,4.517798583984375,-0.08708616277873515,0.012968787166476248,-0.16274178080894053
1782951219154725600,4.5277255859375,-0.04991641581356525,-0.01589051983207464,-0.10993022807575761
1782951219164652300,4.53765234375,0.08141103975176811,0.035802111873775716,-0.06752974085025489
1782951219174579500,4.547579345703125,0.16482582054138184,0.0679727353774011,0.023755334923043846
1782951219184506400,4.55750634765625,0.15986089161038397,0.07469342193454503,0.06653145052790642
1782951219194432500,4.5674326171875,0.16348375828266143,0.09350055986568331,0.06264759483188391
1782951219204359400,4.577359375,0.13319792561233043,0.08289090304598212,0.02958813272975385
1782951219214286300,4.587286376953125,0.07340425890684127,0.07109013674557209,0.03028217940852046
1782951219224213200,4.597213134765625,0.0011748889982700348,0.0899798383936286,0.0058553018994629375
1782951219234139400,4.607139404296875,-0.05688508578240871,0.10217544923052191,-0.026541750771179793
1782951219244066600,4.617066650390625,-0.08234101407825946,0.13008870755061505,-0.021442601001262662
1782951219253993500,4.626993408203125,-0.09004968875944613,0.13370105282887815,-0.022487726140022278
1782951219263920600,4.636920654296875,-0.09139525814950465,0.15890198345035314,-0.06262282571680844
1782951219273847300,4.646847412109375,-0.039901802277565,0.12183891173005103,-0.05465374653376639
1782951219283773400,4.6567734375,0.03453647585213184,0.09940306190773844,-0.044899245238676666
1782951219293700400,4.666700439453125,0.1394815359264612,0.11140782634764909,-0.03092778383567929
1782951219303627500,4.67662744140625,0.18963234501779078,0.05626812292784452,-0.05979381283596158
1782951219313554400,4.686554443359375,0.15679916595220564,0.014756985757499933,-0.10291706137806177
1782951219323481600,4.696481689453125,0.080478727337718,0.008189151674509048,-0.16067944145165383
1782951219333407500,4.706407470703125,-0.02148994727432728,0.003980886329710483,-0.20715609207488594
1782951219343334400,4.71633447265625,-0.09437222813367843,-0.0029221710570156573,-0.22178638271279633
1782951219353261600,4.726261474609375,-0.12679273474514483,0.002250847666710615,-0.20267200546339154
1782951219363188500,4.7361884765625,-0.15139993725717066,0.04386237647160887,-0.15296799029149113
1782951219373114400,4.7461142578125,-0.17168167778551577,0.046134851448237896,-0.14215250870138407
1782951219383041300,4.756041259765625,-0.07170154664218426,0.1041769983112812,-0.13761771481595933
1782951219392968400,4.765968505859375,0.06320084480047225,0.08427914253398776,-0.08610650409162043
1782951219402895400,4.775895263671875,0.13302724522054193,0.04623232047334313,-0.04845335752367973
1782951219412822500,4.785822509765625,0.1502478446125984,0.07089812130481005,-0.03388436861895024
1782951219422748400,4.79574853515625,0.1597211908787489,0.11725845207199453,-0.02902794156372547
1782951219432675300,4.80567529296875,0.13586451447308062,0.09990049003586172,0.031126667408645153
1782951219442602500,4.8156025390625,0.03311959479153156,0.12060162502005696,0.030181495513021944
1782951219452529400,4.825529296875,-0.03820493523180485,0.13610183036029339,0.0014773060109466313
1782951219462456600,4.83545654296875,-0.04042378032505512,0.09899813436865806,0.010619301430881023
1782951219472382500,4.845382568359375,-0.018299626800417898,0.092090254676342,0.0642468467220664
1782951219482309400,4.855309326171875,0.008685995280742645,0.09687851186618208,0.03585749532282352
1782951219492236300,4.865236328125,0.028331775993108748,0.08792582847326993,-0.015819281226769087
1782951219502163500,4.87516357421875,0.025036241579055783,0.024185616099089383,-0.014724252531677483
1782951219512090400,4.88509033203125,0.012201309925317764,0.02203530619740486,-0.037183994686231014
1782951219522016500,4.8950166015625,0.00428863710463047,0.04377557497099042,-0.04191679536178708
1782951219531943700,4.904943603515625,-0.005987257716059685,0.02860708580315113,-0.0432104153688997
1782951219541870300,4.914870361328125,-0.004219078999757766,0.015603957975655794,-0.06874006648808717
1782951219551797500,4.924797607421875,0.022907412856817244,0.00619374007359147,-0.10316263363696634
1782951219561723400,4.934723388671875,0.07924421710669993,0.0050425242118537425,-0.09185403476767241
1782951219571650600,4.944650634765625,0.04093640602231025,-0.000592559065669775,-0.0780213973134756
1782951219581577500,4.954577392578125,-0.017790508234500884,0.02730754751190543,-0.08451989248730242
1782951219591504400,4.96450439453125,-0.040410920843482016,0.0658265171289444,-0.059475467601791024
1782951219601431300,4.974431396484375,-0.044288639059662814,0.06519596414044498,-0.03814209912866354
1782951219611357400,4.984357421875,-0.012507599395513535,0.062118602521717546,-0.002940729627013206
1782951219621284600,4.99428466796875,-0.012685878571867941,0.07582812505289911,-0.003260536165907979
1782951219631211500,5.00421142578125,0.006859948897361755,0.08726414969414473,-0.009660904727503656
1782951219641138400,5.014138427734375,0.02399287000596523,0.12418532872572541,-0.0012630787383764981
1782951219651065300,5.0240654296875,0.06059387717247009,0.1378396139383316,0.0536574289727956
1782951219660991500,5.033991455078125,0.053637482163310046,0.14446867668926716,0.08206957672573625
1782951219670918400,5.04391845703125,0.027424598020315168,0.16970131762325763,0.06730360394418239
1782951219680845600,5.053845458984375,-0.023047113588452336,0.17764000166803598,0.021890783160179852
1782951219690772500,5.0637724609375,-0.03556289629042148,0.18540654401630163,-0.036343452208861704
1782951219700698400,5.073698486328125,0.04976444012224674,0.17789543773382901,-0.07898103612586856
1782951219710625500,5.08362548828125,0.12851298266649244,0.13137100244611502,-0.08168181951716542
1782951219720552400,5.093552490234375,0.1768394989401102,0.1146853867135942,-0.056492506268247956
1782951219730479600,5.103479736328125,0.17041092719733714,0.09086597357839346,-0.03280512201488018
1782951219740406800,5.11340673828125,0.08474573713243007,0.06144011873826384,-0.03911101722605526
1782951219750332700,5.123332763671875,-0.059735799038410184,0.04876768416985869,-0.08005224555395543
1782951219760259600,5.133259521484375,-0.2172726316154003,0.045794805838912725,-0.13792699996083974
1782951219770186800,5.143186767578125,-0.29008418532609936,0.051244887938350435,-0.15025741615854202
1782951219780113700,5.15311376953125,-0.2827098571658134,0.06395356286391615,-0.15652297935932874
1782951219790040800,5.163040771484375,-0.13879238461852073,0.044279725100845095,-0.15491013733521103
1782951219799966700,5.172966796875,0.07735445783734321,0.03469166641384363,-0.11795410618595778
1782951219809893600,5.1828935546875,0.21750702489316462,0.017612229058146477,-0.02706519012339413
1782951219819820500,5.192820556640625,0.24447511131763458,0.04542918739691376,0.01374028299562633
1782951219829747700,5.202747802734375,0.17266776621341703,0.07301935124248266,0.03579838554672897
1782951219839674600,5.212674560546875,0.09518179095089435,0.09984320689067244,0.03546272385157644
1782951219849600800,5.222600830078125,0.054742813056707376,0.13188377427384257,0.0646194794267416
1782951219859527700,5.232527587890625,0.05708206965923309,0.13712693562433123,0.0630856209229678
1782951219869454600,5.24245458984375,0.0526549008667469,0.102821492049098,0.0785999278537929
1782951219879381800,5.2523818359375,0.025990765824913976,0.09594444588646292,0.06430807539001107
1782951219889307600,5.2623076171875,-0.0107575408577919,0.08091624197214842,0.048796983329579234
1782951219899234800,5.27223486328125,-0.07859422876536845,0.05203238505423069,0.060897755489870906
1782951219909161700,5.28216162109375,-0.194881936109066,0.012640578125417232,0.00338847339451313
1782951219919088600,5.292088623046875,-0.2866501192241907,0.04400368463844061,-0.06675656452067195
1782951219929015600,5.302015625,-0.2829763991475105,0.07465908127352595,-0.07324344232194126
1782951219938941700,5.311941650390625,-0.1530593949019909,0.07950695969611406,-0.02231039681173861
1782951219948868900,5.321868896484375,0.05259060345888138,0.06796382141858338,0.020663360257074236
1782951219958795800,5.331795654296875,0.21936463545858859,0.04061813385337591,0.03836692086048424
1782951219968722700,5.34172265625,0.3136065152108669,0.058924482655525204,0.03156688545681536
1782951219978649600,5.351649658203125,0.31924247527122496,0.0524685845144093,-0.01999890499897301
1782951219988575700,5.36157568359375,0.22684710016846654,0.04449833628758788,-0.040236952516064045
1782951219998502700,5.371502685546875,0.08406301556527614,0.05737082347273826,-0.060558148271963
1782951220008429800,5.381429931640625,-0.09138239866793155,0.08345891219228506,-0.0755424399793148
1782951220018356700,5.391356689453125,-0.16971593067049978,0.07831921121627092,-0.06880385243929922
1782951220028283600,5.40128369140625,-0.15718670396506784,0.07185790624767542,-0.05695537453964352
1782951220038209800,5.411209716796875,-0.13689210395514964,0.07521218511164188,-0.04577551661655307
1782951220048136700,5.42113671875,-0.051152679610252376,0.08275076392292977,-0.06674998864941299
1782951220058064000,5.43106396484375,0.009105097475647925,0.08386603168845176,-0.06797434281259775
1782951220067990800,5.44099072265625,0.023929741641879082,0.09496581011265516,-0.05654767052158713
1782951220077916700,5.450916748046875,0.0661836600035429,0.12235767490714787,-0.047197731439396734
1782951220087843600,5.460843505859375,0.10608546228110789,0.13333411921262742,-0.04500782017968595
1782951220097770800,5.470770751953125,0.07670797662734985,0.11270166555047034,-0.05771788334473967
1782951220107697700,5.48069775390625,0.031178982117772102,0.09878069222569465,-0.060326093081757425
1782951220117624800,5.490624755859375,-0.027806875336170194,0.0965836205728352,-0.07880173403620719
1782951220127550700,5.50055078125,-0.05600421129465103,0.07386383924260735,-0.10672777877263724
1782951220137477600,5.5104775390625,-0.11019932734072208,0.07424231716617942,-0.14773951505348085
1782951220147404500,5.520404541015625,-0.07784428718090057,0.09099617582932114,-0.14430676412582397
1782951220157331700,5.530331787109375,0.011949380990862846,0.09955255338102578,-0.1409665868524462
1782951220167258600,5.540258544921875,0.1230167233377695,0.07319076228663325,-0.0983307565011084
1782951220177184500,5.5501845703125,0.16681904018521307,0.05599778155386448,-0.07747888793461025
1782951220187111700,5.560111572265625,0.14172083928585053,0.06036372167840599,-0.07770765518918633
1782951220197038600,5.57003857421875,0.07736030305624007,0.0830244662977755,-0.09505071191713213
1782951220206965800,5.5799658203125,0.03873977276086807,0.07567834131866694,-0.0984070366077125
1782951220216891600,5.5898916015625,0.041456045982241625,0.06828238584846258,-0.09495331595726311
1782951220226818800,5.59981884765625,0.017905074524879456,0.0531463376455009,-0.09347111457549034
1782951220236745500,5.609745361328125,0.012138181561231613,0.034357612153887745,-0.09549728664085269
1782951220246672600,5.619672607421875,0.026554244926571845,0.06250964766591786,-0.08724354529753327
1782951220256599600,5.629599609375,0.006133972710371017,0.06105009650737047,-0.029019539061561225
1782951220266525700,5.639525634765625,-0.05654314047694206,0.06917714273110032,0.049129430154338474
1782951220276452900,5.649452880859375,-0.11266484067142009,0.14373670915290712,0.05855031558088958
1782951220286379500,5.659379638671875,-0.11212591148912907,0.13346826698631048,0.06289309402555227
1782951220296306700,5.669306640625,-0.08383739011585711,0.08330576745718717,0.06654496759660541
1782951220306233600,5.679233642578125,-0.0020645313143730164,0.0655788259781897,0.024819676218926907
1782951220316159700,5.68915966796875,0.0889922886610031,0.06503609740361571,0.005734378933534026
1782951220326086700,5.699086669921875,0.1462795255035162,0.04060220563188195,0.03433803067058325
1782951220336013800,5.709013916015625,0.12408932100534438,0.03249254893437028,0.07893712391890585
1782951220345940500,5.7189404296875,0.04119418017566204,0.0571361379340291,0.07967647104412316
1782951220355867600,5.72886767578125,0.002596446233987808,0.05381634586155414,0.08443338324762881
1782951220365793800,5.738793701171875,-0.03942015624046325,0.02875263175368309,0.08190357250906527
1782951220375720700,5.748720703125,-0.027752514800429343,0.0006869593508541583,0.06457184089273214
1782951220385647900,5.75864794921875,0.018794716840982436,-0.005398205781728029,0.01909238461330533
1782951220395574800,5.76857470703125,0.11211305200755596,-0.04927110364735126,-0.01665207878910005
1782951220405500700,5.778500732421875,0.10414777221679687,-0.09871975581869483,-0.02587839149162173
1782951220415427600,5.788427490234375,0.030041502520442007,-0.07846972560286522,-0.05612769154384732
1782951220425354800,5.798354736328125,-0.05612988350093365,-0.03645253860652446,-0.11573781837597488
1782951220435281700,5.80828173828125,-0.16139935322403906,0.009862345583736895,-0.09329765770472585
1782951220445208800,5.818208740234375,-0.26769933503866195,0.056905544048547745,-0.036368221323937175
1782951220455134700,5.828134765625,-0.20081658685505388,0.12934125018417836,-0.0063272302601486445
1782951220465061600,5.8380615234375,-0.04102408430576324,0.13625892061814665,0.03214271258339286
1782951220474988800,5.84798876953125,0.13678513644933699,0.11379311404898762,0.05740516413375735
1782951220484915700,5.857915771484375,0.25256255618333817,0.12318579629436134,0.012624284577742218
1782951220494843000,5.8678427734375,0.25526012470424175,0.12842574277445673,-0.024138927413150667
1782951220504768500,5.8777685546875,0.18011866674125193,0.1322862175948918,-0.044997079589962956
1782951220514695700,5.88769580078125,0.0859691414475441,0.15802987679094074,-0.05025017781257629
1782951220524622600,5.89762255859375,0.03550269053578377,0.17259163223728535,-0.06859210938476025
1782951220534549800,5.9075498046875,-0.024736966371536252,0.11250248971655964,-0.028038492134958504
1782951220544476700,5.9174765625,-0.09003156858086585,0.09985065954476595,-0.030738910200074313
1782951220554402600,5.927402587890625,-0.10206979689896106,0.10786766952276229,-0.048370939937233924
1782951220564329700,5.937329833984375,-0.09192951115667819,0.08459522274583578,-0.03567198268808424
1782951220574256600,5.947256591796875,-0.10334171653091907,0.07865633421614765,-0.05014386789388954
1782951220584183800,5.957183837890625,-0.0934843393832445,0.1182391336724162,-0.10044614121988416
1782951220594109700,5.967109619140625,-0.05561258162856102,0.1263185413621366,-0.12572094079516827
1782951220604036900,5.977036865234375,0.04835281975865364,0.08256371691823006,-0.08500643389523029
1782951220613963500,5.986963623046875,0.12799392722845077,0.05520093208774924,-0.09112345547080039
1782951220623890700,5.996890625,0.193992293792963,0.024992840828746556,-0.10731573472842573
1782951220633817600,6.006817626953125,0.22995441853404044,0.0234768833078444,-0.12691044284068048
1782951220643743700,6.01674365234375,0.1491425137192011,-0.020492899060994385,-0.10301474959887563
1782951220653671000,6.0266708984375,0.00324818814098835,-0.017399024698883294,-0.11236731902956962
1782951220663597600,6.03659765625,-0.09284896408915519,0.000443067592382431,-0.113901031402871
1782951220673524700,6.046524658203125,-0.1458294436484575,0.0037337797008454797,-0.05057341841757297
1782951220683451600,6.05645166015625,-0.1616553738117218,0.026983868515491484,0.008616875567287206
1782951220693377800,6.066377685546875,-0.11219254698455333,0.026206454402208326,0.00018280922099947927
1782951220703304700,6.0763046875,-0.10428279677331447,-0.02321691719740629,-0.05285166554786264
1782951220713232000,6.08623193359375,-0.13165011164844034,-0.038837095655500885,-0.06532733543515205
1782951220723158500,6.096158447265625,-0.19773031127750873,-0.021196663416177035,-0.07746858573630452
1782951220733084400,6.10608447265625,-0.23852526300251484,0.04210252719223499,-0.09855382466726005
1782951220743011600,6.116011474609375,-0.19754151070713996,0.11973989362418651,-0.09177453979067504
1782951220752938500,6.1259384765625,-0.02828852137327194,0.1422661982089281,-0.05122727921642363
1782951220762865700,6.13586572265625,0.15986089161038397,0.09651143211945891,-0.022056495115906
1782951220772792600,6.14579248046875,0.28158640609383584,0.10000921110734343,0.052484878062084316
1782951220782718500,6.155718505859375,0.33368659568727016,0.12547653758004307,0.06685257224105298
1782951220792645400,6.165645263671875,0.3168611330926418,0.1437223883666098,0.04957213242053985
1782951220802572500,6.175572509765625,0.2679629544109106,0.15293050782531498,0.020319953646883368
1782951220812499500,6.18549951171875,0.12230360663235187,0.139841893671453,-0.06374423096217215
1782951220822426600,6.195426513671875,-0.011851765835285187,0.15043021544218063,-0.12043532854244113
1782951220832352500,6.2053525390625,0.0005447744011878967,0.18325506507083772,-0.1333576462186873
1782951220842279400,6.215279541015625,0.09159867176711559,0.14211042312532662,-0.08525814363397657
1782951220852206600,6.22520654296875,0.14348843348026274,0.06942337257713078,-0.057134822759777305
1782951220862133500,6.235133544921875,0.15146014301180838,0.07600304322838783,-0.10145882539376616
1782951220872060400,6.245060302734375,0.11943009702265261,0.06707461749389768,-0.10498020445294677
1782951220881986600,6.254986572265625,0.0413221904695034,0.03999357221424579,-0.09800956172272562
1782951220891913500,6.26491357421875,0.00034720600247383117,0.04588438381850719,-0.11914112401343882
1782951220901840400,6.27484033203125,0.0010498013138771057,0.026806612252444028,-0.15454108482711015
1782951220911767600,6.284767578125,-0.0036070845812559127,0.01156798045784235,-0.10619396415688097
1782951220921693400,6.294693359375,-0.021389409509301183,0.014962445201724767,-0.08666464943103491
1782951220931620600,6.30462060546875,-0.08224632153213024,0.033679566761851305,-0.07019282257966697
1782951220941547500,6.314547607421875,-0.14199439553022383,0.06979863563030958,-0.06402553212158382
1782951220951474400,6.324474365234375,-0.1607528720140457,0.06526946776807308,-0.0520716210860759
1782951220961401300,6.3344013671875,-0.14074819486141205,0.07131956158727407,-0.025189970836043355
1782951220971327500,6.344327392578125,-0.10802549043297767,0.08605287420824169,0.00047090544737875457
1782951220981254700,6.354254638671875,-0.07515314840078353,0.11262421640008688,-0.01718932747095823
1782951220991181600,6.364181640625,0.039324294650554655,0.10898761346340179,-0.03141922061443329
1782951221001108700,6.374108642578125,0.15198855080008505,0.09776756966039538,0.02199095559902489
1782951221011035400,6.384035400390625,0.20272563534677027,0.09161401546671986,0.04140541177354753
1782951221020961500,6.39396142578125,0.20554303085505962,0.10045432452633976,0.027891338749229905
1782951221030888400,6.403888427734375,0.15155834268927573,0.0954224678389728,0.012346855875849723
1782951221040815600,6.413815673828125,0.06948562415838241,0.07103942947164177,0.020686668067425487
1782951221050742500,6.423742431640625,0.010234978288412093,0.09318257995769381,-0.008428367257863282
1782951221060669400,6.43366943359375,-0.010751695638895034,0.06533318065404892,-0.04467866129055619
1782951221070595600,6.443595703125,-0.03388648751080036,0.02451572483628988,-0.07240092708319425
1782951221080522500,6.4535224609375,-0.05448328533768654,-0.00858531138524413,-0.12269355579800903
1782951221090449700,6.46344970703125,-0.08631751649379729,-0.03149477006867528,-0.15126549722254276
1782951221100376600,6.47337646484375,-0.07936404409408569,-0.010804887130856514,-0.138263611504063
1782951221110302500,6.483302490234375,-0.09262275411784648,-0.014476853641867637,-0.10936784495264291
1782951221120229400,6.4932294921875,-0.11952946574389933,0.021601737085729836,-0.04090856816731393
1782951221130156500,6.503156494140625,-0.11866145073771477,0.07986848648488522,0.0052763329677283765
1782951221140083500,6.51308349609375,-0.04166004412174225,0.0846716489829123,0.01593560108281672
1782951221150010600,6.5230107421875,0.06239537363648414,0.07647489852383732,0.017400705199316142
1782951221159936500,6.5329365234375,0.14666414090692997,0.09201455909162759,0.014658201558142899
1782951221169863400,6.542863525390625,0.1963157683044672,0.09540200957283378,-0.02144764250256121
1782951221179790600,6.55279052734375,0.23427228173315523,0.10679010341912508,-0.02109860986918211
1782951221189717500,6.562717529296875,0.19356676185727117,0.13640285913348196,-0.0070588324703276155
1782951221199644700,6.572644775390625,0.07778466594815253,0.14493205641731619,0.01784501490071416
1782951221209570600,6.582570556640625,-0.058733928519487374,0.13958221982195973,-0.02850399075485766
1782951221219497500,6.59249755859375,-0.12074351770877838,0.13380641289949416,-0.04492934811599553
1782951221229424400,6.60242431640625,-0.13949205732047557,0.10274462742060422,-0.04897058633081615
1782951221239351600,6.6123515625,-0.22600948030054568,0.08473565412983297,-0.03583879062235355
1782951221249278500,6.622278564453125,-0.1657633936524391,0.0953327437289059,-0.07934197839275002
1782951221259204600,6.63220458984375,0.039323710128664965,0.06585311287492514,-0.04734028171524405
1782951221269131500,6.642131591796875,0.146919576972723,0.0309426891438663,0.028824308750405907
1782951221279058400,6.652058349609375,0.21389760222434998,0.029851386775821446,-0.04173661648929119
1782951221288985600,6.661985595703125,0.20132512089908122,0.005328793807327747,-0.11122538245283066
1782951221298911500,6.671911376953125,0.0688940880060196,0.02896846646144986,-0.14880867865495384
1782951221308838700,6.681838623046875,-0.0004804769933223724,0.06536109157428145,-0.1702397353488952
1782951221318765600,6.691765625,-0.014819383469223976,0.08713073257282376,-0.14729396324306726
1782951221328692500,6.7016923828125,0.051365445578098294,0.10448036517202854,-0.1075713169246912
1782951221338619400,6.711619384765625,0.1575602134525776,0.07446604291945695,-0.047464784877747294
1782951221348545500,6.721545654296875,0.16433716024160383,0.05372925209999084,-0.0010762509293854236
1782951221358472700,6.73147265625,0.06919628582298755,0.06590192045271397,-0.009629121349751949
1782951221368399600,6.741399658203125,-0.058574938565492625,0.06552168896347284,-0.040594168455898756
1782951221378326500,6.751326416015625,-0.12015081251263618,0.0846406693227589,-0.05414470103308558
1782951221388253400,6.76125341796875,-0.13763736936450005,0.1263733402892947,-0.06456658019572496
1782951221398179600,6.7711796875,-0.10083353310227393,0.1399297180853784,-0.0649921121314168
1782951221408106500,6.7811064453125,-0.003573182311654091,0.12093231827914715,-0.061956982219219206
1782951221418033700,6.79103369140625,0.13200842356681822,0.09776946935653685,-0.05300773289240896
1782951221427960600,6.800960693359375,0.19471125571727751,0.08549889358729124,0.024732801653072237
1782951221437887500,6.810887451171875,0.18214812674224376,0.05892725913450122,0.0466615056708455
1782951221447813600,6.820813720703125,0.09033551996350288,0.07474559051319957,0.04716945519298315
1782951221457740500,6.830740478515625,-0.027934885630011556,0.05663359523937106,0.04522723508402705
1782951221467667500,6.84066748046875,-0.1575157897889614,0.0351505160972476,0.026875074378773567
1782951221477594600,6.8505947265625,-0.21697686353921888,0.053340545043349265,-0.0249026783272624
1782951221487521500,6.860521484375,-0.22557518053650855,0.05781695980504155,-0.009228796920552848
1782951221497447400,6.870447509765625,-0.15810206524431705,0.04732990645170212,-0.015315350292623042
1782951221507374600,6.88037451171875,-0.08251637064516544,0.03126417618319392,0.011160130309313536
1782951221517301500,6.890301513671875,-0.0410433735281229,0.02562090959921479,0.04796601239815354
1782951221527228700,6.900228759765625,-0.07362754626870155,0.041622634720802305,0.04301876525431871
1782951221537154600,6.910154541015625,-0.05524199475049972,0.028283699067682026,-0.04896043026298284
1782951221547081500,6.92008154296875,0.07571955011188984,0.06402399775162339,-0.08942658842504024
1782951221557008400,6.93000830078125,0.23725275884866714,0.0656179889447987,-0.10685323178321122
1782951221566935600,6.939935546875,0.34102409896850583,0.031409137611836196,-0.11414477703087031
1782951221576862500,6.949862548828125,0.3430962290674448,-0.0014371931962668895,-0.05642514012046158
1782951221586788400,6.959788330078125,0.23987024787068364,-0.015376871221512555,-0.06204115337133407
1782951221596715500,6.969715576171875,0.058956631359457966,-0.018775135357677934,-0.08300042783506215
1782951221606642400,6.979642333984375,-0.1545534328520298,-0.0013020225092768669,-0.13179660744704305
1782951221616569600,6.989569580078125,-0.27400749527215956,0.047856852935254574,-0.16834727266579866
1782951221626496500,6.99949658203125,-0.2534060212701559,0.026522388483583927,-0.12245565538890658
1782951221636422700,7.009422607421875,-0.14566168586611747,0.0056952890321612356,-0.08742591612711548
1782951221646349300,7.019349365234375,-0.03606733868122101,0.002638239549100399,-0.04318520786240697
1782951221656276500,7.0292763671875,0.0567243422627449,0.012515052049607038,-0.03307962810732424
1782951221666203400,7.039203369140625,0.1568447586596012,0.02284209253564477,-0.0388304467190057
1782951221676129500,7.049129638671875,0.17311200284957884,0.051219461236149066,-0.03781177119575441
1782951221686056700,7.059056640625,0.11375029782056807,0.10827464288845658,-0.015763167125359176
1782951221695983400,7.0689833984375,0.05914426288604736,0.16710867078155278,-0.020871084723621605
1782951221705910500,7.07891064453125,0.024455226820707318,0.1700682512395084,-0.0005598258398473262
1782951221715837400,7.08883740234375,0.013681903871893882,0.13812749096900223,0.024264964945614337
1782951221725763600,7.098763671875,0.0036363106757402418,0.11594459299445152,0.05258819230608642
1782951221735690500,7.1086904296875,-0.009537643674015998,0.09148235191106796,0.03654956924021244
1782951221745617700,7.11861767578125,-0.08533493519723415,0.10272679950296879,0.004564093045145273
1782951221755544300,7.12854443359375,-0.22107143937647342,0.1296070615135133,-0.00019829905107617376
1782951221765471500,7.138471435546875,-0.2812432917445898,0.17792758643776177,-0.04468253374807536
1782951221775397600,7.148397705078125,-0.17796704166531563,0.17941504851654172,-0.03280789849385619
1782951221785324500,7.158324462890625,-0.001980360162258148,0.13434183495044708,-0.008797346700727939
1782951221795251700,7.168251708984375,0.1673503705829382,0.07901859165728092,-0.05001768423095345
1782951221805178600,7.1781787109375,0.2532932085454464,0.045865094596147536,-0.07391038179807365
1782951221815105500,7.18810546875,0.2914788545548916,0.054556642834842205,-0.052842751589044924
1782951221825031400,7.198031494140625,0.2287789450138807,0.05790639165416359,-0.06177366154156625
1782951221834958600,7.20795849609375,0.10464987652003764,0.08604425251036882,-0.07347498605549335
1782951221844885500,7.217885498046875,-0.026430910807847974,0.08887772237062454,-0.08353110064566135
1782951221854812700,7.227812744140625,-0.07794073329269885,0.10115355883687734,-0.08873743711709976
1782951221864738600,7.237738525390625,-0.09001870909929274,0.09466258938238024,-0.0691432404614985
1782951221874665500,7.24766552734375,-0.08442366557121277,0.0747613726042211,-0.03702551618888974
1782951221884592600,7.257592529296875,-0.010914192724227905,0.06062339552789926,0.0039739451322704554
1782951221894519600,7.26751953125,0.0807967072457075,0.04895882282778621,0.016705197215825317
1782951221904446700,7.27744677734375,0.07701426609754562,0.036075960379093885,0.007559183207899332
1782951221914372400,7.287372314453125,0.000008767828345298767,0.012824848651140927,-0.03729403093196451
1782951221924299500,7.297299560546875,-0.07089432191252708,0.024998686047643423,-0.0653721974901855
1782951221934226400,7.307226318359375,-0.1081675292521715,0.05353270661458373,-0.08338855036981403
1782951221944153600,7.317153564453125,-0.06516483834981918,0.07530497796162962,-0.08226509929783642
1782951221954080500,7.32708056640625,-0.006754150435328483,0.07491217925176023,-0.06277290171198546
1782951221964006400,7.33700634765625,-0.010166004705429077,0.054026627611368894,-0.03158727065771818
1782951221973933600,7.34693359375,-0.03444938209056854,0.0782927616007626,-0.034867826698347926
1782951221983860500,7.356860595703125,0.08153846552371978,0.07520648602321743,-0.10569507472403347
1782951221993787600,7.36678759765625,0.19771102205514907,0.010677022967487572,-0.06089344464093446
1782951222003714600,7.376714599609375,0.26074527811706066,-0.01783347059339285,-0.020718451445177196
1782951222013640700,7.386640625,0.23928280337154864,0.017125906845927238,-0.053269964025169605
1782951222023567400,7.3965673828125,0.1332908645927906,0.04781827449053526,-0.05350983719564974
1782951222033494500,7.40649462890625,-0.006287117445468902,0.0751353204831481,-0.046438656700402495
1782951222043421400,7.41642138671875,-0.08171323756873607,0.08976897212192415,-0.10231536915786564
1782951222053347600,7.42634765625,-0.1433949099779129,0.0648665860556066,-0.12409370491951703
1782951222063274500,7.4362744140625,-0.16384557733237742,0.057377399343997236,-0.11646028743162751
1782951222073201400,7.446201416015625,-0.14496142864227293,0.0525961564168334,-0.0977251918233931
1782951222083128600,7.456128662109375,-0.051639586344361305,0.08364639758840203,-0.06457870902493595
1782951222093055500,7.466055419921875,0.0948871919184923,0.11154811160117387,-0.030710122497007247
1782951222102981600,7.475981689453125,0.20185002155601978,0.10600129112899302,0.04021320631429553
1782951222112908500,7.485908447265625,0.2402431728363037,0.11058408887460827,0.06552512302957475
1782951222122835700,7.495835693359375,0.19181787236332892,0.06974456735551357,0.09106061936765909
1782951222132762400,7.505762451171875,0.038538697230815884,0.0355859849050641,0.03965769132338464
1782951222142689500,7.515689453125,-0.07177402735650538,0.061836132318526506,-0.03900273454599082
1782951222152615400,7.525615478515625,-0.06226794786453247,0.11264745114520192,-0.04472337721511721
1782951222162542600,7.53554248046875,-0.07601882531940937,0.07628580569252372,-0.09899762291200459
1782951222172469500,7.545469482421875,-0.05968319206833839,0.033561931731551885,-0.09109371791966259
1782951222182396400,7.555396484375,-0.0021358429849147797,0.04516527576372027,-0.07052972638383508
1782951222192323300,7.5653232421875,0.07706804211139678,0.04808949264734983,-0.04102737224139273
1782951222202249500,7.57524951171875,0.12845569952130317,0.0613189765766263,0.01107099072113633
1782951222212176600,7.5851767578125,0.05333353078067302,0.09093743137940764,0.026208134902641175
1782951222222103600,7.595103515625,-0.12485679824650286,0.08096051950529218,0.012821706845983862
1782951222232030700,7.60503076171875,-0.23751637822091579,0.1038793305389583,-0.024028160515055057
1782951222241956400,7.614956298828125,-0.18662673346102238,0.09844766087904572,0.006336582610383629
1782951222251883500,7.624883544921875,-0.0685796152293682,0.060380526682734484,0.027212343509122727
1782951222261810400,7.634810546875,0.04509294117987156,0.056767889143526554,0.015778949216380716
1782951222271737600,7.644737548828125,0.11509352912306785,0.02421469606310129,0.01954955379627645
1782951222281664500,7.65466455078125,0.024140754044055936,-0.009392243853956461,0.06252842543162405
1782951222291590400,7.66459033203125,-0.1129255374342203,0.027422552193701266,0.020731676252931354
1782951222301517600,7.674517578125,-0.16079729567766188,0.08329305410608649,-0.03672061495818198
1782951222311444500,7.684444580078125,-0.10961305188536644,0.10344210816547274,-0.09292349063009023
1782951222321371600,7.69437158203125,-0.031392332607507706,0.060212330508977174,-0.13395941150411964
1782951222331298600,7.704298583984375,0.08710954365432262,0.018373861080408095,-0.12300408305190502
1782951222341224400,7.714224365234375,0.1838227819561958,0.008401040859520434,-0.10931545717827976
1782951222351151400,7.7241513671875,0.16820903323888778,0.012099310855567454,-0.06544818533584475
1782951222361078500,7.73407861328125,0.12782149327099324,0.023888678979128598,-0.0422672892998904
1782951222371005400,7.74400537109375,0.10558920319676399,0.06498173686787485,-0.04951799108050763
1782951222380932600,7.7539326171875,0.07620294971466064,0.06772314453050494,-0.06366451678946614
1782951222390858500,7.7638583984375,0.030301030239462852,0.049287177999317644,-0.08468224344216287
1782951222400785400,7.773785400390625,0.015372341176867484,0.024200229146331548,-0.09245594618357718
1782951222410712600,7.783712646484375,0.06260521699488163,0.031665158199518914,-0.10280278734862804
1782951222420639500,7.793639404296875,0.06412906556129455,0.07709478398784994,-0.2317269080992788
1782951222430565600,7.803565673828125,0.07759644989967346,0.03658230246603489,-0.21213548792265355
1782951222440492500,7.813492431640625,0.11288578994572163,0.004579290614277124,-0.19765973025932906
1782951222450419500,7.82341943359375,0.10239596011340618,0.013997253431379794,-0.17941782499551773
1782951222460346400,7.833346435546875,0.06238543676435947,0.05576484958082437,-0.1270152183894068
1782951222470273500,7.8432734375,0.03319675168097019,0.1111392385393381,-0.07441467805840074
1782951222480199700,7.85319970703125,-0.018620529317855832,0.10480375190749763,-0.06174238962046802
1782951222490126600,7.863126708984375,-0.05615151081085205,0.11267287784740328,-0.008865224305167793
1782951222500053800,7.8730537109375,-0.030099370187520978,0.1282027476735413,0.010502981574833392
1782951222509980400,7.88298046875,0.016180734950304032,0.11087547303661703,0.03380282781533897
1782951222519907600,7.892907470703125,0.0360720148563385,0.10003376102671027,0.020413477149233222
1782951222529833500,7.90283349609375,0.021267828956246376,0.11333689471408724,0.004575856548175216
1782951222539760600,7.9127607421875,-0.0655956309825182,0.11055354760587215,0.018812690889090298
1782951222549687600,7.9226875,-0.16143150192797184,0.15145912009850143,0.025176526832580565
1782951222559614500,7.932614501953125,-0.16889292384982107,0.15918343074023722,0.024687428141385314
1782951222569541400,7.942541259765625,-0.15738368784189224,0.14542100897803903,0.05146839449591934
1782951222579467500,7.952467529296875,-0.12383856111466884,0.14287833875790237,0.05564356128871441
1782951222589394700,7.962394775390625,-0.12499006923735141,0.13224004036560655,0.021340967257693407
1782951222599321600,7.972321533203125,-0.06266483822762965,0.1096560142442584,-0.030447818299010394
1782951222609248500,7.98224853515625,0.02383037292063236,0.0846095435321331,-0.030508024053648112
1782951222619173600,7.992173583984375,0.10039163455367088,0.0858307558901608,-0.026513693720474837
1782951222629100500,8.0021005859375,0.16310732618570326,0.0972296633914113,-0.02516162152439356
1782951222639026700,8.012026611328125,0.14113456383049489,0.11532090813815593,-0.01565963368564844
1782951222648953300,8.021953369140626,0.14194938734471796,0.09280088716372847,-0.032173034656420345
1782951222658880500,8.031880615234375,0.09707856448292732,0.0274896260805428,-0.09671630704179406
1782951222668807400,8.041807373046876,-0.028379706788063046,0.015838351253420115,-0.15544775134325026
1782951222678733600,8.051733642578125,-0.0698696550399065,0.03724588094130158,-0.2097029270134866
1782951222688660700,8.06166064453125,0.001572363883256912,0.045256168917566536,-0.22049173979237674
1782951222698587400,8.07158740234375,0.10306699124276637,0.034836920103430744,-0.14193411671034992
1782951222708514600,8.0815146484375,0.13812018444538116,0.053205812747776506,-0.07908705378361046
1782951222718441500,8.09144140625,0.08821429002583027,0.0921603973031044,-0.030477336654439566
1782951222728367600,8.10136767578125,-0.04991466224789619,0.10992080266028642,0.0058035717122256756
1782951222738293800,8.111293701171874,-0.10870938104391098,0.09695245388522744,0.01240779228284955
1782951222748221000,8.121220947265625,-0.1831049890756607,0.09706000591292976,0.00498465654477477
1782951222758147800,8.13114794921875,-0.17731646880209445,0.11084186302796005,-0.01049129113703966
1782951222768075000,8.141074951171875,-0.048532267978787416,0.10646320955231785,0.008624912743270397
1782951222778001000,8.1510009765625,0.11570026284456253,0.09092851742058992,0.050683746924251316
1782951222787927800,8.160927734375,0.19921967305243013,0.06728709120079875,0.05847944230176508
1782951222797855000,8.17085498046875,0.18110124803781508,0.06911825215071439,0.019860811702534554
1782951222807782000,8.180781982421875,0.09240531197488308,0.07050166933313012,0.012764058374613522
1782951222817709000,8.190708984375,-0.015988427248597146,0.06033288814872503,-0.01104249527901411
1782951222827634700,8.200634765625,-0.1008481461495161,0.06586874883547425,-0.008209683005884288
1782951222837561900,8.210561767578126,-0.10879238315224647,0.07013254375979304,-0.05752857131771743
1782951222847488800,8.22048876953125,-0.027670097213983533,0.04500497063547373,-0.1060409655522555
1782951222857416000,8.230416015625,0.02462649173438549,0.020467033967375755,-0.10676716093495488
1782951222867342800,8.2403427734375,0.026108839246630666,0.0340643282957375,-0.1290722970496863
1782951222877268700,8.250268798828126,0.038538697230815884,0.08313800967484712,-0.17288206655122337
1782951222887196000,8.26019580078125,0.11254442916214466,0.1077434586212039,-0.15277210239320993
1782951222897122800,8.270122802734376,0.16536942589879036,0.0512858044706285,-0.06659370210915803
1782951222907050000,8.280050048828125,0.049231356158852574,0.02932458642274141,-0.0023264701861888167
1782951222916975900,8.289975830078125,-0.12218670225441455,0.07106748652234673,-0.0341925577852875
1782951222926903000,8.299903076171875,-0.18275544498562812,0.11323723373189568,-0.11169899131394923
1782951222936829700,8.30982958984375,-0.09767828394174576,0.09601137364283203,-0.08245010047592222
1782951222946756900,8.3197568359375,-0.044185178685188294,0.05589549022316932,-0.0403696389850229
1782951222956683800,8.329683837890625,-0.03026654344797134,0.0810673408806324,-0.0679011314459145
1782951222966610000,8.33960986328125,0.07882102325856685,0.1361350019775331,-0.07199504969604313
1782951222976537000,8.349537109375,0.2297936750143766,0.13104717731922863,-0.009893252178654074
1782951222986466800,8.359466796875,0.3093126174092293,0.07196662731915712,0.06529789014495908
1782951222996393000,8.36939306640625,0.2237292604088783,0.08281053128615021,0.028946985282003877
1782951223006319900,8.37931982421875,0.0926566563874483,0.11363938479200004,-0.0308751768656075
1782951223016246800,8.389246826171876,0.025020459488034247,0.10590718310475349,-0.06797017809413373
1782951223026174000,8.399174072265625,-0.014563362881541251,0.07874401249960064,0.008859817477688194
1782951223036099800,8.409099853515626,-0.12628361617922781,0.10081395161896943,0.047929772040992975
1782951223046027000,8.419027099609375,-0.19570494292974472,0.13515826589986682,-0.013249503803998232
1782951223055954000,8.428953857421876,-0.2161357365399599,0.11670140271112323,-0.020151684407889843
1782951223065881000,8.438881103515625,-0.22932898011207578,0.05506356944367289,0.040945466111600395
1782951223075807700,8.448807861328126,-0.2681727977693081,0.03211100227087736,-0.00027713644094765186
1782951223085734000,8.45873388671875,-0.20400456924140453,0.0588940875172615,-0.07672770424112677
1782951223095660800,8.468660888671875,-0.035927053427696226,0.0552897794149816,-0.09877031696215272
1782951223105588000,8.478587890625,0.1704874995648861,0.05924991521760821,-0.0908284180469811
1782951223115515000,8.488514892578126,0.2728460502773523,0.04146422928869724,-0.06118672849908471
1782951223125441800,8.49844189453125,0.29251579638719555,0.046843145848065613,-0.07923033471181988
1782951223135368000,8.508367919921875,0.2546861242085695,0.04066007329896092,-0.10335143420733511
1782951223145294800,8.518294921875,0.20822540180683136,-0.016197101563215254,-0.05908595682755112
1782951223155222000,8.528221923828125,0.12291443200707435,-0.01826762422695756,-0.049283963128924364
1782951223165149000,8.53814892578125,0.030275311276316642,0.0012013386137783527,-0.08503653677254915
1782951223175076000,8.548076171875,-0.10120762711167335,0.03310293591767549,-0.07347608203403651
1782951223185001700,8.558001708984374,-0.1558738678008318,0.08835779014974832,-0.04679236550889909
1782951223194929000,8.567928955078125,-0.10150339518785476,0.09316942821517586,-0.035151758206263185
1782951223204855800,8.577855712890624,-0.08515197984576225,0.10205986002683638,0.02949402470551431
1782951223214783000,8.587782958984375,-0.06067278762757778,0.1266771455414593,0.054442661066353315
1782951223224710000,8.5977099609375,0.010673954227566718,0.1384222361318767,0.033673867673426866
1782951223234635800,8.6076357421875,0.028907530054450032,0.12234729964360594,0.0180120420306921
1782951223244563000,8.61756298828125,0.02931727989912033,0.11708543359264731,0.004088365292176604
1782951223254489900,8.62748974609375,0.03768938692510128,0.1239475744470954,-0.021499518820270895
1782951223264417000,8.6374169921875,0.031333880418539045,0.12716346775367857,-0.03684679862111807
1782951223274343000,8.647343017578125,0.007681786674261093,0.11619432997182011,-0.0011627601690590381
1782951223284269800,8.657269775390626,-0.0045966801404953,0.1241873745523393,-0.004869871058687567
1782951223294196700,8.66719677734375,0.07381634683907032,0.0950700011394918,-0.005678922419250011
1782951223304124000,8.6771240234375,0.1279097560763359,0.045013884594291446,0.0033874504812061784
1782951223314050800,8.68705078125,0.09393968193531035,-0.003194412127137184,-0.026209230881184337
1782951223323977000,8.69697705078125,0.006344400590658187,0.016872808867692945,-0.11659005129113793
1782951223333904000,8.70690380859375,-0.021942367216944692,0.001166121169924736,-0.2113931451227516
1782951223343830800,8.716830810546876,-0.08027589824199675,-0.047679596672207114,-0.2514994569964707
1782951223353758000,8.726758056640625,-0.06533259613215923,-0.03533537114486098,-0.24267244580984115
1782951223363684900,8.736684814453126,-0.027553777357935905,-0.004340513422340154,-0.19849420832209289
1782951223373611000,8.746611083984375,-0.001796235767006874,-0.00850435510352254,-0.11190598512813449
1782951223383538000,8.756537841796876,-0.03417816393375397,0.006346154156327247,-0.047490430775657295
1782951223393464800,8.76646484375,-0.07401508428156375,0.07333440854102373,-0.03824256382845342
1782951223403391700,8.776391845703126,-0.0805097069978714,0.10459142433106898,-0.04371544228158891
1782951223413319000,8.78631884765625,-0.05208265393674373,0.10703414130806922,-0.028734803836047648
1782951223423245000,8.7962451171875,-0.006911386823654175,0.09998597636222839,-0.0365763111166656
1782951223433172000,8.806171875,0.061489364707469935,0.1021726727515459,-0.03937091027125716
1782951223443099000,8.816098876953125,0.08977496347129345,0.09326119815185666,-0.019473492885380982
1782951223453025800,8.82602587890625,0.09636720134317875,0.08472747082337737,-0.044303690498322244
1782951223462952000,8.835951904296875,0.09252046278715133,0.07413578805178403,-0.013859744656831026
1782951223472878800,8.84587890625,0.08224281440079212,0.06885258695185184,0.019187588616088033
1782951223482806000,8.855805908203125,0.06986205625534057,0.08880699522197245,0.03919979148805141
1782951223492733000,8.86573291015625,0.05580196672081947,0.09884557415544987,0.005735109585896134
1782951223502659800,8.875659912109375,0.06916589068472385,0.08435060033500194,-0.029464214089140295
1782951223512586000,8.8855859375,0.07776303863823414,0.048764177038520574,-0.0306976283416152
1782951223522513000,8.895512939453125,0.047082069170475006,-0.0014417232409119605,-0.026461232880875468
1782951223532440000,8.905440185546874,-0.0460147321999073,-0.0020950725831091403,-0.05396627572625875
1782951223542367000,8.915366943359375,-0.16605448555350302,0.014909692101180552,-0.09205759451575576
1782951223552294000,8.9252939453125,-0.21585107437968254,0.02532251117452979,-0.12053272450231015
1782951223562219800,8.9352197265625,-0.17507950353026389,0.02513882517069578,-0.08497918056212365
1782951223572147000,8.94514697265625,-0.06137129128575325,-0.00471738391071558,-0.05924969602189958
1782951223582073900,8.955073974609375,0.022747838380932806,0.015865385390818117,-0.029990502985566853
1782951223592001000,8.9650009765625,0.05732639980912208,0.012389525973796844,-0.020112886767461896
1782951223601928000,8.974927978515625,0.08569792329072952,0.05245163337960839,-0.039928836414963004
1782951223611853800,8.984853759765626,0.08453238664269447,0.111035924295336,-0.060826882210746405
1782951223621781000,8.994781005859375,0.10282967535555362,0.10187544337064028,-0.02525587567910552
1782951223631708000,9.0047080078125,0.11707622737288474,0.10791326223015785,0.03564838261678815
1782951223641634800,9.014634765625,0.1179237841129303,0.11429361091703176,0.06743702106550335
1782951223651560700,9.024560791015626,0.13901976363360882,0.11722937210798264,0.07995974496491252
1782951223661487900,9.03448779296875,0.09943126508891582,0.11154372768700122,-0.0019602672223001717
1782951223671414800,9.044414794921876,0.03477671434879303,0.08242211649045347,-0.06932261561639606
1782951223681342000,9.054342041015625,-0.02941489505469799,0.07154635608047247,-0.12864311185218394
1782951223691268900,9.064268798828126,-0.04049626103937626,0.07034428681433201,-0.1526942879166454
1782951223701195000,9.074195068359375,-0.008308978661894798,0.04475377235338092,-0.1326130383964628
1782951223711122000,9.084121826171875,0.05766249989569187,0.003771627493202686,-0.09624905485622584
1782951223721048800,9.094048828125,0.07347206344604491,-0.019324878194928168,-0.056922714379057285
1782951223730976300,9.103976318359376,0.026052725145220754,-0.024046499889343976,-0.03331621334217488
1782951223740903400,9.1139033203125,-0.017070377266407012,0.009208850111067295,-0.018185571966692803
1782951223750829300,9.123829345703125,-0.06784837834537029,0.009282938260585068,-0.017104425666481255
1782951223760756200,9.133756103515625,-0.11735036813914775,0.011155308003723621,-0.031626068298146126
1782951223770683400,9.143683349609375,-0.16971242353916166,0.044129064583778375,-0.06124130823053419
1782951223780610300,9.1536103515625,-0.14223521854877472,0.0882455619469285,-0.08045870746299624
1782951223790537500,9.163537353515625,-0.05796937388777733,0.09452508060783148,-0.0710497316699475
1782951223800463000,9.173463134765624,0.061086044603586194,0.09081775052249431,-0.028438743498921393
1782951223810390300,9.183390380859375,0.2314198149114847,0.09361834102645517,0.024873159971833227
1782951223820317200,9.193317138671874,0.324037308332324,0.09517185407876967,0.08869469395391642
1782951223830244400,9.203244384765625,0.299210325589776,0.10153715132698417,0.1017783396717161
1782951223840170500,9.21317041015625,0.19507599737644193,0.12719766228422522,0.06175568749345839
1782951223850097200,9.22309716796875,0.0806184280693531,0.12393836822733283,0.003680369013175368
1782951223860024300,9.2330244140625,0.0032259763091802597,0.10809446401596069,-0.020573928407952188
1782951223869951200,9.242951171875,-0.05910919157266616,0.07601751014515758,-0.04407273128665983
1782951223879878400,9.25287841796875,-0.0801303522914648,0.05576850284263491,-0.0585268616400659
1782951223889804300,9.26280419921875,-0.08218553125560284,0.0447564027018845,-0.04139299068339169
1782951223899731200,9.272731201171876,-0.07150806989669799,0.01083396709486842,-0.0350054085381329
1782951223909658000,9.282658203125,-0.0882388399451971,0.01869578651115298,-0.021440335978940128
1782951223919585300,9.292585205078124,-0.12012626259326935,0.04481164002045989,-0.09931004986204206
1782951223929512200,9.30251220703125,-0.06734335143268108,0.07967515586987137,-0.17736111166141927
1782951223939438300,9.312438232421876,0.0737602327376604,0.06840966548994183,-0.14451741120181977
1782951223949365500,9.322365478515625,0.2194511446982622,0.051532326577603815,-0.07485694193318486
1782951223959292200,9.332292236328126,0.2968839284688234,0.03313070070743561,-0.032449513510242105
1782951223969219300,9.34221923828125,0.22465163595080373,0.053838703823834655,-0.027857290349155663
1782951223979146200,9.352146240234376,0.08827508030235767,0.0637115708015859,-0.04917129653468728
1782951223989072400,9.362072265625,-0.017805705803632735,0.09764730428159236,-0.06192943662516772
1782951223998999300,9.371999267578126,-0.1043166990429163,0.07970730457380414,-0.03546856907047331
1782951224008926500,9.381926513671875,-0.14071195450425147,0.06373933559134602,-0.013048574404418468
1782951224018853000,9.39185302734375,-0.09121580992937088,0.08160670845434069,-0.021876900765299797
1782951224028779300,9.401779296875,0.009452303478121756,0.10130670357197523,-0.009319690074399114
1782951224038706200,9.4117060546875,0.10554185692369937,0.12098784785866737,0.013945961635559797
1782951224048633300,9.42163330078125,0.18182079448401928,0.11539075850397348,0.0066186874873936175
1782951224058560300,9.431560302734376,0.2179956851929426,0.13765169015079737,-0.03048471624329686
1782951224068487200,9.441487060546875,0.19307108729481695,0.11367986293286085,-0.06541537904478609
1782951224078413300,9.451413330078125,0.1781552577137947,0.0892649681225419,-0.10701083349771796
1782951224088340200,9.46134033203125,0.07005027230381965,0.05198606169447303,-0.13605258439108728
1782951224098267400,9.471267333984375,-0.057307695108652114,0.05065788183063268,-0.14350195054896175
1782951224108194300,9.4811943359375,-0.244106862527132,0.042861236605048175,-0.17250227345339952
1782951224118121500,9.49112158203125,-0.35659108593463895,0.044460780756175516,-0.18363558882102368
1782951224128047000,9.501047119140624,-0.3087807024896145,0.03327127822190523,-0.19613062099590897
1782951224137974300,9.510974365234375,-0.15989537840187548,-0.02346373156532645,-0.13442052620984613
1782951224147901200,9.520901123046874,-0.0023678981751203538,-0.02269596206322312,-0.07382540692836045
1782951224157828400,9.530828369140625,0.1245113458096981,0.011337386572360992,-0.09130962569266557
1782951224167755300,9.54075537109375,0.18698153824806213,0.0511710920497775,-0.095481796810776
1782951224177681200,9.55068115234375,0.18818740690648555,0.043806700761616225,-0.09753631818778813
1782951224187608300,9.5606083984375,0.1863473319977522,0.037283290342241523,-0.1468783681795001
1782951224197535200,9.57053515625,0.16696049448251724,0.043879035345464945,-0.11336524402573704
1782951224207462400,9.58046240234375,0.13507657896578312,0.033420185173302884,-0.07793174626864492
1782951224217388300,9.59038818359375,0.04066460334360599,0.05991583178043365,-0.08797660881243646
1782951224227315200,9.600315185546876,-0.07487316241562365,0.07772475245445966,-0.10508563758879899
1782951224237242000,9.6102421875,-0.14872458056807517,0.1104756600640714,-0.06065181790478527
1782951224247169300,9.620169189453126,-0.18200433435738086,0.09104498340710997,-0.02714132409952581
1782951224257096200,9.63009619140625,-0.15401801080107688,0.07863909082040191,-0.006488339105993509
1782951224267022300,9.640022216796876,-0.07100362750589848,0.08927095947191119,-0.010169584902003407
1782951224276949200,9.64994921875,0.012217092016339302,0.0686659783385694,-0.003896788242831826
1782951224286876200,9.659876220703126,0.07616612483561039,0.07420052385106682,0.00036269583255052565
1782951224296803300,9.66980322265625,0.12637012541890144,0.06957111048474908,-0.0008594663735479116
1782951224306730200,9.679730224609376,0.15714871004223824,0.055039750176668165,0.0046502369586378335
1782951224316656400,9.689656494140625,0.1583341204345226,0.004752309093624353,-0.027917861429974437
1782951224326583300,9.699583251953126,0.06925006183683872,-0.04344809658229351,-0.09996252242140471
1782951224336510200,9.70951025390625,-0.010303951871395111,-0.027330928387492893,-0.17398608227036894
1782951224346437000,9.71943701171875,-0.03985445600450039,-0.017447101624310016,-0.21071122727319597
1782951224356364300,9.7293642578125,-0.02766249842941761,-0.02570624979510903,-0.17997209787741303
1782951224366290400,9.73929052734375,-0.01690320400595665,-0.02216930784061551,-0.1274506871972233
1782951224376217300,9.74921728515625,0.027855975174903867,0.007073153256624937,-0.0840910726159811
1782951224386144300,9.759144287109375,0.0786836606144905,0.019289806881546974,-0.017859847143664957
1782951224396071200,9.7690712890625,0.11564707135260105,0.048248336470872163,0.05193951913900673
1782951224405997300,9.778997314453125,0.13505845878720282,0.09907689869329332,0.05800035354793071
1782951224415924200,9.78892431640625,0.10321604432463645,0.15188129103332756,-0.0012711889795958995
1782951224425851400,9.798851318359375,0.08716039705872536,0.15826061680689454,-0.03328903307430446
1782951224435778300,9.8087783203125,0.03253507290184498,0.14533216165080665,-0.05220080042369663
1782951224445705200,9.818705322265625,-0.01044248355925083,0.1485707051806152,-0.054005365627631544
1782951224455631400,9.82863134765625,-0.06296878961026668,0.160812931638211,-0.03313932240530848
1782951224465558300,9.838558349609375,-0.1536515155762434,0.19059008413404224,0.03946655266545713
1782951224475485400,9.8484853515625,-0.12000935821533203,0.19258622638732195,0.08169358302019536
1782951224485412400,9.858412353515625,-0.0315928236156702,0.14989888504445553,0.07734495935663581
1782951224495339500,9.868339599609374,0.06396773751974105,0.13564999493956564,0.12208148831427097
1782951224505265200,9.87826513671875,0.14219021036326884,0.1219243980564177,0.129788555560261
1782951224515192300,9.8881923828125,0.13457505918443202,0.11305383998900652,0.04399506294056773
1782951224525119200,9.898119140625,0.07143909631371498,0.08026654589176177,0.00526427720375359
1782951224535046400,9.90804638671875,-0.007790507745742798,0.06058686290979385,-0.069230407288298
1782951224544973300,9.917973388671875,-0.023533435800671576,-0.002020984433591366,-0.08672690101228654
1782951224554899200,9.927899169921876,-0.016243278792500496,-0.026183804178982972,-0.012609963791444898
1782951224564826400,9.937826416015625,0.01564882003068924,-0.027016747871786356,-0.08281016595996916
1782951224574753300,9.947753173828126,0.059523617592453955,-0.021620441786199807,-0.09121281425468623
1782951224584680200,9.95768017578125,0.11164543449580669,0.002338379819691181,-0.04383410022519529
1782951224594606000,9.967606201171876,0.11498422352969646,-0.004898001174628734,-0.07201952655017375
1782951224604533200,9.977533203125,0.025941081464290618,-0.024471447303146123,-0.095834263510257
1782951224614460200,9.987460205078126,-0.05609481218755245,0.009837211142480373,-0.11296740381456911
1782951224624387300,9.99738720703125,-0.1238145957171917,0.057993485415726895,-0.10568002328537404
1782951224634314200,10.007314208984376,-0.12984160092175007,0.10246449530497193,-0.040376360986754296
1782951224644240400,10.017240478515625,-0.10777297697663306,0.12890709655061364,0.027544936464354394
1782951224654167300,10.027167236328125,-0.0229746328741312,0.11235460567846893,0.060555444858223194
1782951224664094200,10.03709423828125,0.017813304588198662,0.06455299006178974,0.093187840654701
1782951224674021000,10.047021240234375,-0.06094926648139953,0.07610708812475205,0.061434127388894554
1782951224683948300,10.0569482421875,-0.11983224808275698,0.13834405632913113,-0.015970234004780648
1782951224693874400,10.06687451171875,-0.0781961693584919,0.1669736462250352,-0.07477576645575464
1782951224703801300,10.07680126953125,0.07009820309877396,0.11947963525280356,-0.04209580519050359
1782951224713728300,10.086728271484375,0.24459844543635845,0.04235051060393452,0.019895225428789853
1782951224723655200,10.0966552734375,0.3342623497486114,0.018466069408506154,0.04375029439926147
1782951224733582300,10.106582275390625,0.2930640779197216,0.01786561929732561,0.020115736311674116
1782951224743508200,10.11650830078125,0.14838497335016726,0.01764730037152767,-0.032991146106272934
1782951224753435400,10.126435302734375,-0.04481529328227043,0.026433541156351565,-0.0730762690614909
1782951224763362300,10.1363623046875,-0.21064590695202348,0.04161459754481912,-0.10282894470319151
1782951224773289200,10.146289306640625,-0.2823421928972006,0.057914574960619206,-0.10638488361909985
1782951224783215400,10.15621533203125,-0.24433599510788917,0.0594901537142694,-0.10358758105076848
1782951224793142300,10.166142333984375,-0.12346972780227661,0.04594736605212092,-0.06657609338723122
1782951224803069400,10.1760693359375,0.021268413478136062,0.07307049690783024,-0.057809653281420466
1782951224812996400,10.185996337890625,0.12181786894202232,0.07168649520352482,-0.06869549669399858
1782951224822923500,10.195923583984374,0.13255085988044737,0.08936711332276463,-0.07021203873679041
1782951224832849200,10.20584912109375,0.10200433044731616,0.08779840270131826,-0.09759973881281912
1782951224842776300,10.2157763671875,0.08682020531892776,0.0981856489419937,-0.08323803598321974
1782951224852703200,10.225703125,0.07386427763402462,0.09000804157480596,-0.0649455695759505
1782951224862630400,10.23563037109375,0.0533171641677618,0.07117898407280444,-0.09079685386493802
1782951224872557300,10.245557373046875,0.040734745970368386,0.053141076948493716,-0.09776391639858484
1782951224882483200,10.255483154296876,0.041759412842988966,0.04236863078251481,-0.08930924565568565
1782951224892410400,10.265410400390625,0.019994155758619306,0.03710939508005977,-0.09628142275586724
1782951224902337300,10.275337158203126,-0.05964928979873657,0.050572103243321176,-0.09226078893765807
1782951224912264400,10.285264404296875,-0.10804010348021983,0.06598360738679766,-0.09590659809410572
1782951224922191400,10.29519140625,-0.12350830624699592,0.06658215780183672,-0.10076185610555112
1782951224932117200,10.3051171875,-0.09966565836668013,0.08524038878157734,-0.05983735971674323
1782951224942044200,10.315044189453126,-0.05357493832111358,0.08050795343220234,-0.03414718427360058
1782951224951971300,10.324971435546875,0.02840834836065769,0.08242416231706738,-0.038166941308975216
1782951224961898200,10.334898193359376,0.10101648845374583,0.09060279259756207,-0.01868058894202113
1782951224971824400,10.344824462890625,0.1285895550340414,0.08942921877354383,-0.029566578485071656
1782951224981751300,10.354751220703125,0.10887129360735416,0.06586451105177402,-0.05967888121940195
1782951224991678200,10.36467822265625,0.046592824348807335,0.06692585667297243,-0.067970616485551
1782951225001605400,10.37460546875,-0.03432254084050655,0.08568535607010126,-0.06905855785273016
1782951225011532300,10.3845322265625,-0.08621931681632995,0.10057429764419794,-0.0720361123587936
1782951225021458400,10.39445849609375,-0.0736819068044424,0.10304916332513094,-0.08100399332083762
1782951225031385300,10.40438525390625,-0.013475567644834518,0.08157675170749426,-0.045272243269532914
1782951225041312300,10.414312255859375,0.059795420271158216,0.06324439168125391,-0.05066599207185209
1782951225051239200,10.4242392578125,0.11067980433404445,0.07041676752865314,-0.05283690637014806
1782951225061166300,10.434166259765625,0.1394996561050415,0.07142229130938649,-0.06135032156296074
1782951225071092500,10.444092529296874,0.16462357596755026,0.058993602368980644,-0.06647292527370155
1782951225081019400,10.454019287109375,0.11270225007236004,0.028476591291278597,-0.03745711253918707
1782951225090946600,10.463946533203124,0.0001999064862728119,0.058794718796014785,-0.0594517214000225
1782951225100873200,10.473873291015625,-0.06415244643688202,0.08904971793666482,-0.059434697199985384
1782951225110799400,10.48379931640625,-0.052343935221433636,0.09044073390364646,-0.03586845510825515
1782951225120726300,10.493726318359375,-0.036514497926831244,0.08313479480445385,-0.008351064237952233
1782951225130653400,10.5036533203125,-0.01679857458770275,0.05648527280986309,-0.011026274796575307
1782951225140580400,10.513580322265625,-0.029377485653758046,0.049961423999071115,-0.07866415219642221
1782951225150507300,10.52350732421875,-0.04147065902948379,0.04890446229204535,-0.11582761555127799
1782951225160433400,10.533433349609375,-0.0315799641340971,0.04161927371993661,-0.11354074672311544
1782951225170360300,10.5433603515625,0.017619243320822715,0.04917027362138033,-0.09610204760096967
1782951225180287500,10.55328759765625,0.04593582174479961,0.05805383730083704,-0.05943170152530074
1782951225190214400,10.56321435546875,0.08364742050170898,0.12435498620420693,-0.04910889882296324
1782951225200141300,10.573141357421875,0.152495915800333,0.14012772487550973,-0.03469071656577289
1782951225210067200,10.583067138671876,0.1829348932057619,0.12078764911144971,-0.015997706533595918
1782951225219994400,10.592994384765625,0.13710428540110586,0.09036679188460112,-0.028342005126178262
1782951225229921300,10.60292138671875,0.035844635841250416,0.09883987506702542,-0.02368811490572989
1782951225239848400,10.612848388671875,-0.054091655671596524,0.09949410119205712,0.012936784593015909
1782951225249775400,10.622775390625,-0.09441431370973587,0.09575783727318048,0.028817805944383143
1782951225259701200,10.632701171875,-0.1631067416638136,0.06749518099352717,0.015916823317110536
1782951225269628200,10.642628173828125,-0.18194120599329472,0.09036562284082174,-0.02947173980847001
1782951225279555300,10.652555419921875,-0.10925941614210605,0.07635550992786884,-0.040790129419416184
1782951225289482200,10.662482177734375,0.015787936240434647,0.0769581519961357,-0.005422098113968968
1782951225299408400,10.672408447265624,0.17062661577463148,0.08099281433969735,0.008953267914801836
1782951225309335300,10.682335205078125,0.28144144466519355,0.06790712279528378,0.01788432399779558
1782951225319262200,10.69226220703125,0.2856482487052679,0.04982113874554634,0.018296558060497046
1782951225329189400,10.702189453125,0.1977887634664774,0.04449146815538406,-0.01716770016103983
1782951225339116300,10.7121162109375,0.0681879855632782,0.04068856874108314,-0.034316476425901056
1782951225349042400,10.72204248046875,-0.07348667649328708,0.03493541204184294,-0.03321289909817278
1782951225358969000,10.731968994140624,-0.16510814461410045,0.05203647670745849,-0.014948343611136079
1782951225368896300,10.741896240234375,-0.22927345053255557,0.06304799232631922,-0.014332330604642628
1782951225378823200,10.7518232421875,-0.22834172264039515,0.03674596859514713,0.009614362172037363
1782951225388750300,10.761750244140625,-0.23019465703070163,0.01185308100953698,0.0031239041741937396
1782951225398676500,10.771676513671874,-0.19856442401409147,0.038435821378231046,-0.0534447360701859
1782951225408603400,10.781603271484375,-0.08166296868622303,0.052283437205851074,-0.11305793164223432
1782951225418530300,10.7915302734375,0.07683014170229434,0.04553074807524681,-0.09704144734293221
1782951225428457200,10.801457275390625,0.21622166125774384,0.028735096096992492,-0.04017893871851265
1782951225438384400,10.81138427734375,0.3042307841002941,0.05052271114364266,-0.041399858815595506
1782951225448310300,10.821310302734375,0.31343934195041656,0.04808686229884624,-0.012251798003539443
1782951225458237400,10.831237548828126,0.22406652953922748,0.035777561954408885,-0.004378507345169783
1782951225468164000,10.8411640625,0.05116612361371517,0.040811610598862166,-0.05280322329625487
1782951225478091300,10.85109130859375,-0.07969663704931736,0.05986161737516522,-0.07821699295081198
1782951225488017400,10.861017333984375,-0.14340543137192727,0.08880071161165833,-0.07881137864738702
1782951225497944300,10.8709443359375,-0.18046119656860826,0.08124255131706595,-0.04345131145268678
1782951225507871500,10.88087158203125,-0.15318331354260445,0.10623013144880533,-0.04065985410325229
1782951225517798400,10.89079833984375,-0.07948679369091988,0.09680033206343651,-0.05111563553549349
1782951225527725300,10.900725341796875,-0.04588438381850719,0.053744157408177846,-0.04090454957932234
1782951225537651200,10.910651123046875,-0.08635434137284755,0.043256811793893575,-0.12787205441445113
1782951225547578400,10.920578369140625,-0.08718260889053345,0.06797887285724281,-0.15025763535425066
1782951225557505300,10.93050537109375,-0.056094227665662764,0.09818637959435582,-0.11551445794887841
1782951225567432400,10.940432373046875,0.05287058944404125,0.11182269075885415,-0.08219101114831864
1782951225577359400,10.950359375,0.1768704786002636,0.11251651824191213,-0.028189591043442486
1782951225587285200,10.96028515625,0.2506704588264227,0.09141586254611611,-0.01707088872306049
1782951225597212400,10.97021240234375,0.24249416663348675,0.05090586524233222,-0.022659575575590132
1782951225607139300,10.980139404296875,0.15291794060468672,0.04849602762162685,-0.07425400760397315
1782951225617066500,10.99006640625,0.047838440495729447,0.061408700686693185,-0.14332725156918166
1782951225626993400,10.999993408203125,-0.04300269090235233,0.05005816237181425,-0.16271759621575474
1782951225636919300,11.009919189453125,-0.0924000512778759,0.04521656755954027,-0.13363631702959536
1782951225646846200,11.01984619140625,-0.11272913807928561,0.053284430941939354,-0.10651713169664144
1782951225656773400,11.0297734375,-0.12573650369048117,0.08874196716174483,-0.059677200718969106
1782951225666700300,11.0397001953125,-0.09576689736247063,0.11726751216128468,-0.028355668325349685
1782951225676626200,11.049626220703125,-0.04012742772698402,0.11761983273029326,-0.031641704258695245
1782951225686553300,11.05955322265625,0.06485328818261624,0.12870090645402668,-0.010910831723362206
1782951225696480300,11.069480224609375,0.1196487082093954,0.1330189157836139,-0.0017625526931136846
1782951225706407400,11.079407470703124,0.1587450393229723,0.14861454432234167,-0.008947495761141181
1782951225716334300,11.089334228515625,0.1622305433511734,0.1349003456160426,-0.02133314927741885
1782951225726260500,11.099260498046876,0.1344189918398857,0.11853387883529067,-0.03715776426643133
1782951225736188000,11.10918798828125,0.11666180135309695,0.12423793569579719,-0.042199703956395385
1782951225746115000,11.119114990234374,0.07034370229244231,0.11010317348986863,-0.013083864913508296
1782951225756042000,11.1290419921875,-0.03477729887068271,0.10804974809139967,-0.0033733488906174895
1782951225765969000,11.138968994140624,-0.09786942259967327,0.13278846802860497,-0.02170044821985066
1782951225775894800,11.148894775390625,-0.1248380935460329,0.12048501290306449,-0.042176688406988974
1782951225785822000,11.158822021484376,-0.1235614977389574,0.07930939129739999,-0.09263831701315939
1782951225795748900,11.168748779296875,-0.0524544098585844,-0.004686404250562191,-0.223868815010041
1782951225805676000,11.178676025390626,0.050367082190513605,-0.05659691649079322,-0.20092486953511832
1782951225815602000,11.188601806640625,0.12340075421929358,-0.06726224902048707,-0.10845467563048004
1782951225825528800,11.19852880859375,0.09156827662885189,-0.04844897360950708,-0.04756627249084413
1782951225835456000,11.2084560546875,-0.01227028350830078,0.029285715717077252,-0.009181596777960658
1782951225845383000,11.2183828125,-0.11318448063135146,0.09866612593531608,0.00804630913771689
1782951225855310000,11.22831005859375,-0.17008067232966423,0.11159414269998669,0.016984671744331718
1782951225865235700,11.238235595703125,-0.11034370424747467,0.09518369064703583,0.003716244044154882
1782951225875163000,11.248162841796875,0.011288286733627318,0.08253858247697353,0.006023425007984042
1782951225885089800,11.25808984375,0.14194529569149017,0.08091653423309325,0.011918474395945667
1782951225895017000,11.268016845703125,0.20421090546846388,0.06907412074804306,0.011851619704812764
1782951225904943900,11.27794384765625,0.18962942240834235,0.06686974257156253,-0.011992051088809966
1782951225914869800,11.287869873046875,0.1384013394743204,0.10714388529285788,-0.03640497313775122
1782951225924797000,11.297796875,0.05650806916356087,0.11238996925279497,-0.028025413457676767
1782951225934723800,11.307723876953125,-0.05418634821772575,0.11470818306729197,-0.011131415671482682
1782951225944651000,11.317651123046875,-0.1168646304488182,0.11552183753773569,0.003099500385299325
1782951225954578000,11.327577880859375,-0.09368833752274512,0.10346578130200505,0.009231865660473704
1782951225964504000,11.337504150390625,-0.056698038777709,0.09453925526365638,0.03584427051506937
1782951225974430700,11.3474306640625,-0.023158757269382477,0.068219111353904,0.10297310241423546
1782951225984358000,11.35735791015625,-0.010814239481091498,0.07276829909086227,0.017726941478997466
1782951225994284800,11.367284912109374,-0.0688455726891756,0.09809621709287165,-0.04274111735671758
1782951226004211000,11.3772109375,-0.053608840590715405,0.10155877863690256,-0.07794190233647823
1782951226014137900,11.387137939453124,-0.013377367967367172,0.06292991890460252,-0.06513656210340558
1782951226024065000,11.39706494140625,0.004337152421474456,0.04811681904569268,-0.026392113167420028
1782951226033992000,11.406991943359374,0.07163198853731155,0.06990560313612222,-0.06541917843706906
1782951226043918800,11.4169189453125,0.12760054399669168,0.06734773534685373,-0.042602658734098076
1782951226053845000,11.426844970703126,0.1884288144469261,0.074091072127223,-0.01093947329595685
1782951226063772000,11.43677197265625,0.19279460844099522,0.10099062336012721,-0.00919957082606852
1782951226073699000,11.446698974609374,0.14107903425097465,0.11424977177530526,-0.03837247381843626
1782951226083625700,11.456625732421875,0.049475686308741565,0.0722115419909358,-0.027941753762215374
1782951226093553000,11.466552978515624,-0.05443652358651161,0.07559928473308682,-0.05170826766639947
1782951226103478800,11.476478759765625,-0.18152268832027912,0.09768763629198074,-0.13156528290919958
1782951226113406000,11.486406005859376,-0.2722936770915985,0.03725727911815047,-0.17914923718720674
1782951226123332900,11.496332763671875,-0.3004278846859932,0.0030080957747995853,-0.1639473572064191
1782951226133260000,11.506260009765626,-0.25434885507822036,0.03323401495143771,-0.1431944189697504
1782951226143186000,11.51618603515625,-0.1599947471231222,0.09518938973546028,-0.1462836902219802
1782951226153112800,11.52611279296875,-0.019313187757134437,0.11997794016376137,-0.1168578353818506
1782951226163040000,11.5360400390625,0.12919745779931543,0.13962781252935527,-0.06940262205004692
1782951226172967000,11.545966796875,0.30102234344780443,0.15844108794033526,-0.03200103909038007
1782951226182894000,11.55589404296875,0.3870972833573818,0.11953092704862356,0.006910217779874802
1782951226192819700,11.56581982421875,0.3959907839089632,0.11569047210291028,0.01953961692415178
1782951226202747000,11.575746826171875,0.27646657886207104,0.11030059575811028,-0.015082126058638096
1782951226212673800,11.585673828125,0.07177461187839508,0.08406798400133848,-0.028986367444321513
1782951226222601000,11.59560107421875,-0.12666706253886223,0.11077990370765328,-0.0428242655955255
1782951226232528000,11.60552783203125,-0.25610475883483885,0.1319967331290245,-0.031495792981982226
1782951226242453800,11.615453857421874,-0.2704652926206589,0.10242840107828378,0.039838089391589164
1782951226252381000,11.625380859375,-0.2163280442416668,0.06749196612313389,0.05158858680948615
1782951226262307800,11.635307861328124,-0.15114742380082608,0.03846636264696717,0.04488616656139493
1782951226272235000,11.645235107421875,-0.07759352729022502,0.024445874470472334,-0.0005505465548485517
1782951226282162000,11.655161865234374,-0.0003261632144451141,0.01115969191789627,-0.03455423070453107
1782951226292087800,11.665087890625,0.08441197513341903,-0.004869651862978935,-0.037725554217025635
1782951226302014700,11.6750146484375,0.14069208076000214,0.004007043684273958,-0.04459178672470152
1782951226311942000,11.68494189453125,0.18507073619067668,-0.00022796353697776794,-0.04317629390358925
1782951226321868800,11.694868896484374,0.17179682859778403,-0.008122516179084778,-0.033566680971905585
1782951226331795000,11.704794921875,0.15598375791609287,0.029240415270626544,-0.03565101296529174
1782951226341722000,11.71472216796875,0.07887538379430771,0.04116670764684677,-0.06268909588605165
1782951226351648800,11.724648681640625,-0.06342647024989127,0.039519524961709976,-0.07812376170940696
1782951226361576000,11.734575927734374,-0.13880816670954227,0.030637276456505057,-0.10193594138622283
1782951226371502800,11.7445029296875,-0.15148703101873398,0.016746406009048222,-0.09096358873397112
1782951226381429000,11.754428955078126,-0.12214753928780556,0.022542525067180394,-0.03946384925171733
1782951226391356000,11.76435595703125,-0.09101356535553931,0.05843494557291269,-0.023188787081465125
1782951226401282800,11.77428271484375,-0.03812017955780029,0.10132350857630372,-0.0071090282876044505
1782951226411209700,11.784209716796875,0.035846973928809166,0.10204276276156306,0.00400010248683393
1782951226421137000,11.794136962890626,0.09384966556429862,0.08200783660113811,0.006138429689779877
1782951226431063000,11.80406298828125,0.10128478400111197,0.08326134379357099,-0.0035667525708675384
1782951226440990000,11.813989990234376,0.07946049020588397,0.09156739984601736,-0.04547222282104194
1782951226450917000,11.823917236328125,0.043945524710416795,0.0804429253719747,-0.06574855652190745
1782951226460843800,11.83384375,0.010651157873868942,0.0709815618045628,-0.04223579818308353
1782951226470771000,11.84377099609375,0.00971533832848072,0.07440116098970175,-0.035197789305076
1782951226480696800,11.85369677734375,0.0359977805763483,0.07981602564528584,-0.020285978312045334
1782951226490624000,11.8636240234375,0.05734510450959205,0.08382964520081877,0.002236526880413294
1782951226500551000,11.873551025390626,0.08373334521949291,0.07826178194060922,0.007330489018559455
1782951226510478000,11.88347802734375,0.0475397498100996,0.062170040448009965,-0.038309637715294956
1782951226520404000,11.893404052734375,0.021474749705195424,0.056480742765218014,-0.07949760734587907
1782951226530331000,11.903330810546874,0.019967267751693725,0.04894450204148888,-0.08574768071658909
1782951226540258000,11.913258056640625,0.003402501919865608,0.006499883413314819,-0.07675240029096603
1782951226550185000,11.92318505859375,-0.028787703067064283,-0.010716039803624152,-0.0660621525157243
1782951226560111900,11.93311181640625,-0.08974865998625754,-0.021899989379942416,-0.08501008715704082
1782951226570037800,11.943037841796874,-0.09901859263479709,0.0029278701454401013,-0.11072386267147957
1782951226579965000,11.95296484375,-0.10587503440082073,0.017611936797201633,-0.07717084489874541
1782951226589891800,11.962891845703124,-0.1067652612388134,0.04368073629438877,-0.023347777035459875
1782951226599819000,11.972819091796875,-0.09389525827169418,0.08766834658086299,-0.038288448796793814
1782951226609746000,11.982745849609374,-0.016634908458590506,0.10266659374833106,-0.03802965173013508
1782951226619670000,11.992669921875,0.08345745088756083,0.1135012914955616,-0.056225160568952555
1782951226629597000,12.002596923828126,0.1476683495134115,0.10388619867116212,-0.09803016611933707
1782951226639522800,12.012522705078124,0.2014092920511961,0.09013765930384397,-0.17521949652284383
1782951226649449700,12.02244970703125,0.21157646580040454,0.09172215201631188,-0.18413908136375248
1782951226659377000,12.032376953125,0.15233867941200732,0.09546265371888875,-0.16376418265923856
1782951226669303800,12.0423037109375,0.12520458877086638,0.15089301064834,-0.1463363702572882
1782951226679231000,12.05223095703125,0.11152210037708282,0.15817279239296914,-0.0959901847243309
1782951226689157000,12.0621572265625,0.08484335228800773,0.12230068402290344,-0.04879157650209963
1782951226699083800,12.072083740234374,0.01938800655901432,0.09909750308990478,-0.021541239070147274
1782951226709011000,12.082010986328125,-0.04904021750092506,0.07737506223395467,-0.04669131628721952
1782951226718937900,12.091937744140624,-0.10198854835629463,0.07879954207912086,-0.0755329414986074
1782951226728864000,12.101864013671875,-0.1469067174911499,0.06195946643725037,-0.06048369479626417
