time,seconds_elapsed,z,y,x
1782951214697598200,0.07059814453125,0.01268509216606617,-0.07655321806669235,-0.14009858667850494
1782951214707525400,0.080525390625,-0.006993555463850498,-0.06504718214273453,-0.09820809960365295
1782951214717451300,0.090451171875,-0.018573779612779617,-0.04882293939590454,-0.04606979712843895
1782951214727378700,0.100378662109375,-0.030079340562224388,-0.012223698198795319,0.007649756036698818
1782951214737305600,0.1103056640625,-0.04117007181048393,0.01484919898211956,0.05403882637619972
1782951214747232500,0.120232421875,-0.03424704447388649,0.021079178899526596,0.08283853530883789
1782951214757159400,0.130159423828125,-0.024176567792892456,0.020713258534669876,0.0925484225153923
1782951214767085600,0.14008544921875,-0.01040803175419569,0.015771731734275818,0.09350600093603134
1782951214777012500,0.150012451171875,0.004410861525684595,0.0024961400777101517,0.08707952499389648
1782951214786939600,0.159939697265625,0.00945796724408865,-0.02058400958776474,0.0787806287407875
1782951214796866300,0.1698662109375,0.012661484070122242,-0.02985873445868492,0.0607110820710659
1782951214806792400,0.17979248046875,0.017205139622092247,-0.030633147805929184,0.03793061524629593
1782951214816719600,0.1897197265625,0.019731679931282997,-0.0338667593896389,0.01917450502514839
1782951214826646500,0.199646484375,0.014602401293814182,-0.024590706452727318,0.00996412057429552
1782951214836573700,0.20957373046875,0.009713636711239815,-0.017456363886594772,0.012853117659687996
1782951214846500600,0.21950048828125,0.01099164504557848,-0.015198865905404091,0.015292788855731487
1782951214856426500,0.229426513671875,0.015106495469808578,0.0020544230937957764,0.0210497435182333
1782951214866353400,0.239353515625,0.013414173386991024,0.02598598599433899,0.02826632373034954
1782951214876280600,0.249280517578125,0.008319012820720673,0.04258893057703972,0.04029449075460434
1782951214886207500,0.25920751953125,0.0038194055669009686,0.03245777264237404,0.053819939494132996
1782951214896133400,0.26913330078125,0.00020416449115145952,0.006585695780813694,0.06067997217178345
1782951214906060500,0.279060546875,-0.001519273384474218,-0.014734047465026379,0.06602893769741058
1782951214915987500,0.288987548828125,-0.0001442833454348147,-0.019087783992290497,0.06057344749569893
1782951214925914600,0.29891455078125,0.009751200675964355,-0.013250580057501793,0.04752494394779205
1782951214935841500,0.308841552734375,0.01540402602404356,0.005330294836312532,0.02734990417957306
1782951214945767700,0.318767578125,0.01678289845585823,0.01851736754179001,0.01788998395204544
1782951214955694300,0.3286943359375,0.013722127303481102,0.026551591232419014,0.012919725850224495
1782951214965621500,0.33862158203125,0.0073784408159554005,0.026844773441553116,0.01253415271639824
1782951214975548400,0.34854833984375,0.0010808639926835895,0.019539987668395042,0.01338103786110878
1782951214985474600,0.358474609375,-0.006196378264576197,0.014591671526432037,0.02062680758535862
1782951214995401700,0.368401611328125,-0.008653144352138042,0.011984169483184814,0.03110634535551071
1782951215005328400,0.378328369140625,-0.010732601396739483,0.013509949669241905,0.04119729995727539
1782951215015255600,0.388255615234375,-0.007530683185905218,0.01208835281431675,0.04516753926873207
1782951215025182500,0.398182373046875,0.0020944576244801283,0.006900330539792776,0.0456555113196373
1782951215035108600,0.408108642578125,0.002738942625001073,0.010935019701719284,0.05100473761558533
1782951215045035500,0.418035400390625,0.00003442786692176014,0.014374690130352974,0.05002826452255249
1782951215054962700,0.427962646484375,0.004743962083011866,0.013105161488056183,0.03816761076450348
1782951215064889300,0.437889404296875,0.006013551726937294,-0.00006688572466373444,0.022063234820961952
1782951215074816500,0.44781640625,0.011979032307863235,0.0007328614592552185,0.003893819637596607
1782951215084742700,0.45774267578125,0.010164373554289341,0.009514518082141876,0.007951385341584682
1782951215094669600,0.467669677734375,0.012807028368115425,0.011393912136554718,0.015207700431346893
1782951215104596700,0.4775966796875,0.010926205664873123,0.020152799785137177,0.03308286517858505
1782951215114523400,0.4875234375,0.008773306384682655,0.014483197592198849,0.05004054307937622
1782951215124449500,0.497449462890625,0.008867142722010612,0.012282580137252808,0.05974389985203743
1782951215134376400,0.50737646484375,0.007305731065571308,0.0006664036773145199,0.06484199315309525
1782951215144303600,0.5173037109375,0.006425388623028994,-0.014355708844959736,0.054302770644426346
1782951215154230500,0.52723046875,0.007944721728563309,-0.03241407126188278,0.041965678334236145
1782951215164157700,0.53715771484375,0.003995291423052549,-0.0372290313243866,0.03294256702065468
1782951215174083600,0.54708349609375,-0.001998418942093849,-0.026583580300211906,0.025530725717544556
1782951215184010500,0.557010498046875,-0.004056528676301241,-0.008646007627248764,0.028887134045362473
1782951215193937700,0.566937744140625,-0.018164092674851418,0.0034434120170772076,0.035879530012607574
1782951215203864600,0.576864501953125,-0.02629196085035801,0.001310467254370451,0.03405150771141052
1782951215213790500,0.58679052734375,-0.022413598373532295,-0.0009092772379517555,0.01924832910299301
1782951215223717400,0.59671728515625,-0.01937856711447239,-0.006526732351630926,-0.001804092898964882
1782951215233644500,0.60664453125,-0.019213983789086342,-0.012349201366305351,-0.015497001819312572
1782951215243571500,0.616571533203125,-0.018059009686112404,-0.014944751746952534,-0.02554718591272831
1782951215253498600,0.62649853515625,-0.016666442155838013,-0.014758863486349583,-0.023218518123030663
1782951215263424500,0.636424560546875,-0.017777172848582268,-0.03158944100141525,-0.011391792446374893
1782951215273351400,0.646351318359375,-0.016142256557941437,-0.028181128203868866,0.014949800446629524
1782951215283278600,0.656278564453125,-0.01569882594048977,-0.014515259303152561,0.046315308660268784
1782951215293205500,0.66620556640625,-0.01804347336292267,-0.010458465665578842,0.06229693815112114
1782951215303131600,0.676131591796875,-0.021716197952628136,-0.012117555364966393,0.05539195239543915
1782951215313058600,0.68605859375,-0.017697753384709358,-0.022285770624876022,0.04691670835018158
1782951215322985500,0.6959853515625,-0.026011666283011436,-0.0070974137634038925,0.04259048402309418
1782951215332912400,0.705912353515625,-0.027434593066573143,0.001798609271645546,0.04051055386662483
1782951215342839600,0.715839599609375,-0.026361076161265373,0.008531585335731506,0.04071683809161186
1782951215352765400,0.725765380859375,-0.022386042401194572,0.008720936253666878,0.0497199222445488
1782951215362692600,0.735692626953125,-0.022294389083981514,-0.0028821281157433987,0.042922258377075195
1782951215372619500,0.74561962890625,-0.015338211320340633,-0.022625472396612167,0.030304469168186188
1782951215382546400,0.75554638671875,-0.010327660478651524,-0.03944829851388931,0.00038784765638411045
1782951215392472600,0.76547265625,-0.009715932421386242,-0.05587254464626312,-0.029991894960403442
1782951215402399500,0.7753994140625,-0.006579322274774313,-0.045720525085926056,-0.04450375214219093
1782951215412326700,0.78532666015625,-0.01183799933642149,-0.02131424844264984,-0.03154374659061432
1782951215422253600,0.795253662109375,-0.012269623577594757,-0.01193159818649292,0.000016203499399125576
1782951215432180700,0.8051806640625,-0.0094597227871418,-0.004333865828812122,0.038614727556705475
1782951215442106400,0.8151064453125,-0.007024881895631552,-0.0061370134353637695,0.07099021971225739
1782951215452033500,0.825033447265625,-0.007623826619237661,-0.017430147156119347,0.06877154111862183
1782951215461960400,0.83496044921875,-0.011298803612589836,-0.023979758843779564,0.0446464940905571
1782951215471887600,0.8448876953125,-0.012820799835026264,-0.017131704837083817,0.006755306385457516
1782951215481814500,0.854814453125,-0.016065632924437523,-0.008885527029633522,-0.023937305435538292
1782951215491740400,0.864740478515625,-0.01597641594707966,-0.007168055046349764,-0.030886556953191757
1782951215501667600,0.87466748046875,-0.01696551963686943,-0.02080080471932888,-0.018322670832276344
1782951215511594500,0.884594482421875,-0.014343904331326485,-0.034483592957258224,0.001661423477344215
1782951215521521700,0.894521728515625,-0.01804521679878235,-0.03406323492527008,0.008689160458743572
1782951215531447300,0.904447265625,-0.013224361464381218,-0.029049035161733627,0.004868589341640472
1782951215541374500,0.91437451171875,-0.006811115425080061,-0.019646290689706802,0.0020318152382969856
1782951215551301400,0.92430126953125,-0.010463109239935875,0.0024166679941117764,0.01033448614180088
1782951215561228500,0.934228515625,-0.008145924657583237,0.02560373954474926,0.02963937073945999
1782951215571155500,0.944155517578125,-0.009624511003494263,0.03641510754823685,0.043627358973026276
1782951215581081600,0.95408154296875,-0.00013825672795064747,0.022803492844104767,0.054007720202207565
1782951215591008500,0.964008544921875,0.007263200357556343,0.0048492602072656155,0.04916662722826004
1782951215600935400,0.973935302734375,0.01472983043640852,-0.016307756304740906,0.03130730986595154
1782951215610862600,0.983862548828125,0.020082784816622734,-0.023032238706946373,0.005701014306396246
1782951215620789500,0.99378955078125,0.02134329453110695,-0.01691465824842453,-0.01779744029045105
1782951215630715600,1.003715576171875,0.018791986629366875,-0.010265277698636055,-0.03402860835194588
1782951215640642600,1.013642578125,0.01562516763806343,-0.013574705459177494,-0.02891073189675808
1782951215650569500,1.023569580078125,0.009480454958975315,-0.008263829164206982,-0.013405541889369488
1782951215660496400,1.033496337890625,0.008256199769675732,-0.0013257621321827173,0.01844293437898159
1782951215670422500,1.043422607421875,0.0032324129715561867,-0.003098628483712673,0.038320235908031464
1782951215680349700,1.053349609375,0.0026566563174128532,0.0004914626479148865,0.04359912872314453
1782951215690276600,1.063276611328125,0.005225807894021273,0.012802191078662872,0.0351068377494812
1782951215700203500,1.07320361328125,0.005942538846284151,0.017717653885483742,0.01480146124958992
1782951215710129400,1.08312939453125,0.007364667020738125,0.011121271178126335,-0.0011514053912833333
1782951215720056600,1.093056640625,0.008816678076982498,0.009323022328317165,-0.001258011907339096
1782951215729983000,1.10298291015625,0.005987335927784443,0.0018360773101449013,0.01369750127196312
1782951215739910100,1.11291015625,0.007956823334097862,0.0013400283642113209,0.03239688649773598
1782951215749836800,1.1228369140625,0.006799680180847645,-0.0023194211535155773,0.03221872076392174
1782951215759763000,1.132762939453125,0.012286833487451077,-0.004131615161895752,0.016308650374412537
1782951215769690000,1.142690185546875,0.01561232190579176,-0.001610400853678584,0.0007248977199196815
1782951215779617000,1.152616943359375,0.01572912372648716,0.006640769075602293,-0.009434369392693043
1782951215789544200,1.162544189453125,0.014220176264643669,0.011063747107982635,-0.009581642225384712
1782951215799471000,1.17247119140625,0.009112672880291939,0.006017105653882027,0.0007598119555041194
1782951215809397000,1.18239697265625,0.011333215981721878,0.005388067103922367,0.01633877120912075
1782951215819324000,1.192323974609375,0.005900857970118523,0.005883351434022188,0.027976466342806816
1782951215829251000,1.2022509765625,0.0019055834272876382,0.0006363918073475361,0.03365645557641983
1782951215839178000,1.212177978515625,0.005468935240060091,-0.003848042106255889,0.02771765924990177
1782951215849104000,1.222103759765625,0.008082828484475613,-0.007361284457147121,0.015389089472591877
1782951215859031000,1.232031005859375,0.013556820340454578,-0.011916635558009148,-0.002903019543737173
1782951215868958000,1.2419580078125,0.016377639025449753,-0.011667096987366676,-0.010277312248945236
1782951215878885000,1.251885009765625,0.009330934844911098,-0.0021520061418414116,-0.0008537440444342792
1782951215888812000,1.26181201171875,-0.00526798190549016,0.011435441672801971,0.011730224825441837
1782951215898738200,1.27173828125,-0.007857577875256538,0.014292694628238678,0.018119707703590393
1782951215908664800,1.281664794921875,-0.008087941445410252,0.00841083750128746,0.020763959735631943
1782951215918592000,1.291592041015625,-0.00521491002291441,-0.0004887939430773258,0.012754368595778942
1782951215928519000,1.301518798828125,-0.0039238096214830875,-0.00463480269536376,0.004145168699324131
1782951215938445000,1.311445068359375,-0.001675260253250599,-0.002762537682428956,0.002857849933207035
1782951215948372200,1.321372314453125,0.004348277114331722,-0.006706146523356438,0.00935463234782219
1782951215958299000,1.331298828125,0.005243898369371891,-0.0017934131901711226,0.03728426620364189
1782951215968226000,1.34122607421875,0.0021972423419356346,-0.011880135163664818,0.054873112589120865
1782951215978153000,1.351153076171875,0.002002088585868478,-0.03519859164953232,0.05495239421725273
1782951215988079000,1.3610791015625,0.00483329501003027,-0.041858889162540436,0.04166748374700546
1782951215998006000,1.371006103515625,0.008705134503543377,-0.03379429131746292,0.022846844047307968
1782951216007933200,1.38093310546875,0.008712857961654663,-0.029827246442437172,0.003583134151995182
1782951216017859800,1.39085986328125,-0.002423248952254653,-0.016988128423690796,-0.007499316241592169
1782951216027787000,1.400787109375,-0.011170134879648685,0.00728445453569293,-0.007840999402105808
1782951216037713200,1.410713134765625,-0.01746203936636448,0.009061414748430252,-0.0020020203664898872
1782951216047640000,1.42064013671875,-0.021115630865097046,-0.016740888357162476,-0.003899522591382265
1782951216057567200,1.430567138671875,-0.015557692386209965,-0.03175695240497589,-0.0035945894196629524
1782951216067494000,1.440493896484375,-0.0035548261366784573,-0.026899881660938263,-0.00011650100350379944
1782951216077420000,1.450419921875,-0.001919285859912634,-0.008381105959415436,0.005258689634501934
1782951216087347000,1.460346923828125,0.001490093069151044,0.014287988655269146,0.016954492777585983
1782951216097274000,1.470274169921875,0.003935146611183882,0.019742170348763466,0.026009880006313324
1782951216107201000,1.480200927734375,0.0002160423609893769,0.011978790163993835,0.027657045051455498
1782951216117128200,1.490128173828125,0.0013374938862398267,-0.0019381199963390827,0.02042485773563385
1782951216127054000,1.50005419921875,0.001552677364088595,-0.013717547990381718,0.004199018236249685
1782951216136981000,1.50998095703125,-0.00244010123424232,-0.017635609954595566,-0.015028232708573341
1782951216146908200,1.519908203125,-0.003117875661700964,-0.018157057464122772,-0.022447798401117325
1782951216156835000,1.5298349609375,0.00015929271467030048,-0.013006102293729782,-0.024245912209153175
1782951216166761000,1.539760986328125,0.00023332859564106911,-0.01244763657450676,-0.017184806987643242
1782951216176687900,1.54968798828125,0.0044697923585772514,-0.015428198501467705,-0.01636948063969612
1782951216186615000,1.559614990234375,0.008387568406760693,-0.012859046459197998,-0.012961165979504585
1782951216196542000,1.5695419921875,0.00754281971603632,-0.00818596687167883,-0.01050962321460247
1782951216206469000,1.57946923828125,0.014389273710548878,-0.003177626058459282,-0.001953419763594866
1782951216216395300,1.589395263671875,0.01601419784128666,-0.0011885268613696098,0.004395372234284878
1782951216226322000,1.599322021484375,0.024161607027053833,0.0041186208836734295,0.01791863888502121
1782951216236249000,1.6092490234375,0.02262399159371853,0.020696215331554413,0.029703525826334953
1782951216246176000,1.619176025390625,0.017899010330438614,0.02935841493308544,0.037408582866191864
1782951216256102100,1.62910205078125,0.013031471520662308,0.022402673959732056,0.03501386567950249
1782951216266029000,1.639029052734375,0.013648792169988155,0.005601056385785341,0.02300114743411541
1782951216275956000,1.6489560546875,0.012787549756467342,-0.005716932471841574,0.0038472404703497887
1782951216285883000,1.6588828125,0.02610468678176403,-0.01199267152696848,-0.013848398812115192
1782951216295810000,1.66881005859375,0.031963273882865906,-0.012986278161406517,-0.022869564592838287
1782951216305736200,1.678736083984375,0.03721529617905617,-0.0121588334441185,-0.02902599424123764
1782951216315663000,1.6886630859375,0.032906174659729004,-0.014368443749845028,-0.02007012814283371
1782951216325590000,1.698590087890625,0.030673909932374954,-0.021860981360077858,-0.007060321047902107
1782951216335517000,1.708516845703125,0.022399071604013443,-0.01623556949198246,0.004391722846776247
1782951216345443000,1.718443115234375,0.015326248481869698,-0.009785660542547703,0.018384503200650215
1782951216355370000,1.728369873046875,0.014392253942787647,-0.0020786523818969727,0.018381496891379356
1782951216365297200,1.738297119140625,0.01513394434005022,0.012473393231630325,0.013401385396718979
1782951216375224000,1.74822412109375,0.015673214569687843,0.01839318312704563,0.0017207871424034238
1782951216385151000,1.75815087890625,0.016835151240229607,0.0076025864109396935,-0.003941892180591822
1782951216395076900,1.768076904296875,0.017373718321323395,-0.01375642977654934,-0.00791623443365097
1782951216405004000,1.778004150390625,0.011447119526565075,-0.013812622986733913,-0.004382751882076263
1782951216414931000,1.787930908203125,0.012349973432719707,-0.004242755938321352,-0.0002534681116230786
1782951216424858000,1.797858154296875,0.007197023835033178,-0.004797758534550667,-0.001564276055432856
1782951216434785000,1.807784912109375,0.007712667807936668,-0.009373152628540993,0.0039166961796581745
1782951216444711000,1.8177109375,0.007543290499597788,0.007996249943971634,0.01549265906214714
1782951216454638000,1.82763818359375,0.0027078634593635798,0.01427498646080494,0.02754868194460869
1782951216464565000,1.83756494140625,-0.0003566359227988869,-0.000574799720197916,0.021697184070944786
1782951216474492200,1.8474921875,0.009000956080853939,-0.04238316789269447,0.05674363672733307
1782951216484417800,1.857417724609375,-0.008587891235947609,0.0016540642827749252,0.08318936079740524
1782951216494345000,1.867344970703125,-0.008240411058068275,0.003650688100606203,0.07911442965269089
1782951216504272000,1.87727197265625,0.0013341862941160798,0.0004341220483183861,0.05127720907330513
1782951216514199000,1.887198974609375,0.010921585373580456,0.011636326089501381,0.01900792494416237
1782951216524126000,1.8971259765625,0.012163151055574417,0.014808416366577148,-0.012895412743091583
1782951216534052000,1.907052001953125,0.006174327339977026,0.005894502624869347,-0.023293059319257736
1782951216543979000,1.91697900390625,-0.00218000914901495,-0.009894846007227898,-0.01844077929854393
1782951216553906000,1.926906005859375,-0.003522218205034733,-0.01908177323639393,-0.004080404061824083
1782951216563833000,1.9368330078125,-0.012463515624403954,-0.015132306143641472,0.0023790933191776276
1782951216573759000,1.946759033203125,-0.007859082892537117,-0.013626337051391602,-0.0056608556769788265
1782951216583686100,1.95668603515625,-0.0003979708708357066,-0.007977506145834923,-0.015699908137321472
1782951216593612800,1.96661279296875,-0.0032346025109291077,0.0013939114287495613,-0.01421277318149805
1782951216603540000,1.9765400390625,-0.0025496373418718576,0.008606817573308945,0.0023688669316470623
1782951216613467000,1.986466796875,-0.01161261647939682,0.003787473775446415,0.026807444170117378
1782951216623393000,1.99639306640625,-0.01564863696694374,-0.003724504727870226,0.03831389546394348
1782951216633320200,2.0063203125,-0.020291686058044434,-0.005454445257782936,0.031068366020917892
1782951216643247000,2.0162470703125,-0.014780273661017418,-0.002211514161899686,0.020316652953624725
1782951216653174000,2.026174072265625,-0.007092563435435295,0.00012404471635818481,0.0018426236929371953
1782951216663100000,2.036099853515625,-0.0013880723854526877,-0.006697642616927624,-0.01145001221448183
1782951216673027000,2.046027099609375,0.00297488528303802,-0.010746695101261139,-0.008916517719626427
1782951216682954000,2.0559541015625,0.0009825745364651084,-0.005600668489933014,0.00029216089751571417
1782951216692881200,2.065881103515625,-0.00446412293240428,-0.008955718949437141,0.011362122371792793
1782951216702808000,2.07580810546875,-0.013690910302102566,-0.007448103278875351,0.019736697897315025
1782951216712734000,2.08573388671875,-0.02296728827059269,-0.0009270044974982738,0.016023000702261925
1782951216722661000,2.0956611328125,-0.022834397852420807,-0.00879957526922226,0.0003231328446418047
1782951216732588300,2.10558837890625,-0.020226003602147102,-0.01723172515630722,-0.018669864162802696
1782951216742515200,2.11551513671875,-0.01588558405637741,-0.016496691852808,-0.02922743372619152
1782951216752442400,2.1254423828125,-0.014056338928639889,-0.01066632941365242,-0.024787679314613342
1782951216762368300,2.1353681640625,-0.010789439082145691,-0.0012944000773131847,-0.014765139669179916
1782951216772295200,2.145295166015625,-0.004134670831263065,0.006386902183294296,0.002458615694195032
1782951216782222300,2.155222412109375,0.0036902292631566525,0.002447554375976324,0.017438896000385284
1782951216792149200,2.165149169921875,0.004718821961432695,0.003054054919630289,0.03421174734830856
1782951216802075400,2.175075439453125,0.005160107742995024,0.0024316739290952682,0.03932821378111839
1782951216812002300,2.185002197265625,0.007311062887310982,-0.004732328001409769,0.02758900262415409
1782951216821929200,2.19492919921875,0.0066026621498167515,-0.0025970053393393755,0.0047316234558820724
1782951216831856000,2.204856201171875,0.005053482484072447,0.0029046693816781044,-0.016555795446038246
1782951216841783300,2.214783203125,0.008119046688079834,0.004784594289958477,-0.022093573585152626
1782951216851709400,2.22470947265625,0.011610259301960468,0.00615645619109273,-0.01785632222890854
1782951216861636400,2.23463623046875,0.015614321455359459,-0.005426163785159588,-0.0033623347990214825
1782951216871563500,2.2445634765625,0.01519782841205597,-0.022803109139204025,0.007310093846172094
1782951216881490200,2.254490234375,0.015997309237718582,-0.033687714487314224,0.005524976644665003
1782951216891416300,2.264416259765625,0.017963936552405357,-0.02748827449977398,-0.0040604835376143456
1782951216901343200,2.27434326171875,0.017946891486644745,-0.009031236171722412,-0.017129413783550262
1782951216911270400,2.2842705078125,0.016545740887522697,0.004375702701508999,-0.018874075263738632
1782951216921197300,2.294197265625,0.011888671666383743,0.01772399991750717,-0.006816614884883165
1782951216931124200,2.304124267578125,0.012010607868432999,0.0258756335824728,0.01617104560136795
1782951216941050400,2.31405029296875,0.008113337680697441,0.025405585765838623,0.031017903238534927
1782951216950977300,2.323977294921875,0.00929875299334526,0.01398521475493908,0.04126792773604393
1782951216960904400,2.333904541015625,0.007987146265804768,0.005665500648319721,0.035047583281993866
1782951216970831400,2.343831298828125,0.007968442514538765,0.001797578763216734,0.017464570701122284
1782951216980758500,2.353758544921875,0.006760432850569487,-0.008387148380279541,-0.008597923442721367
1782951216990684200,2.36368408203125,0.009887540712952614,-0.017170073464512825,-0.034088026732206345
1782951217000611300,2.373611328125,0.014626636169850826,-0.019390350207686424,-0.04273691028356552
1782951217010538200,2.383538330078125,0.01486426405608654,-0.016328979283571243,-0.0343824103474617
1782951217020465400,2.39346533203125,0.007791707757860422,-0.01089133694767952,-0.022449849173426628
1782951217030391300,2.403391357421875,0.004941611085087061,0.0027236901223659515,0.004347115755081177
1782951217040318200,2.413318115234375,0.005845221690833569,0.02119377814233303,0.01821472868323326
1782951217050245400,2.423245361328125,0.00989010464400053,0.029695721343159676,0.018574150279164314
1782951217060172300,2.43317236328125,0.018671877682209015,0.026212304830551147,0.012264321558177471
1782951217070099500,2.443099365234375,0.017097782343626022,0.017650490626692772,0.0015381454722955823
1782951217080025300,2.453025390625,0.0196837130934,-0.0019586302805691957,-0.005493132397532463
1782951217089952300,2.4629521484375,0.022982953116297722,-0.007417977787554264,-0.010361980646848679
1782951217099879200,2.472879150390625,0.02881873957812786,-0.008795363828539848,-0.010477028787136078
1782951217109806300,2.482806396484375,0.02499329298734665,-0.016711976379156113,-0.004798099864274263
1782951217119733200,2.492733154296875,0.021785249933600426,-0.01579931192100048,0.005248941481113434
1782951217129659400,2.502659423828125,0.019208258017897606,-0.0106741888448596,0.0060010734014213085
1782951217139586300,2.51258642578125,0.013732532039284706,-0.010757279582321644,0.0004220171831548214
1782951217149513200,2.52251318359375,0.003556123236194253,-0.006587087642401457,-0.01107083074748516
1782951217159440400,2.5324404296875,0.0034623800311237574,-0.009795131161808968,-0.024626852944493294
1782951217169366300,2.5423662109375,-0.004474527668207884,-0.015424953773617744,-0.03279945254325867
1782951217179293400,2.55229345703125,-0.008151820860803127,-0.019626623019576073,-0.030509134754538536
1782951217189220400,2.562220458984375,-0.017972152680158615,-0.023783216252923012,-0.023292873054742813
1782951217199147300,2.572147216796875,-0.022081676870584488,-0.029081841930747032,-0.021576998755335808
1782951217209074200,2.58207421875,-0.02740367501974106,-0.02704058215022087,-0.026787981390953064
1782951217219000300,2.592000244140625,-0.029863636940717697,-0.021760331466794014,-0.03782358765602112
1782951217228927500,2.601927490234375,-0.032256606966257095,-0.008784211240708828,-0.04822796955704689
1782951217238854400,2.6118544921875,-0.03041556291282177,0.0018013217486441135,-0.04773502051830292
1782951217248781300,2.62178125,-0.028480513021349907,0.00715504540130496,-0.031064005568623543
1782951217258707200,2.631707275390625,-0.02904989756643772,0.005518266465514898,-0.010600275360047817
1782951217268634400,2.64163427734375,-0.02120680920779705,-0.0017539311666041613,0.009348932653665543
1782951217278561300,2.651561279296875,-0.014183787629008293,-0.003266872838139534,0.02822168916463852
1782951217288488400,2.661488525390625,-0.0096326544880867,0.0023674950934946537,0.038768794387578964
1782951217298415400,2.671415283203125,-0.007498664315789938,0.004468462895601988,0.03580309823155403
1782951217308341200,2.68134130859375,-0.006259569898247719,0.011602737009525299,0.031038274988532066
1782951217318268400,2.691268310546875,0.00044573715422302485,0.009941456839442253,0.02877405658364296
1782951217328195300,2.7011953125,0.0071127749979496,0.009943153709173203,0.032040152698755264
1782951217338122200,2.711122314453125,0.012479843571782112,0.004658909048885107,0.037880200892686844
1782951217348048100,2.721048095703125,0.015789026394486427,0.0010660900734364986,0.040959589183330536
1782951217357975300,2.730975341796875,0.01802714541554451,-0.0055473376996815205,0.03585990518331528
1782951217367902200,2.740902099609375,0.0248051006346941,-0.007579247001558542,0.02211061306297779
1782951217377829400,2.750829345703125,0.028804104775190353,-0.0018145686481148005,0.00865632388740778
1782951217387756300,2.76075634765625,0.049210429191589355,-0.018552137538790703,0.012769254855811596
1782951217397682400,2.770682373046875,0.05459906905889511,-0.04168408736586571,0.019950201734900475
1782951217407609300,2.780609375,0.04898403212428093,-0.04275565966963768,0.02629244327545166
1782951217417536300,2.790536376953125,0.03671005740761757,-0.025285854935646057,0.028348935768008232
1782951217427463200,2.800463134765625,0.018536880612373352,-0.006563302595168352,0.02805587835609913
1782951217437390300,2.810390380859375,0.0027240959461778402,0.003219552803784609,0.029191182926297188
1782951217447316500,2.82031640625,-0.0045022801496088505,-0.0009524549823254347,0.02190568298101425
1782951217457243100,2.8302431640625,-0.008344689384102821,-0.011286051943898201,0.01160883717238903
1782951217467170300,2.84017041015625,-0.0047952644526958466,-0.008830651640892029,-0.001485341228544712
1782951217477097200,2.85009716796875,0.0016977881314232945,-0.01009991392493248,-0.008036451414227486
1782951217487023400,2.8600234375,0.006023269612342119,-0.013275114819407463,-0.009209917858242989
1782951217496950300,2.8699501953125,0.006480534560978413,-0.019014492630958557,-0.0016484044026583433
1782951217506877400,2.87987744140625,0.007235162891447544,-0.007483373396098614,0.012384483590722084
1782951217516804000,2.88980419921875,0.0052726794965565205,0.006522989831864834,0.029584774747490883
1782951217526731300,2.899731201171875,0.0029946116264909506,0.004128808155655861,0.035137467086315155
1782951217536657400,2.909657470703125,-0.0007665707962587476,-0.0040641408413648605,0.030387451872229576
1782951217546584300,2.919584228515625,0.0006722791586071253,0.0032431231811642647,0.01688583754003048
1782951217556511500,2.929511474609375,-0.002327505499124527,0.011003042571246624,0.0028227493166923523
1782951217566438400,2.9394384765625,-0.0007043273653835058,0.01622961275279522,-0.007819748483598232
1782951217576365300,2.949365234375,0.007330696098506451,0.018712744116783142,-0.011060282588005066
1782951217586291200,2.959291259765625,0.013828486204147339,0.02009527198970318,-0.005568499676883221
1782951217596218400,2.96921826171875,0.02189520187675953,0.011964907869696617,0.010070114396512508
1782951217606145300,2.979145263671875,0.02774995006620884,0.0011798222549259663,0.02549027092754841
1782951217616072400,2.989072509765625,0.030717777088284492,-0.001019149785861373,0.03312395513057709
1782951217625998300,2.998998291015625,0.037515267729759216,-0.0014657285064458847,0.026611674576997757
1782951217635925200,3.00892529296875,0.041358210146427155,0.0046100071631371975,0.016651451587677002
1782951217645852400,3.018852294921875,0.039912737905979156,0.013870568946003914,0.0005591699155047536
1782951217655779300,3.028779296875,0.03735769912600517,0.030356070026755333,-0.00787479430437088
1782951217665706500,3.03870654296875,0.0332680381834507,0.028935439884662628,-0.00895454827696085
1782951217675632000,3.048632080078125,0.028149176388978958,0.01091755460947752,-0.0004143230617046356
1782951217685559300,3.058559326171875,0.026462001726031303,-0.010427096858620644,0.009048128500580788
1782951217695486200,3.068486328125,0.021654197946190834,-0.011589299887418747,0.01477712020277977
1782951217705413400,3.078413330078125,0.025295592844486237,-0.007089172024279833,0.011553016491234303
1782951217715340300,3.08834033203125,0.021316565573215485,-0.006216454319655895,0.0002095489762723446
1782951217725266200,3.09826611328125,0.022537531331181526,-0.002472267486155033,-0.007834128104150295
1782951217735193900,3.10819384765625,0.01944107376039028,0.008551355451345444,-0.004972295835614204
1782951217745121000,3.11812109375,0.01204989105463028,0.0262740571051836,0.0015731146559119225
1782951217755047700,3.128047607421875,0.008190438151359558,0.02487749606370926,0.010012405924499035
1782951217764973800,3.137973876953125,0.0019415850983932614,0.020274370908737183,0.018131446093320847
1782951217774901000,3.14790087890625,0.0007242541760206223,0.015268691815435886,0.021137354895472527
1782951217784828000,3.157827880859375,-0.0020750192925333977,0.014320958405733109,0.01875108852982521
1782951217794755000,3.167755126953125,-0.0038090033922344446,0.009950177744030952,0.011109414510428905
1782951217804682000,3.177681884765625,-0.00465982174500823,0.0032464182004332542,0.007975163869559765
1782951217814608000,3.18760791015625,-0.0023756283335387707,0.010493678040802479,0.00947665423154831
1782951217824534800,3.19753466796875,0.002744181314483285,0.012822745367884636,0.011745989322662354
1782951217834462000,3.2074619140625,0.004108252003788948,0.013612639158964157,0.011981945484876633
1782951217844388900,3.217388916015625,0.012210307642817497,-0.004050074610859156,0.011432269588112831
1782951217854314800,3.227314697265625,0.016334744170308113,0.001920732669532299,0.010113205760717392
1782951217864242000,3.237241943359375,0.01829415000975132,0.005034365691244602,0.007184208370745182
1782951217874168800,3.2471689453125,0.01637480966746807,0.006563286297023296,0.004020106513053179
1782951217884096000,3.257095947265625,0.01894495077431202,0.004677967634052038,-0.002469911938533187
1782951217894023000,3.26702294921875,0.019706083461642265,-0.0031597157940268517,-0.0013742874143645167
1782951217903948800,3.27694873046875,0.015479417517781258,0.013355111703276634,0.013728979043662548
1782951217913875700,3.286875732421875,0.0019447001395747066,0.02506875991821289,0.03352505341172218
1782951217923803000,3.296802978515625,-0.010083125904202461,0.01909935101866722,0.0422033928334713
1782951217933729800,3.306729736328125,-0.014998522587120533,0.011741037480533123,0.03313612565398216
1782951217943657000,3.316656982421875,-0.015022626146674156,0.005869818385690451,0.011454880237579346
1782951217953583000,3.3265830078125,-0.015022359788417816,-0.0005630473606288433,-0.015668882057070732
1782951217963509800,3.336509765625,-0.007614852394908667,-0.005471854470670223,-0.03770829737186432
1782951217973437000,3.34643701171875,0.0013538750354200602,-0.01125757209956646,-0.04630178585648537
1782951217983363800,3.35636376953125,0.008042100816965103,-0.016904039308428764,-0.03427516669034958
1782951217993290000,3.3662900390625,0.003440690925344825,-0.012536188587546349,-0.0014857922215014696
1782951218003217000,3.376216796875,-0.008580094203352928,0.0030019572004675865,0.029968643561005592
1782951218013144000,3.38614404296875,-0.014675004407763481,0.010172784328460693,0.04924886301159859
1782951218023070700,3.39607080078125,-0.015395581722259521,0.009332357905805111,0.03190784901380539
1782951218032998000,3.405997802734375,-0.009510528296232224,0.006786109879612923,0.003270347137004137
1782951218042924000,3.415924072265625,-0.006292952224612236,0.006925476714968681,-0.02414575032889843
1782951218052851000,3.425850830078125,0.003772198688238859,0.004486819729208946,-0.035856205970048904
1782951218062778000,3.435778076171875,0.012079954147338867,0.003909095656126738,-0.03304915875196457
1782951218072704800,3.445704833984375,0.012876505963504314,-0.006041272543370724,-0.01685633882880211
1782951218082632000,3.4556318359375,0.01129918359220028,-0.008905468508601189,0.0011267159134149551
1782951218092557800,3.465557861328125,0.007940405048429966,-0.010607760399580002,0.007737213745713234
1782951218102485000,3.475485107421875,0.007433030288666487,-0.006805627606809139,0.01166638731956482
1782951218112412000,3.485411865234375,0.007748348172754049,-0.00611799955368042,0.01067462656646967
1782951218122339000,3.495339111328125,0.014322347939014435,-0.013135283254086971,0.007788693066686392
1782951218132265000,3.505264892578125,0.017810823395848274,-0.005609989166259766,0.007861130870878696
1782951218142191900,3.51519189453125,0.013683783821761608,0.007164343260228634,0.0102556012570858
1782951218152119000,3.525119140625,0.014164484106004238,0.008716699667274952,0.014109195210039616
1782951218162046000,3.5350458984375,0.008340808562934399,0.011874631978571415,0.010705653578042984
1782951218171972900,3.544972900390625,0.001050405204296112,0.015461909584701061,0.0059652263298630714
1782951218181898800,3.554898681640625,-0.0046117110177874565,0.01059386320412159,-0.003712255507707596
1782951218191826000,3.564825927734375,-0.0022159311920404434,0.0015633502043783665,-0.022596463561058044
1782951218201752800,3.5747529296875,0.004217745736241341,-0.00546221761032939,-0.028206804767251015
1782951218211680000,3.584679931640625,0.005779956001788378,-0.013948380015790462,-0.023378226906061172
1782951218221607000,3.59460693359375,0.008764918893575668,-0.019173817709088326,-0.007870241068303585
1782951218231532800,3.60453271484375,0.006132651586085558,-0.018577802926301956,0.012349543161690235
1782951218241460000,3.6144599609375,0.005801490042358637,-0.00862795114517212,0.020123761147260666
1782951218251387000,3.624386962890625,-0.0005717206513509154,0.002509920857846737,0.013493023812770844
1782951218261313800,3.634313720703125,-0.006274978630244732,0.016306977719068527,0.004048682749271393
1782951218271240000,3.644239990234375,-0.010128306224942207,0.03094504401087761,-0.0022824499756097794
1782951218281166800,3.654166748046875,-0.01061379536986351,0.02610051818192005,-0.009082196280360222
1782951218291093800,3.66409375,-0.006442752201110125,0.004479910712689161,-0.009308564476668835
1782951218301021000,3.67402099609375,0.006729867774993181,-0.010553949512541294,-0.0066282241605222225
1782951218310947800,3.68394775390625,0.011766971088945866,-0.015812627971172333,-0.003550675231963396
1782951218320874000,3.6938740234375,0.019590897485613823,-0.015231307595968246,-0.0010503653902560472
1782951218330801000,3.70380078125,0.020917685702443123,-0.014481361955404282,-0.0024991249665617943
1782951218340727800,3.713727783203125,0.019343893975019455,-0.007525169290602207,0.0010649018222466111
1782951218350654700,3.72365478515625,0.01805785298347473,0.004423369187861681,0.006735038012266159
1782951218360582000,3.733581787109375,0.014630667865276337,0.010643481276929379,0.013854946941137314
1782951218370508000,3.743508056640625,0.016661860048770905,0.01085733249783516,0.022426864132285118
1782951218380435000,3.75343505859375,0.013985798694193363,0.02245287224650383,0.030604954808950424
1782951218390361900,3.76336181640625,0.010327148251235485,0.03680863976478577,0.02737586945295334
1782951218400288800,3.773288818359375,0.006016159895807505,0.03567255288362503,0.022359192371368408
1782951218410215000,3.78321484375,0.00039129710057750344,0.026082510128617287,0.0110929561778903
1782951218420141800,3.793141845703125,-0.004530205857008696,0.0011288397945463657,0.002330597024410963
1782951218430069000,3.803069091796875,-0.0026532101910561323,-0.017825676128268242,-0.007177953142672777
1782951218439996000,3.812995849609375,-0.0011902053374797106,-0.028552105650305748,-0.00890493206679821
1782951218449922800,3.8229228515625,-0.002456005895510316,-0.030405400320887566,-0.015073612332344055
1782951218459849000,3.832848876953125,-0.0032654523383826017,-0.016871582716703415,-0.008243510499596596
1782951218469776000,3.84277587890625,-0.0028478687163442373,-0.00034640170633792877,-0.005764107685536146
1782951218479703000,3.852703125,-0.010587429627776146,0.007523105014115572,-0.006107710767537355
1782951218489630000,3.8626298828125,-0.011893976479768753,0.011816121637821198,0.0020610028877854347
1782951218499557000,3.87255712890625,-0.015511391684412956,0.014806786552071571,0.015517107211053371
1782951218509482800,3.882482666015625,-0.012897498905658722,0.004565333016216755,0.01891050674021244
1782951218519410000,3.892409912109375,-0.008474978618323803,-0.0015872991643846035,0.021638276055455208
1782951218529336800,3.9023369140625,-0.0030996548011898994,-0.0031068988610059023,0.03171967342495918
1782951218539264000,3.912263916015625,-0.0037696256767958403,-0.0007238052785396576,0.030462127178907394
1782951218549190000,3.92218994140625,-0.0010550656588748097,0.007854769006371498,0.01791197992861271
1782951218559116800,3.93211669921875,0.0036486464086920023,0.010074812918901443,0.006732775364071131
1782951218569044000,3.9420439453125,0.012699399143457413,-0.00028195325285196304,-0.00547382328659296
1782951218578971000,3.951970947265625,0.022536545991897583,-0.0005506998859345913,-0.00871084164828062
1782951218588898000,3.96189794921875,0.02847353182733059,0.004455510061234236,-0.0014068565797060728
1782951218598823700,3.97182373046875,0.02671683020889759,0.007961465045809746,0.006302995607256889
1782951218608750800,3.981750732421875,0.02484409511089325,-0.0016765149775892496,0.019269928336143494
1782951218618677800,3.991677734375,0.017451902851462364,-0.0017813616432249546,0.0290139801800251
1782951218628605000,4.00160498046875,0.012884581461548805,-0.00019038934260606766,0.02937164157629013
1782951218638531800,4.01153173828125,0.004813928157091141,-0.0009446784388273954,0.0224462803453207
1782951218648458000,4.0214580078125,0.0021166789811104536,-0.005114389583468437,0.011894302442669868
1782951218658385000,4.031385009765625,0.008048090152442455,-0.03731585294008255,0.036781780421733856
1782951218668311800,4.041311767578125,-0.006876531057059765,-0.0032580168917775154,0.06663767993450165
1782951218678239000,4.051239013671875,-0.013881308026611805,-0.012164678424596786,0.06427058577537537
1782951218688164900,4.061164794921875,-0.014344165101647377,-0.021791739389300346,0.0428776741027832
1782951218698092000,4.071092041015625,-0.01765802875161171,-0.0015021313447505236,0.02923150546848774
1782951218708019000,4.08101904296875,-0.01874806173145771,0.010240544565021992,0.015924489125609398
1782951218717945900,4.09094580078125,-0.018589850515127182,0.007391378749161959,0.008638321422040462
1782951218727872300,4.100872314453125,-0.009086361154913902,0.005952473264187574,0.003741299733519554
1782951218737798400,4.11079833984375,-0.0023054941557347775,0.003940654452890158,0.005216795951128006
1782951218747725600,4.1207255859375,-0.0059939720667898655,0.008697858080267906,0.007577954791486263
1782951218757652500,4.130652587890625,-0.004076787270605564,0.00586753711104393,0.003374876454472542
1782951218767579600,4.14057958984375,-0.002114303642883897,0.011636743322014809,0.0006547236116603017
1782951218777506300,4.15050634765625,-0.005336511880159378,0.009434954263269901,-0.0059792944230139256
1782951218787432400,4.160432373046875,-0.004743958357721567,-0.004048896487802267,-0.015146427787840366
1782951218797359400,4.170359375,-0.0019351413939148188,0.0018208278343081474,-0.018666567280888557
1782951218807286500,4.18028662109375,-0.0037945604417473078,0.003094351850450039,-0.01317725982517004
1782951218817213400,4.19021337890625,-0.012258223257958889,0.016775792464613914,-0.004599134903401136
1782951218827139300,4.200139404296875,-0.012285919860005379,0.010016690008342266,0.0075808316469192505
1782951218837066500,4.21006640625,-0.004679683595895767,-0.0014909789897501469,0.01390586607158184
1782951218846993400,4.219993408203125,0.0027891513891518116,-0.010294856503605843,0.021149663254618645
1782951218856920600,4.229920654296875,0.009873229078948498,-0.022748293355107307,0.01572619192302227
1782951218866847500,4.239847412109375,0.014617384411394596,-0.02252005971968174,0.01578584685921669
1782951218876773400,4.2497734375,0.0070734345354139805,-0.01729585789144039,0.012854104861617088
1782951218886700300,4.2597001953125,0.0002802432863973081,-0.01789054088294506,0.026377104222774506
1782951218896627500,4.26962744140625,-0.01678209751844406,0.012759514153003693,0.04511350765824318
1782951218906554400,4.279554443359375,-0.025584910064935684,0.025661729276180267,0.04835830256342888
1782951218916481500,4.2894814453125,-0.024112410843372345,0.020077381283044815,0.0307901743799448
1782951218926407400,4.299407470703125,-0.02185191959142685,0.005131453741341829,0.009997278451919556
1782951218936334300,4.309334228515625,-0.015116332098841667,0.004267693962901831,-0.008409424684941769
1782951218946261500,4.319261474609375,-0.009428086690604687,-0.014560054987668991,-0.02819058671593666
1782951218956188400,4.3291884765625,-0.00647358875721693,-0.02478538267314434,-0.03407178074121475
1782951218966114600,4.339114501953125,-0.0061918264254927635,-0.013815289363265038,-0.019161274656653404
1782951218976041500,4.34904150390625,-0.00496623944491148,-0.002670759567990899,-0.0013223558198660612
1782951218985970400,4.358970458984375,-0.003834130009636283,0.011450385674834251,0.0196140855550766
1782951218995897600,4.368897705078125,-0.0058684819377958775,0.0256610456854105,0.021077971905469894
1782951219005823500,4.378823486328125,0.00019979706848971546,0.023533180356025696,0.020293405279517174
1782951219015750400,4.38875048828125,0.0022233601193875074,0.01285279169678688,0.012970378622412682
1782951219025677600,4.398677490234375,0.0022316158283501863,-0.007537169381976128,0.003563827369362116
1782951219035604500,4.4086044921875,0.0028640793170779943,-0.0238858163356781,0.004462430719286203
1782951219045530600,4.418530517578125,-0.0016001776093617082,-0.01719755306839943,0.006621455308049917
1782951219055457300,4.428457275390625,0.007887445390224457,-0.005403377115726471,0.003215645905584097
1782951219065384400,4.438384521484375,0.01305291336029768,-0.006762654520571232,-0.00863089319318533
1782951219075311400,4.448311279296875,0.01890559308230877,-0.0038322468753904104,-0.023042909801006317
1782951219085238500,4.458238525390625,0.022259045392274857,0.001763853244483471,-0.024213101714849472
1782951219095164400,4.468164306640625,0.0248748566955328,0.00024150824174284935,-0.02062057889997959
1782951219105091300,4.47809130859375,0.02397790551185608,-0.006084298249334097,-0.012473701499402523
1782951219115018200,4.488018310546875,0.021350529044866562,0.0008574794046580791,-0.001324141165241599
1782951219124945400,4.4979453125,0.009396931156516075,0.018942473456263542,0.007984139025211334
1782951219134872300,4.507872314453125,-0.0038287665229290724,0.025575559586286545,0.018508022651076317
1782951219144798500,4.517798583984375,-0.013968219980597496,0.028334062546491623,0.027777420356869698
1782951219154725600,4.5277255859375,-0.014521148055791855,0.026906423270702362,0.027224626392126083
1782951219164652300,4.53765234375,-0.01316746324300766,0.016632482409477234,0.02137232944369316
1782951219174579500,4.547579345703125,0.0006146932719275355,0.005234421696513891,0.009845745749771595
1782951219184506400,4.55750634765625,0.01022790651768446,0.002319058869034052,-0.002481760922819376
1782951219194432500,4.5674326171875,0.012695212848484516,0.002009497955441475,-0.012257000431418419
1782951219204359400,4.577359375,0.013358339667320251,-0.007365095429122448,-0.013810422271490097
1782951219214286300,4.587286376953125,0.014332852326333523,-0.007523339241743088,-0.010930456221103668
1782951219224213200,4.597213134765625,0.014065470546483994,-0.0028148703277111053,-0.0008067154558375478
1782951219234139400,4.607139404296875,0.016759803518652916,0.003607462625950575,0.006676370743662119
1782951219244066600,4.617066650390625,0.019103385508060455,0.009480532258749008,0.014650140888988972
1782951219253993500,4.626993408203125,0.024761537089943886,0.014259042218327522,0.030224308371543884
1782951219263920600,4.636920654296875,0.023491742089390755,0.010862713679671288,0.039614081382751465
1782951219273847300,4.646847412109375,0.0236287210136652,0.005149650853127241,0.038977183401584625
1782951219283773400,4.6567734375,0.027586445212364197,0.0019410746172070503,0.030013518407940865
1782951219293700400,4.666700439453125,0.027743026614189148,-0.01135674212127924,0.005984480492770672
1782951219303627500,4.67662744140625,0.027840763330459595,-0.01252986490726471,-0.014399886131286621
1782951219313554400,4.686554443359375,0.02172553353011608,-0.014145169407129288,-0.03182920813560486
1782951219323481600,4.696481689453125,0.011557851918041706,-0.009807145223021507,-0.03215011954307556
1782951219333407500,4.706407470703125,0.003719537053257227,-0.0005933875218033791,-0.023694826290011406
1782951219343334400,4.71633447265625,-0.0050033810548484325,0.0069124652072787285,-0.012841645628213882
1782951219353261600,4.726261474609375,-0.011500081978738308,0.005876592360436916,0.0008960060076788068
1782951219363188500,4.7361884765625,-0.01036797184497118,0.006083785556256771,0.023322219029068947
1782951219373114400,4.7461142578125,-0.012741723097860813,0.013501685112714767,0.03529589995741844
1782951219383041300,4.756041259765625,-0.009858584962785244,0.0006740386597812176,0.038012854754924774
1782951219392968400,4.765968505859375,-0.00854682270437479,-0.00905751995742321,0.02436138316988945
1782951219402895400,4.775895263671875,-0.009103157557547092,-0.003898976370692253,0.006560015957802534
1782951219412822500,4.785822509765625,-0.008918697945773602,0.004836476873606443,-0.011423750780522823
1782951219422748400,4.79574853515625,-0.004316223785281181,-0.00125363958068192,-0.01954958774149418
1782951219432675300,4.80567529296875,0.0007469966076314449,-0.004495088942348957,-0.01829473115503788
1782951219442602500,4.8156025390625,-0.0013228121679276228,-0.004295618273317814,-0.004373324569314718
1782951219452529400,4.825529296875,-0.003962952643632889,-0.010576818138360977,0.009017261676490307
1782951219462456600,4.83545654296875,0.00045389990555122495,-0.009070534259080887,0.007849199697375298
1782951219472382500,4.845382568359375,0.00846514105796814,-0.001544006634503603,0.002839527791365981
1782951219482309400,4.855309326171875,0.010982627049088478,0.008403166197240353,-0.005549163557589054
1782951219492236300,4.865236328125,0.008882804773747921,0.005284436047077179,-0.008332433179020882
1782951219502163500,4.87516357421875,0.005778624210506678,0.0026095574721693993,-0.0019645490683615208
1782951219512090400,4.88509033203125,0.0060156770050525665,-0.0022831973619759083,0.0035208698827773333
1782951219522016500,4.8950166015625,0.001621461589820683,-0.0023516404908150434,0.008144916966557503
1782951219531943700,4.904943603515625,0.0016871856059879065,0.0013201418332755566,0.013677713461220264
1782951219541870300,4.914870361328125,-0.006426134612411261,0.010475823655724525,0.006003282964229584
1782951219551797500,4.924797607421875,-0.006059467326849699,0.007939806208014488,-0.005416433326900005
1782951219561723400,4.934723388671875,-0.007001959718763828,0.009163795039057732,-0.010402137413620949
1782951219571650600,4.944650634765625,-0.008295556530356407,0.019635895267128944,-0.008500345051288605
1782951219581577500,4.954577392578125,-0.012593898922204971,0.019049467518925667,0.000358393881469965
1782951219591504400,4.96450439453125,-0.009770012460649014,0.010852006264030933,0.008955263532698154
1782951219601431300,4.974431396484375,-0.014775956980884075,0.004057483747601509,0.011952917091548443
1782951219611357400,4.984357421875,-0.014306409284472466,0.0010670251213014126,0.010398803278803825
1782951219621284600,4.99428466796875,-0.017479833215475082,0.01315937377512455,0.011942370794713497
1782951219631211500,5.00421142578125,-0.016670528799295425,0.024918556213378906,0.007317418698221445
1782951219641138400,5.014138427734375,-0.008053072728216648,0.018369577825069427,-0.0009927089558914304
1782951219651065300,5.0240654296875,-0.00013449112884700298,0.008432844653725624,0.0016344742616638541
1782951219660991500,5.033991455078125,0.012389290146529675,-0.0061152055859565735,0.006171169225126505
1782951219670918400,5.04391845703125,0.011770470067858696,-0.013125463388860226,0.020702414214611053
1782951219680845600,5.053845458984375,0.014946289360523224,-0.0037647185381501913,0.026789069175720215
1782951219690772500,5.0637724609375,0.010849833488464355,0.0011255270801484585,0.025355195626616478
1782951219700698400,5.073698486328125,0.0042435964569449425,0.0006671971641480923,0.014228242449462414
1782951219710625500,5.08362548828125,0.002146716695278883,-0.0008591087535023689,-0.00546703115105629
1782951219720552400,5.093552490234375,0.006493528373539448,-0.007099694572389126,-0.027585383504629135
1782951219730479600,5.103479736328125,0.012837976217269897,-0.020013362169265747,-0.04145006462931633
1782951219740406800,5.11340673828125,0.012719199061393738,-0.026247022673487663,-0.03729686513543129
1782951219750332700,5.123332763671875,0.0062626320868730545,-0.02712666429579258,-0.01576893776655197
1782951219760259600,5.133259521484375,0.00023749649699311703,-0.015837525948882103,0.012850989587605
1782951219770186800,5.143186767578125,-0.0052608284167945385,0.004256591200828552,0.036728572100400925
1782951219780113700,5.15311376953125,-0.016378726810216904,0.030938800424337387,0.043351054191589355
1782951219790040800,5.163040771484375,-0.022338498383760452,0.04042831063270569,0.02905461937189102
1782951219799966700,5.172966796875,-0.024525485932826996,0.03946371376514435,0.0035489932633936405
1782951219809893600,5.1828935546875,-0.020662421360611916,0.026666291058063507,-0.016100021079182625
1782951219819820500,5.192820556640625,-0.014608790166676044,0.010354164987802505,-0.015986837446689606
1782951219829747700,5.202747802734375,-0.0157456137239933,-0.007446839474141598,-0.008150487206876278
1782951219839674600,5.212674560546875,-0.008343890309333801,-0.0157961156219244,-0.00035994185600429773
1782951219849600800,5.222600830078125,-0.002784256124868989,-0.020976345986127853,0.004424134269356728
1782951219859527700,5.232527587890625,0.001476268982514739,-0.024429665878415108,0.00097507459577173
1782951219869454600,5.24245458984375,0.0038142951671034098,-0.019828224554657936,-0.008646712638437748
1782951219879381800,5.2523818359375,0.00648677721619606,-0.017606349661946297,-0.015488107688724995
1782951219889307600,5.2623076171875,0.008541653864085674,-0.015069837681949139,-0.016724852845072746
1782951219899234800,5.27223486328125,0.010417317971587181,-0.002110362984240055,-0.01214235182851553
1782951219909161700,5.28216162109375,0.00722254766151309,0.01566324383020401,0.006422224920243025
1782951219919088600,5.292088623046875,0.002894377801567316,0.036700353026390076,0.030826635658740997
1782951219929015600,5.302015625,0.0017495221691206098,0.042495425790548325,0.04820264130830765
1782951219938941700,5.311941650390625,0.007619395852088928,0.03414721414446831,0.04749130830168724
1782951219948868900,5.321868896484375,0.012604529969394207,0.00928444042801857,0.033946529030799866
1782951219958795800,5.331795654296875,0.0131651246920228,-0.011714850552380085,0.015014647506177425
1782951219968722700,5.34172265625,0.009555896744132042,-0.022606216371059418,-0.009084136225283146
1782951219978649600,5.351649658203125,0.010807582177221775,-0.02520998753607273,-0.026855677366256714
1782951219988575700,5.36157568359375,0.00708020431920886,-0.01811201497912407,-0.035700540989637375
1782951219998502700,5.371502685546875,0.003953919280320406,-0.002680328907445073,-0.026004236191511154
1782951220008429800,5.381429931640625,0.0018840733682736754,0.00490165688097477,-0.008198022842407227
1782951220018356700,5.391356689453125,0.0002952314680442214,0.00589981023222208,0.006262674927711487
1782951220028283600,5.40128369140625,0.0002832284080795944,0.0050053708255290985,0.01717100851237774
1782951220038209800,5.411209716796875,-0.002030259696766734,0.00934765487909317,0.02175351046025753
1782951220048136700,5.42113671875,-0.005079480353742838,0.0077015371061861515,0.014149622991681099
1782951220058064000,5.43106396484375,-0.001971837365999818,0.01158415898680687,0.011048638261854649
1782951220067990800,5.44099072265625,0.0007163758855313063,0.006911260075867176,0.008864287286996841
1782951220077916700,5.450916748046875,0.003836269024759531,-0.005930768791586161,0.002953668124973774
1782951220087843600,5.460843505859375,0.004195548593997955,-0.013547258451581001,-0.0046808416955173016
1782951220097770800,5.470770751953125,0.008814268745481968,-0.023663276806473732,-0.0049420977011322975
1782951220107697700,5.48069775390625,0.006238589063286781,-0.02199748530983925,-0.006400363054126501
1782951220117624800,5.490624755859375,0.002838531509041786,-0.017640020698308945,-0.003679677378386259
1782951220127550700,5.50055078125,-0.0000043370528146624565,-0.0074519142508506775,0.0009903621394187212
1782951220137477600,5.5104775390625,-0.0047136046923696995,0.009210951626300812,0.005143028683960438
1782951220147404500,5.520404541015625,-0.01378585398197174,0.009635528549551964,0.009750990197062492
1782951220157331700,5.530331787109375,-0.013112607412040234,-0.0012583988718688488,0.008668415248394012
1782951220167258600,5.540258544921875,-0.007304346188902855,-0.017736127600073814,-0.002422984689474106
1782951220177184500,5.5501845703125,-0.0066646551713347435,-0.025275537744164467,-0.00904093962162733
1782951220187111700,5.560111572265625,-0.011792207136750221,-0.021035535261034966,-0.010656975209712982
1782951220197038600,5.57003857421875,-0.012302734889090061,-0.017851993441581726,-0.012579777278006077
1782951220206965800,5.5799658203125,-0.0162753164768219,-0.016384407877922058,-0.013240586034953594
1782951220216891600,5.5898916015625,-0.02061467058956623,-0.01813490316271782,-0.01576952449977398
1782951220226818800,5.59981884765625,-0.02619507722556591,-0.015120620839297771,-0.020138945430517197
1782951220236745500,5.609745361328125,-0.031403154134750366,-0.008893351070582867,-0.022618349641561508
1782951220246672600,5.619672607421875,-0.03343106061220169,-0.008050510659813881,-0.0307318028062582
1782951220256599600,5.629599609375,-0.02903817594051361,-0.007123463787138462,-0.025092026218771935
1782951220266525700,5.639525634765625,-0.019625404849648476,-0.0019061139319092035,-0.010451963171362877
1782951220276452900,5.649452880859375,-0.009368772618472576,-0.005749854259192944,0.008786712773144245
1782951220286379500,5.659379638671875,-0.0034618759527802467,-0.009163996204733849,0.020572900772094727
1782951220296306700,5.669306640625,-0.00585952028632164,-0.013478050008416176,0.026204155758023262
1782951220306233600,5.679233642578125,-0.008917268365621567,-0.006866270676255226,0.016012107953429222
1782951220316159700,5.68915966796875,-0.009035246446728706,-0.0018310316372662783,-0.0003391692298464477
1782951220326086700,5.699086669921875,-0.007459639571607113,-0.0023039092775434256,-0.015014256350696087
1782951220336013800,5.709013916015625,0.004549086093902588,0.004547871649265289,-0.021583210676908493
1782951220345940500,5.7189404296875,0.008805003017187119,0.005191723816096783,-0.014662714675068855
1782951220355867600,5.72886767578125,0.013226117007434368,-0.0027048150077462196,-0.0007077506743371487
1782951220365793800,5.738793701171875,0.0194535031914711,-0.012704584747552872,0.017691705375909805
1782951220375720700,5.748720703125,0.022666074335575104,-0.01702955737709999,0.020900815725326538
1782951220385647900,5.75864794921875,0.02093270979821682,-0.020324768498539925,0.006750406697392464
1782951220395574800,5.76857470703125,0.016611464321613312,-0.017192091792821884,-0.013741286471486092
1782951220405500700,5.778500732421875,0.010094678960740566,-0.005795629695057869,-0.03169083595275879
1782951220415427600,5.788427490234375,-0.0011100383708253503,0.012637972831726074,-0.03261442109942436
1782951220425354800,5.798354736328125,-0.004289400298148394,0.018653955310583115,-0.013631404377520084
1782951220435281700,5.80828173828125,-0.004621496424078941,0.01562647335231304,0.020444540306925774
1782951220445208800,5.818208740234375,-0.0007830765098333359,0.016622526571154594,0.056563764810562134
1782951220455134700,5.828134765625,0.002436152659356594,0.008189894258975983,0.06953468918800354
1782951220465061600,5.8380615234375,0.01314269844442606,0.0008745267987251282,0.051235850900411606
1782951220474988800,5.84798876953125,0.019689280539751053,0.008003009483218193,0.02063932456076145
1782951220484915700,5.857915771484375,0.01693146489560604,0.013983037322759628,-0.009637195616960526
1782951220494843000,5.8678427734375,0.01758633740246296,0.011149432510137558,-0.023542091250419617
1782951220504768500,5.8777685546875,0.016861863434314728,0.009279942139983177,-0.02257097139954567
1782951220514695700,5.88769580078125,0.016533229500055313,-0.0019162530079483986,-0.013944992795586586
1782951220524622600,5.89762255859375,0.013358896598219872,-0.018009036779403687,-0.004581427201628685
1782951220534549800,5.9075498046875,0.019079899415373802,-0.017944853752851486,0.0029617100954055786
1782951220544476700,5.9174765625,0.021382369101047516,-0.008702602237462997,0.0066267820075154305
1782951220554402600,5.927402587890625,0.022880930453538895,-0.0034676266368478537,-0.0029574022628366947
1782951220564329700,5.937329833984375,0.024051297456026077,0.007799990940839052,-0.008229530416429043
1782951220574256600,5.947256591796875,0.026408726349473,0.023189065977931023,-0.005259839352220297
1782951220584183800,5.957183837890625,0.023829584941267967,0.02848980575799942,0.00965074822306633
1782951220594109700,5.967109619140625,0.021876422688364983,0.017212385311722755,0.019208567216992378
1782951220604036900,5.977036865234375,0.0207394827157259,0.004748224746435881,0.02205766923725605
1782951220613963500,5.986963623046875,0.01772904582321644,0.0008719940669834614,0.007522669155150652
1782951220623890700,5.996890625,0.011246304027736187,0.00008176779374480247,-0.007935543544590473
1782951220633817600,6.006817626953125,0.0063729858957231045,-0.00527597963809967,-0.02641521766781807
1782951220643743700,6.01674365234375,0.006288353353738785,0.0035898666828870773,-0.026824889704585075
1782951220653671000,6.0266708984375,-0.0001572955516166985,0.0154268192127347,-0.022369155660271645
1782951220663597600,6.03659765625,0.0006520390743389726,0.01253728847950697,-0.010070146061480045
1782951220673524700,6.046524658203125,0.005668902304023504,0.012383359484374523,0.003942608367651701
1782951220683451600,6.05645166015625,0.013508864678442478,0.001889839768409729,0.011356369592249393
1782951220693377800,6.066377685546875,0.0106941694393754,-0.001325927209109068,0.008342736400663853
1782951220703304700,6.0763046875,0.003045323072001338,0.000428980216383934,0.005501916632056236
1782951220713232000,6.08623193359375,0.0009094680426642299,0.004972332622855902,0.012144639156758785
1782951220723158500,6.096158447265625,-0.006899998523294926,0.028061285614967346,0.02299661748111248
1782951220733084400,6.10608447265625,-0.010725629515945911,0.05028616264462471,0.03890874236822128
1782951220743011600,6.116011474609375,-0.011384650133550167,0.05814366042613983,0.04312276840209961
1782951220752938500,6.1259384765625,-0.012356171384453773,0.04632801190018654,0.03357027471065521
1782951220762865700,6.13586572265625,0.0006119183963164687,0.03171013295650482,0.01728305034339428
1782951220772792600,6.14579248046875,0.015847330912947655,0.010423222556710243,0.004338754341006279
1782951220782718500,6.155718505859375,0.02052135020494461,-0.010979754850268364,-0.004561397712677717
1782951220792645400,6.165645263671875,0.025555258616805077,-0.021210819482803345,-0.013808691874146461
1782951220802572500,6.175572509765625,0.030041327700018883,-0.01734808459877968,-0.016848502680659294
1782951220812499500,6.18549951171875,0.024456147104501724,0.00010014744475483894,-0.0008871136815287173
1782951220822426600,6.195426513671875,0.01835373044013977,0.016676040366292,0.017956268042325974
1782951220832352500,6.2053525390625,0.013206105679273605,0.01203921064734459,0.024398986250162125
1782951220842279400,6.215279541015625,0.01584632694721222,0.0016978560015559196,0.016943786293268204
1782951220852206600,6.22520654296875,0.014241771772503853,-0.002478513168171048,0.013195119798183441
1782951220862133500,6.235133544921875,0.006041837390512228,-0.011507109738886356,0.007673564366996288
1782951220872060400,6.245060302734375,0.006700437515974045,-0.011389131657779217,0.0016425701323896646
1782951220881986600,6.254986572265625,0.0041854651644825935,-0.0021291885059326887,-0.006376795005053282
1782951220891913500,6.26491357421875,-0.004976075142621994,0.0017896532081067562,-0.015210234560072422
1782951220901840400,6.27484033203125,-0.008522247895598412,0.0048836637288331985,-0.023052310571074486
1782951220911767600,6.284767578125,-0.008791226893663406,0.0022681737318634987,-0.02860340289771557
1782951220921693400,6.294693359375,-0.010688784532248974,0.004025143105536699,-0.029394548386335373
1782951220931620600,6.30462060546875,-0.009660005569458008,0.005186814349144697,-0.015080590732395649
1782951220941547500,6.314547607421875,-0.010679313912987709,0.010021917521953583,-0.0027279965579509735
1782951220951474400,6.324474365234375,-0.010197814553976059,0.0072929770685732365,0.012492767535150051
1782951220961401300,6.3344013671875,-0.009095476940274239,0.010323571972548962,0.02411152608692646
1782951220971327500,6.344327392578125,-0.004413639660924673,0.01877058669924736,0.03255321457982063
1782951220981254700,6.354254638671875,-0.006302545312792063,0.027698636054992676,0.02739456482231617
1782951220991181600,6.364181640625,-0.0028849109075963497,0.026109794154763222,0.016405031085014343
1782951221001108700,6.374108642578125,-0.0015531510580331087,0.02954109013080597,-0.0017569572664797306
1782951221011035400,6.384035400390625,0.002111092209815979,0.020671430975198746,-0.010869495570659637
1782951221020961500,6.39396142578125,0.007730034179985523,0.008447041735053062,-0.014908202923834324
1782951221030888400,6.403888427734375,0.011279760859906673,0.0005252021364867687,-0.01010306179523468
1782951221040815600,6.413815673828125,0.014266310259699821,-0.010500187054276466,0.003509949892759323
1782951221050742500,6.423742431640625,0.015491897240281105,-0.013807034119963646,0.005390674341470003
1782951221060669400,6.43366943359375,0.014726033434271812,-0.015196455642580986,0.0036114375106990337
1782951221070595600,6.443595703125,0.006142399739474058,-0.004107318818569183,-0.004836642183363438
1782951221080522500,6.4535224609375,-0.0034623772371560335,0.013843854889273643,-0.011437651701271534
1782951221090449700,6.46344970703125,-0.010786602273583412,0.025123141705989838,-0.010853621177375317
1782951221100376600,6.47337646484375,-0.014315898530185223,0.023243680596351624,-0.007580755278468132
1782951221110302500,6.483302490234375,-0.013542250730097294,0.02646690420806408,0.005844771862030029
1782951221120229400,6.4932294921875,-0.0037087569944560528,0.020641805604100227,0.023972855880856514
1782951221130156500,6.503156494140625,0.0016862750053405762,0.014836113899946213,0.0359933003783226
1782951221140083500,6.51308349609375,0.009776375256478786,0.004670676775276661,0.037128522992134094
1782951221150010600,6.5230107421875,0.011345244012773037,-0.003361150622367859,0.028420783579349518
1782951221159936500,6.5329365234375,0.009182428941130638,-0.0007741055451333523,0.009700070135295391
1782951221169863400,6.542863525390625,0.006165333557873964,-0.0013448209501802921,-0.01065100822597742
1782951221179790600,6.55279052734375,0.009432555176317692,-0.00048097455874085426,-0.02524600923061371
1782951221189717500,6.562717529296875,0.014347419142723083,-0.002288994612172246,-0.0280268806964159
1782951221199644700,6.572644775390625,0.013875506818294525,-0.0014727357774972916,-0.017444545403122902
1782951221209570600,6.582570556640625,0.009742014110088348,0.006353229749947786,-0.003219270147383213
1782951221219497500,6.59249755859375,0.011120033450424671,0.004617097321897745,0.012037950567901134
1782951221229424400,6.60242431640625,0.008749287575483322,0.004332671407610178,0.0388871431350708
1782951221239351600,6.6123515625,0.005864471197128296,0.0202803798019886,0.057266682386398315
1782951221249278500,6.622278564453125,0.007445057388395071,0.017299504950642586,0.06065422296524048
1782951221259204600,6.63220458984375,0.0156606063246727,0.003135981038212776,0.04162546247243881
1782951221269131500,6.642131591796875,0.016548503190279007,-0.004740317352116108,0.015744859352707863
1782951221279058400,6.652058349609375,0.0158748347312212,0.0017818659543991089,-0.009227494709193707
1782951221288985600,6.661985595703125,0.007521031424403191,0.0038024061359465122,-0.014068322256207466
1782951221298911500,6.671911376953125,-0.0019846821669489145,0.009496558457612991,-0.006715201307088137
1782951221308838700,6.681838623046875,-0.010528636164963245,0.017354747280478477,0.008309021592140198
1782951221318765600,6.691765625,-0.01836433634161949,0.012640019878745079,0.012443523854017258
1782951221328692500,6.7016923828125,-0.013412987813353539,-0.0008081444539129734,-0.0019657756201922894
1782951221338619400,6.711619384765625,-0.007073314394801855,-0.016451667994260788,-0.015853120014071465
1782951221348545500,6.721545654296875,-0.004673007410019636,-0.02357109636068344,-0.030609697103500366
1782951221358472700,6.73147265625,-0.00457230256870389,-0.01891079917550087,-0.028378285467624664
1782951221368399600,6.741399658203125,-0.005734771955758333,-0.007474652491509914,-0.025738028809428215
1782951221378326500,6.751326416015625,-0.004698709584772587,0.010255824774503708,-0.012208503670990467
1782951221388253400,6.76125341796875,-0.004682730417698622,0.01778910867869854,0.0049292040057480335
1782951221398179600,6.7711796875,-0.0058739567175507545,0.017604585736989975,0.021133841946721077
1782951221408106500,6.7811064453125,-0.008301428519189358,0.007223582826554775,0.01759449951350689
1782951221418033700,6.79103369140625,-0.008587872609496117,-0.007973113097250462,0.008267154917120934
1782951221427960600,6.800960693359375,-0.0017853602766990662,-0.014442464336752892,-0.0031998842023313046
1782951221437887500,6.810887451171875,0.001459163031540811,-0.018741369247436523,-0.00949330534785986
1782951221447813600,6.820813720703125,0.0037598677445203066,-0.022189896553754807,-0.009596369229257107
1782951221457740500,6.830740478515625,0.009892371483147144,-0.010782714933156967,-0.011328170076012611
1782951221467667500,6.84066748046875,0.011106240563094616,0.00007046526297926903,0.005942694842815399
1782951221477594600,6.8505947265625,0.009470961056649685,0.008587539196014404,0.01720736175775528
1782951221487521500,6.860521484375,0.00959666259586811,0.01121128536760807,0.02352704294025898
1782951221497447400,6.870447509765625,0.013434109278023243,0.011423520743846893,0.027823226526379585
1782951221507374600,6.88037451171875,0.01796041801571846,-0.000011027324944734573,0.03274128586053848
1782951221517301500,6.890301513671875,0.029366904869675636,-0.010135548189282417,0.0488414540886879
1782951221527228700,6.900228759765625,0.017635678872466087,-0.01184050366282463,0.05457177758216858
1782951221537154600,6.910154541015625,0.008492744527757168,0.007652203552424908,0.04471653699874878
1782951221547081500,6.92008154296875,0.004514780826866627,0.029702911153435707,0.019413312897086143
1782951221557008400,6.93000830078125,0.0005031684413552284,0.02640889585018158,-0.008225108496844769
1782951221566935600,6.939935546875,0.0028853658586740494,0.003294789232313633,-0.02920655533671379
1782951221576862500,6.949862548828125,-0.002555280225351453,-0.02477180026471615,-0.03255937248468399
1782951221586788400,6.959788330078125,-0.006136432755738497,-0.04228314757347107,-0.03292236104607582
1782951221596715500,6.969715576171875,-0.008772541768848896,-0.03217921778559685,-0.019446341320872307
1782951221606642400,6.979642333984375,-0.01731462962925434,-0.005180089734494686,0.0021231332793831825
1782951221616569600,6.989569580078125,-0.021183045580983162,0.021924449130892754,0.020627710968255997
1782951221626496500,6.99949658203125,-0.020432300865650177,0.02587125264108181,0.02581128664314747
1782951221636422700,7.009422607421875,-0.012885130941867828,0.018750792369246483,0.02923286333680153
1782951221646349300,7.019349365234375,-0.017359241843223572,0.007852339185774326,0.029163355007767677
1782951221656276500,7.0292763671875,-0.017943421378731728,-0.010710826143622398,0.022612720727920532
1782951221666203400,7.039203369140625,-0.01812637969851494,-0.014252031221985817,0.00942101888358593
1782951221676129500,7.049129638671875,-0.01805204153060913,-0.011566733941435814,-0.0024993419647216797
1782951221686056700,7.059056640625,-0.017424333840608597,-0.006166109349578619,-0.00842700619250536
1782951221695983400,7.0689833984375,-0.01308511570096016,-0.0005058427341282368,-0.00912440475076437
1782951221705910500,7.07891064453125,-0.010945798829197884,-0.0021452847868204117,-0.007550743408501148
1782951221715837400,7.08883740234375,-0.006150875706225634,-0.010671375319361687,-0.009074309840798378
1782951221725763600,7.098763671875,-0.0006591710262000561,-0.012845315039157867,-0.011404575780034065
1782951221735690500,7.1086904296875,0.0029270474333316088,-0.01386527344584465,-0.008611614815890789
1782951221745617700,7.11861767578125,0.006178766954690218,-0.01260346919298172,0.006484513636678457
1782951221755544300,7.12854443359375,0.007760932669043541,0.003155370708554983,0.035075172781944275
1782951221765471500,7.138471435546875,0.011849417351186275,0.013537969440221786,0.05573597550392151
1782951221775397600,7.148397705078125,0.013780897483229637,0.007891969755291939,0.06402149051427841
1782951221785324500,7.158324462890625,0.012320153415203094,0.004690317437052727,0.041242409497499466
1782951221795251700,7.168251708984375,0.010224009864032269,0.009759113192558289,0.011199669912457466
1782951221805178600,7.1781787109375,0.008233829401433468,0.016416482627391815,-0.020157720893621445
1782951221815105500,7.18810546875,0.010604865849018097,0.008782713674008846,-0.03948979824781418
1782951221825031400,7.198031494140625,0.010939626023173332,0.0008065463043749332,-0.03792119771242142
1782951221834958600,7.20795849609375,0.007305222563445568,-0.0024176251608878374,-0.021138882264494896
1782951221844885500,7.217885498046875,0.006574717350304127,-0.006976690609008074,0.0038879080675542355
1782951221854812700,7.227812744140625,0.006812711246311665,-0.009544194675981998,0.023083040490746498
1782951221864738600,7.237738525390625,0.006426286417990923,-0.010380160994827747,0.035933855921030045
1782951221874665500,7.24766552734375,0.001422776491381228,-0.008518578484654427,0.034009404480457306
1782951221884592600,7.257592529296875,0.00796349998563528,-0.004568311385810375,0.017591280862689018
1782951221894519600,7.26751953125,0.012041233479976654,-0.00921204686164856,-0.0027970527298748493
1782951221904446700,7.27744677734375,0.011766928248107433,-0.011059215292334557,-0.010551911778748035
1782951221914372400,7.287372314453125,0.005726327188313007,-0.010998643934726715,-0.002658541314303875
1782951221924299500,7.297299560546875,0.00013848289381712675,-0.009037759155035019,0.006114443764090538
1782951221934226400,7.307226318359375,-0.0003546543011907488,0.008495260030031204,0.009592531248927116
1782951221944153600,7.317153564453125,-0.00030565212364308536,0.015646912157535553,0.010044470429420471
1782951221954080500,7.32708056640625,-0.0003944207273889333,0.018112873658537865,0.01208061259239912
1782951221964006400,7.33700634765625,0.004185150843113661,0.01736532524228096,0.02505393512547016
1782951221973933600,7.34693359375,0.000027620873879641294,0.005782931111752987,0.028795627877116203
1782951221983860500,7.356860595703125,-0.007134151645004749,-0.0066969082690775394,0.02167406864464283
1782951221993787600,7.36678759765625,-0.0018206499516963959,-0.023647163063287735,0.006666676606982946
1782951222003714600,7.376714599609375,-0.00426543178036809,-0.03319432958960533,-0.016357949003577232
1782951222013640700,7.386640625,-0.0002957239921670407,-0.024679670110344887,-0.03365278244018555
1782951222023567400,7.3965673828125,0.0001381049514748156,-0.00609053997322917,-0.040979668498039246
1782951222033494500,7.40649462890625,-0.0009722657268866897,0.0051032779738307,-0.03421681374311447
1782951222043421400,7.41642138671875,-0.005882335361093283,0.005785846151411533,-0.016268175095319748
1782951222053347600,7.42634765625,-0.009918425232172012,-0.00047075608745217323,0.007913805544376373
1782951222063274500,7.4362744140625,-0.020218467339873314,-0.004349383991211653,0.026959935203194618
1782951222073201400,7.446201416015625,-0.023646952584385872,0.0015165326185524464,0.03606187552213669
1782951222083128600,7.456128662109375,-0.02116488665342331,0.008711595088243484,0.026521634310483932
1782951222093055500,7.466055419921875,-0.011717508547008038,0.002476965542882681,0.0012034944957122207
1782951222102981600,7.475981689453125,0.0007245141896419227,-0.006394556723535061,-0.024923181161284447
1782951222112908500,7.485908447265625,0.011101310141384602,-0.02094375528395176,-0.04663281887769699
1782951222122835700,7.495835693359375,0.01858479343354702,-0.025850895792245865,-0.055255867540836334
1782951222132762400,7.505762451171875,0.01745065115392208,-0.004233502317219973,-0.05020494386553764
1782951222142689500,7.515689453125,0.018429096788167953,0.029025385156273842,-0.050819601863622665
1782951222152615400,7.525615478515625,0.012811439111828804,0.02173110656440258,-0.04920319467782974
1782951222162542600,7.53554248046875,0.007284846156835556,0.03677556663751602,-0.031034575775265694
1782951222172469500,7.545469482421875,0.0018945153569802642,0.02756214700639248,-0.024349376559257507
1782951222182396400,7.555396484375,-0.0005017970688641071,0.015637576580047607,-0.015982255339622498
1782951222192323300,7.5653232421875,0.0005792546435259283,0.016087718307971954,-0.022364895790815353
1782951222202249500,7.57524951171875,0.009267551824450493,-0.006402411498129368,-0.01914460025727749
1782951222212176600,7.5851767578125,0.014286619611084461,-0.011806695722043514,0.0009328635642305017
1782951222222103600,7.595103515625,0.010854337364435196,-0.005005514714866877,0.032961104065179825
1782951222232030700,7.60503076171875,0.009025109931826591,-0.0036923300940543413,0.04853231459856033
1782951222241956400,7.614956298828125,0.016406061127781868,-0.0031682199332863092,0.048059601336717606
1782951222251883500,7.624883544921875,0.019440673291683197,0.00450706435367465,0.025350002571940422
1782951222261810400,7.634810546875,0.01597350277006626,0.008751876652240753,-0.0017002575332298875
1782951222271737600,7.644737548828125,0.021097976714372635,0.005191380623728037,-0.01510770246386528
1782951222281664500,7.65466455078125,0.027911141514778137,0.008284375071525574,-0.0089052002876997
1782951222291590400,7.66459033203125,0.02386753261089325,0.01551726832985878,0.016316721215844154
1782951222301517600,7.674517578125,0.020229920744895935,0.02345854789018631,0.03748485445976257
1782951222311444500,7.684444580078125,0.01191201526671648,0.022849831730127335,0.05173897370696068
1782951222321371600,7.69437158203125,0.007164397276937962,0.018447093665599823,0.05240316689014435
1782951222331298600,7.704298583984375,0.0005018183146603405,0.002378244884312153,0.043098028749227524
1782951222341224400,7.714224365234375,0.003587356535717845,-0.015431378036737442,0.03474688529968262
1782951222351151400,7.7241513671875,0.0014310136903077364,-0.02220631018280983,0.029559822753071785
1782951222361078500,7.73407861328125,0.006403401959687471,-0.020007602870464325,0.025749903172254562
1782951222371005400,7.74400537109375,0.007370928302407265,-0.019639555364847183,0.01092967763543129
1782951222380932600,7.7539326171875,0.01071292906999588,-0.015820849686861038,0.00891366507858038
1782951222390858500,7.7638583984375,0.00760760297998786,-0.018264662474393845,0.006273673847317696
1782951222400785400,7.773785400390625,0.0022509207483381033,-0.022377915680408478,0.005777793005108833
1782951222410712600,7.783712646484375,-0.01397545263171196,-0.018887575715780258,0.0034661695826798677
1782951222420639500,7.793639404296875,-0.024713585153222084,-0.01949158124625683,-0.0007552070892415941
1782951222430565600,7.803565673828125,-0.03995359316468239,-0.033581338822841644,-0.0031901919282972813
1782951222440492500,7.813492431640625,-0.052034225314855576,-0.04436873644590378,-0.008710658177733421
1782951222450419500,7.82341943359375,-0.05758550763130188,-0.03216366842389107,-0.016026999801397324
1782951222460346400,7.833346435546875,-0.05085490271449089,-0.020802360028028488,-0.023384515196084976
1782951222470273500,7.8432734375,-0.04888216778635979,-0.012953239493072033,-0.024685652926564217
1782951222480199700,7.85319970703125,-0.042010944336652756,-0.011607278138399124,-0.019939368590712547
1782951222490126600,7.863126708984375,-0.03785889223217964,-0.01568041369318962,-0.006896536331623793
1782951222500053800,7.8730537109375,-0.035397596657276154,-0.023660309612751007,-0.006976164877414703
1782951222509980400,7.88298046875,-0.02416960708796978,-0.021794218569993973,-0.014812973327934742
1782951222519907600,7.892907470703125,-0.01864061877131462,-0.01468171551823616,-0.023528434336185455
1782951222529833500,7.90283349609375,-0.01955374889075756,-0.012399617582559586,-0.026100190356373787
1782951222539760600,7.9127607421875,-0.015072446316480637,-0.006296717096120119,-0.013597715646028519
1782951222549687600,7.9226875,-0.010056990198791027,0.0006846911273896694,0.0012215512106195092
1782951222559614500,7.932614501953125,-0.004438518546521664,0.004253061022609472,0.012588721700012684
1782951222569541400,7.942541259765625,0.002954131457954645,0.0026922989636659622,0.020747074857354164
1782951222579467500,7.952467529296875,0.00808577612042427,0.012996068224310875,0.02728140726685524
1782951222589394700,7.962394775390625,0.005937670823186636,0.012922033667564392,0.03438432514667511
1782951222599321600,7.972321533203125,0.0013309348141774535,0.006700622849166393,0.03738144785165787
1782951222609248500,7.98224853515625,0.0015841826098039746,-0.0020735778380185366,0.03587811812758446
1782951222619173600,7.992173583984375,0.006610632408410311,-0.006941569969058037,0.021545516327023506
1782951222629100500,8.0021005859375,0.019312597811222076,-0.0014987178146839142,0.015142718330025673
1782951222639026700,8.012026611328125,0.01987239345908165,0.0020432863384485245,0.001408531330525875
1782951222648953300,8.021953369140626,0.022620052099227905,-0.006775171495974064,-0.0067752026952803135
1782951222658880500,8.031880615234375,0.01313760131597519,-0.011015456169843674,0.0010044235968962312
1782951222668807400,8.041807373046876,-0.0010107270209118724,-0.005895146634429693,0.01550642866641283
1782951222678733600,8.051733642578125,-0.020141012966632843,-0.010308271273970604,0.022609610110521317
1782951222688660700,8.06166064453125,-0.025351598858833313,-0.012962211854755878,0.018253371119499207
1782951222698587400,8.07158740234375,-0.024637337774038315,-0.010264163836836815,-0.0019102205988019705
1782951222708514600,8.0815146484375,-0.01823979988694191,0.0009729955345392227,-0.014417356811463833
1782951222718441500,8.09144140625,-0.010502518154680729,0.007659394294023514,-0.014898589812219143
1782951222728367600,8.10136767578125,-0.006890075746923685,0.005767470225691795,-0.0020876401104032993
1782951222738293800,8.111293701171874,-0.005590186920017004,-0.0029543822165578604,0.018901530653238297
1782951222748221000,8.121220947265625,-0.006220556795597076,0.003533344715833664,0.042071033269166946
1782951222758147800,8.13114794921875,-0.007437088992446661,0.006150166504085064,0.04530198127031326
1782951222768075000,8.141074951171875,-0.0010345593327656388,0.004959380719810724,0.032214220613241196
1782951222778001000,8.1510009765625,0.006762377452105284,-0.000027122441679239273,0.0049977791495621204
1782951222787927800,8.160927734375,0.012320277281105518,0.0007386715151369572,-0.007876685820519924
1782951222797855000,8.17085498046875,0.011124251410365105,0.0002989834174513817,-0.011628281325101852
1782951222807782000,8.180781982421875,0.013815202750265598,-0.004704345483332872,-0.003906312398612499
1782951222817709000,8.190708984375,0.017615266144275665,-0.002099773846566677,0.005751108285039663
1782951222827634700,8.200634765625,0.01803779788315296,0.0008383900858461857,0.020265229046344757
1782951222837561900,8.210561767578126,0.01336128730326891,0.005302113946527243,0.02443147823214531
1782951222847488800,8.22048876953125,0.008484563790261745,0.003117175307124853,0.018569516018033028
1782951222857416000,8.230416015625,0.002967558801174164,-0.0017814435996115208,0.0168302059173584
1782951222867342800,8.2403427734375,-0.007095895241945982,0.015146388672292233,0.014390988275408745
1782951222877268700,8.250268798828126,-0.013143135234713554,0.013056338764727116,0.005508813541382551
1782951222887196000,8.26019580078125,-0.011440656147897243,-0.013175895437598228,-0.0034577830228954554
1782951222897122800,8.270122802734376,-0.005289820022881031,-0.028134604915976524,-0.007986222393810749
1782951222907050000,8.280050048828125,-0.0030916593968868256,-0.033977165818214417,0.0042506018653512
1782951222916975900,8.289975830078125,-0.007506114896386862,-0.005834744777530432,0.017542172223329544
1782951222926903000,8.299903076171875,-0.007841815240681171,0.006051165517419577,0.019998647272586823
1782951222936829700,8.30982958984375,-0.006064954213798046,0.0033067776821553707,0.02082529105246067
1782951222946756900,8.3197568359375,-0.01065945252776146,0.02408730238676071,0.023151695728302002
1782951222956683800,8.329683837890625,-0.012302623130381107,0.03166239708662033,0.02277778834104538
1782951222966610000,8.33960986328125,-0.008872967213392258,0.015661627054214478,0.019678881391882896
1782951222976537000,8.349537109375,-0.003669949248433113,-0.009263696148991585,-0.0020860685035586357
1782951222986466800,8.359466796875,0.0036596772260963917,-0.02785142883658409,-0.014020332135260105
1782951222996393000,8.36939306640625,0.004203760996460915,-0.024973349645733833,-0.01732185296714306
1782951223006319900,8.37931982421875,-0.005556073971092701,-0.024710098281502724,-0.010925526730716228
1782951223016246800,8.389246826171876,-0.003937937319278717,-0.02668057009577751,-0.018652688711881638
1782951223026174000,8.399174072265625,0.004015456885099411,-0.01787377893924713,-0.019506148993968964
1782951223036099800,8.409099853515626,0.012171919457614422,0.0030187200754880905,-0.01672581024467945
1782951223046027000,8.419027099609375,0.013407359831035137,0.007037163246423006,-0.005848129279911518
1782951223055954000,8.428953857421876,0.01772567629814148,0.004556162748485804,0.005112376529723406
1782951223065881000,8.438881103515625,0.024255746975541115,0.002566248644143343,0.024997666478157043
1782951223075807700,8.448807861328126,0.01989801600575447,0.012315548956394196,0.04395325109362602
1782951223085734000,8.45873388671875,0.009102837182581425,0.02332194335758686,0.052273042500019073
1782951223095660800,8.468660888671875,0.006005048751831055,0.024554720148444176,0.039996400475502014
1782951223105588000,8.478587890625,0.008370945230126381,0.012768185697495937,0.02297835238277912
1782951223115515000,8.488514892578126,0.013168096542358398,0.006902839057147503,0.012420781888067722
1782951223125441800,8.49844189453125,0.005541008431464434,-0.0017465227283537388,0.012062294408679008
1782951223135368000,8.508367919921875,0.0016003291821107268,-0.026391947641968727,0.007198563776910305
1782951223145294800,8.518294921875,-0.002245616167783737,-0.039376258850097656,0.004175449255853891
1782951223155222000,8.528221923828125,-0.00549760228022933,-0.027811214327812195,0.000914675067178905
1782951223165149000,8.53814892578125,-0.007971084676682949,-0.01833920180797577,0.00019165128469467163
1782951223175076000,8.548076171875,-0.007061881013214588,0.010152094066143036,0.005488412454724312
1782951223185001700,8.558001708984374,-0.010960829444229603,0.02088933065533638,0.009020032361149788
1782951223194929000,8.567928955078125,-0.0027646850794553757,0.018827510997653008,0.005103588104248047
1782951223204855800,8.577855712890624,0.001935602631419897,0.01443842239677906,0.01303756982088089
1782951223214783000,8.587782958984375,0.006417968776077032,0.007871333509683609,0.018857643008232117
1782951223224710000,8.5977099609375,0.007916572503745556,-0.002604413777589798,0.012974506244063377
1782951223234635800,8.6076357421875,0.012126763351261616,-0.005841752514243126,0.010299360379576683
1782951223244563000,8.61756298828125,0.00833230558782816,0.003680767957121134,0.00666081765666604
1782951223254489900,8.62748974609375,0.007527498062700033,0.014223422855138779,0.0017004135297611356
1782951223264417000,8.6374169921875,0.011419502086937428,0.02042001485824585,0.0019840672612190247
1782951223274343000,8.647343017578125,0.01231272704899311,0.02040722966194153,0.010071288794279099
1782951223284269800,8.657269775390626,0.020066725090146065,0.009569816291332245,0.01458105817437172
1782951223294196700,8.66719677734375,0.021739989519119263,-0.014077989384531975,0.011742927134037018
1782951223304124000,8.6771240234375,0.03160126879811287,-0.03213752061128616,0.00800389889627695
1782951223314050800,8.68705078125,0.03328012302517891,-0.027565408498048782,0.005088270176202059
1782951223323977000,8.69697705078125,0.020224180072546005,-0.018369460478425026,-0.0017696584109216928
1782951223333904000,8.70690380859375,0.0029288127552717924,0.0025328919291496277,-0.0036445236764848232
1782951223343830800,8.716830810546876,-0.012003835290670395,0.021867409348487854,-0.003262041136622429
1782951223353758000,8.726758056640625,-0.018924325704574585,0.021993640810251236,-0.004528108052909374
1782951223363684900,8.736684814453126,-0.025753203779459,0.009359605610370636,-0.004227703437209129
1782951223373611000,8.746611083984375,-0.018992502242326736,-0.0007050130516290665,0.004402802791446447
1782951223383538000,8.756537841796876,-0.016825450584292412,-0.005287214182317257,0.015415986068546772
1782951223393464800,8.76646484375,-0.00929456390440464,-0.0020586641039699316,0.023538626730442047
1782951223403391700,8.776391845703126,-0.007501476444303989,-0.0032737485598772764,0.03481527790427208
1782951223413319000,8.78631884765625,-0.01240568794310093,-0.0004444061778485775,0.032621365040540695
1782951223423245000,8.7962451171875,-0.010068782605230808,0.0063057588413357735,0.022581540048122406
1782951223433172000,8.806171875,-0.015145033597946167,0.012850211001932621,0.00840260460972786
1782951223443099000,8.816098876953125,-0.008771042339503765,0.017602471634745598,-0.0005168282077647746
1782951223453025800,8.82602587890625,-0.00856331642717123,0.012178678065538406,-0.004616498481482267
1782951223462952000,8.835951904296875,-0.007058840710669756,-0.0032778591848909855,0.0016615582862868905
1782951223472878800,8.84587890625,-0.005161072127521038,-0.012751256115734577,0.005375602748245001
1782951223482806000,8.855805908203125,0.0036915047094225883,-0.01696920394897461,0.006350372452288866
1782951223492733000,8.86573291015625,0.0053421324118971825,-0.014601653441786766,0.009656686335802078
1782951223502659800,8.875659912109375,0.0020640098955482244,-0.013478366658091545,0.004441737197339535
1782951223512586000,8.8855859375,0.003374551422894001,-0.014834980480372906,-0.0050542959943413734
1782951223522513000,8.895512939453125,0.005070619750767946,-0.019161000847816467,-0.004128020256757736
1782951223532440000,8.905440185546874,0.003064993303269148,-0.010766450315713882,0.012316732667386532
1782951223542367000,8.915366943359375,-0.002608543261885643,-0.000174845103174448,0.02798839472234249
1782951223552294000,8.9252939453125,-0.004684477113187313,0.006740585435181856,0.04158755764365196
1782951223562219800,8.9352197265625,-0.004830820951610804,0.009052460081875324,0.04171600937843323
1782951223572147000,8.94514697265625,-0.0034286666195839643,0.004886477254331112,0.03389749675989151
1782951223582073900,8.955073974609375,-0.0028922504279762506,0.0027468111366033554,0.020901992917060852
1782951223592001000,8.9650009765625,-0.0012101978063583374,0.011830054223537445,0.010664801113307476
1782951223601928000,8.974927978515625,-0.003337264759466052,0.017683416604995728,0.0038287327624857426
1782951223611853800,8.984853759765626,-0.004128223285079002,0.014941159635782242,0.0038031665608286858
1782951223621781000,8.994781005859375,0.0003566016675904393,0.001978703774511814,0.01201238390058279
1782951223631708000,9.0047080078125,0.008349546231329441,-0.01046837866306305,0.012200935743749142
1782951223641634800,9.014634765625,0.02032555267214775,-0.021132441237568855,0.008346490561962128
1782951223651560700,9.024560791015626,0.02464360184967518,-0.023909851908683777,0.005369076505303383
1782951223661487900,9.03448779296875,0.02044643647968769,-0.017195936292409897,0.003971637226641178
1782951223671414800,9.044414794921876,0.01481544878333807,-0.004495321772992611,0.006183925084769726
1782951223681342000,9.054342041015625,0.007314939983189106,0.009440883994102478,0.010445489548146725
1782951223691268900,9.064268798828126,0.0017569230403751135,0.01588786579668522,0.01242847926914692
1782951223701195000,9.074195068359375,-0.0028590220026671886,0.012388573959469795,0.00875608529895544
1782951223711122000,9.084121826171875,-0.0009101206669583917,0.002529284916818142,0.0007570140296593308
1782951223721048800,9.094048828125,0.003956694155931473,-0.010229223407804966,-0.008446709252893925
1782951223730976300,9.103976318359376,0.004110625013709068,-0.011381839402019978,-0.00817480031400919
1782951223740903400,9.1139033203125,0.005626309663057327,-0.0076013850048184395,-0.009181741625070572
1782951223750829300,9.123829345703125,0.008539008907973766,-0.00429586973041296,-0.003445026930421591
1782951223760756200,9.133756103515625,0.006910504307597876,0.00399257056415081,0.013529669493436813
1782951223770683400,9.143683349609375,0.0028433252591639757,0.01571713760495186,0.03409193456172943
1782951223780610300,9.1536103515625,-0.0018146048532798886,0.019242949783802032,0.05124426260590553
1782951223790537500,9.163537353515625,-0.0035698944702744484,0.01843228191137314,0.05196624621748924
1782951223800463000,9.173463134765624,-0.004248603247106075,0.012224707752466202,0.039482224732637405
1782951223810390300,9.183390380859375,0.006826684344559908,0.007374825421720743,0.01563068851828575
1782951223820317200,9.193317138671874,0.019077248871326447,-0.0012629604898393154,-0.010153422132134438
1782951223830244400,9.203244384765625,0.02811441943049431,-0.0117156021296978,-0.01901908591389656
1782951223840170500,9.21317041015625,0.02638273872435093,-0.012685742229223251,-0.014237246476113796
1782951223850097200,9.22309716796875,0.026701519265770912,-0.012773093767464161,-0.012335216626524925
1782951223860024300,9.2330244140625,0.024950243532657623,-0.008190442807972431,-0.005067477468401194
1782951223869951200,9.242951171875,0.020753368735313416,-0.0011085646692663431,-0.0030922109726816416
1782951223879878400,9.25287841796875,0.016676830127835274,0.01011928915977478,-0.002933700103312731
1782951223889804300,9.26280419921875,0.024938222020864487,0.015373438596725464,-0.0032101362012326717
1782951223899731200,9.272731201171876,0.025597045198082924,0.01579229161143303,-0.0014410511357709765
1782951223909658000,9.282658203125,0.02749374881386757,0.01971565932035446,0.010441972874104977
1782951223919585300,9.292585205078124,0.018903536722064018,0.030043762177228928,0.03342984616756439
1782951223929512200,9.30251220703125,0.009731609374284744,0.024490006268024445,0.036767855286598206
1782951223939438300,9.312438232421876,0.007430446799844503,0.00626153452321887,0.024661550298333168
1782951223949365500,9.322365478515625,0.008701574057340622,-0.00988228153437376,0.0037978128530085087
1782951223959292200,9.332292236328126,0.008729994297027588,-0.014916256070137024,-0.016151554882526398
1782951223969219300,9.34221923828125,0.01120700128376484,-0.0054300762712955475,-0.02964312769472599
1782951223979146200,9.352146240234376,0.009658087976276875,0.006448538042604923,-0.03211691230535507
1782951223989072400,9.362072265625,0.0116509310901165,0.008897846564650536,-0.01663062907755375
1782951223998999300,9.371999267578126,0.010341585613787174,0.011809732764959335,-0.0038859923370182514
1782951224008926500,9.381926513671875,0.014542988501489162,0.011093875393271446,0.010945151560008526
1782951224018853000,9.39185302734375,0.011092616245150566,0.016615290194749832,0.012211724184453487
1782951224028779300,9.401779296875,0.01886904612183571,0.01803422160446644,0.001788910711184144
1782951224038706200,9.4117060546875,0.025534329935908318,0.017384875565767288,-0.007504349108785391
1782951224048633300,9.42163330078125,0.026014233008027077,0.008403897285461426,-0.022345878183841705
1782951224058560300,9.431560302734376,0.023229915648698807,-0.001975888852030039,-0.026697510853409767
1782951224068487200,9.441487060546875,0.015147489495575428,-0.012584591284394264,-0.03379590064287186
1782951224078413300,9.451413330078125,0.013273571617901325,-0.028244907036423683,-0.036780983209609985
1782951224088340200,9.46134033203125,0.006701688747853041,-0.022721778601408005,-0.03842601925134659
1782951224098267400,9.471267333984375,0.0004937114426866174,-0.004357287660241127,-0.02478163316845894
1782951224108194300,9.4811943359375,-0.0061551365070044994,0.016942674294114113,-0.005257733631879091
1782951224118121500,9.49112158203125,-0.013501466251909733,0.034523267298936844,0.017245445400476456
1782951224128047000,9.501047119140624,-0.020389201119542122,0.03710173815488815,0.025082595646381378
1782951224137974300,9.510974365234375,-0.013811612501740456,0.029832210391759872,0.021293023601174355
1782951224147901200,9.520901123046874,-0.009069854393601418,0.021840862929821014,0.011398314498364925
1782951224157828400,9.530828369140625,-0.010860012844204903,0.013927429914474487,0.0013046407839283347
1782951224167755300,9.54075537109375,-0.0063214534893631935,-0.004656374454498291,-0.005229957401752472
1782951224177681200,9.55068115234375,-0.013396291062235832,-0.005859992932528257,-0.010811994783580303
1782951224187608300,9.5606083984375,-0.01783790998160839,-0.015499038621783257,-0.018262453377246857
1782951224197535200,9.57053515625,-0.024377791211009026,-0.018227383494377136,-0.026624729856848717
1782951224207462400,9.58046240234375,-0.024930130690336227,-0.013465916737914085,-0.033527642488479614
1782951224217388300,9.59038818359375,-0.030075816437602043,0.00004409998655319214,-0.026337480172514915
1782951224227315200,9.600315185546876,-0.03305962309241295,0.007793365977704525,-0.010387541726231575
1782951224237242000,9.6102421875,-0.03275733441114426,0.007826006039977074,0.010034083388745785
1782951224247169300,9.620169189453126,-0.028298670426011086,0.008050777018070221,0.024825014173984528
1782951224257096200,9.63009619140625,-0.029153738170862198,0.009920650161802769,0.02992885559797287
1782951224267022300,9.640022216796876,-0.02621813490986824,0.01903505250811577,0.0211995467543602
1782951224276949200,9.64994921875,-0.019928188994526863,0.02553391642868519,0.004549064207822084
1782951224286876200,9.659876220703126,-0.011644691228866577,0.02513151243329048,-0.003879308234900236
1782951224296803300,9.66980322265625,-0.0023753121495246887,0.007952641695737839,-0.006411415059119463
1782951224306730200,9.679730224609376,-0.0005590361542999744,-0.023124316707253456,-0.006144832354038954
1782951224316656400,9.689656494140625,-0.004748931620270014,-0.04124321788549423,-0.000174904300365597
1782951224326583300,9.699583251953126,-0.017070047557353973,-0.03238207846879959,0.007646533660590649
1782951224336510200,9.70951025390625,-0.03039337694644928,-0.0153831597417593,0.0121818408370018
1782951224346437000,9.71943701171875,-0.03984999656677246,0.00863162986934185,0.007827306166291237
1782951224356364300,9.7293642578125,-0.04422639310359955,0.029695985838770866,0.00017277162987738848
1782951224366290400,9.73929052734375,-0.05007283017039299,0.03670676052570343,-0.003872303757816553
1782951224376217300,9.74921728515625,-0.04754485934972763,0.025321459397673607,-0.004159687552601099
1782951224386144300,9.759144287109375,-0.0370168499648571,0.002596174366772175,-0.007831654511392117
1782951224396071200,9.7690712890625,-0.03029530495405197,-0.015304826200008392,-0.010842462070286274
1782951224405997300,9.778997314453125,-0.025887506082654,-0.025684230029582977,-0.014213492162525654
1782951224415924200,9.78892431640625,-0.023412303999066353,-0.024819286540150642,-0.0163131020963192
1782951224425851400,9.798851318359375,-0.03048965334892273,-0.01783408224582672,-0.02035364881157875
1782951224435778300,9.8087783203125,-0.036153003573417664,-0.0011954661458730698,-0.02665860205888748
1782951224445705200,9.818705322265625,-0.03545685112476349,0.011101679876446724,-0.021125085651874542
1782951224455631400,9.82863134765625,-0.032821137458086014,0.018365301191806793,-0.00756797194480896
1782951224465558300,9.838558349609375,-0.02329021878540516,0.019341349601745605,0.0055028218775987625
1782951224475485400,9.8484853515625,-0.0114328907802701,0.004626068286597729,0.012722570449113846
1782951224485412400,9.858412353515625,-0.001773072755895555,-0.005756530910730362,0.012970244511961937
1782951224495339500,9.868339599609374,0.008629921823740005,-0.015542415902018547,0.0004524799296632409
1782951224505265200,9.87826513671875,0.018329154700040817,-0.01424252800643444,-0.019700726494193077
1782951224515192300,9.8881923828125,0.022383656352758408,-0.003084078198298812,-0.02639910578727722
1782951224525119200,9.898119140625,0.018099695444107056,0.003431878052651882,-0.024308789521455765
1782951224535046400,9.90804638671875,0.013305875472724438,0.0074229054152965546,-0.015567841939628124
1782951224544973300,9.917973388671875,0.00889940932393074,-0.0013519441708922386,-0.006333597004413605
1782951224554899200,9.927899169921876,-0.0038779047317802906,-0.0010603279806673527,-0.004660333041101694
1782951224564826400,9.937826416015625,-0.0009923698380589485,0.013202764093875885,-0.006678743287920952
1782951224574753300,9.947753173828126,0.0020318974275141954,0.011370625346899033,-0.014927058480679989
1782951224584680200,9.95768017578125,-0.0007734765531495214,0.00013341661542654037,-0.026484910398721695
1782951224594606000,9.967606201171876,-0.0052004121243953705,-0.01172613725066185,-0.021883290261030197
1782951224604533200,9.977533203125,-0.009237231686711311,-0.015741119161248207,-0.01338141318410635
1782951224614460200,9.987460205078126,-0.018006086349487305,-0.0068429503589868546,-0.0037150182761251926
1782951224624387300,9.99738720703125,-0.01785295456647873,0.007279792334884405,-0.0005884672282263637
1782951224634314200,10.007314208984376,-0.011413151398301125,0.0191727913916111,-0.003835526295006275
1782951224644240400,10.017240478515625,-0.004773890599608421,0.015540773048996925,-0.006587636657059193
1782951224654167300,10.027167236328125,0.00601236941292882,0.0007577636279165745,-0.012032362632453442
1782951224664094200,10.03709423828125,0.010431885719299316,0.0006152843125164509,-0.00898038037121296
1782951224674021000,10.047021240234375,0.014245116151869297,0.016958702355623245,0.004421658348292112
1782951224683948300,10.0569482421875,0.009578725323081017,0.034943293780088425,0.01652679033577442
1782951224693874400,10.06687451171875,0.004304460249841213,0.03621731325984001,0.02841431088745594
1782951224703801300,10.07680126953125,0.009714139625430107,0.01916482299566269,0.01644100621342659
1782951224713728300,10.086728271484375,0.015430012717843056,-0.012321238406002522,-0.003455252619460225
1782951224723655200,10.0966552734375,0.01605931669473648,-0.02317388541996479,-0.025169335305690765
1782951224733582300,10.106582275390625,0.016893452033400536,-0.029135098680853844,-0.039474669843912125
1782951224743508200,10.11650830078125,0.015595427714288235,-0.015587864443659782,-0.04379298537969589
1782951224753435400,10.126435302734375,0.012189974077045918,0.0012696380726993084,-0.026045730337500572
1782951224763362300,10.1363623046875,0.01147970836609602,0.0177902914583683,-0.004977729171514511
1782951224773289200,10.146289306640625,0.010802938602864742,0.021667907014489174,0.019013063982129097
1782951224783215400,10.15621533203125,0.01018934603780508,0.019159210845828056,0.033909719437360764
1782951224793142300,10.166142333984375,0.007600015960633755,0.005831100046634674,0.033688172698020935
1782951224803069400,10.1760693359375,0.008994978852570057,0.001666981726884842,0.014866549521684647
1782951224812996400,10.185996337890625,0.011118107475340366,0.004921282175928354,0.000932278810068965
1782951224822923500,10.195923583984374,0.005573672242462635,0.010215379297733307,-0.008209021762013435
1782951224832849200,10.20584912109375,0.00459682522341609,0.008317878469824791,-0.013059702701866627
1782951224842776300,10.2157763671875,0.0022785430774092674,-0.006285033188760281,-0.009086799807846546
1782951224852703200,10.225703125,-0.00019300042185932398,-0.01692407950758934,-0.0029320488683879375
1782951224862630400,10.23563037109375,-0.002790647791698575,-0.01898110657930374,-0.0008308148826472461
1782951224872557300,10.245557373046875,-0.0042097908444702625,-0.013188812881708145,-0.011593792587518692
1782951224882483200,10.255483154296876,-0.002302967244759202,-0.006296285893768072,-0.021848561242222786
1782951224892410400,10.265410400390625,-0.0052016316913068295,0.005980256944894791,-0.026336785405874252
1782951224902337300,10.275337158203126,-0.007912197150290012,0.01124479342252016,-0.017880450934171677
1782951224912264400,10.285264404296875,-0.009534155018627644,0.006837043445557356,0.0009064191253855824
1782951224922191400,10.29519140625,-0.008464629761874676,-0.0004943720996379852,0.020024187862873077
1782951224932117200,10.3051171875,-0.010222586803138256,-0.005581037141382694,0.025141606107354164
1782951224942044200,10.315044189453126,-0.001791285932995379,-0.005436693783849478,0.02337460033595562
1782951224951971300,10.324971435546875,-0.00015275520854629576,-0.004856227897107601,0.01456848718225956
1782951224961898200,10.334898193359376,0.0007415342843160033,-0.002556055784225464,-0.0023899897933006287
1782951224971824400,10.344824462890625,-0.0011102919233962893,-0.002729945583269,-0.015683503821492195
1782951224981751300,10.354751220703125,-0.005107430275529623,-0.006119883619248867,-0.017379669472575188
1782951224991678200,10.36467822265625,-0.0053708357736468315,-0.005306438077241182,-0.009837305173277855
1782951225001605400,10.37460546875,-0.0077687459997832775,-0.002992417197674513,0.004104342777282
1782951225011532300,10.3845322265625,-0.009361544623970985,-0.002799037378281355,0.01846085861325264
1782951225021458400,10.39445849609375,-0.006220080424100161,-0.003936473745852709,0.02544313482940197
1782951225031385300,10.40438525390625,-0.011312124319374561,-0.002405251609161496,0.01953757181763649
1782951225041312300,10.414312255859375,-0.0069282944314181805,-0.004064933396875858,0.007793297991156578
1782951225051239200,10.4242392578125,-0.009185164235532284,0.0021896930411458015,-0.008009365759789944
1782951225061166300,10.434166259765625,-0.014305091463029385,-0.0011493784841150045,-0.02305409498512745
1782951225071092500,10.444092529296874,-0.015558697283267975,-0.007210117764770985,-0.03277375549077988
1782951225081019400,10.454019287109375,-0.013643351383507252,-0.004803418647497892,-0.025477226823568344
1782951225090946600,10.463946533203124,-0.012912777252495289,-0.0007018465548753738,-0.015111616812646389
1782951225100873200,10.473873291015625,-0.009862125851213932,-0.0037277303636074066,0.0007618885720148683
1782951225110799400,10.48379931640625,-0.00486458744853735,-0.013215377926826477,0.008518027141690254
1782951225120726300,10.493726318359375,-0.00244430685415864,-0.021625639870762825,0.009592345915734768
1782951225130653400,10.5036533203125,-0.0027608820237219334,-0.018794365227222443,0.007570100948214531
1782951225140580400,10.513580322265625,-0.011424411088228226,-0.0061526065692305565,0.0018938393332064152
1782951225150507300,10.52350732421875,-0.01595764420926571,0.005698460154235363,-0.00219224882312119
1782951225160433400,10.533433349609375,-0.026053154841065407,0.012884467840194702,-0.003919575363397598
1782951225170360300,10.5433603515625,-0.025012219324707985,0.01642811857163906,-0.00853576511144638
1782951225180287500,10.55328759765625,-0.024902496486902237,0.01238597184419632,-0.00862444844096899
1782951225190214400,10.56321435546875,-0.01921035535633564,0.005378149915486574,-0.013140344992280006
1782951225200141300,10.573141357421875,-0.016698194667696953,-0.007945378310978413,-0.019446976482868195
1782951225210067200,10.583067138671876,-0.016187990084290504,-0.026547210291028023,-0.020351838320493698
1782951225219994400,10.592994384765625,-0.014483032748103142,-0.027961082756519318,-0.018116381019353867
1782951225229921300,10.60292138671875,-0.01386753935366869,-0.024959400296211243,-0.017628010362386703
1782951225239848400,10.612848388671875,-0.0050988150760531425,-0.012046796269714832,-0.018223494291305542
1782951225249775400,10.622775390625,-0.0018488239729776978,0.0032815742306411266,-0.015527920797467232
1782951225259701200,10.632701171875,-0.0006551950937137008,0.022258460521697998,-0.003886711085215211
1782951225269628200,10.642628173828125,-0.0029293799307197332,0.03169766813516617,0.00659857876598835
1782951225279555300,10.652555419921875,-0.0018049932550638914,0.027478687465190887,0.017824336886405945
1782951225289482200,10.662482177734375,-0.00393241923302412,0.014937646687030792,0.013224921189248562
1782951225299408400,10.672408447265624,0.001617342117242515,-0.007282172795385122,-0.00583292543888092
1782951225309335300,10.682335205078125,0.0032781020272523165,-0.0192689411342144,-0.024587037041783333
1782951225319262200,10.69226220703125,0.005619020666927099,-0.01830967143177986,-0.04148026555776596
1782951225329189400,10.702189453125,0.0029502296820282936,-0.01252079103142023,-0.04795835167169571
1782951225339116300,10.7121162109375,0.0038149580359458923,-0.012619860470294952,-0.039396557956933975
1782951225349042400,10.72204248046875,0.009846261702477932,-0.008108135312795639,-0.02286599762737751
1782951225358969000,10.731968994140624,0.013274016790091991,-0.0072447387501597404,-0.00532135833054781
1782951225368896300,10.741896240234375,0.012811877764761448,-0.006994765717536211,0.01014361996203661
1782951225378823200,10.7518232421875,0.01567557454109192,-0.005088741425424814,0.024878624826669693
1782951225388750300,10.761750244140625,0.01453680731356144,0.0096965953707695,0.036506518721580505
1782951225398676500,10.771676513671874,0.007112979423254728,0.029450861737132072,0.039879679679870605
1782951225408603400,10.781603271484375,0.0020665184129029512,0.03314835950732231,0.03262341767549515
1782951225418530300,10.7915302734375,0.004212759900838137,0.028062520548701286,0.013583945110440254
1782951225428457200,10.801457275390625,0.004941035993397236,0.0159134641289711,-0.009762897156178951
1782951225438384400,10.81138427734375,0.007736023515462875,0.0013630185276269913,-0.027736837044358253
1782951225448310300,10.821310302734375,0.010525516234338284,-0.012101145461201668,-0.037861134856939316
1782951225458237400,10.831237548828126,0.01084163412451744,-0.022874964401125908,-0.03584485873579979
1782951225468164000,10.8411640625,0.0028708861209452152,-0.01332012191414833,-0.019523806869983673
1782951225478091300,10.85109130859375,0.005241898354142904,-0.005456339567899704,-0.005991487763822079
1782951225488017400,10.861017333984375,0.006313573103398085,-0.006217055022716522,0.011091331951320171
1782951225497944300,10.8709443359375,0.009448380209505558,0.0027093281969428062,0.023063039407134056
1782951225507871500,10.88087158203125,0.010342669673264027,-0.0025948898401111364,0.026552846655249596
1782951225517798400,10.89079833984375,0.013747521676123142,-0.00410010851919651,0.01924539916217327
1782951225527725300,10.900725341796875,0.0088279377669096,0.007013597059994936,0.015371191315352917
1782951225537651200,10.910651123046875,-0.006304409354925156,0.021562179550528526,0.01615123264491558
1782951225547578400,10.920578369140625,-0.010721812956035137,0.03288179636001587,0.023102641105651855
1782951225557505300,10.93050537109375,-0.009585175663232803,0.037541262805461884,0.019613366574048996
1782951225567432400,10.940432373046875,-0.0036184198688715696,0.022713929414749146,0.011423961259424686
1782951225577359400,10.950359375,0.0039992863312363625,-0.003679329063743353,0.00225256709381938
1782951225587285200,10.96028515625,0.00778462877497077,-0.025346875190734863,-0.012832801789045334
1782951225597212400,10.97021240234375,0.007265578489750624,-0.02797062136232853,-0.020612694323062897
1782951225607139300,10.980139404296875,-0.0012679696083068848,-0.020118674263358116,-0.0254500862210989
1782951225617066500,10.99006640625,-0.010891301557421684,-0.007993567734956741,-0.01997622661292553
1782951225626993400,10.999993408203125,-0.018190747126936913,-0.0028556741308420897,-0.010857965797185898
1782951225636919300,11.009919189453125,-0.022296542301774025,0.001431216485798359,0.0014136142563074827
1782951225646846200,11.01984619140625,-0.017486143857240677,0.0034463894553482533,0.010646744631230831
1782951225656773400,11.0297734375,-0.018251802772283554,0.0052469526417553425,0.01709825173020363
1782951225666700300,11.0397001953125,-0.01769309490919113,0.006345861125737429,0.0239438246935606
1782951225676626200,11.049626220703125,-0.015226475894451141,0.0011556260287761688,0.02093418687582016
1782951225686553300,11.05955322265625,-0.009698869660496712,-0.004174312576651573,0.011661514639854431
1782951225696480300,11.069480224609375,-0.005723834503442049,-0.004533573053777218,-0.0031427317298948765
1782951225706407400,11.079407470703124,-0.006080797407776117,-0.009508339688181877,-0.018932051956653595
1782951225716334300,11.089334228515625,-0.0022519705817103386,-0.006134913302958012,-0.030901363119482994
1782951225726260500,11.099260498046876,-0.004838184919208288,-0.008963340893387794,-0.03082437254488468
1782951225736188000,11.10918798828125,-0.005659770220518112,-0.016960013657808304,-0.03057856298983097
1782951225746115000,11.119114990234374,-0.0013436832232400775,-0.017868397757411003,-0.02666741982102394
1782951225756042000,11.1290419921875,-0.0032419844064861536,-0.010823005810379982,-0.013073047623038292
1782951225765969000,11.138968994140624,0.003583665471524,-0.01208428479731083,0.0014112471835687757
1782951225775894800,11.148894775390625,0.007266550790518522,-0.006780066527426243,0.010216723196208477
1782951225785822000,11.158822021484376,-0.016906218603253365,0.006796012632548809,0.011798188090324402
1782951225795748900,11.168748779296875,-0.03240794688463211,0.010528165847063065,0.0079970583319664
1782951225805676000,11.178676025390626,-0.044071875512599945,0.0032829390838742256,-0.01721135899424553
1782951225815602000,11.188601806640625,-0.046349141746759415,0.0033668288961052895,-0.03723832964897156
1782951225825528800,11.19852880859375,-0.040599726140499115,0.011661148630082607,-0.04485577344894409
1782951225835456000,11.2084560546875,-0.029838422313332558,0.024494655430316925,-0.03556639701128006
1782951225845383000,11.2183828125,-0.02035672776401043,0.0247996486723423,-0.011278847232460976
1782951225855310000,11.22831005859375,-0.016554266214370728,0.01438429206609726,0.013629431836307049
1782951225865235700,11.238235595703125,-0.013908626511693,-0.0005020610988140106,0.029078882187604904
1782951225875163000,11.248162841796875,-0.014443921856582165,-0.010863888077437878,0.02105744183063507
1782951225885089800,11.25808984375,-0.00995204783976078,-0.017297381535172462,0.006728832609951496
1782951225895017000,11.268016845703125,-0.013364622369408607,-0.01205095462501049,-0.019418083131313324
1782951225904943900,11.27794384765625,-0.01019549835473299,-0.0023874433245509863,-0.03615786135196686
1782951225914869800,11.287869873046875,-0.013540428131818771,0.003005191683769226,-0.03948734328150749
1782951225924797000,11.297796875,-0.013488912023603916,0.005579799879342318,-0.035051099956035614
1782951225934723800,11.307723876953125,-0.010196445509791374,0.009400371462106705,-0.018795698881149292
1782951225944651000,11.317651123046875,-0.005487351678311825,0.005127813201397657,-0.006750355940312147
1782951225954578000,11.327577880859375,0.0027841601986438036,-0.007410615682601929,-0.00470717903226614
1782951225964504000,11.337504150390625,0.00822715274989605,-0.018014345318078995,-0.005071685649454594
1782951225974430700,11.3474306640625,0.013993429020047188,-0.01659940741956234,-0.008854972198605537
1782951225984358000,11.35735791015625,0.01753961481153965,0.004617101047188044,-0.013536542654037476
1782951225994284800,11.367284912109374,0.0170527882874012,0.01793050952255726,-0.00728796748444438
1782951226004211000,11.3772109375,0.008579063229262829,0.018227091059088707,-0.004884202033281326
1782951226014137900,11.387137939453124,0.01138763315975666,0.013273878023028374,0.004199573770165443
1782951226024065000,11.39706494140625,0.009252483025193214,0.004468448925763369,0.011991053819656372
1782951226033992000,11.406991943359374,0.009156077168881893,-0.002406768035143614,0.008782743476331234
1782951226043918800,11.4169189453125,0.008625482209026814,-0.008404958061873913,0.0013161731185391545
1782951226053845000,11.426844970703126,0.015597105026245117,-0.016272468492388725,-0.013033471070230007
1782951226063772000,11.43677197265625,0.019937047734856606,-0.02276293933391571,-0.027080660685896873
1782951226073699000,11.446698974609374,0.02363218367099762,-0.027918552979826927,-0.033885303884744644
1782951226083625700,11.456625732421875,0.026153968647122383,-0.030116425827145576,-0.03634984791278839
1782951226093553000,11.466552978515624,0.02126307412981987,-0.021505095064640045,-0.027987254783511162
1782951226103478800,11.476478759765625,0.00937441922724247,-0.005998341366648674,-0.019573476165533066
1782951226113406000,11.486406005859376,-0.0012436045799404383,0.0028566690161824226,-0.004740734584629536
1782951226123332900,11.496332763671875,-0.007150130812078714,0.015346609055995941,0.010317284613847733
1782951226133260000,11.506260009765626,-0.013802973553538322,0.031059259548783302,0.019299328327178955
1782951226143186000,11.51618603515625,-0.012559394352138042,0.03701874986290932,0.024115441367030144
1782951226153112800,11.52611279296875,-0.006888458970934153,0.028337109833955765,0.024714386090636253
1782951226163040000,11.5360400390625,-0.006107162684202194,0.006708713714033365,0.01996794156730175
1782951226172967000,11.545966796875,-0.0060126204043626785,-0.019604915753006935,0.0018967957003042102
1782951226182894000,11.55589404296875,0.00004053449083585292,-0.03790464252233505,-0.023872829973697662
1782951226192819700,11.56581982421875,0.0021079464349895716,-0.04391326755285263,-0.049280185252428055
1782951226202747000,11.575746826171875,-0.005541698541492224,-0.03253635764122009,-0.06332278996706009
1782951226212673800,11.585673828125,-0.0056154681369662285,-0.01044490560889244,-0.058073971420526505
1782951226222601000,11.59560107421875,-0.006871303077787161,0.008522763848304749,-0.037776850163936615
1782951226232528000,11.60552783203125,-0.0006054178811609745,0.013995292596518993,-0.011691986583173275
1782951226242453800,11.615453857421874,0.004919216502457857,0.016311226412653923,0.005383005831390619
1782951226252381000,11.625380859375,0.01193052064627409,0.010858669877052307,0.018352333456277847
1782951226262307800,11.635307861328124,0.010221668519079685,0.009214146994054317,0.02396358922123909
1782951226272235000,11.645235107421875,0.008629364892840385,0.004483574070036411,0.022808842360973358
1782951226282162000,11.655161865234374,0.011024841107428074,0.0044563766568899155,0.014815948903560638
1782951226292087800,11.665087890625,0.00991323683410883,0.00595919881016016,0.00047828909009695053
1782951226302014700,11.6750146484375,0.010489409789443016,0.0005289982073009014,-0.011370567604899406
1782951226311942000,11.68494189453125,0.010448929853737354,-0.004309965763241053,-0.022249579429626465
1782951226321868800,11.694868896484374,0.010244876146316528,-0.01057177409529686,-0.030917290598154068
1782951226331795000,11.704794921875,0.010142610408365726,-0.012514283880591393,-0.03477567806839943
1782951226341722000,11.71472216796875,0.0042400355450809,-0.014735442586243153,-0.027680564671754837
1782951226351648800,11.724648681640625,-0.00003726716386154294,-0.0034998320043087006,-0.009110875427722931
1782951226361576000,11.734575927734374,-0.006169932894408703,-0.0002668066881597042,0.0028651198372244835
1782951226371502800,11.7445029296875,-0.008114839904010296,0.0056709772907197475,0.009151245467364788
1782951226381429000,11.754428955078126,-0.007694232743233442,0.01646924577653408,0.011102145537734032
1782951226391356000,11.76435595703125,-0.0028946842066943645,0.017092159017920494,0.013579949736595154
1782951226401282800,11.77428271484375,0.00345651526004076,0.012389237061142921,0.014795550145208836
1782951226411209700,11.784209716796875,0.003953194711357355,-0.001564662205055356,0.013453849591314793
1782951226421137000,11.794136962890626,0.005513423588126898,-0.005845824256539345,0.005583460908383131
1782951226431063000,11.80406298828125,0.0050391145050525665,0.00007651327177882195,-0.004316041711717844
1782951226440990000,11.813989990234376,0.004774575121700764,0.00926742609590292,-0.009901781566441059
