time,seconds_elapsed,z,y,x
1782968794072787200,0.071787109375,0.4516150559753179,-0.7186312310554087,1.4065119345381856
1782968794082713300,0.08171337890625,-0.1622521706610918,-0.2981836128905415,1.2245979088127612
1782968794092640500,0.091640625,-0.49437575481534,0.08363762976005673,0.8383500818915665
1782968794102566100,0.101566162109375,-0.5763455974936484,0.3051739101693034,0.5314775511108338
1782968794112492300,0.1114921875,-0.723818132174015,0.4395972859233617,0.11584215553328395
1782968794122419500,0.12141943359375,-0.8961094662904738,0.6257103707738221,-0.587413519474864
1782968794132345300,0.131345458984375,-0.8443810326188802,0.8018082575663924,-1.1765028632074594
1782968794142271200,0.141271240234375,-0.5533469992220401,0.9660651921786367,-1.5061261549785732
1782968794152198400,0.151198486328125,-0.09669570264518261,1.174899519664049,-1.5113758922003209
1782968794162124300,0.161124267578125,0.40253041481077667,1.5145020613968372,-1.2997593866504729
1782968794172050200,0.17105029296875,0.8719494230240583,1.9364850724354385,-0.8891443034529686
1782968794181977300,0.180977294921875,1.107811604297161,2.2265137281820175,-0.39718291630297897
1782968794191903200,0.1909033203125,1.0319295570999383,2.4270149654775857,0.062138184005022044
1782968794201829400,0.200829345703125,0.6209247439324855,2.6458880180269477,0.37529900127500293
1782968794211756300,0.21075634765625,0.1042944872111082,2.8432439430341123,0.4116333203293383
1782968794221682400,0.220682373046875,-0.291403451231122,3.0165713422000406,0.288521027662605
1782968794231608300,0.2306083984375,-0.4474468303799629,3.077845310591161,0.2277325047008693
1782968794241535500,0.240535400390625,-0.4094230969339609,2.9941461599022148,0.2764509429015219
1782968794251461400,0.25046142578125,-0.4806465046703815,2.901694962958991,0.0002310322768986225
1782968794261387300,0.26038720703125,-0.33222119930982585,2.7249185923829673,-0.41499081406369803
1782968794271314400,0.270314453125,0.01103811136484146,2.4572902767539024,-0.5901297926962376
1782968794281240600,0.280240478515625,0.2680073780745268,2.234556749384105,-0.27437530567124485
1782968794291166200,0.290166259765625,0.2314326743930578,2.2808728026181457,0.3872952901475131
1782968794301093400,0.30009326171875,0.03297755597233772,2.6966654345840215,0.8626508488029241
1782968794311019500,0.31001953125,0.061817866009473796,3.1780007983013987,0.9851865106254816
1782968794320945200,0.319945068359375,0.25853870798349377,3.482296172070503,0.9374911318622529
1782968794330872300,0.329872314453125,0.39384032787680623,3.6518151188641785,0.8669377323418855
1782968794340798500,0.339798583984375,0.41466684280633925,3.6551071461468934,0.5537288381464779
1782968794350724400,0.349724365234375,0.4384995538145304,3.58047539127171,0.12027400050088763
1782968794360651300,0.3596513671875,0.5310995115786791,3.552366318118572,-0.4586209892146289
1782968794370577400,0.369577392578125,0.7391402044683695,3.6557542118787762,-1.14711865555197
1782968794380503300,0.37950341796875,0.9066793756216764,3.7109617198377847,-1.6099822507724164
1782968794390430500,0.389430419921875,0.9776713126897811,3.6582919136628504,-1.5725181970357893
1782968794400356400,0.3993564453125,0.7458680514186621,3.593825578971207,-1.339289725267142
1782968794410282500,0.409282470703125,0.25846564274728295,3.6677716896697876,-1.2389268784165381
1782968794420209400,0.41920947265625,-0.30972528986334796,3.7803418377950786,-1.101499790801853
1782968794430135300,0.42913525390625,-0.9101485130369663,3.9147903479903934,-0.8365819031752646
1782968794440061400,0.4390615234375,-1.4318056580096483,4.078096119357645,-0.5733724269017577
1782968794449988400,0.44898828125,-1.4912801757633685,4.189007102099061,-0.37398587284982204
1782968794459914500,0.45891455078125,-1.1564636992633341,4.4914097939893605,-0.6944928150989115
1782968794469840400,0.46884033203125,-0.5406301409900188,4.476632496096194,-1.0586075745366512
1782968794479767300,0.478767333984375,0.15785305891931056,4.013449167402088,-1.0789004209809006
1782968794489693400,0.488693359375,0.8483832539975643,3.5177208289340136,-1.0385999747745691
1782968794499619300,0.498619384765625,1.3231202423632145,3.252845903666317,-1.1609370452851056
1782968794509546200,0.508546142578125,1.5053624771296976,3.1195477325499055,-1.2154071788802743
1782968794519472400,0.518472412109375,1.3818757981926202,2.9674112977117297,-1.0997023859910666
1782968794529399300,0.5283994140625,0.9516577505111694,2.8736387890368698,-0.9848644390642642
1782968794539325200,0.5383251953125,0.36196927184164523,2.9308704962998626,-0.870648277297616
1782968794549251300,0.548251220703125,-0.12113806998431682,3.051440411007404,-0.710129944691807
1782968794559177500,0.558177490234375,-0.4177180470705032,3.141233202396333,-0.477405184661597
1782968794569104400,0.5681044921875,-0.5434761780709028,3.1605481437191365,-0.3523623623237014
1782968794579030300,0.5780302734375,-0.5242173508495092,3.0299305899888274,-0.40543709603771566
1782968794588957200,0.587957275390625,-0.3854857565075159,2.667586639615893,-0.5918221296973526
1782968794598883300,0.59788330078125,-0.055125090372562406,2.177234879619628,-0.898999927034974
1782968794608809200,0.607809326171875,0.31125556817054745,1.6071652936555445,-1.1871382389903067
1782968794618735400,0.6177353515625,0.3328933994829654,1.0058158955477177,-1.457014479676634
1782968794628662300,0.627662353515625,0.19109189617633818,0.7027279978722334,-1.765280072250962
1782968794638588400,0.63758837890625,0.10038578933477402,0.4747686986781656,-1.690202911695838
1782968794648515600,0.647515625,-0.17223522001504898,0.4322499919004738,-1.4971015753932297
1782968794658441200,0.657441162109375,-0.4947036715954542,0.4021916843757033,-1.240413609842956
1782968794668367400,0.667367431640625,-0.741737235224247,0.26108766181394455,-0.9084192050263286
1782968794678294500,0.67729443359375,-1.0699567976772784,0.004038753996789455,-0.6106752987273038
1782968794688220200,0.68722021484375,-1.4511726217806338,-0.19392697347179055,-0.47584874899983404
1782968794698146300,0.697146240234375,-1.819415567064285,-0.42729324627593157,-0.3974171634502709
1782968794708073500,0.707073486328125,-2.147192646446824,-0.681608491345495,-0.2855032872766256
1782968794717999400,0.716999267578125,-2.2424375657618043,-0.9562048924215137,-0.1367952194519341
1782968794727925500,0.726925537109375,-2.0442782154172656,-1.2233981776341796,-0.04766118423268199
1782968794737852700,0.736852783203125,-1.6628040326386688,-1.4487280051074922,0.07277297526597976
1782968794747778300,0.7467783203125,-1.1995827100217342,-1.6449004194185137,0.25183745677918196
1782968794757704400,0.756704345703125,-0.7424398305356502,-1.9203513914972543,0.41739758294448254
1782968794767631600,0.766631591796875,-0.4022346467345953,-2.1043580055877564,0.595970043157041
1782968794777557200,0.77655712890625,-0.21962357865571974,-2.2929769357793033,0.7613831620670855
1782968794787483400,0.7864833984375,-0.30039339789450165,-2.5091613337665795,0.9761375272512436
1782968794797410600,0.79641064453125,-0.36440672812163827,-2.5790876874297854,1.1777495022676885
1782968794807336400,0.80633642578125,-0.34804420686364174,-2.7156065741583704,1.4148920787401496
1782968794817262300,0.816262451171875,-0.1880231562554836,-3.11256503405571,1.4551792270734905
1782968794827189500,0.826189453125,0.08515899410843848,-3.4837218209594485,1.3994570475906132
1782968794837115600,0.83611572265625,0.520610850790143,-3.790133748491108,1.3872341103553771
1782968794847041300,0.846041259765625,1.0240595543771982,-4.2671144241303205,1.5992644574031232
1782968794856968400,0.855968505859375,1.4605255565375088,-5.143994873815775,1.6867108317963777
1782968794866894600,0.86589453125,1.685064964285493,-5.492825262621045,1.555296574730426
1782968794876820500,0.875820556640625,1.584861545780301,-5.264201800429821,1.5612364861734211
1782968794886747400,0.885747314453125,1.48042326618433,-5.138983183133602,1.7478635118953882
1782968794896673500,0.895673583984375,1.4011182588011026,-5.237152465462684,2.058188667348027
1782968794906599400,0.905599365234375,1.273659169101715,-4.801617898933589,2.3356541941195723
1782968794916526600,0.915526611328125,0.8131137876957655,-4.414949362382292,3.0643121675401925
1782968794926452500,0.925452392578125,0.10592354971766471,-4.624456036171317,3.9298593223065135
1782968794936378400,0.93537841796875,-0.9838736744612455,-4.370353557069599,4.233958881242573
1782968794946305500,0.945305419921875,-2.0342033961266277,-4.330403531736136,3.988393344339728
1782968794956231400,0.9552314453125,-2.7665228146642447,-4.25883350251913,3.7729774465069172
1782968794966157300,0.9651572265625,-2.9813387007772922,-4.093628327271342,3.558440669596195
1782968794976084500,0.97508447265625,-2.5180425593584777,-4.052307598106563,3.3688565476343033
1782968794986010600,0.9850107421875,-1.5910171458005904,-3.917704189610481,3.1836548785403367
1782968794995936500,0.9949365234375,-0.7039099011331796,-3.7169530692070722,2.89814486926198
1782968795005863400,1.004863525390625,-0.05573123957216739,-3.7999598537176844,2.517108493378758
1782968795015789600,1.01478955078125,0.373320102417469,-3.9686315360322593,2.1617054481849074
1782968795025715500,1.024715576171875,0.5064011236518621,-4.049981493246555,1.8606056555867194
1782968795035642400,1.034642333984375,0.2455500470727682,-3.9819063204079863,1.6185107174038886
1782968795045568500,1.044568603515625,-0.22010288660526275,-3.7906148100063204,1.4835688707336783
1782968795055494700,1.05449462890625,-0.507807483318448,-3.3324013786792754,1.5582026714354753
1782968795065421600,1.064421630859375,-0.5478291125833988,-2.818022115755081,1.8631256755836307
1782968795075347500,1.074347412109375,-0.6774310595303773,-2.4283638958685096,2.1571935237184166
1782968795085273600,1.084273681640625,-0.9741226802974938,-1.9801170011520384,2.4139622994199392
1782968795095200500,1.094200439453125,-1.269284022757411,-1.412214530093968,2.5463518312588334
1782968795105126400,1.10412646484375,-1.2559008095711468,-0.9105627929262816,2.395787175782025
1782968795115052500,1.114052490234375,-1.0498410613656044,-0.6397372886911035,2.0635707987777887
1782968795124979500,1.1239794921875,-0.6739227591484784,-0.5699674407638609,1.3374302150055766
1782968795134905600,1.133905517578125,-0.5723644189029932,-0.31453166723176834,0.8346266043890267
1782968795144831500,1.14383154296875,-0.48340837059915065,-0.2375171088732779,0.4225948593266308
1782968795154758400,1.15375830078125,-0.14041092573106287,-0.2295059441141784,0.08945954084657132
1782968795164684500,1.1636845703125,-0.18839900383055208,-0.28843422616198655,0.35108101727627217
1782968795174610400,1.1736103515625,-0.5695090294718742,0.030319150418043134,1.0136805645082145
1782968795184537300,1.183537353515625,-0.9251759862989186,0.758423289348185,1.5397522379875181
1782968795194463500,1.19346337890625,-1.2134703655987977,1.3799509676098822,1.6022428886920212
1782968795204389600,1.2033896484375,-1.4252467378854752,1.7625309196732937,1.3389546480938792
1782968795214316300,1.21331640625,-1.5800579448908567,2.0161858011379836,0.8289220360718667
1782968795224242400,1.223242431640625,-1.6244757632881401,2.1824128667794165,0.18874504078924656
1782968795234168600,1.23316845703125,-1.4968214432775973,2.2287546389766035,-0.3469032201349735
1782968795244095500,1.243095458984375,-1.2780880914598702,2.2132126403212546,-0.6570283229708671
1782968795254021400,1.253021484375,-0.990532547828555,2.201138463906944,-0.6487577766232192
1782968795263947500,1.262947509765625,-0.7775082213073968,2.2031603251233696,-0.5110588863298297
1782968795273874400,1.27287451171875,-0.4707482109904289,2.3158009081363677,-0.38990269616693257
1782968795283800300,1.28280029296875,-0.030732991915941237,2.524296651317179,-0.3424503323793411
1782968795293726500,1.2927265625,0.31768355539143084,2.711488617445528,-0.1912595078282058
1782968795303653400,1.3026533203125,0.41220308304131026,2.904681577554345,-0.025647943736612795
1782968795313579500,1.31257958984375,0.343386736446619,3.111691173830628,0.08687325068041682
1782968795323505400,1.32250537109375,0.0421457818120718,3.317595731474459,0.10599252330064773
1782968795333432300,1.332432373046875,-0.6644716247141361,3.4984064721331,0.12354703082218765
1782968795343358500,1.3423583984375,-1.324137310451269,3.550583526355028,0.2759372942909598
1782968795353284400,1.352284423828125,-1.605510950577259,3.6568130732819437,0.5163238211207092
1782968795363211500,1.36221142578125,-1.5363129111886022,3.7411601664856073,0.8564858964323997
1782968795373137400,1.372137451171875,-1.3172867139041422,3.807998783266544,1.1702692295148969
1782968795383063600,1.3820634765625,-0.9930547597825526,3.882919291955232,1.2555419131308794
1782968795392990500,1.391990478515625,-0.5751216086566447,3.8682077527746555,1.108882156138122
1782968795402916400,1.401916259765625,-0.23732874669432638,3.706108434587717,0.9258512552119791
1782968795412842500,1.411842529296875,0.0005453589230775832,3.4728368543297052,0.6363795026957988
1782968795422769700,1.421769775390625,0.3237672592192888,3.289480520841479,0.29158596819117666
1782968795432695300,1.4316953125,0.7367997788220644,3.102523240251839,0.05160509955286979
1782968795442621400,1.441621337890625,1.1440268270164728,2.8977348271563645,-0.24864757469668983
1782968795452548600,1.451548583984375,1.4854109914690254,2.726118323561549,-0.6498337352916598
1782968795462474500,1.461474609375,1.6869634913831948,2.6719407431721685,-1.0406415636047721
1782968795472400400,1.471400390625,1.7106214303463696,2.726866219319403,-1.370838417480141
1782968795482327600,1.48132763671875,1.6077514229804277,2.798347985731065,-1.5891702027596533
1782968795492253400,1.49125341796875,1.2958856139570474,2.8609675235122443,-1.6622317857086657
1782968795502179300,1.501179443359375,0.7774374941587447,2.8023031530976295,-1.614837581849098
1782968795512105500,1.51110546875,0.24148995802700518,2.7671026603788134,-1.4976920886322855
1782968795522032400,1.521032470703125,-0.30896365784108637,2.8603789099693295,-1.2477708407379686
1782968795531958500,1.53095849609375,-0.9799801741540431,3.024148499456048,-0.9141375826731324
1782968795541885400,1.540885498046875,-1.348740421310067,3.2916841683655975,-0.6955364789329469
1782968795551811600,1.5508115234375,-1.3878449357300997,3.5607825565472244,-0.6273122530125081
1782968795561737500,1.560737548828125,-1.052307159218192,3.6368501894444223,-0.7161683480732143
1782968795571664600,1.57066455078125,-0.3628372868478298,3.4959845056831833,-0.945078664381802
1782968795581590500,1.580590576171875,0.42829964683949945,3.1457489262551066,-1.2047663962699473
1782968795591516400,1.590516357421875,1.0300853905379772,2.7891470266655087,-1.4553930159546433
1782968795601443600,1.600443603515625,1.4813585012078285,2.4979078260853886,-1.7309383883185683
1782968795611369500,1.610369384765625,1.6290233435899018,2.2851927116438744,-1.9800680474437773
1782968795621295400,1.62029541015625,1.3884569301486014,2.2028654338300226,-2.172388462501764
1782968795631221500,1.630221435546875,0.8794377329528331,2.233948846618831,-2.235210975509137
1782968795641148700,1.640148681640625,0.3266226486504078,2.3885306287825108,-2.198289358086139
1782968795651074300,1.65007421875,-0.16106091504991055,2.617343768326938,-2.113986396285146
1782968795661001500,1.66000146484375,-0.5686702405601739,2.8197534695923325,-1.9885494600631295
1782968795670927600,1.669927734375,-0.9039718702286481,2.96626417350322,-1.865324062410742
1782968795680853200,1.679853271484375,-1.0765753390341997,3.0612042646527287,-1.6672396769985556
1782968795690779400,1.689779296875,-0.8850538192689418,3.068939827340841,-1.4618616274468599
1782968795700706600,1.69970654296875,-0.4639291786253452,3.02330561889112,-1.2392916200757027
1782968795710632400,1.709632568359375,-0.02297989357113838,2.8541064055711027,-0.9504857841223477
1782968795720558600,1.71955859375,0.35040509077608584,2.565015322935581,-0.7418726981721818
1782968795730485800,1.72948583984375,0.6551274577856063,2.2600381043821574,-0.6783084268867969
1782968795740411600,1.73941162109375,0.8541168292135,1.946773534476757,-0.6976840123556554
1782968795750338600,1.749338623046875,0.9986094713002442,1.6499238005384802,-0.7367138541042805
1782968795760264700,1.7592646484375,0.9740209734886884,1.3548691333234308,-0.7215737142480909
1782968795770190600,1.769190673828125,0.8315916936725377,1.026320192785561,-0.6021672903619706
1782968795780116500,1.779116455078125,0.58257192466259,0.7272618428871035,-0.4759560087665915
1782968795790043600,1.789043701171875,0.35250586244761944,0.43760377401858563,-0.3020958178982138
1782968795799969800,1.7989697265625,0.22217092505097388,0.062205842413753265,-0.07875570293739438
1782968795809895400,1.8088955078125,0.042353871604800225,-0.33058468414917586,0.11290288721099495
1782968795819822600,1.818822509765625,-0.15934826591312884,-0.6860474967062473,0.2690696004785597
1782968795829748700,1.828748779296875,-0.354254167419672,-1.0611997829869388,0.4479356368102133
1782968795839674600,1.838674560546875,-0.4773603226065635,-1.4495676708020269,0.5233468516252935
1782968795849601500,1.8486015625,-0.5094511588722467,-1.8534736117497086,0.5418598289154469
1782968795859527700,1.858527587890625,-0.5136503641277551,-2.304217145587504,0.5627616010382771
1782968795869453600,1.86845361328125,-0.6092366442263126,-2.805634927868843,0.45534547467529773
1782968795879380700,1.878380615234375,-0.7556570395052432,-3.2019939605683088,0.36940278284326195
1782968795889306600,1.888306640625,-1.104018057233095,-3.510440901058912,0.3542169041492045
1782968795899232500,1.898232421875,-1.4211527465701101,-3.787308169676363,0.48717371448203917
1782968795909159700,1.90815966796875,-1.534090558964014,-3.996649716031551,0.7761264115601778
1782968795919085600,1.91808544921875,-1.3854834672957659,-4.076829752683639,1.215537381131202
1782968795929011500,1.928011474609375,-0.9636883800446987,-4.1247506107658145,1.6767152152217923
1782968795938938600,1.937938720703125,-0.3330348537802696,-4.1926878364384175,1.9825502196483313
1782968795948864800,1.94786474609375,0.3542296175003051,-4.386887050980329,2.1924564141489564
1782968795958790700,1.957790771484375,0.9482692771166562,-4.480774418206512,2.4946628528147934
1782968795968717600,1.967717529296875,1.2670675157517195,-4.596186219498515,2.7126328190445896
1782968795978643700,1.977643798828125,1.5841344005495308,-4.347807963262498,3.057643941822648
1782968795988569600,1.987569580078125,1.5193986012667418,-4.859099197043478,2.910689878058433
1782968795998496500,1.99749658203125,1.0153267973452806,-4.832849780282378,2.7296049966335296
1782968796008422700,2.007422607421875,0.3453641739994287,-4.743232929982245,2.7127733965590592
1782968796018348800,2.017348876953125,-0.547052867513895,-4.6342836027026175,2.6507626383259892
1782968796028275500,2.027275390625,-1.3341571846842766,-4.147492603927851,2.6425749479562044
1782968796038201600,2.03720166015625,-1.7967787878423929,-3.893536255298555,2.7649972125321627
1782968796048127700,2.047127685546875,-1.957364486595988,-3.933457931320369,2.807854649744928
1782968796058054700,2.0570546875,-1.6794184828311205,-4.216794103690981,2.6198656880199906
1782968796067980500,2.06698046875,-1.121418689367175,-4.2705277397051455,2.3423928547248245
1782968796077906700,2.07690673828125,-0.5341968930721283,-4.176524637144804,2.1324296693399547
1782968796087833600,2.08683349609375,-0.11399404344856738,-4.184452799795568,1.9801649319469927
1782968796097759500,2.096759521484375,-0.014281623330712317,-4.250567486216128,1.8607880264163017
1782968796107685600,2.106685546875,-0.06184475401639938,-4.20394806612134,1.6325860045075415
1782968796117612500,2.116612548828125,-0.22316227417588233,-4.073706067705154,1.4607662334255873
1782968796127538700,2.12653857421875,-0.5592541774392128,-3.875940977375209,1.641314962147176
1782968796137464600,2.136464599609375,-0.9844757320076226,-3.4437121743932364,1.9856682055383919
1782968796147391500,2.1463916015625,-1.2162047589987515,-2.766049936455488,2.2703101998105644
1782968796157317600,2.156317626953125,-1.2814759803324938,-2.2005821451984344,2.402582827271521
1782968796167243500,2.166243408203125,-1.3664333143889904,-1.8476827533885836,2.2738335516311228
1782968796177170400,2.17617041015625,-1.4651070391088723,-1.5537136894531547,1.7936418049909173
1782968796187096600,2.1860966796875,-1.277239950197935,-1.3848466306969522,1.1001122819662092
1782968796197022700,2.196022705078125,-0.9317845907837152,-1.3210636020943523,0.41217853312194347
1782968796206949600,2.20594970703125,-0.5261942038804293,-1.3810140667967497,-0.1559853653512895
1782968796216875500,2.21587548828125,-0.21127952868044375,-1.2823629923000932,-0.356103813874349
1782968796226801700,2.2258017578125,-0.29462124423384667,-0.8563926651909947,0.007937734196707605
1782968796236728600,2.235728515625,-0.463345825779438,-0.3219977653287351,0.2577789025921374
1782968796246654500,2.245654541015625,-0.5996054770499467,0.20518062728345393,0.35658275649771093
1782968796256580600,2.25558056640625,-0.7939309483200311,0.639679274893552,0.5744830184921622
1782968796266507500,2.265507568359375,-0.9884785379081964,1.0983525788173079,0.7366951494038104
1782968796276433700,2.27543359375,-1.0415636468857525,1.582975439772755,0.8229972491327673
1782968796286359600,2.285359619140625,-0.8675713540703057,2.0146824108377097,0.7803843612655997
1782968796296286500,2.295286376953125,-0.4556032488286495,2.211773839689791,0.6783239897821098
1782968796306212600,2.305212646484375,0.05022095171809196,2.136952553591877,0.4714247950777411
1782968796316138500,2.315138427734375,0.35553660844564433,1.9320010588891803,0.1948764562163502
1782968796326065700,2.325065673828125,0.40951954304575916,1.8235256327316165,-0.007787365940585732
1782968796335991600,2.334991455078125,0.3255576497673988,1.8905223626837133,-0.13926833156719803
1782968796345917700,2.344917724609375,0.10466858122050761,2.08717423107475,-0.22067849453613161
1782968796355844600,2.3548447265625,-0.2558721191227436,2.321492397776246,-0.2463460197560489
1782968796365770500,2.3647705078125,-0.6144207688659429,2.4828587255135175,-0.15273571590557694
1782968796375696600,2.374696533203125,-0.7529512876778841,2.5689760432600974,-0.0824114489659667
1782968796385623800,2.384623779296875,-0.559770310267806,2.6765157960027453,-0.007755728693306446
1782968796395549400,2.394549560546875,-0.1088216092467308,2.766073025070131,0.07843962272554636
1782968796405475600,2.4044755859375,0.37017829726040363,2.7432120817035437,0.22683950138390063
1782968796415402800,2.41440283203125,0.5878203467100859,2.6629198168486354,0.40464726083427666
1782968796425328400,2.424328369140625,0.4049310462117195,2.698238967511058,0.5722988063208758
1782968796435254500,2.434254638671875,0.05284019430577755,2.9033605580836532,0.7093121985681354
1782968796445181700,2.444181640625,-0.21925123821198939,3.124121908597648,0.7858905574664473
1782968796455107600,2.454107666015625,-0.4504787454217672,3.199048847027123,0.753144326031953
1782968796465033500,2.464033447265625,-0.5653846430182456,3.209554166689515,0.6671725542359054
1782968796474960600,2.473960693359375,-0.5048375275969506,3.1796424280285835,0.6025698798134923
1782968796484886500,2.483886474609375,-0.3098316728472709,3.1453929524242876,0.4476401609949767
1782968796494812400,2.4938125,0.0059223757863044735,3.043010728575289,0.20093173766732214
1782968796504739600,2.503739501953125,0.3082826898396015,2.889420003275573,-0.02793327819481492
1782968796514665700,2.513665771484375,0.5170148721247911,2.742780120027065,-0.242039554733783
1782968796524591600,2.523591552734375,0.4926122522741556,2.7281480758234857,-0.49668300884440536
1782968796534518500,2.5335185546875,0.33440672665536403,2.8056434034362434,-0.7607198758527636
1782968796544444700,2.543444580078125,0.21696225049197673,2.978205955709517,-0.9668209789820015
1782968796554370600,2.55337060546875,0.18666764999330043,3.147044811284542,-1.1898767240434884
1782968796564297700,2.563297607421875,0.2425818449169397,3.1992303410738705,-1.496577989910543
1782968796574223600,2.5732236328125,0.2890232780963182,3.162289142167568,-1.7434871965073049
1782968796584149500,2.5831494140625,0.26220541379749773,3.053466071616113,-1.8418655915424227
1782968796594076700,2.59307666015625,0.1339496207624674,2.9213521418482062,-1.866622723919153
1782968796604002600,2.60300244140625,-0.07342763978242874,2.8929589910566804,-1.727322828169912
1782968796613928400,2.612928466796875,-0.22378420546650885,3.0015885848626493,-1.3913380385428666
1782968796623855600,2.622855712890625,-0.22736147943139076,3.1494457349464295,-1.0912858553014695
1782968796633781800,2.63278173828125,0.07016776120364665,3.2764979974105954,-0.9796496270254254
1782968796643707400,2.642707275390625,0.5037070622622967,3.318418738295138,-0.9587905250005423
1782968796653634600,2.652634521484375,0.8790542865931987,3.257878637136519,-1.024870432368666
1782968796663560700,2.662560791015625,1.029753966626525,3.134064918202162,-1.1196161699898541
1782968796673486600,2.672486572265625,0.9753899237543344,2.945383298037946,-1.326699854415655
1782968796683413500,2.68241357421875,0.735155518746376,2.806429293116927,-1.546003991858661
1782968796693339600,2.692339599609375,0.43877486362457274,2.7042490215808153,-1.746604013353586
1782968796703265800,2.702265869140625,0.12094634680449962,2.618830207492411,-1.873891692008823
1782968796713193200,2.712193115234375,-0.18845336436629295,2.5386899183288216,-1.9672619034931063
1782968796723119000,2.722119140625,-0.4731394900411367,2.45865571988821,-1.9673606876924632
1782968796733045000,2.732044921875,-0.7110796466320752,2.3681160556547343,-1.9216599898777902
1782968796742972200,2.74197216796875,-0.8307190024912356,2.306306372951716,-1.788376577939093
1782968796752898000,2.75189794921875,-0.6604203034967183,2.2511257529996334,-1.5880391529031097
1782968796762824000,2.761823974609375,-0.3074807258069515,2.2108426963195202,-1.3446418999500571
1782968796772751000,2.771751220703125,0.11570260093212127,2.1309002678155897,-1.12257516592592
1782968796782677200,2.78167724609375,0.4359218122810125,1.9549089101374149,-0.9102962509445846
1782968796792603100,2.79160302734375,0.6731798318266868,1.7360126228429376,-0.8096097250975668
1782968796802530000,2.801530029296875,0.9170674986451863,1.5086327309720218,-0.7877111970223486
1782968796812456200,2.811456298828125,1.0540683236718178,1.1923904604300857,-0.7532720440648496
1782968796822382300,2.82138232421875,0.9480132565289735,0.85196739609465,-0.8163881331913173
1782968796832309000,2.83130908203125,0.6791910549402237,0.5420112200848758,-0.9071614600501954
1782968796842235100,2.841235107421875,0.2236474273443222,0.263978560949862,-0.8927437892496586
1782968796852161300,2.851161376953125,-0.2966886981576681,0.08067059664800763,-0.743140526150912
1782968796862088200,2.861088134765625,-0.78250062276721,-0.0837218009121716,-0.5128283802203834
1782968796872014000,2.87101416015625,-1.0664145950257777,-0.2542404262676835,-0.2573800394676626
1782968796881940200,2.880940185546875,-1.2302221784353256,-0.4635841645799577,-0.05037161223515868
1782968796891867100,2.8908671875,-1.2751578832268715,-0.756833243677765,0.13440861657634376
1782968796901793000,2.90079296875,-1.2166162624090908,-1.1109420112773776,0.2763495283536613
1782968796911719200,2.91071923828125,-1.0129027850687504,-1.437719850489497,0.46877340378612276
1782968796921646000,2.92064599609375,-0.8133931891590357,-1.8579697541251778,0.6637013709940016
1782968796931572200,2.930572265625,-0.6584761836916208,-2.1364918042123318,0.9008948008708655
1782968796941498000,2.940498046875,-0.5454366644889116,-2.4591245064437386,1.3050120464816688
1782968796951425000,2.950425048828125,-0.4349555975973606,-3.0226416020244358,1.5817346459314225
1782968796961351200,2.96035107421875,-0.31895255241394044,-3.6797809841543434,1.6233528967380522
1782968796971277000,2.970277099609375,-0.24462357987761496,-4.828196109257638,1.108452678679675
1782968796981204000,2.980203857421875,-0.05094400529563427,-6.098312783446907,-0.014793956767022609
1782968796991130000,2.990130126953125,0.3648094637036323,-6.873038096037507,-1.065844540052861
1782968797001056300,3.00005615234375,1.2260592135369777,-6.819338654553889,-1.2843250861532984
1782968797010983000,3.00998291015625,1.9579928476274013,-6.596046031996607,-0.09159691820144653
1782968797020909000,3.019908935546875,2.344448910471797,-4.8550554746106265,0.6205968271523714
1782968797030835200,3.029835205078125,1.8044290103346108,-3.343744902731478,1.7638855491526424
1782968797040762000,3.03976220703125,0.39571781218647956,-3.5500527804791924,3.591495966979861
1782968797050688000,3.04968798828125,-1.279446520331502,-4.181238513924181,5.2621980593919755
1782968797060614100,3.0596142578125,-2.67859610940814,-3.887254398550093,5.741147697016596
1782968797070541000,3.069541015625,-3.4350206261545417,-3.1659137624055145,5.266022001594305
1782968797080467000,3.079467041015625,-3.4304239460140464,-3.059264528761804,4.5964062919899815
1782968797090393000,3.08939306640625,-2.912190345749259,-3.1321491477087138,4.315715957953036
1782968797100320000,3.099320068359375,-2.1600503744542596,-3.14089330291748,3.947574427217245
1782968797110246100,3.10924609375,-1.3781120617449283,-3.1589407085224983,3.518764785028994
1782968797120172000,3.119172119140625,-0.654148968142271,-3.252760563470423,3.183376646120846
1782968797130099000,3.129098876953125,-0.025804887863993643,-3.3381583347707986,2.8596450427368283
1782968797140025000,3.139025146484375,0.37515959280431266,-3.4070588525176047,2.494320322987437
1782968797149951000,3.148950927734375,0.4762427167534828,-3.429788278459012,2.3025912979513405
1782968797159878000,3.1588779296875,0.22038521067798136,-3.3086484549090263,2.318004263399541
1782968797169804000,3.168803955078125,-0.30754969938993454,-3.0140096750184893,2.4942796987161038
1782968797179730200,3.178730224609375,-0.8198813821345567,-2.5301459618672726,2.660979788696766
1782968797189657000,3.188656982421875,-1.12885088519454,-2.024331405931711,2.6955948827430602
1782968797199583000,3.1985830078125,-1.2659095778882503,-1.6183642946705221,2.613026197388768
1782968797209509000,3.208509033203125,-1.2160358321726321,-1.3119634730547667,2.50708978818953
1782968797219436300,3.218436279296875,-0.9858575417548417,-1.0486069895260035,2.353342411023378
1782968797229362000,3.22836181640625,-0.7609487161725759,-0.8668972542010247,2.185943817384541
1782968797239288000,3.2382880859375,-0.460919475415349,-0.6500400715187191,1.9783415159121154
1782968797249215200,3.24821533203125,-0.1835878041565418,-0.4506771906033158,1.71393552333042
1782968797259141000,3.25814111328125,0.0848532891601324,-0.27413886656686665,1.4913903581395744
1782968797269067000,3.26806689453125,0.4094797955572605,-0.16331030141189692,1.3166582067422568
1782968797278994200,3.277994140625,0.7014519865870475,-0.06867620747163891,1.2088872025270014
1782968797288920000,3.287920166015625,0.8329641510695218,0.08900281005501746,1.1219858217306435
1782968797298846000,3.297845947265625,0.7680798832267522,0.3280943286381662,0.9989500283662229
1782968797308773000,3.307773193359375,0.5220552043795585,0.6125600895605982,0.7198962825551629
1782968797318699000,3.317698974609375,0.18557342501580715,0.8216108362756669,0.3586825783211738
1782968797328625200,3.327625244140625,-0.1631803914219141,0.9177736010879277,-0.03510455806367099
1782968797338552000,3.337552001953125,-0.5379904401361942,0.9345639923691749,-0.43844468182213603
1782968797348478000,3.34747802734375,-0.6682365302056074,0.9572129004202783,-0.8492210199959576
1782968797358404000,3.357404052734375,-0.3829202899336815,1.0549829542987048,-1.143689411755651
1782968797368331300,3.367331298828125,0.09360825802385807,1.1088073373362421,-1.2874424875214696
1782968797378257200,3.377257080078125,0.49147535719871516,1.147259671457857,-1.2461682278469204
1782968797388183000,3.38718310546875,0.5161801748663186,1.3026209135614335,-0.8493301063936203
1782968797398110200,3.397110107421875,0.0737514649093151,1.667983919494599,-0.2543467361863702
1782968797408036000,3.4070361328125,-0.4445663065075874,2.139289472106844,0.28638036237210035
1782968797417962000,3.4169619140625,-0.8284311838150024,2.558074125495553,0.7880176326230168
1782968797427889200,3.42688916015625,-1.0182681114941834,2.8591575514808296,1.0898127870742231
1782968797437815300,3.436815185546875,-0.9689017307788133,3.035630847457051,1.1634237475343048
1782968797447741000,3.446740966796875,-0.8428016544729471,3.085978640425205,1.0512798619970678
1782968797457668000,3.456668212890625,-0.5253834720194339,3.012018501201272,0.9374025767959654
1782968797467594200,3.46659423828125,-0.062414078336954115,2.9164462496280668,0.7523068522945046
1782968797477520000,3.476519775390625,0.40133389850258827,2.7921067532539365,0.44220644550845023
1782968797487446000,3.486446044921875,0.7722177136838436,2.6921108400195837,0.14818696656003594
1782968797497373200,3.496373291015625,1.0308850164830683,2.640100666797161,-0.11412161535099148
1782968797507299000,3.506299072265625,1.1317349161982535,2.6439491589188573,-0.28963249603584407
1782968797517226000,3.51622607421875,1.0815198096990584,2.6963760962486267,-0.3989430578432977
1782968797527152000,3.526152099609375,0.908653306043148,2.8608266537368294,-0.4534375952273607
1782968797537078000,3.536078125,0.7882102325856685,3.04286898201704,-0.6096593996830284
1782968797547005200,3.546005126953125,0.7766092266410589,3.0834006066307422,-0.8408129648737609
1782968797556931000,3.55593115234375,0.7099228778123855,3.0109950033724306,-1.1153357161916793
1782968797566857200,3.565857177734375,0.3466770101636648,2.9569366654485463,-1.3303808810159563
1782968797576784100,3.5757841796875,-0.4471984085768461,2.9742472812116145,-1.4956640899360178
1782968797586710000,3.5857099609375,-1.3830577014535665,3.0698811998441813,-1.5067043932579456
1782968797596636200,3.59563623046875,-2.0011293940424917,3.1946202169299123,-1.288392627853155
1782968797606562000,3.60556201171875,-2.092559138983488,3.3089380855053663,-0.8489793201945721
1782968797616489200,3.6154892578125,-1.6734207037210465,3.3940541172549126,-0.5258820691913366
1782968797626415000,3.6254150390625,-0.8155453987568616,3.4474311949163674,-0.4561068144366145
1782968797636342000,3.635342041015625,0.19361644621789453,3.3674802908450365,-0.49979339594990013
1782968797646268200,3.64526806640625,1.0846791505128144,3.172832163491845,-0.573273788832873
1782968797656194300,3.6551943359375,1.705506863811612,2.98210676254034,-0.7987661133915186
1782968797666121000,3.665120849609375,2.0153730234503744,2.8772680854499337,-1.214645692988485
1782968797676047000,3.675047119140625,1.9841455260157583,2.76599089974463,-1.7319905277200043
1782968797685973200,3.68497314453125,1.6764847674667833,2.635118786731362,-2.1512768470205366
1782968797695899100,3.694899169921875,1.2501871080994604,2.4634984837442637,-2.4004754797287284
1782968797705826000,3.704825927734375,0.8922668193876743,2.3999996789105236,-2.4661729636505245
1782968797715752700,3.714752685546875,0.5390805734604597,2.4196068811781704,-2.292274778859317
1782968797725679400,3.724679443359375,0.12480185318887232,2.457367433643341,-2.048937293269485
1782968797735605500,3.73460546875,-0.22229133656024933,2.487619656305015,-1.8852024828352032
1782968797745531600,3.74453173828125,-0.44334991645514965,2.467161682426929,-1.7907639114670455
1782968797755457300,3.754457275390625,-0.5816618240803479,2.398019464878738,-1.69011011884585
1782968797765384400,3.764384521484375,-0.6010100831508636,2.3147115054644645,-1.5158933696247636
1782968797775310600,3.774310546875,-0.5234533807396888,2.2648237312234936,-1.2746771139726043
1782968797785236500,3.784236572265625,-0.3806505914360285,2.201114060118049,-1.0254290891647337
1782968797795163400,3.794163330078125,-0.09565700724720955,2.165353741559386,-0.8127429085567593
1782968797805089500,3.804089599609375,0.23660627763867376,2.0560694832369686,-0.709731739154458
1782968797815015700,3.814015625,0.40801849083304403,1.8871011560633777,-0.7495310309056192
1782968797824942600,3.823942626953125,0.32298107727766034,1.6594424472510814,-0.8874347230561077
1782968797834868500,3.833868408203125,0.04587210885882377,1.3657692975223064,-0.9854113323573023
1782968797844795400,3.84379541015625,-0.32358722647726534,1.0171147767405957,-1.0819991176486015
1782968797854721500,3.853721435546875,-0.6601017390668392,0.6514834021948278,-1.1973688333645462
1782968797864647700,3.863647705078125,-0.8742676368385552,0.32555275439657266,-1.2710799662634729
1782968797874573600,3.873573486328125,-1.0823726271361112,0.07152947801090777,-1.2246446705639362
1782968797884500500,3.88350048828125,-1.1000643511712551,-0.16154701806642113,-1.0868224461518228
1782968797894426600,3.893426513671875,-0.9730284553200006,-0.40717276072390374,-0.8484944592870771
1782968797904352500,3.9033525390625,-0.8446540043413638,-0.6464098252575844,-0.5172859441511333
1782968797914279400,3.913279541015625,-0.7363572957515716,-0.8642840029627085,-0.18287629488632082
1782968797924205600,3.92320556640625,-0.6450760193705558,-1.0948998080149293,0.11802739061787723
1782968797934131700,3.933131591796875,-0.5460223554223775,-1.3194438919380307,0.3832837164185941
1782968797944058400,3.943058349609375,-0.4818453590661287,-1.5864922157220542,0.5703275062479078
1782968797953984500,3.952984619140625,-0.35588264540433884,-1.833670010127127,0.6976822587899864
1782968797963910700,3.96291064453125,-0.14346037642955778,-2.0859910126395524,0.8113985082104802
1782968797973837600,3.972837646484375,0.06305588337182998,-2.495866967907548,0.8911242252238094
1782968797983763500,3.982763427734375,0.2409048516154289,-2.8109751198530195,0.9731962131023406
1782968797993689600,3.992689697265625,0.39159167216718194,-3.0339065078824756,1.069915004362166
1782968798003616500,4.002616455078125,0.49277358031570906,-3.3753280817359683,1.248502223752439
1782968798013542400,4.01254248046875,0.5534270787209272,-3.665581486149132,1.388690008252114
1782968798023468500,4.022468505859375,0.6347282283574343,-3.885616860476136,1.5172405464500187
1782968798033395500,4.0323955078125,0.6893436156421899,-3.947745692130923,1.7867288107320665
1782968798043321600,4.042321533203125,0.5431120209336281,-3.98515421628803,2.0185121982589362
1782968798053247500,4.05224755859375,0.12294833427667617,-3.96191654856354,2.131227453943342
1782968798063174400,4.06217431640625,-0.3488841648191213,-3.8908392712995408,2.228718398619443
1782968798073100500,4.0721005859375,-0.7950275113850831,-3.863041456052661,2.265542254756391
1782968798083026400,4.0820263671875,-1.1983119594335556,-3.8702220152065157,2.275939437869191
1782968798092953300,4.091953369140625,-1.5339870985895394,-3.8458898302435873,2.2382124954126774
1782968798102879500,4.10187939453125,-1.7402748103320598,-3.6897801078602668,2.252865144012868
1782968798112805600,4.1118056640625,-1.7015817993223665,-3.627132513028383,2.2151495997332034
1782968798122732300,4.121732177734375,-1.2066221071392298,-3.5972710432499646,2.269292839461565
1782968798132658400,4.131658447265625,-0.6041513037860393,-3.5886081365838645,2.3312246872395277
1782968798142584600,4.14158447265625,-0.03623158933222294,-3.619079847215116,2.3106240900203585
1782968798152511500,4.151511474609375,0.16037877800464628,-3.5117443848729133,2.408867606629431
1782968798162437400,4.161437255859375,0.28587679676413535,-3.4819296768456693,2.295015309739113
1782968798172363500,4.171363525390625,0.16434125189483165,-3.426282900686562,2.2317253253504634
1782968798182290400,4.18129052734375,-0.11049392637312412,-3.305100114777684,2.111182152519375
1782968798192216300,4.19121630859375,-0.27647067051529883,-3.1660344661757347,2.004175045348704
1782968798202142500,4.201142578125,-0.44230479131639,-2.9428388742521405,1.9821819708578288
1782968798212069600,4.211069580078125,-0.6016910511523484,-2.62457605766803,1.9189491234838962
1782968798221995500,4.22099560546875,-0.8405781332045793,-2.403459610106051,1.832937311938405
1782968798231921400,4.23092138671875,-1.0484230112612247,-2.2666012622900307,1.7218110790111123
1782968798241848600,4.2408486328125,-1.1231091266721487,-2.1260550197415053,1.6770125907331703
1782968798251774500,4.2507744140625,-1.141710366767645,-1.8172011058852076,1.6802654550492762
1782968798261700600,4.26070068359375,-1.0700327855229377,-1.3973086373850703,1.6535937212228775
1782968798271627500,4.27062744140625,-0.8555091603547335,-1.0578891240689903,1.6594462466433644
1782968798281553400,4.280553466796875,-0.5938783315747976,-0.8438124389506876,1.6271172177076338
1782968798291479600,4.2904794921875,-0.3820961140692234,-0.7103637534476817,1.5076079179689288
1782968798301406700,4.30040673828125,-0.2670458395659923,-0.5258781236685812,1.4119946037329734
1782968798311332400,4.310332275390625,-0.27483576278984545,-0.3579604380590841,1.3701833145722746
1782968798321258500,4.320258544921875,-0.3799216926395893,-0.09316672480143606,1.3461186945043504
1782968798331185700,4.330185546875,-0.5692898337632417,0.19562274453900752,1.1355554973997175
1782968798341111300,4.340111328125,-0.7390507726192473,0.4082856173366308,0.7321349288161844
1782968798351037400,4.350037353515625,-0.7435118436813354,0.5355153552595525,0.3355616688441485
1782968798360964600,4.359964599609375,-0.6846428906053305,0.5314670297168195,0.018338935897499322
1782968798370891500,4.3698916015625,-0.6512099920809269,0.492459545930475,-0.2459152271233499
1782968798380817400,4.3798173828125,-0.6883318082511425,0.4916261638462543,-0.5034865513794123
1782968798390744300,4.389744384765625,-0.7392056709200143,0.561945389284566,-0.6959230670977383
1782968798400670500,4.39967041015625,-0.8026064222067594,0.7060006628673523,-0.810192055030167
1782968798410596600,4.4095966796875,-0.7929372611075639,0.8567635443300008,-0.7890431762784719
1782968798420523500,4.4195234375,-0.6616197424143553,0.9762949097700416,-0.6616555443800985
1782968798430449400,4.429449462890625,-0.4313075964838266,1.061365494942665,-0.5068614346399903
1782968798440375600,4.43937548828125,-0.15951660821735858,1.1762769454970956,-0.33458851296305653
1782968798450302700,4.449302734375,0.1334177058428526,1.3486486513733864,-0.1005551545523107
1782968798460228400,4.459228271484375,0.3236503548413515,1.5763992762528358,0.13372107270359992
1782968798470154500,4.469154541015625,0.3619295243531465,1.7976184535369275,0.29913740648403764
1782968798480081700,4.47908154296875,0.27825229323506356,1.9675320987366138,0.4197100976705551
1782968798490007300,4.48900732421875,0.07770400192737578,2.079636967437714,0.5033579565636813
1782968798499933400,4.498933349609375,-0.13524082961678505,2.1947122302517292,0.522973780529201
1782968798509859600,4.508859619140625,-0.17681261093318462,2.384211012017727,0.4900846334926784
1782968798519786500,4.518786376953125,0.0018202011644840239,2.584952195549011,0.46251989634931084
1782968798529712400,4.52871240234375,0.3177121969640255,2.6658067704617974,0.34478652024194595
1782968798539639600,4.5386396484375,0.6422451798588037,2.6716952439785002,0.12168562086448073
1782968798549565400,4.5485654296875,0.9086199882954359,2.6530706230074164,-0.12362126510217786
1782968798559491300,4.5584912109375,1.0640993038207291,2.6558295663267373,-0.3531768935769796
1782968798569418500,4.56841845703125,1.1233540413439274,2.657306068620086,-0.5310867982275783
1782968798579344400,4.578344482421875,1.0489753844469785,2.7803537716180085,-0.6757698483198881
1782968798589270500,4.5882705078125,0.8730459860891103,3.028683804798126,-0.7775507452748716
1782968798599197700,4.59819775390625,0.6589823796480894,3.19628435074985,-0.8551989253617822
1782968798609123600,4.60812353515625,0.3804325647711754,3.3332866370812058,-0.9530420444764196
1782968798619049500,4.618049560546875,0.04911445178091526,3.4569179851859806,-1.0773419394925237
1782968798628976600,4.6279765625,-0.4095177894800901,3.54367009370476,-1.2622680065155027
1782968798638902500,4.637902587890625,-0.9697089555084705,3.596281447690725,-1.4008324275970458
1782968798648828400,4.647828369140625,-1.5305945335417985,3.6257366747558115,-1.459824860922247
1782968798658755600,4.657755615234375,-1.8818641321927307,3.697253512480855,-1.366353088759631
1782968798668681700,4.667681640625,-1.9146996493458748,3.8584693258315323,-1.1094285379745066
1782968798678607400,4.677607421875,-1.5486013148754834,4.054070223864913,-0.7965379159480332
1782968798688534500,4.687534423828125,-0.8205173419505357,4.168283463022113,-0.5939604569002985
1782968798698460700,4.697460693359375,0.07119944233894347,4.084139491175115,-0.49129839319661256
1782968798708386300,4.70738623046875,0.9539292025744914,3.9082828657925126,-0.515452518178895
1782968798718312700,4.717312744140625,1.6625030038654802,3.7182840255498886,-0.7167060351464897
1782968798728238800,4.72723876953125,2.099644128808379,3.523542374694347,-1.0019886654097587
1782968798738165000,4.7371650390625,2.211248062250018,3.3212405177176,-1.3172358604997396
1782968798748092000,4.747091796875,2.042450415468216,3.146199884893,-1.5515939208202063
1782968798758017800,4.757017822265625,1.6572937447845935,3.0793454860210416,-1.654184088331461
1782968798767944000,4.76694384765625,1.1562187845915555,3.088405575311184,-1.5806217162534593
1782968798777870800,4.776870849609375,0.6046282736480235,3.137694214615226,-1.4807193265214562
1782968798787796700,4.786796630859375,0.183710553753376,3.158788440570235,-1.3898200351953505
1782968798797723000,4.796722900390625,-0.13753683159947394,3.0479236350581047,-1.2571877806417644
1782968798807649800,4.80664990234375,-0.33417876311838624,2.8932874923586844,-1.122708656112477
1782968798817576000,4.816575927734375,-0.3562573239356279,2.6545529705196618,-1.0417270938191563
1782968798827501800,4.826501708984375,-0.21639117260575294,2.3418831516370178,-0.9769462863508611
1782968798837428700,4.8364287109375,-0.037760114073753355,2.0480938281826675,-0.8688086407802998
1782968798847355000,4.84635498046875,0.13019523666501046,1.8282409708157181,-0.6957957143910228
1782968798857280800,4.85628076171875,0.2952361612617969,1.5081215665794907,-0.47122160065583885
1782968798867207700,4.866207763671875,0.4891606505155563,1.0893966805540025,-0.22197408730462193
1782968798877133800,4.8761337890625,0.7111959664881229,0.7026843048609793,-0.13938545514084397
1782968798887060000,4.88606005859375,0.821270206144452,0.35481969234794375,-0.1773925297129899
1782968798896987000,4.89598681640625,0.8453776424407958,-0.03522226615920663,-0.23943616730235515
1782968798906912800,4.905912841796875,0.7195306641131639,-0.436536437048018,-0.2556776194639504
1782968798916839000,4.9158388671875,0.4762988308548927,-0.8303517766140401,-0.24574403527490793
1782968798926765800,4.925765869140625,0.1348293262064457,-1.1262959400147199,-0.21504918341226875
1782968798936691700,4.935691650390625,-0.16658815403878688,-1.3646449696674943,-0.11658559431172906
1782968798946617900,4.945617919921875,-0.5336281532734632,-1.6018383995443581,0.08587875975035131
1782968798956544800,4.955544677734375,-0.9227087194025516,-1.696859593106061,0.41575668386965986
1782968798966471000,4.965470947265625,-1.1634803000271319,-1.7386302579954265,0.7519672450765967
1782968798976396800,4.975396728515625,-1.1848451596170664,-1.8293970089830458,1.0401607212852686
1782968798986323700,4.98532373046875,-1.0459668502807618,-2.048004542464018,1.258397594822943
1782968798996249900,4.995249755859375,-0.8892284746050834,-2.361966739244759,1.3464032105341552
1782968799006175700,5.00517578125,-0.7909908032149076,-2.66977450504899,1.4169022495187817
1782968799016103000,5.01510302734375,-0.7085849072068929,-3.011313275541365,1.4875783986359834
1782968799026028800,5.02502880859375,-0.6031985331058501,-3.272456905326247,1.5497972466617822
1782968799035955000,5.034954833984375,-0.5530009622633457,-3.600665946385264,1.5317530559271573
1782968799045881900,5.0448818359375,-0.4621943176567554,-4.00165030079782,1.4610378899738192
1782968799055807700,5.054807861328125,-0.3400701592445373,-4.288648210546374,1.4109279974147677
1782968799065734000,5.06473388671875,-0.13827391370236872,-4.558545347890258,1.2496242135196924
1782968799075661000,5.0746611328125,0.15194646522402763,-4.919255559581518,1.0844875734634696
1782968799085586700,5.084586669921875,0.4833931730300188,-5.317441223186254,0.9719174253381788
1782968799095512800,5.094512939453125,0.8154337550759315,-5.567670952507854,0.8143461059696971
1782968799105440000,5.10443994140625,1.1212351494938135,-5.664790433523058,0.7941505093548447
1782968799115365600,5.11436572265625,1.3925485833764075,-5.45003241507709,0.9258156724419444
1782968799125291800,5.124291748046875,0.8969120148450136,-5.056936768087745,1.651797631586343
1782968799135219000,5.134218994140625,0.2543558693408966,-4.806950199872255,2.1433777643337844
1782968799145144800,5.144144775390625,-0.6862719531118869,-4.553768342746794,2.888784043459594
1782968799155070700,5.15407080078125,-2.0308295357793567,-4.49604359126985,3.4190713618725534
1782968799164998000,5.163997802734375,-2.6736621601372956,-4.245951224592328,3.3907807946726676
1782968799174923800,5.173923828125,-2.62842718013823,-3.9501974691972133,3.2633360257595774
1782968799184849700,5.183849609375,-1.9164526304930447,-3.834655319523811,2.9121894689664245
1782968799194776800,5.19377685546875,-0.928883024123311,-3.8235534952729937,2.5847055273115633
1782968799204703000,5.203702880859375,-0.043100890579819674,-3.9086987531170245,2.2210534169495104
1782968799214628900,5.21362890625,0.6319926659137011,-4.012982426673173,1.8899292190961539
1782968799224554800,5.2235546875,1.0872282504737376,-4.104815491718053,1.5433680903971194
1782968799234482000,5.23348193359375,1.246778760960698,-4.120596413695812,1.19690983755067
1782968799244407800,5.24340771484375,1.1150544150322674,-4.016073086164892,0.99475206521973
1782968799254335000,5.2533349609375,0.6283814896792173,-3.745133746291697,1.090606056343764
1782968799264260900,5.2632607421875,-0.014923428365588187,-3.1844428140476344,1.3623802396059035
1782968799274186800,5.273186767578125,-0.4364887985140085,-2.4980446042075752,1.5824939398661255
1782968799284114000,5.283114013671875,-0.649102206146717,-1.9773215252146124,1.6696208730466662
1782968799294039800,5.293039794921875,-0.6668892072498798,-1.6793971477821468,1.6037021475896238
1782968799303965700,5.302965576171875,-0.5514595780402421,-1.493052738393843,1.2903177506968377
1782968799313892900,5.312892822265625,-0.4855886372476816,-1.3534557593941687,0.8105047011759132
1782968799323819000,5.322819091796875,-0.5532394471943378,-1.140220201275125,0.47987310914508996
1782968799333744600,5.33274462890625,-0.7898995008468628,-0.7843729194451123,0.5257447796124964
1782968799343671800,5.342671875,-1.080661147043109,-0.26690898837856947,0.8532332513120024
1782968799353598000,5.352597900390625,-1.1754729356378317,0.2644126415181905,1.056126059919223
1782968799363523800,5.36252392578125,-1.0603928505182265,0.691049469712004,1.0988679079283028
1782968799373450800,5.37245068359375,-0.8880734593510627,1.049127067877352,1.0687449376694858
1782968799383377000,5.382376953125,-0.7514204248487949,1.3775690409094095,0.9014632484085857
1782968799393303000,5.392302978515625,-0.5748568202406168,1.636727634356916,0.6187884625561535
1782968799403228700,5.402228759765625,-0.33316754024922846,1.8201802678264676,0.20129165702089666
1782968799413155800,5.41215576171875,-0.06722118635773658,1.9301165603168307,-0.2473376611419022
1782968799423082000,5.42208203125,0.10830781450569629,1.960971571177244,-0.7131853867396711
1782968799433007900,5.4320078125,-0.007792261311411857,1.9995548382021486,-1.0716729539453982
1782968799442934800,5.441934814453125,-0.4199941753089428,2.198796723086387,-1.1346018499366939
1782968799452861000,5.45186083984375,-0.8958546147465706,2.514742348769307,-0.8710014746494591
1782968799462786800,5.461786865234375,-1.312334059932828,2.8755329322203993,-0.5142589975453913
1782968799472714000,5.4717138671875,-1.6775024200767277,3.2135832760751244,-0.12030454176962375
1782968799482640000,5.481639892578125,-1.8970996952474115,3.446488361108303,0.2879315373368561
1782968799492566800,5.49156689453125,-1.8440373826235532,3.597898235237598,0.7355017018355429
1782968799502493000,5.501492919921875,-1.5297025531381367,3.695274321362376,1.1183575482308863
1782968799512418800,5.511418701171875,-1.0704793602466582,3.7359646436691283,1.4519824768587946
1782968799522344700,5.5213447265625,-0.5042214415252209,3.735091952487826,1.5649023152045904
1782968799532271900,5.53127197265625,0.06547931112647057,3.692461602029204,1.4795526208296417
1782968799542198000,5.541197998046875,0.5649865836113691,3.5444703041717407,1.260416679560393
1782968799552124700,5.551124755859375,0.987841409048438,3.37705037548393,0.9210134597919881
1782968799562050800,5.56105078125,1.2281611542522906,3.1977620220869776,0.48981911442428827
1782968799571977000,5.57097705078125,1.1698989348977804,3.081543872848153,0.1383702136836946
1782968799581902800,5.58090283203125,0.8673159180045127,3.1248212890386577,-0.066172261826694
1782968799591829800,5.590829833984375,0.43617841739058494,3.3513772973060605,-0.15096782945021986
1782968799601756000,5.600755859375,0.10688625726997851,3.5645249579459426,-0.17859452591389416
1782968799611682000,5.61068212890625,-0.004008651119470596,3.7134766252681612,-0.24462021887674926
1782968799621608700,5.620608642578125,0.1017810430854559,3.7188179862961173,-0.3817661514624953
1782968799631534800,5.630534912109375,0.26171616897583005,3.6754093449413774,-0.5805475792281329
1782968799641461000,5.6404609375,0.37883097479343414,3.5517230517789717,-0.8233167634107172
1782968799651388000,5.650387939453125,0.30041970137953755,3.371942530950904,-1.0273771544925867
1782968799661313800,5.660313720703125,-0.032413492348790165,3.221962105102837,-1.237645606434345
1782968799671240000,5.670239990234375,-0.600021072113514,3.200233380636573,-1.29940078247115
1782968799681166800,5.680166748046875,-1.1926970421612262,3.2658424556225536,-1.2587391017369924
1782968799691092700,5.6900927734375,-1.575709686553478,3.3514912790745495,-1.0300900667130946
1782968799701019000,5.700018798828125,-1.7030664849221706,3.5325714843243357,-0.7114921729557215
1782968799710945800,5.70994580078125,-1.4340297637999058,3.661092650297284,-0.4331294050835073
1782968799720871400,5.719871337890625,-0.7319698744475841,3.679638068552315,-0.20269027177244422
1782968799730798300,5.72979833984375,0.041486441120505334,3.556449203518033,-0.14178250634521244
1782968799740724200,5.73972412109375,0.7787339637100696,3.39533626601994,-0.14443638185486196
1782968799750650400,5.749650390625,1.2252636792451141,3.216310655212402,-0.22194676090627907
1782968799760577500,5.75957763671875,1.2673270434707402,3.017342326572537,-0.33296310371831056
1782968799770503200,5.769503173828125,0.9639707041174173,2.8384245600536464,-0.5971411327630282
1782968799780429300,5.77942919921875,0.6161772571444512,2.697988792142272,-0.932976723177731
1782968799790355500,5.78935546875,0.35581191825568675,2.5078514202117916,-1.242371027521044
1782968799800282000,5.7992822265625,0.13213000411987305,2.2959777250304816,-1.5553662789657712
1782968799810208300,5.809208251953125,-0.06661679072380065,2.1005882777906955,-1.742660682555288
1782968799820135400,5.819135498046875,-0.2056003140002489,2.025036339330673,-1.7229890367493033
1782968799830061300,5.829061279296875,-0.25085049156844613,2.066573341594636,-1.5895567178592085
1782968799839987200,5.8389873046875,-0.16292437083423136,2.057684078826755,-1.4326580370552837
1782968799849913300,5.848913330078125,0.06600713439285755,1.9666247746333478,-1.2681193628922105
1782968799859840500,5.858840576171875,0.24724282246530055,1.764674945964664,-1.1865866695221512
1782968799869766100,5.86876611328125,0.3530255024075508,1.5573969080105423,-1.1812437741242348
1782968799879692300,5.8786923828125,0.4269990856349468,1.325644500143826,-1.1688107012696562
1782968799889619500,5.888619384765625,0.4399883310675621,1.0256459467858074,-1.1850490116260946
1782968799899545300,5.89854541015625,0.3406751394003629,0.5919283665508032,-1.2358809348493813
1782968799909472300,5.90847216796875,0.0649064796745777,0.22207477120012042,-1.3429593536905944
1782968799919398400,5.9183984375,-0.3197966020226478,-0.014066665405780077,-1.5067382955275475
1782968799929324300,5.92832421875,-0.772731508424878,-0.14351342179104684,-1.5822268133625388
1782968799939251500,5.93825146484375,-1.2265531345337628,-0.20719642408527433,-1.5572081074401736
1782968799949177300,5.94817724609375,-1.5533528933167458,-0.35324952042177316,-1.4793744877837598
1782968799959103200,5.958103271484375,-1.6270803928285835,-0.5198319023068994,-1.3669072155110538
1782968799969029400,5.968029296875,-1.5411743797451256,-0.7006166317414492,-1.1564011554211377
1782968799978956500,5.97795654296875,-1.3497709334015846,-0.9378884606167673,-0.8104543592281639
1782968799988882200,5.987882080078125,-1.0431149679809808,-1.2209572872880845,-0.5264670294724404
1782968799998809300,5.997809326171875,-0.639562808907032,-1.482915083000064,-0.2622153506696224
1782968800008735500,6.007735595703125,-0.2216173828214407,-1.7779603978648781,-0.004398965611308813
1782968800018661400,6.017661376953125,0.17017185774445534,-2.0258619764998556,0.15023060121685267
1782968800028587300,6.027587158203125,0.5411480273842811,-2.162346084176004,0.3732207336962223
1782968800038514400,6.037514404296875,0.8774111955612898,-2.4094082893773914,0.5960590366147458
1782968800048440600,6.047440673828125,1.1626789205163717,-2.7985850093573332,0.5724333924859761
1782968800058367200,6.0573671875,1.2354875516176222,-3.4725025078088043,0.18386559818461537
1782968800068293400,6.06729345703125,1.2918833925783633,-3.400206210143864,0.19112740588113664
1782968800078219500,6.077219482421875,1.6031038894355296,-4.089710277044773,-0.0644217648975551
1782968800088146400,6.087146484375,1.5170166745662688,-5.040051684260368,-0.5787397260885685
1782968800098072300,6.097072265625,1.459728853201866,-5.065568987354636,-0.7206025311283767
1782968800107998500,6.10699853515625,1.4529489838033913,-5.219945310074091,-0.4510572759620845
1782968800117924400,6.11692431640625,1.3885656512200832,-5.285329928654432,-0.11119812911972403
1782968800127851300,6.126851318359375,1.3772054682940245,-5.008082428547739,0.6784818106923252
1782968800137777400,6.13677734375,1.2558458645135164,-4.492833397051692,1.8273112887501715
1782968800147704300,6.146704345703125,1.0080500843405722,-4.023764517450332,2.9610657280772923
1782968800157630500,6.15663037109375,0.6271300283133984,-3.908701967987418,3.81669705350697
1782968800167556400,6.166556396484375,0.5204781643211841,-4.040034976510704,4.295276104253531
1782968800177483300,6.176483154296875,0.18179156838953495,-4.138835542480647,4.789309913763404
1782968800187409400,6.186409423828125,0.12114742233455181,-4.280554335939884,4.722799798284471
1782968800197335300,6.196335205078125,0.015713117438554764,-4.080126748402416,4.799173136129975
1782968800207262200,6.20626220703125,-0.372507032468915,-3.6918864324897527,4.5483758360534905
1782968800217188400,6.216188232421875,-0.9197469469875097,-3.4834517718464135,4.104835949984192
1782968800227114500,6.226114501953125,-1.471724411422014,-3.4741689797163007,3.592199146813154
1782968800237041200,6.236041259765625,-1.707875346508622,-3.5496821936011314,2.9888436695799228
1782968800246967300,6.24596728515625,-1.529386911317706,-3.7109096973896025,2.3894424829304217
1782968800256893400,6.2558935546875,-1.1814800670981407,-3.862162627391517,1.9669319408863781
1782968800266820400,6.2658203125,-0.8468143972456454,-3.9002451052874325,1.7489023534238337
1782968800276746200,6.275746337890625,-0.6427572210341692,-3.7497844947069883,1.738737810023129
1782968800286672400,6.28567236328125,-0.4311474374860525,-3.4979908770695327,1.9287419109627604
1782968800296598500,6.2955986328125,-0.2696510536283254,-3.2287650631159543,2.144725671811402
1782968800306525200,6.305525146484375,-0.0996674119323492,-2.8855566058456894,2.2403470232233405
1782968800316451300,6.315451416015625,0.05830021327733993,-2.5211779347747565,2.2362090466357767
1782968800326378200,6.325378173828125,0.16927695473134516,-2.2108222380533813,2.149095265197754
1782968800336304400,6.335304443359375,0.07483575301468372,-1.9023755898237227,2.110994667123258
1782968800346230300,6.345230224609375,-0.10602291843891143,-1.5351812768101691,2.0021825563572344
1782968800356157200,6.3551572265625,-0.21896189987659453,-1.1195553797133266,1.8362885220624505
1782968800366083300,6.365083251953125,-0.31923896813988684,-0.6980383787512778,1.7209443791791796
1782968800376009200,6.37500927734375,-0.535245525342226,-0.19901604023911057,1.7366852614074944
1782968800385936400,6.384936279296875,-0.6880214271277189,0.38378362876474853,1.699688240660727
1782968800395862300,6.3948623046875,-0.6079109485805034,0.8365623216919601,1.4880337411880493
1782968800405788400,6.404788330078125,-0.3284960413068533,0.9308267055369913,1.115340465432033
1782968800415715600,6.414715576171875,0.124811790060997,0.7439173557423054,0.5922323909986764
1782968800425641200,6.42464111328125,0.43092707273364067,0.45981969747990364,0.07810016163811087
1782968800435567400,6.4345673828125,0.42772038564682,0.33344694171249867,-0.36849341291338206
1782968800445494500,6.44449462890625,0.15743454124629497,0.39670273157060143,-0.7497342983927577
1782968800455420200,6.454420166015625,-0.3107143009006977,0.5502190764598548,-1.1458316114161162
1782968800465346300,6.46434619140625,-0.8917816662192344,0.7205394027642905,-1.5157329183660446
1782968800475273500,6.4742734375,-1.5987293276131151,1.011214539720863,-1.6319680187396703
1782968800485199400,6.484199462890625,-2.2022166145324706,1.4836132943972944,-1.4514647365950046
1782968800495125200,6.494125244140625,-2.477778353509307,1.9511654858253895,-1.0950576289251446
1782968800505051400,6.504051513671875,-2.4755554167628286,2.3268588932454586,-0.7314958271950482
1782968800514978300,6.513978271484375,-2.23634743219316,2.6557360428243872,-0.37758638155981894
1782968800524904200,6.523904296875,-1.8275971199542282,2.8692864390462636,-0.08396744623631239
1782968800534831400,6.533831298828125,-1.3988023830741643,2.89085178964436,0.23520386349484323
1782968800544757200,6.54375732421875,-1.1363432867765426,2.863867336606979,0.5427528322324157
1782968800554683400,6.553683349609375,-1.0350964966982603,2.9702970822811126,0.7281145141936838
1782968800564610300,6.5636103515625,-1.0452671775788067,3.098425157283246,0.8002231803320348
1782968800574536400,6.573536376953125,-0.996069723689556,3.0936954984128473,0.877352012719959
1782968800584462300,6.58346240234375,-0.7743588173657655,3.006173574565351,0.9242426509715617
1782968800594389500,6.593389404296875,-0.5051765502929687,2.990516863489151,0.9623903030581772
1782968800604315400,6.6033154296875,-0.16699147414267063,3.1337551216006276,1.0351336138382554
1782968800614241300,6.6132412109375,0.2923696659147739,3.2887501607403156,1.0998261585012077
1782968800624168400,6.62316845703125,0.829905348020792,3.3383652555197476,1.0321300481081008
1782968800634094300,6.63309423828125,1.310862233814597,3.308575097411871,0.8222345211319625
1782968800644020200,6.643020263671875,1.6385685860484838,3.253750743551552,0.5399832213886082
1782968800653947400,6.652947509765625,1.75228498159945,3.2143256188750264,0.2781435721635818
1782968800663873500,6.66287353515625,1.6762801848053932,3.228330763351917,-0.01875423870012164
1782968800673799200,6.672799072265625,1.4667016148239373,3.2203049855455754,-0.3427028458356857
1782968800683726300,6.682726318359375,1.2897452115058898,3.2110376832455394,-0.616521394407004
1782968800693652500,6.692652587890625,1.0811883857876061,3.317864611543715,-0.7521778190873563
1782968800703578000,6.702578125,0.7665227169126272,3.537377423301339,-0.8007925046525896
1782968800713505800,6.712505859375,0.3456833229511976,3.7888399092882867,-0.8023831348448991
1782968800723432000,6.722431884765625,-0.11808803476393222,3.9702646901920438,-0.7565681630007922
1782968800733357600,6.732357666015625,-0.7017705510169268,4.075566600880027,-0.6482536264933645
1782968800743284700,6.74228466796875,-1.2677251028776169,4.152637565600871,-0.4842185179382562
1782968800753211000,6.7522109375,-1.6316607063561677,4.28887968121469,-0.2315050089769065
1782968800763136500,6.762136474609375,-1.866318772536516,4.3474803387433285,-0.021824732186645268
1782968800773063700,6.772063720703125,-1.9623112953484056,4.36798332080692,0.221797707824409
1782968800782989800,6.78198974609375,-1.868185735452175,4.3876492675244805,0.38971769498884673
1782968800792915700,6.791915771484375,-1.4661673618167639,4.352670308601856,0.39414413312897084
1782968800802842600,6.801842529296875,-0.794279907888174,4.296877694231272,0.29517405581101774
1782968800812768800,6.811768798828125,0.04740647881925106,4.100360850396752,0.12485124528855085
1782968800822694700,6.821694580078125,0.8739373819708823,3.8088396180048583,-0.16313684454113245
1782968800832621800,6.831621826171875,1.5323440075576304,3.445749525439739,-0.5096067878253757
1782968800842547700,6.841547607421875,1.7677099297463892,3.046147565296292,-0.9861622237898409
1782968800852473900,6.851473876953125,1.6378735895216463,2.6744775681734083,-1.3864108112737537
1782968800862400800,6.86140087890625,1.1995359482705592,2.459325581973791,-1.63004304202646
1782968800872326700,6.87132666015625,0.48536476536393164,2.350027295126021,-1.8530282060697674
1782968800882252800,6.881252685546875,-0.0584019200861454,2.2542152434475717,-1.909166711268574
1782968800892179700,6.8911796875,-0.22041034511923788,2.102500102761388,-1.761737723468989
1782968800902105900,6.90110595703125,-0.18189444424211978,1.8648191816285251,-1.566433616425097
1782968800912031700,6.91103173828125,-0.10045476291775703,1.6425217075884342,-1.5265706848531961
1782968800921958700,6.920958740234375,-0.08297054415345191,1.4050224266327918,-1.5011699938759206
1782968800931884800,6.930884765625,-0.20771102254390716,1.0693921495318413,-1.4971842852406203
1782968800941810700,6.940810791015625,-0.3149877404361963,0.6619019203566014,-1.5110527977257966
1782968800951737600,6.950737548828125,-0.4683294594109058,0.20220862573534248,-1.541598742637038
1782968800961663700,6.960663818359375,-0.6564496463000774,-0.2525657710537314,-1.5850779650099576
1782968800971590000,6.97058984375,-0.8932610911220311,-0.5825980820171535,-1.5844583718068896
1782968800981516800,6.980516845703125,-1.2308306657224892,-0.8638955881670117,-1.6715683538526296
1782968800991442700,6.990442626953125,-1.5758189921468495,-1.089798539353162,-1.6889505735471844
1782968801001368800,7.000368896484375,-1.8413789770692586,-1.1883736260041593,-1.5393445339694618
1782968801011295700,7.010295654296875,-1.9388368962585925,-1.2090892279051244,-1.3657123066380619
1782968801021221600,7.0202216796875,-1.7144646617710588,-1.2233375334881245,-1.0596290996041149
1782968801031147800,7.030147705078125,-1.2497224131971596,-1.3317711663305758,-0.7330730864491313
1782968801041074700,7.04007470703125,-0.6371656846374273,-1.5373501452818512,-0.3825178466126323
1782968801051000800,7.050000732421875,-0.1268149465769529,-1.815178660146892,-0.01734627159833908
1782968801060926700,7.0599267578125,0.18953823699355124,-2.130938553999364,0.1826635289184749
1782968801070853600,7.069853515625,0.34744273383915425,-2.4743036631360646,0.18372984297573566
1782968801080779800,7.07977978515625,0.5312959109336137,-2.7600290687307716,0.1421034819278866
1782968801090705700,7.08970556640625,0.6919365547448396,-2.9931665012151,0.2242456124331802
1782968801100632600,7.099632568359375,0.8402993162631988,-3.262537568858266,0.34255993023365733
1782968801110558700,7.109558837890625,0.8969155219763517,-3.472514198246598,0.4388123460907489
1782968801120484900,7.11948486328125,1.052525770404935,-3.7294890179142355,0.41870406243316827
1782968801130411500,7.12941162109375,1.2976549617171287,-4.156753184226155,0.2616840202718973
1782968801140337700,7.139337646484375,1.5614403381824493,-4.881801150456071,0.030368761713430285
1782968801150263800,7.149263916015625,2.0260703585535285,-5.706612974730134,-0.5958061578322201
1782968801160190700,7.159190673828125,2.5961621563494206,-6.986656876432895,-1.5138959121972322
1782968801170116600,7.16911669921875,3.114797323152423,-7.03034462698996,-2.080785699081421
1782968801180042800,7.179042724609375,3.4396786810934543,-5.69820813447833,-1.2920409212276338
1782968801189969700,7.1889697265625,3.0408488743662834,-4.440104261904954,0.6419751307457685
1782968801199895600,7.1988955078125,2.001267341208458,-3.7861739049494263,2.5167984045162797
1782968801209821700,7.20882177734375,1.1690110461473464,-3.452232457718253,4.140934268325567
1782968801219748600,7.21874853515625,0.19429039995670316,-3.4465117419838904,5.1749850553631775
1782968801229674800,7.2286748046875,-1.161855913695693,-3.3199504779070614,5.42711097369492
1782968801239600600,7.2386005859375,-1.6009394048780201,-3.2425732237160205,4.8490804918542505
1782968801249527800,7.24852783203125,-1.3492548005729912,-3.2773183738827703,4.257458707034588
1782968801259453700,7.25845361328125,-0.6033160220056771,-3.4545942184135314,3.7691643179595467
1782968801269379600,7.268379638671875,0.23648411256372928,-3.7118794192045925,3.2771777963683006
1782968801279306800,7.278306640625,0.8096832287251949,-3.9834070803597568,2.644459446528554
1782968801289232600,7.288232666015625,1.1707120048463344,-4.228464375479519,1.9319610191397367
1782968801299158800,7.29815869140625,1.216474223589897,-4.390414348323643,1.3412120716318487
1782968801309085700,7.308085693359375,0.7792296382725238,-4.34839160836935,1.1250856874421238
1782968801319011600,7.318011474609375,0.04806406594514846,-3.991562622025609,1.297827687935531
1782968801328937700,7.327937744140625,-0.7272539518415927,-3.4497745431721207,1.6075136687017977
1782968801338865000,7.337864990234375,-1.4045651843845843,-2.816698758196831,1.953431531061232
1782968801348790500,7.34779052734375,-1.7836738070756195,-2.274634200489521,2.1480837500676513
1782968801358716700,7.357716552734375,-1.8194284265458582,-1.8796379805758594,2.0395622928112744
1782968801368643800,7.367643798828125,-1.4784189406245947,-1.6153727116391061,1.7631404298737645
1782968801378569700,7.37756982421875,-0.7934235833197831,-1.5185413999155162,1.4389746728561819
1782968801388495600,7.38749560546875,0.032501170632243156,-1.517627061549574,1.05767277790457
1782968801398422800,7.3974228515625,0.7518167306900024,-1.4561343358412384,0.6659916738882661
1782968801408348700,7.4073486328125,1.1779986547231673,-1.45119410296008,0.27645660545732825
1782968801418274600,7.417274658203125,1.2227175018936396,-1.3863994130969046,0.14964878274090587
1782968801428201700,7.42720166015625,0.8863701625645161,-1.1215525448799133,0.33450076161436737
1782968801438127900,7.4371279296875,0.3254810773998499,-0.66870254028216,0.6194361858751625
1782968801448053800,7.4470537109375,-0.23809680845737455,-0.262995687392354,0.7271026337374001
1782968801457980700,7.456980712890625,-0.9266624254643917,0.20507555947378275,0.6363508611232042
1782968801467906800,7.46690673828125,-1.5697060622245071,0.6465960685446858,0.44927616469897325
1782968801477832700,7.476832763671875,-2.2002824315994975,1.002070571539551,0.19974735018834472
1782968801487760000,7.486759765625,-2.7531507073938846,1.2592476357810198,-0.1407452722519636
1782968801497685800,7.496685791015625,-2.933098693743348,1.3774749328851699,-0.41173970331326126
1782968801507611600,7.506611572265625,-2.549265380617976,1.4502901398576795,-0.4001806368142366
1782968801517538800,7.516538818359375,-1.6364637227237224,1.5734902569383382,-0.21793913270011542
1782968801527464700,7.526464599609375,-0.5092617737799883,1.7776888874471186,-0.07459989843219518
1782968801537390600,7.536390625,0.37390930048227305,1.9291420161962507,-0.012485679824650287
1782968801547317800,7.54631787109375,0.7139730299860239,1.963091485940665,0.15321020154953002
1782968801557244000,7.556243896484375,0.3829313958495855,1.999406661903113,0.5727119171664118
1782968801567169800,7.566169677734375,-0.2972469165623188,2.265144049219042,0.900600347968936
1782968801577096700,7.5760966796875,-1.01611122572124,2.571076230409741,0.9953257734544575
1782968801587022800,7.58602294921875,-1.4639952784746884,2.8342525350660086,1.1128028367131948
1782968801596948700,7.59594873046875,-1.544845761734247,3.10369637568444,1.2929261796295641
1782968801606875600,7.605875732421875,-1.331580612194538,3.286820946243405,1.4588928407691417
1782968801616801800,7.6158017578125,-0.8651467572718858,3.4119209055960176,1.4533181093767285
1782968801626728000,7.62572802734375,-0.3171358583807945,3.4383930251970884,1.279511694522202
1782968801636654600,7.635654541015625,0.11388532237708568,3.3943080920159816,0.994922891741991
1782968801646580700,7.645580810546875,0.4789256722271442,3.372762615162134,0.617476503174752
1782968801656507000,7.6555068359375,0.7475935600370168,3.3396278228014706,0.2676484816342592
1782968801666433800,7.665433837890625,0.7985258748948574,3.340640799236297,0.0122454413279891
1782968801676359700,7.675359619140625,0.6372913568437099,3.3820831089541312,-0.24554098698347807
1782968801686285800,7.685285888671875,0.37939562293887136,3.5157653109520672,-0.4707536178179085
1782968801696212700,7.695212646484375,0.12393091557323932,3.689903149718046,-0.559014085073024
1782968801706138600,7.705138671875,-0.126376555159688,3.9081630388051267,-0.5693504779092967
1782968801716064800,7.715064697265625,-0.4160656036883592,4.098042636582255,-0.6356557184658944
1782968801725991700,7.72499169921875,-0.658220163103938,4.242759150552749,-0.658174716527015
1782968801735917600,7.73491748046875,-0.7787140899658203,4.3092584523767234,-0.5541960172668099
1782968801745843700,7.74484375,-0.723523533141613,4.327127286544442,-0.3453884316578507
1782968801755770600,7.7547705078125,-0.567321748560667,4.377710641834139,-0.001527355697751045
1782968801765696500,7.764696533203125,-0.45846740608811376,4.3731990096285935,0.2744417950361967
1782968801775622700,7.77462255859375,-0.42865620519220826,4.350072108802199,0.3256947201505303
1782968801785549600,7.784549560546875,-0.35899113281369205,4.329522657248377,0.24126360192522406
1782968801795475700,7.794475830078125,-0.2703290990203619,4.262184566512704,0.11415654053390026
1782968801805401600,7.804401611328125,-0.2306879935055971,4.20180287078619,-0.11058920344114304
1782968801815328500,7.81432861328125,-0.22519933296144007,4.166503009346127,-0.454625051446259
1782968801825254700,7.824254638671875,-0.23703297861814498,4.053531294682622,-0.7682992250658571
1782968801835180500,7.8341806640625,-0.1351344466328621,3.9364223340839146,-1.013455450515449
1782968801845107500,7.844107421875,0.19197978492677212,3.81762995044291,-1.3500715237833558
1782968801855033600,7.85403369140625,0.5566723442524671,3.6001731944322586,-1.663279541195929
1782968801864959700,7.863959716796875,0.8905395572036504,3.3645629420936105,-1.8252217691250143
1782968801874886700,7.87388671875,1.2056699209809303,3.284845846778154,-1.9087877949535845
1782968801884812500,7.8838125,1.267573711708188,3.132168144670129,-1.6474274536781013
1782968801894738700,7.89373876953125,0.914444164404273,3.061595309796929,-1.2646598700881004
1782968801904665600,7.90366552734375,0.3742623517036438,2.9946868426501747,-1.1319820958923548
1782968801914591500,7.913591552734375,-0.05754442647397518,2.915347348475456,-1.2737667211294172
1782968801924517600,7.923517578125,-0.16943886729478835,2.588309104761481,-1.541927974591404
1782968801934444500,7.933444580078125,0.035866847673058505,2.0559904266513884,-1.7767796636477111
1782968801944370700,7.94337060546875,0.28087913460731506,1.519375804913044,-1.8639196024402975
1782968801954296600,7.953296630859375,0.2906669536501169,1.1025247499354183,-2.01067200615257
1782968801964223700,7.9632236328125,0.040438393372297286,0.38330271338000893,-1.9364260357245802
1782968801974149600,7.973149658203125,-0.1858580871760845,-0.19021715916842222,-1.6415576848618685
1782968801984075500,7.983075439453125,-0.32253099542260166,0.136435446228832,-2.7445623272687194
1782968801994001700,7.993001708984375,-0.9267395823538302,-0.2670098914697766,-2.7150018862634897
1782968802003927800,8.002927734375,-1.3115718433886765,-0.826331873448193,-2.1242131912671027
1782968802013854700,8.012854736328125,-1.5285060368299483,-1.1884029982291162,-1.5227210236877202
1782968802023780600,8.022780517578125,-1.5888614290714262,-1.3028320720940827,-0.9942522990040481
1782968802033706800,8.032706787109374,-1.5886165143996476,-1.402722332996875,-0.3884263400040567
1782968802043633700,8.042633544921875,-1.4406652562916278,-1.1388162527613341,-0.06543393761478364
1782968802053559600,8.0525595703125,-1.2906231633841991,-1.499811857265234,0.49365496626012023
1782968802063485700,8.062485595703125,-0.9831652339309453,-1.903329821808636,1.3125783900827168
1782968802073412600,8.07241259765625,-0.5677881970286369,-2.090865194547176,1.2583765520349144
1782968802083338800,8.0823388671875,-0.18415888204276562,-2.600169346164167,1.2329118559107184
1782968802093264600,8.0922646484375,0.17704232803583145,-2.911457355299592,1.45740406351611
1782968802103191600,8.102191650390624,0.6758236243337392,-3.266723914632201,1.3448393222182988
1782968802113117700,8.11211767578125,1.0723030685424804,-3.5121091265320774,1.3534687650062143
1782968802123043600,8.122043701171876,1.4335866962075232,-3.6427585367053745,1.4235061778284608
1782968802132970500,8.131970458984375,1.768859099781513,-3.810877845834195,1.6089124295838175
1782968802142896600,8.141896728515626,2.085417450535297,-4.086244062238931,1.778007159616053
1782968802152822800,8.15182275390625,2.1197014129310845,-4.3864013132899995,1.991426476804167
1782968802162749400,8.16174951171875,2.0525813488602638,-4.8087084417164325,2.15800294040516
1782968802172675600,8.171675537109374,2.107626359733939,-5.341695958998799,2.492690383698046
1782968802182601700,8.181601806640625,2.1707184834629296,-5.99632949578762,2.9419828419446943
1782968802192528600,8.191528564453124,2.071587078103423,-6.569302401977777,3.093459059308469
1782968802202454500,8.20145458984375,2.1848703429341314,-6.004764731177687,2.611376092094183
1782968802212380700,8.211380615234376,2.0275404311060905,-5.165396558284759,2.079287277217209
1782968802222307600,8.2213076171875,1.3114286355257034,-5.157517203211784,2.0745108565956354
1782968802232233500,8.2312333984375,0.24393092143833636,-5.145768313229084,2.040482330265641
1782968802242159600,8.24115966796875,-0.644482729652524,-5.245597053202986,2.691768310192227
1782968802252086500,8.25108642578125,-0.9814560919255018,-4.999162624511122,2.851994527983665
1782968802262012700,8.2610126953125,-0.8390800036013126,-4.558381389500201,3.0190035377830267
1782968802271938600,8.2709384765625,-0.4152373361706733,-4.312113549546897,3.0199890416890383
1782968802281865500,8.280865478515626,0.03248305045366287,-4.269510087095201,2.982306669026613
1782968802291791600,8.29079150390625,0.2001233438938856,-4.024044795696437,2.788299762186408
1782968802301717500,8.300717529296875,0.1699766274333,-3.864682208997011,2.4205641819030044
1782968802311644700,8.310644775390625,0.05811199722886085,-3.7543244762241836,2.190566801010072
1782968802321570600,8.320570556640625,-0.08888122950196266,-2.6593372821867463,2.016682937005162
1782968802331496700,8.33049658203125,-0.9478805700600147,-3.4253602328836914,2.015431475639343
1782968802341423900,8.340423828125,-1.447242881116271,-3.90955653899014,1.4100699192807078
1782968802351349500,8.350349609375,-1.4262065228283405,-3.060626464764774,1.2717803696177898
1782968802361275600,8.360275634765625,-1.0537386533260344,-2.576641171060502,1.213768910153955
1782968802371202800,8.370202880859376,-0.7952046215176581,-2.0437879476822913,1.0522404506575316
1782968802381128400,8.38012841796875,-0.9422516242623329,-1.7132535324156284,1.0574520478259772
1782968802391054600,8.3900546875,-0.6999848366439342,-1.4509342829801142,0.8303922547549009
1782968802400982500,8.399982421875,-0.5747200421184301,-1.2174883690685032,0.5852828641217201
1782968802410909700,8.40990966796875,-0.3032230683624744,-1.1822153956353663,0.5987690992910415
1782968802420835800,8.4198359375,0.15966098512411117,-1.0634940314039587,0.7745990558624267
1782968802430761500,8.429761474609375,0.6159644911766052,-0.723140963564813,0.8438135349292307
1782968802440688600,8.439688720703124,0.801305276480317,-0.5618130681417882,0.4084858891490847
1782968802450614800,8.44961474609375,0.6164332777321339,-0.8802380895502865,0.7149615295667201
1782968802460540400,8.45954052734375,-0.2939215715318918,-0.25612916262373325,0.680221859292686
1782968802470467600,8.469467529296875,-1.0646633674442767,0.4270354721225798,0.10899886550977826
1782968802480393700,8.479393798828125,-1.748202680721879,0.6704195733331143,-0.046176498632878066
1782968802490319600,8.489319580078124,-2.2180115650355816,0.8361305061459541,-0.3202493142262101
1782968802500246500,8.49924658203125,-2.6210084283143282,1.0869492874018847,-0.8311309442929923
1782968802510172700,8.509172607421876,-3.2937463615924116,1.6031082733497022,-1.4461976098470388
1782968802520098600,8.5190986328125,-3.4225720634698864,1.668194931896776,-1.5017184215389192
1782968802530025700,8.529025634765626,-2.5242186176449057,1.4180350529409944,-1.1322399431109427
1782968802539951600,8.53895166015625,-1.699072446849942,1.6697390925988553,-0.8880398493424058
1782968802549877800,8.548877685546875,-1.7063877382993697,1.9830971860066056,-0.341307299824059
1782968802559804700,8.5588046875,-2.0103455506771803,2.476470778042078,0.18832170081064104
1782968802569730600,8.56873046875,-2.2148533932656047,3.0587089407056567,0.5045553496547043
1782968802579656700,8.57865673828125,-2.182043595075607,3.3025928081318736,0.6397742597006261
1782968802589583600,8.58858349609375,-1.746710396337509,3.373933412507176,0.6273099149249494
1782968802599509800,8.598509765625,-1.0734691897124051,3.38135830181092,0.617244301854074
1782968802609435600,8.608435546875,-0.42194238676726814,3.3566222122222182,0.5562831988044082
1782968802619362600,8.618362548828125,0.1961585319161415,3.2978599343910813,0.36595936439111826
1782968802629288700,8.628288818359374,0.7393067932069302,3.304712576764822,0.1629787313699722
1782968802639214800,8.63821484375,0.9942524451345205,3.4120755116358397,0.09007336189597845
1782968802649141500,8.6481416015625,0.8070026113390922,3.708719201608002,0.264451293028146
1782968802659067600,8.658067626953125,0.3583277004688978,4.026598571832478,0.4192988865211606
1782968802668993800,8.667993896484376,-0.08181435985565184,4.2812420259431,0.3897653335228562
1782968802678920700,8.677920654296875,-0.2713940979033708,4.5077109404489395,0.27392288572862744
1782968802688846600,8.6878466796875,-0.24448504818975925,4.711157291285693,0.15114274762570856
1782968802698772700,8.697772705078124,-0.11644143660068511,4.76074608258009,0.04550488298162818
1782968802708699600,8.70769970703125,-0.07347615509927273,4.684495786592364,0.38582448694258925
1782968802718625300,8.717625244140624,0.2669312732756138,4.364946145068108,0.2704823898859322
1782968802728551400,8.727551513671875,0.9853273804008961,4.460630332583189,-0.4844098027266562
1782968802738478300,8.737478271484376,0.9349719886481761,5.1761985228061675,-2.1437441134281454
1782968802748404500,8.747404541015625,0.6749152773171663,4.337909669582546,-1.4624308056369424
1782968802758330400,8.757330322265625,0.3594336158841848,4.053454430054128,-0.8923312629260122
1782968802768257300,8.76725732421875,-0.14660276610851286,4.494127528515458,-0.9906497444674373
1782968802778183400,8.777183349609375,-0.7130600067943335,4.514375951296091,-0.5547859459839761
1782968802788109300,8.787109375,-1.1537351510822773,4.575175872434675,-0.42476708879917857
1782968802798036200,8.7970361328125,-1.3396370774000883,4.545238414810598,-0.4942359079532325
1782968802807962400,8.80696240234375,-1.0804361061155796,4.396031019161641,-0.5460650255203247
1782968802817888500,8.816888427734375,-0.3939467108607292,4.138674506700038,-0.790280462988466
1782968802827815200,8.826815185546875,0.3823492120474577,3.7532524630784985,-1.0898784727215767
1782968802837741300,8.8367412109375,0.9477888001233339,3.3696059046968814,-1.3370529061257839
1782968802847667500,8.84666748046875,1.273739248600602,3.0671681414932013,-1.5486641509786248
1782968802857594400,8.856594482421874,1.3629711912363767,2.841568118776381,-1.6850997433379291
1782968802867520300,8.866520263671875,1.1180085886627436,2.7322274540916083,-1.7720776234365998
1782968802877446400,8.8764462890625,0.7041723514616489,2.644507085062563,-1.8161621182262897
1782968802887373600,8.88637353515625,0.2973538840681314,2.538403502602875,-1.9032655244007706
1782968802897299200,8.89629931640625,-0.03111877636313438,2.365852056245506,-1.9089115674637256
1782968802907225300,8.906225341796874,-0.33393910914361474,2.2003867687568066,-1.858702160052955
1782968802917152500,8.916152587890625,-0.5468944620817899,2.013176682449877,-1.9053886540345846
1782968802927078400,8.926078369140624,-0.5233312156647444,1.8218457168206572,-1.8610050301678478
1782968802937004300,8.93600439453125,-0.22253858931958673,1.5595418110847472,-1.816836656486988
1782968802946931500,8.945931396484376,0.32144203114211556,1.1693906931146978,-1.8380448642104863
1782968802956857300,8.955857421875,0.9608581250548363,0.7097194641947746,-1.8531534398846328
1782968802966783200,8.965783203125,1.270183017423749,0.25588351729959247,-1.8173095346957444
1782968802976710400,8.97571044921875,1.054769165417552,0.03820318166613579,-1.692981436498463
1782968802986636300,8.98563623046875,0.6500654982209205,0.07483487623184919,-1.2340364760264753
1782968802996562400,8.9955625,-0.3603612521231174,-0.7462219794228673,-1.1988450433969497
1782968803006489300,9.0054892578125,-1.1056015270322561,-0.8334121870979666,-1.2313593657717108
1782968803016415200,9.015415283203126,-1.4049316796094178,-0.6838312819615006,-0.6066125793330371
1782968803026341400,9.02534130859375,-1.4481687637895344,-0.9669200554423034,-0.027053865011781454
1782968803036268500,9.0352685546875,-1.0447767637133598,-1.2939501158498228,0.20343714461699128
1782968803046194400,9.0451943359375,-1.0429641613334417,-0.8394090894252061,-0.8195368064805865
1782968803056120300,9.055120361328125,-0.9206523713946342,-1.8648257574997842,-0.5016116974182426
1782968803066047500,9.065047607421874,-0.5945803423643112,-2.3847025949269534,-0.5366567073144018
1782968803075973400,9.074973388671875,-0.47281975656747816,-2.3628039207212628,-0.6051752400062977
1782968803085899300,9.084899169921876,-0.6728033997297287,-2.588214119954407,-0.3176841399133205
1782968803095826400,9.094826416015625,-0.5716413653254508,-2.6987632836461066,0.08891922342479229
1782968803105752600,9.104752685546876,-0.23838497774899003,-2.7508976677700874,0.6625719285726547
1782968803115678200,9.11467822265625,-0.05786766707897186,-2.8275790486514567,0.8870132827736437
1782968803125605400,9.12460546875,0.28054887973964215,-2.9734526237025856,0.9934491659276187
1782968803135531500,9.134531494140624,0.7738397619277239,-3.054499506317079,1.1749451123714447
1782968803145457200,9.14445703125,1.3787889380931853,-3.0871175813272593,1.6959167592979967
1782968803155384300,9.15438427734375,1.8417898959577081,-2.3994720017746087,2.348771449846029
1782968803165310500,9.164310546875,1.689091151061654,-2.953505521956086,0.8722299935311079
1782968803175236400,9.174236328125,1.5077420657426117,-4.762577097399532,1.7908780393660066
1782968803185163500,9.18416357421875,1.6046487807899712,-4.714816106054187,2.4838281550675627
1782968803195089400,9.19408935546875,1.109792548981309,-3.9079724846690893,1.779508504089713
1782968803205015300,9.204015380859374,0.6688263127923011,-3.671724518948793,2.250069960336387
1782968803214942500,9.2139423828125,0.6345405968308448,-3.735558985477686,2.767392583236098
1782968803224868400,9.223868408203124,0.36551381258070464,-3.490568910375237,2.5195173080861566
1782968803234794500,9.23379443359375,0.17161796489953993,-3.7617175090849395,2.6314868599697947
1782968803244721400,9.243721435546876,0.041216392007470126,-3.8729794972211122,2.9067940396636724
1782968803254647600,9.2536474609375,-0.06539689354002476,-3.61562181571573,2.9739024132966994
1782968803264573400,9.263573486328125,-0.2910328643530607,-3.4512498764216897,2.9981486735418437
1782968803274500400,9.273500244140624,-0.7673311106860637,-3.5306928309708834,3.1131507249891754
1782968803284426500,9.283426513671875,-1.0666939964890478,-3.5755478717416525,2.9635552068054674
1782968803294352400,9.293352294921876,-0.9900210911750793,-3.4824168758407232,2.65071441527009
1782968803304279300,9.303279296875,-0.5983803191691637,-3.2392677524298428,2.765417483770847
1782968803314205400,9.313205322265626,-0.0016594576448202133,-2.8512971933692692,3.1535102079063653
1782968803324131600,9.323131591796875,0.7594324663907289,-2.4205299873724577,3.7392017258942123
1782968803334058200,9.333058349609376,1.7184996163755655,-1.6164654753118752,4.427757990550995
1782968803343984400,9.342984375,1.8959324050337074,-0.3342655646190047,4.425114198043942
1782968803353910500,9.35291064453125,1.175651214814186,-0.6354334540173411,3.788664552721381
1782968803363837400,9.36283740234375,0.4899100075781345,-1.7152191334001718,3.8293659809440372
1782968803373763300,9.372763427734375,-0.5284650714218616,-3.1516987745702263,3.3887820220708846
1782968803383690200,9.382690185546876,-1.7938836509227751,-4.02385365703851,2.3815663427278397
1782968803393616400,9.392616455078125,-2.4755630155473947,-4.041936718478799,1.6951976512432096
1782968803403542300,9.402542236328125,-2.45781693097651,-3.4164120795354247,1.6844171679012476
1782968803413468400,9.412468505859374,-1.7950749065339564,-2.4522449760630725,2.080072874636948
1782968803423395300,9.422395263671875,-1.5421277349472045,-1.8703461283564566,2.4804250686258076
1782968803433321500,9.432321533203124,-1.3177058160990476,-0.9790579447425901,2.1077366882406174
1782968803443248400,9.442248291015625,-0.9824152923464774,-0.4610445630997419,2.162218658404052
1782968803453174300,9.45217431640625,-1.057221819266677,0.3046918257407844,1.6098372893437742
1782968803463100400,9.462100341796875,-1.256176703903079,0.33653950090035795,1.4053048968359827
1782968803473027600,9.472027587890626,-0.9715998838216066,-0.06627952159345149,1.3343800336547196
1782968803482953200,9.481953125,-0.5559902072072028,-0.1477114580027759,0.9468417285315692
1782968803492879400,9.49187939453125,-0.32906887275874613,-0.11738923884481191,0.5632901549570262
1782968803502805500,9.501805419921874,-0.542407087534666,-0.1195399871379137,0.12698036627173423
1782968803512732200,9.511732177734375,-1.0255974314689635,-0.1754912992015481,-0.40547479769960043
1782968803522658300,9.521658203125,-1.4929460631489753,0.14188830480724574,-1.2558918956123293
1782968803532585500,9.53158544921875,-1.7466700643271207,0.49060880349725483,-1.7103306307062505
1782968803542511400,9.541511474609376,-1.8196201497256754,0.7876753950566053,-1.753801523642242
1782968803552437200,9.551437255859375,-1.637422923144698,1.173400221017003,-1.6355479230530559
1782968803562363400,9.56136328125,-1.337300743407011,1.5620277826815843,-1.3503674379900097
1782968803572290300,9.571290283203124,-0.9671329675406217,1.9916034408062695,-1.0517419265508652
1782968803582216400,9.581216552734375,-0.6132435417801141,2.394535422155261,-0.8935163810573518
1782968803592143400,9.591143310546874,-0.27496318856179713,2.5639181753486393,-0.6360637147448956
1782968803602069500,9.601069580078125,-0.10367898566126822,2.8568481054946777,-0.6450120142236352
1782968803611995400,9.610995361328126,-0.11723287923932074,2.835812039467692,-0.30824776465669274
1782968803621922600,9.620922607421875,-0.3059779200285673,2.914693268480897,-0.2397140343956649
1782968803631848400,9.630848388671875,-0.4261024290561676,3.0048408646568654,-0.26307635141313074
1782968803641774300,9.6407744140625,-0.5887631805181502,3.190077605064213,-0.30957272965013977
1782968803651701500,9.650701416015625,-0.729317898634076,3.4376264247387645,-0.5129702729091048
1782968803661627400,9.66062744140625,-0.6468851146191358,3.4229338825196027,-0.44862990268468855
1782968803671553300,9.67055322265625,-0.8489303664863109,3.7931285463929174,-0.6108924486093222
1782968803681480400,9.68048046875,-0.8817682217270135,3.696551793952286,-0.41242417844608426
1782968803691406600,9.690406494140625,-0.917812179532647,4.057350560709834,-0.8611094645798206
1782968803701332200,9.700332275390625,-0.7738146274864673,4.196517331598699,-1.0066878560766577
1782968803711259400,9.71025927734375,-0.7234890463501215,4.082309645399451,-0.9468981348939239
1782968803721186000,9.72018603515625,-0.18118249658048152,4.03918274359554,-0.8854588929384947
1782968803731112000,9.73011181640625,0.23379238926172255,4.074826888428628,-1.0583242275506257
1782968803741039000,9.7400390625,0.6340314782649278,3.9888571624591944,-1.1174110611610113
1782968803750965000,9.749965087890626,1.057501220729947,3.9429464751556513,-1.0790732933297753
1782968803760891100,9.75989111328125,1.2083639823704957,4.09479707878977,-1.2326629957161843
1782968803770818000,9.769818115234376,1.275244392466545,3.9798564021408556,-1.21720093042925
1782968803780744200,9.779744140625,1.0107610968649388,3.9047470928817987,-1.2197501765206455
1782968803790670000,9.789670166015625,0.49246553727984427,3.8559476983994245,-1.2514632655151188
1782968803800597200,9.79959716796875,0.0646451983898878,3.7697994009926914,-1.0378129160501062
1782968803810523100,9.809523193359375,-0.5231646269261837,3.9098759802028535,-0.9112826316334307
1782968803820449000,9.819448974609376,-0.7359434542536735,3.965352660492062,-0.5404064152367413
1782968803830376200,9.829376220703125,-0.8741004635781049,4.166724250881374,-0.3606460604138672
1782968803840302000,9.839302001953126,-0.6443582264900207,4.319940589910745,-0.37414398602098226
1782968803850228000,9.84922802734375,0.19774492432475088,4.255530369320511,-0.22528116602599618
1782968803860155100,9.859155029296875,0.799897163248062,4.170418136963248,-0.21897417483627796
1782968803870081300,9.869081298828124,1.3487334070473909,3.9061382549792527,-0.1865425623089075
1782968803880007000,9.8790068359375,1.725150890958309,3.5225314440861344,-0.382089392067492
1782968803889934000,9.88893408203125,1.696877567154169,3.08506532497257,-0.6559580633908509
1782968803899860200,9.898860107421875,1.406919638556242,2.732397842222452,-0.845264391324669
1782968803909786000,9.9087861328125,0.9146943397730588,2.5585654161438343,-1.004242508751154
1782968803919713000,9.918713134765625,0.15461071599721907,2.5506390070587397,-1.1953158463574944
1782968803929639200,9.92863916015625,0.10220365241169929,2.3253873593881726,-1.1499323977984488
1782968803939565000,9.93856494140625,0.45421910099387164,2.2557760630235073,-1.112573119610548
1782968803949492000,9.948491943359375,0.49952305457592006,2.2389999925285577,-1.0262816143408418
1782968803959418000,9.958418212890624,0.4875789342820644,2.0600421862602234,-0.832560100313276
1782968803969344300,9.96834423828125,0.5122124402791262,1.7731164649650453,-0.744798522491008
1782968803979271200,9.978271240234376,0.3906996917635202,1.426416366186738,-0.9517990586780011
1782968803989197000,9.988197021484375,0.2171639105439186,1.0748115442320705,-1.030274191108346
1782968803999123200,9.998123291015625,-0.1146948851943016,0.7263350834310054,-1.0503041488327085
1782968804009050000,10.008050048828125,-0.4996826290518045,0.2914202562354505,-1.0917999423034488
1782968804018976300,10.017976318359375,-0.912486016073823,-0.22024697125107048,-1.1060526318006216
1782968804028902100,10.027902099609374,-1.2507955953866243,-0.6472751368500292,-1.018590913707763
1782968804038829000,10.0378291015625,-1.4699299292206764,-0.8609263630978763,-1.1957649052992463
1782968804048755200,10.047755126953126,-1.4097873029470442,-1.169632685177028,-1.0162545797146856
1782968804058681000,10.05768115234375,-1.0516612625300883,-1.6580222051896154,-0.3937221083246171
1782968804068608000,10.06760791015625,-0.6728864018380641,-1.8443275977417826,-0.2557769881851971
1782968804078534100,10.0775341796875,-0.31709844897985456,-1.963187201400101,-0.10145590278431772
1782968804088460300,10.087460205078125,-0.35966684011816974,-2.415074206184596,0.2475179861448705
1782968804098387000,10.097386962890624,-0.24916823756992815,-2.8916406019344922,0.6300711963318288
1782968804108313000,10.10731298828125,-0.18735855486690997,-3.2793507564932107,0.8798447063185274
1782968804118239200,10.1172392578125,-0.3002227175027132,-3.5277570697799323,0.8895200048975646
1782968804128166100,10.127166259765625,-0.3524865732252598,-3.7214652859345074,0.8337079551741481
1782968804138092000,10.137092041015626,-0.2586871765434742,-4.1585295462489125,0.6557219165474176
1782968804148018200,10.14701806640625,-0.15187456903159618,-4.709021448300779,0.09567761164382099
1782968804157945000,10.156945068359375,-0.1324842243850231,-5.8233238759219645,-0.6299639365650713
1782968804167871000,10.16687109375,-0.031655951979756354,-7.555921575754881,-1.8534693739660084
1782968804177797000,10.176797119140625,0.013212532794475554,-8.376665127676725,-3.4558643844798205
1782968804187724000,10.18672412109375,0.11011749427616596,-8.068197728919982,-3.949260188347101
1782968804197650200,10.196650146484375,0.47364919312894344,-6.522470508176088,-2.53881412923038
1782968804207576000,10.206576171875,0.7771095773786306,-4.1992409113436935,-0.1383905258193612
1782968804217503000,10.2165029296875,0.5729109468698501,-2.8706238251298664,2.350894579479843
1782968804227429000,10.22642919921875,0.038353403791785236,-2.337459197714925,4.385950062391162
1782968804237355000,10.23635498046875,-0.36882337552011013,-2.024774911915511,5.383873304992914
1782968804247282000,10.246281982421875,-0.5883505080640316,-2.2255293933197855,5.040275556144118
1782968804257208000,10.2562080078125,-0.2898866169273853,-2.464280574032664,4.138889903016389
1782968804267134200,10.26613427734375,-0.10904022043347358,-2.764622826261818,3.3321877359285947
1782968804277060900,10.276060791015626,-0.5219248559981584,-3.228854787226021,2.5676699290975926
1782968804286987000,10.285987060546875,-0.7550947294473648,-3.608585048946738,2.0867916614979505
1782968804296913200,10.2959130859375,-0.6128507430702448,-3.434162548020482,1.8991718253463505
1782968804306840000,10.305840087890624,-0.4709527936518192,-2.8535993328318,1.9553503702946007
1782968804316766000,10.315765869140625,-0.4394990862458944,-2.3562333101592956,2.075893543125689
1782968804326692000,10.325692138671876,-0.5690735606640577,-2.0956875001370907,1.9802039487831293
1782968804336619300,10.335619384765625,-0.704489162325859,-1.9990505419418214,1.9031205629721282
1782968804346545000,10.345544921875,-0.7234884618282318,-1.923247259069234,2.025937379823625
1782968804356471000,10.355470947265625,-0.5941337676405907,-1.9334227622553706,2.1434467379167677
1782968804366398200,10.365398193359376,-0.2993213847488165,-2.0459804892905056,2.056789614205062
1782968804376324000,10.375323974609374,0.08404138825535774,-2.1447030215881764,1.9519642349876463
1782968804386250000,10.38525,0.292028305131197,-2.155257733350247,1.807875351396203
1782968804396177200,10.39517724609375,0.31241993577480315,-2.159110170994699,1.67344203877002
1782968804406103000,10.40510302734375,0.27161621622145177,-2.0913519551508126,1.5803310627438127
1782968804416029000,10.41502880859375,0.2749386386424303,-1.930629916666448,1.4757842082068324
1782968804425956000,10.4249560546875,0.2970055090218782,-1.7517267631947993,1.3292927935183048
1782968804435882000,10.434882080078125,0.33400457559525965,-1.5358033542312681,1.1882263995531945
1782968804445808000,10.44480810546875,0.2802460974007845,-1.36443834117949,1.0327150814544408
1782968804455735300,10.4547353515625,-0.023574352332949636,-1.18975733544752,0.937174394063279
1782968804465661000,10.464660888671874,-0.4608703755766153,-0.8886683565042912,0.9488546027239412
1782968804475587000,10.474587158203125,-0.6636123775362968,-0.44180458670929074,0.9853674932155757
1782968804485514200,10.48451416015625,-0.7048480587661266,-0.09070581458061933,0.9989783046126365
1782968804495440100,10.494440185546875,-0.6473772820502519,0.0010378186151385306,0.9041688541054725
1782968804505366000,10.504365966796875,-0.4258271192461252,0.057912529134005304,0.6547170503538101
1782968804515293200,10.514293212890625,-0.07714987517595291,0.1675171054519713,0.28250490917824206
1782968804525219300,10.52421923828125,0.21201018104255198,0.4643437507756054,-0.225063796948269
1782968804535145000,10.53414501953125,0.11523322985470294,0.7238979194119572,-0.6612231443122029
1782968804545072000,10.544072021484375,0.15824001241028307,0.5320752247430384,-0.48348947301134465
1782968804554998300,10.553998291015626,-0.059117374879121776,0.7465197933256625,-0.9157153533838689
1782968804564924000,10.563923828125,-0.36503567367494105,0.8900541117742657,-1.16290571500957
1782968804574851000,10.57385107421875,-0.9104127169311046,0.9941976462073624,-1.0123891364581883
1782968804584777200,10.583777099609375,-1.5443413193434476,1.331865128224343,-0.7981665400631726
1782968804594704100,10.5937041015625,-1.9888491736620664,1.7953882102668284,-0.5056145033188164
1782968804604630000,10.603630126953124,-2.1739958976984024,2.244377155522257,-0.05731485550180077
1782968804614556200,10.61355615234375,-2.073185745471716,2.674687411531806,0.35689606023058296
1782968804624482000,10.62348193359375,-1.6718074233055114,2.9087364059031007,0.6601514234274626
1782968804634409200,10.6334091796875,-1.100426170220971,3.0368250256776808,0.9271589768096804
1782968804644335000,10.643335205078126,-0.44557986746430395,3.1344822668313976,1.1617372557520866
1782968804654262000,10.653261962890625,0.10840601418316363,3.2108602808520197,1.24842565138489
1782968804664188200,10.663188232421875,0.601882189810276,3.2100515948176382,1.1675257760256528
1782968804674114000,10.673114013671874,0.9696417354911565,3.1365830385029314,1.0119605357825756
1782968804684041000,10.683041015625,0.971796867698431,3.0749165636628866,0.7846282824456692
1782968804693967000,10.692967041015624,0.6622171237856149,3.086101682282984,0.6270039177156984
1782968804703893200,10.702893310546875,0.26361644963920117,3.1018972173079846,0.6329841611690818
1782968804713820000,10.71281982421875,0.07755144171416758,3.2475793614402413,0.5127211204536258
1782968804723746000,10.72274609375,-0.07487608502507209,3.5671012381747365,0.05581190359294414
1782968804733672000,10.732671875,-0.06454407610297203,3.5639065337866542,-0.052106765464693304
1782968804743598800,10.742598876953124,0.059256491088867186,3.504532846058905,-0.24898528221845626
1782968804753525000,10.75252490234375,0.35882980477213855,3.3970798948168754,-0.48385246110484004
1782968804763451100,10.762451171875,0.6575450403213501,3.3469533433839675,-0.7326616561040282
1782968804773377800,10.772377685546875,0.7632546550273894,3.266298674957454,-0.8482460374839603
1782968804783304000,10.782303955078126,0.5226718749731779,3.189611448857188,-0.8672196180231869
1782968804793230000,10.79222998046875,-0.05187456414401531,3.12797916854769,-0.8469820088975131
1782968804803157000,10.802156982421875,-0.8080588423937559,3.1428719095140694,-0.7985086314991116
1782968804813083000,10.812082763671874,-1.3722130668342112,3.2250884204298256,-0.5813295233860611
1782968804823009000,10.822009033203125,-1.5755734929531813,3.3604753805190324,-0.23559154763817786
1782968804832936000,10.83193603515625,-1.379901283249259,3.5271304623141884,-0.11287322272509336
1782968804842862000,10.841862060546875,-0.9344383201628923,3.6854429554387926,-0.4512697496689856
1782968804852788000,10.8517880859375,-0.0376841262280941,3.2495611829072235,-0.4488821238800883
1782968804862715000,10.86171484375,0.7154507013231516,3.021630086894333,-0.653768444392085
1782968804872641000,10.87164111328125,1.3179454700738191,2.84052533172518,-0.8280696570262313
1782968804882567000,10.88156689453125,1.9860124889314172,2.7028029144257304,-1.39250649780035
1782968804892494000,10.891494140625,2.363936285752058,2.5559315605089066,-1.7549863495126365
1782968804902420000,10.901419921875,2.1987597520768642,2.1932576475292445,-1.5731116328842938
1782968804912346000,10.91134619140625,1.7352321399897337,1.9344665722198784,-1.28271823547855
1782968804922273000,10.92127294921875,1.4320774606883524,2.230424910276383,-1.61145846080482
1782968804932199000,10.931198974609375,0.7891875531852245,2.3432817663885652,-1.3773458996780217
1782968804942125000,10.941125,0.0058043023645877835,2.0162325628891584,-0.7668022645063698
1782968804952052200,10.95105224609375,0.12458674913346766,2.0373031157076356,-1.2355306601069866
1782968804961977900,10.960977783203125,0.22941432030797004,2.1254409794963895,-1.2415627798780797
1782968804971904000,10.970904052734374,0.31132629531919953,1.7036255801096558,-1.0498600583270192
1782968804981831200,10.9808310546875,0.7830798839598894,1.2184656896680592,-0.8312386424511671
1782968804991756800,10.9907568359375,0.6879144596219062,0.9691863929390907,-0.9964790351428091
1782968805001683000,11.000682861328125,0.11064064136743545,0.7952763715796172,-1.491710091613233
1782968805011610000,11.010610107421876,-0.36424715364575383,0.49767289666458964,-1.4199188208609819
1782968805021536000,11.020535888671875,-0.5774643723905086,0.16843378190547226,-1.217190555165708
1782968805031462000,11.0304619140625,-0.4859107088088989,-0.10351590405404568,-1.0173656096965074
1782968805041389000,11.04038916015625,-0.09297755890488624,-0.3739782010000199,-0.8259815987057983
1782968805051315000,11.05031494140625,0.46810558752715586,-0.6510937452901154,-0.5641999632783233
1782968805061240800,11.06024072265625,0.9524357491463422,-0.8774179175630211,-0.41023032166361806
1782968805071168000,11.07016796875,0.9766109899818897,-1.1081088336780667,-0.3653918667014688
1782968805081094100,11.08009423828125,0.47179625873863695,-1.1022161223776639,-0.6148940854661167
1782968805091020000,11.09002001953125,-0.1999924109905958,-1.0813795244455338,-0.441473016667366
1782968805100947000,11.099947021484375,-0.5686702405601739,-1.2148795017443597,0.05208521122001111
1782968805110873000,11.109873046875,-0.8803045789152383,-1.4999587183900176,0.36992315345555543
1782968805120799000,11.119799072265625,-1.3064204519748688,-1.7472006640724838,0.40751843235641716
1782968805130726100,11.12972607421875,-1.8189169698923826,-1.8321214655108748,-0.014289952767640352
1782968805140652000,11.139652099609375,-2.370554827108979,-1.8666510732308028,-0.346647272612527
1782968805150578000,11.149577880859376,-2.479219784489274,-2.179557915739715,-0.04913045306764543
1782968805160505000,11.159505126953125,-2.446630351051688,-2.4531390022933484,0.2878660708852112
1782968805170431000,11.169430908203125,-2.374914775884151,-2.5438015622541306,0.5371875993207097
1782968805180356900,11.17935693359375,-2.0946061346411704,-2.607153213702142,0.8893667870972305
1782968805190284000,11.189283935546875,-1.9078560670614242,-2.6604507963865993,1.2378028428226708
1782968805200210200,11.199210205078124,-1.8786855021566151,-2.7268261795699593,1.3708666206613183
1782968805210136000,11.209135986328125,-1.8307921166032552,-2.8814409872204063,1.4624413270309566
1782968805220063000,11.21906298828125,-1.7408721917033194,-3.078564857037365,1.7355398907646535
1782968805229989000,11.228989013671875,-1.6186352205663919,-3.0354885163769123,2.2680286647446453
1782968805239915000,11.2389150390625,-1.557612304326892,-3.020920185059309,2.6511364400744437
1782968805249842000,11.248842041015624,-1.2794979582577943,-3.0160698224186895,2.646270587603748
1782968805259768000,11.25876806640625,-0.8212468252688646,-3.0793659442871806,2.504700847226381
1782968805269694200,11.268694091796876,-0.5379407557755709,-3.2226123857051134,2.2809097736276684
1782968805279621000,11.27862109375,-0.7097837616026401,-3.3112910783722995,2.0354291385293006
1782968805289547000,11.288547119140626,-1.2708967186510562,-3.2315310206979513,1.8983831591866909
1782968805299473200,11.29847314453125,-1.7391121962934732,-2.9698923008725044,2.001343621315062
1782968805309400000,11.308400146484376,-1.7839152146160602,-2.796355058348179,2.4656655986502765
1782968805319326000,11.318325927734374,-1.4936258621066807,-2.574152276854217,2.6491502346932885
1782968805329252000,11.328252197265625,-0.981474212104082,-2.383180792187154,2.8236756114721295
1782968805339179000,11.338178955078124,-0.5586363378018141,-2.3374279257938264,2.995737228485942
1782968805349105200,11.348105224609375,-0.3017413053721189,-2.3703778631068766,2.943675032815337
1782968805359031000,11.358031005859376,-0.17951602467298505,-2.358927663809806,2.787221319299936
1782968805368958000,11.3679580078125,-0.2642547475427389,-2.204013434821367,2.591954767787456
1782968805378884000,11.377884033203125,-0.6993541375249623,-2.0307462414100765,2.5199016312286258
1782968805388810000,11.38781005859375,-1.3255208737641573,-1.8022535659916699,2.3067799818128347
1782968805398737000,11.39773681640625,-1.979142603161931,-1.4237076917499303,1.9385159937411545
1782968805408663000,11.4076630859375,-2.264675116533041,-0.8270299387149512,1.472785903173685
1782968805418589200,11.417589111328125,-2.145731926244497,-0.08510401251818984,1.0005930463328956
1782968805428515800,11.427515869140626,-1.5854717866331338,0.4767660465078428,0.667790686134249
1782968805438442000,11.43744189453125,-0.8753595237284898,1.032821172177419,0.6253014977119863
1782968805448368000,11.4473681640625,-0.2835544912964105,1.4436096391804516,0.8770463077716529
1782968805458295000,11.457294921875,-0.14289923541545868,1.4372589549794792,1.1367422229662536
1782968805468221000,11.467220947265625,-0.2855564787685871,0.919221973265335,1.5116025405630469
1782968805478147000,11.47714697265625,-0.30150106687545775,0.2890441016886383,1.9097724220767616
1782968805488074000,11.487073974609375,-0.24208909296393394,0.2016396667409688,1.4941972322538495
1782968805498000000,11.496999755859376,-0.25887889972329137,-0.12572203677371144,1.266079966019094
1782968805507926000,11.506926025390625,-0.12673194446861744,-0.3439125138863921,1.104653286396712
1782968805517853000,11.51685302734375,0.16418460002839563,0.06770933520086109,0.4112129760254174
1782968805527779000,11.526779052734375,0.4088075953841209,0.4482838657259941,0.08286635312661528
1782968805537705000,11.536705078125,0.45947862895727154,0.8000796802081167,0.06440466763228178
1782968805547631900,11.5466318359375,0.4254670537620783,1.0396598590910433,0.13692512944191693
1782968805557558000,11.55655810546875,0.4428466431081295,1.103369237935543,0.053387014533579344
1782968805567484000,11.56648388671875,0.3886252235770225,1.007136768887937,-0.1730124879978597
1782968805577410800,11.576410888671875,0.3039630730748176,0.8558015674300491,-0.2780123469993472
1782968805587337000,11.5863369140625,0.0611468348801136,0.919571005898714,-0.15577508360147474
1782968805597263000,11.59626318359375,-0.44250060614943504,1.1327347408905624,-0.04251154638454318
1782968805607190000,11.60618994140625,-0.8854542167633771,1.2800753197543322,-0.04757189851403236
1782968805617116000,11.616115966796874,-1.0353501791983841,1.4206208316504954,-0.11577522777691483
1782968805627042000,11.6260419921875,-0.9923018955886364,1.6550997418716549,-0.03580108896046877
1782968805636969200,11.63596923828125,-0.7071276941359043,1.9317299868628381,-0.017267068882286546
1782968805646894800,11.645894775390625,-0.3058563394755125,2.0734253994464873,-0.27885975760892034
1782968805656821000,11.655821044921876,-0.06147767426967621,2.1047765232607722,-0.7134495906338095
1782968805666748200,11.665748046875,-0.1479085880100727,1.6676684238046406,-0.6109823188498615
1782968805676674000,11.675674072265625,-0.2596393627017736,1.3073911967031657,-0.18984335741996763
1782968805686600000,11.685599853515624,-0.22761983810663222,1.5286214799031614,-0.21972879259586334
1782968805696527000,11.695527099609375,-0.28954057996869087,1.6983781809754668,-0.2596206580013037
1782968805706453000,11.705452880859376,-0.005180617508292198,1.672443236991018,0.003227291483432054
1782968805716378400,11.71537841796875,0.4319909025728702,1.7082206528149544,0.10998334650248288
1782968805726305500,11.725305419921876,0.8414730362176894,1.9128825169213115,-0.19247911275103688
1782968805736231400,11.7352314453125,1.0988292564183473,1.7936377133376895,-0.5309025277018546
1782968805746157300,11.7451572265625,1.2132213592737913,1.5721768362522124,-0.8157529040277004
1782968805756084500,11.75508447265625,1.2928402549117803,1.6381750566862523,-1.1381184797555208
1782968805766010400,11.76501025390625,1.3141887478888035,1.6274981798492372,-1.3672500375993548
1782968805775936300,11.774936279296876,1.4216332235634326,1.6255869394004343,-1.4849769839659333
