time,seconds_elapsed,z,y,x
1782968794059141400,0.058141357421875,-0.894561767578125,-0.2173004150390625,0.03692626953125
1782968794069067300,0.0680673828125,-0.9261932373046875,-0.20965576171875,0.056610107421875
1782968794078993400,0.077993408203125,-0.9876861572265625,-0.1829681396484375,0.0452728271484375
1782968794088920300,0.08792041015625,-1.0289764404296875,-0.15338134765625,0.0020751953125
1782968794098846500,0.097846435546875,-1.037811279296875,-0.141082763671875,-0.0392913818359375
1782968794108772400,0.1077724609375,-1.046905517578125,-0.1416473388671875,-0.0833740234375
1782968794118699300,0.11769921875,-1.061767578125,-0.1374664306640625,-0.1581268310546875
1782968794128625400,0.12762548828125,-1.059326171875,-0.134918212890625,-0.23223876953125
1782968794138551300,0.13755126953125,-1.03167724609375,-0.1323699951171875,-0.27691650390625
1782968794148478200,0.147478271484375,-0.9836883544921875,-0.12615966796875,-0.290191650390625
1782968794158404400,0.157404296875,-0.929901123046875,-0.1068115234375,-0.2749176025390625
1782968794168330500,0.16733056640625,-0.87677001953125,-0.0730438232421875,-0.2408447265625
1782968794178257200,0.177257080078125,-0.8436126708984375,-0.044647216796875,-0.1925201416015625
1782968794188183300,0.187183349609375,-0.842041015625,-0.026824951171875,-0.148101806640625
1782968794198109400,0.197109375,-0.8758544921875,-0.0062408447265625,-0.1133270263671875
1782968794208036400,0.207036376953125,-0.9265289306640625,0.01324462890625,-0.1073455810546875
1782968794217962200,0.216962158203125,-0.971038818359375,0.03106689453125,-0.122711181640625
1782968794227888400,0.226888427734375,-0.993438720703125,0.03955078125,-0.1370391845703125
1782968794237815300,0.236815185546875,-0.9892730712890625,0.033447265625,-0.1385040283203125
1782968794247741400,0.246741455078125,-0.99310302734375,0.020416259765625,-0.162139892578125
1782968794257667300,0.256667236328125,-0.9852752685546875,0.0054931640625,-0.209686279296875
1782968794267594200,0.26659423828125,-0.9503021240234375,-0.023681640625,-0.2391357421875
1782968794277520400,0.276520263671875,-0.9187774658203125,-0.051239013671875,-0.2236480712890625
1782968794287446300,0.2864462890625,-0.9127655029296875,-0.055572509765625,-0.161041259765625
1782968794297373200,0.296373291015625,-0.9327850341796875,-0.0231781005859375,-0.1077728271484375
1782968794307299300,0.30629931640625,-0.9363861083984375,0.0271453857421875,-0.0887908935546875
1782968794317225500,0.3162255859375,-0.9168243408203125,0.0604705810546875,-0.0938720703125
1782968794327152000,0.326152099609375,-0.8989105224609375,0.080596923828125,-0.1019744873046875
1782968794337078300,0.336078369140625,-0.89447021484375,0.0826263427734375,-0.1317291259765625
1782968794347004400,0.34600439453125,-0.8919219970703125,0.0767974853515625,-0.1788177490234375
1782968794356931300,0.355931396484375,-0.8835296630859375,0.069915771484375,-0.233123779296875
1782968794366857200,0.365857177734375,-0.8641815185546875,0.0798492431640625,-0.307769775390625
1782968794376783400,0.375783447265625,-0.8453216552734375,0.08673095703125,-0.362640380859375
1782968794386710500,0.38571044921875,-0.8343963623046875,0.0851593017578125,-0.373199462890625
1782968794396636200,0.39563623046875,-0.8499603271484375,0.0792388916015625,-0.3497467041015625
1782968794406562300,0.405562255859375,-0.895538330078125,0.0868682861328125,-0.3358917236328125
1782968794416489500,0.415489501953125,-0.9549560546875,0.1029815673828125,-0.3244171142578125
1782968794426415400,0.425415283203125,-1.016571044921875,0.1204071044921875,-0.2980194091796875
1782968794436341200,0.43534130859375,-1.07708740234375,0.1432342529296875,-0.2680511474609375
1782968794446268400,0.445268310546875,-1.098419189453125,0.15655517578125,-0.2386627197265625
1782968794456194300,0.4551943359375,-1.0745086669921875,0.18914794921875,-0.2520904541015625
1782968794466120200,0.4651201171875,-1.019683837890625,0.20355224609375,-0.2861480712890625
1782968794476047400,0.47504736328125,-0.952362060546875,0.165802001953125,-0.290771484375
1782968794485973200,0.48497314453125,-0.8818511962890625,0.1132049560546875,-0.2753143310546875
1782968794495899400,0.4948994140625,-0.8271331787109375,0.082244873046875,-0.2803955078125
1782968794505826300,0.504826416015625,-0.802032470703125,0.07000732421875,-0.2851104736328125
1782968794515752200,0.514752197265625,-0.8083343505859375,0.0575714111328125,-0.27423095703125
1782968794525679400,0.524679443359375,-0.8463592529296875,0.0484466552734375,-0.2587890625
1782968794535605500,0.53460546875,-0.9059906005859375,0.0553741455078125,-0.2445220947265625
1782968794545531400,0.544531494140625,-0.961700439453125,0.0718994140625,-0.2269439697265625
1782968794555457300,0.554457275390625,-0.9990997314453125,0.0871429443359375,-0.2013397216796875
1782968794565384400,0.564384521484375,-1.0170745849609375,0.0947265625,-0.1788330078125
1782968794575310300,0.574310302734375,-1.019500732421875,0.089385986328125,-0.1783447265625
1782968794585237200,0.5842373046875,-1.00946044921875,0.0600433349609375,-0.19091796875
1782968794595163400,0.594163330078125,-0.98211669921875,0.0142364501953125,-0.21875
1782968794605089500,0.604089599609375,-0.942169189453125,-0.0409698486328125,-0.2487945556640625
1782968794615015200,0.61401513671875,-0.9294281005859375,-0.1022491455078125,-0.27435302734375
1782968794624942300,0.6239423828125,-0.9452056884765625,-0.1385650634765625,-0.309600830078125
1782968794634868500,0.633868408203125,-0.9544525146484375,-0.159942626953125,-0.3113861083984375
1782968794644795400,0.64379541015625,-0.9775238037109375,-0.1653900146484375,-0.291046142578125
1782968794654721300,0.65372119140625,-1.0135040283203125,-0.1626739501953125,-0.265472412109375
1782968794664647400,0.6636474609375,-1.04010009765625,-0.1686553955078125,-0.23101806640625
1782968794674574300,0.67357421875,-1.0721893310546875,-0.1876068115234375,-0.1984710693359375
1782968794684500500,0.68350048828125,-1.112152099609375,-0.2037506103515625,-0.179656982421875
1782968794694426400,0.69342626953125,-1.151123046875,-0.218292236328125,-0.171600341796875
1782968794704353500,0.703353515625,-1.1877288818359375,-0.238433837890625,-0.161376953125
1782968794714279400,0.713279541015625,-1.206451416015625,-0.2617034912109375,-0.14642333984375
1782968794724205600,0.72320556640625,-1.1930084228515625,-0.2845001220703125,-0.138092041015625
1782968794734132500,0.733132568359375,-1.1578521728515625,-0.304779052734375,-0.1292724609375
1782968794744058400,0.743058349609375,-1.11224365234375,-0.320037841796875,-0.115966796875
1782968794753984500,0.752984619140625,-1.0646820068359375,-0.3420562744140625,-0.100189208984375
1782968794763911400,0.762911376953125,-1.02728271484375,-0.35931396484375,-0.08685302734375
1782968794773837600,0.772837646484375,-1.0032501220703125,-0.371368408203125,-0.072479248046875
1782968794783763500,0.782763427734375,-1.007049560546875,-0.3881378173828125,-0.05560302734375
1782968794793690400,0.7926904296875,-1.01641845703125,-0.393218994140625,-0.038238525390625
1782968794803616500,0.802616455078125,-1.016876220703125,-0.39697265625,-0.0144500732421875
1782968794813542400,0.81254248046875,-1.0044708251953125,-0.4292755126953125,-0.0056915283203125
1782968794823469300,0.82246923828125,-0.980010986328125,-0.4649810791015625,-0.0111846923828125
1782968794833395500,0.8323955078125,-0.9405059814453125,-0.4966583251953125,-0.0168609619140625
1782968794843321600,0.842321533203125,-0.889862060546875,-0.5355377197265625,0.0010528564453125
1782968794853248300,0.852248291015625,-0.8416900634765625,-0.6113128662109375,0.0179290771484375
1782968794863174400,0.86217431640625,-0.811798095703125,-0.676513671875,0.0016937255859375
1782968794873100500,0.8721005859375,-0.8166656494140625,-0.65081787109375,0.00225830078125
1782968794883027500,0.88202734375,-0.828399658203125,-0.632720947265625,0.0104522705078125
1782968794892953300,0.891953369140625,-0.8373260498046875,-0.634979248046875,0.044708251953125
1782968794902879500,0.90187939453125,-0.8485260009765625,-0.601715087890625,0.0771484375
1782968794912806400,0.911806396484375,-0.8897705078125,-0.5387420654296875,0.146820068359375
1782968794922732300,0.921732177734375,-0.9541778564453125,-0.5446929931640625,0.2480926513671875
1782968794932658400,0.931658447265625,-1.060760498046875,-0.516998291015625,0.3082733154296875
1782968794942585300,0.94158544921875,-1.17474365234375,-0.4971771240234375,0.2969970703125
1782968794952511500,0.951511474609375,-1.260528564453125,-0.4931488037109375,0.276702880859375
1782968794962437400,0.961437255859375,-1.2960968017578125,-0.475738525390625,0.2532958984375
1782968794972364500,0.971364501953125,-1.2666015625,-0.4738922119140625,0.2326812744140625
1782968794982290400,0.98129052734375,-1.177276611328125,-0.4729461669921875,0.209747314453125
1782968794992216600,0.991216552734375,-1.08221435546875,-0.457183837890625,0.183197021484375
1782968795002143500,1.0011435546875,-1.00921630859375,-0.4650421142578125,0.1450958251953125
1782968795012069400,1.0110693359375,-0.9591217041015625,-0.488677978515625,0.1085205078125
1782968795021995500,1.02099560546875,-0.9365692138671875,-0.5045166015625,0.07855224609375
1782968795031922700,1.030922607421875,-0.9531707763671875,-0.50408935546875,0.0547027587890625
1782968795041848300,1.040848388671875,-0.9990081787109375,-0.492340087890625,0.040679931640625
1782968795051774500,1.0507744140625,-1.036773681640625,-0.4561920166015625,0.0449066162109375
1782968795061701600,1.06070166015625,-1.044891357421875,-0.4058685302734375,0.0753631591796875
1782968795071627300,1.070627197265625,-1.0514373779296875,-0.368377685546875,0.1082916259765625
1782968795081553400,1.080553466796875,-1.0786895751953125,-0.3314666748046875,0.13470458984375
1782968795091480600,1.09048046875,-1.1107635498046875,-0.2816009521484375,0.1552276611328125
1782968795101406500,1.100406494140625,-1.1168060302734375,-0.2358245849609375,0.1441497802734375
1782968795111332400,1.110332275390625,-1.098419189453125,-0.206451416015625,0.117950439453125
1782968795121259500,1.120259521484375,-1.061676025390625,-0.209442138671875,0.0493621826171875
1782968795131185400,1.130185302734375,-1.0391387939453125,-0.1924591064453125,-0.0130157470703125
1782968795141111300,1.140111328125,-1.03546142578125,-0.188446044921875,-0.051910400390625
1782968795151038500,1.15003857421875,-1.0010833740234375,-0.1928253173828125,-0.096649169921875
1782968795160964600,1.159964599609375,-0.99053955078125,-0.20843505859375,-0.086029052734375
1782968795170890500,1.169890380859375,-1.023284912109375,-0.197998046875,-0.0281524658203125
1782968795180817400,1.1798173828125,-1.0591583251953125,-0.138916015625,0.0291900634765625
1782968795190743600,1.18974365234375,-1.0877838134765625,-0.0775146484375,0.042083740234375
1782968795200669400,1.19966943359375,-1.1088409423828125,-0.043121337890625,0.012969970703125
1782968795210596600,1.2095966796875,-1.1228179931640625,-0.02239990234375,-0.0421142578125
1782968795220522500,1.2195224609375,-1.1277008056640625,-0.0120086669921875,-0.11297607421875
1782968795230448400,1.229448486328125,-1.115325927734375,-0.01104736328125,-0.1790924072265625
1782968795240375600,1.23937548828125,-1.0931396484375,-0.0204620361328125,-0.2229766845703125
1782968795250301400,1.249301513671875,-1.061248779296875,-0.027435302734375,-0.2346343994140625
1782968795260227300,1.259227294921875,-1.0359039306640625,-0.0342559814453125,-0.2237701416015625
1782968795270154500,1.269154541015625,-1.0077667236328125,-0.030517578125,-0.21160888671875
1782968795280080600,1.27908056640625,-0.964080810546875,-0.0134429931640625,-0.204315185546875
1782968795290006300,1.28900634765625,-0.923828125,0.0048065185546875,-0.191650390625
1782968795299933400,1.298933349609375,-0.90789794921875,0.0244598388671875,-0.1720428466796875
1782968795309859600,1.308859619140625,-0.9127960205078125,0.0478668212890625,-0.1571807861328125
1782968795319785500,1.318785400390625,-0.9354248046875,0.0715179443359375,-0.1522979736328125
1782968795329712400,1.32871240234375,-0.9994659423828125,0.0941314697265625,-0.15216064453125
1782968795339638500,1.338638427734375,-1.0728912353515625,0.1024627685546875,-0.14105224609375
1782968795349564700,1.348564697265625,-1.1132659912109375,0.1123046875,-0.1208953857421875
1782968795359491600,1.35849169921875,-1.110748291015625,0.1218719482421875,-0.0902862548828125
1782968795369417500,1.36841748046875,-1.0909423828125,0.1266632080078125,-0.057220458984375
1782968795379343600,1.378343505859375,-1.0606842041015625,0.1322784423828125,-0.042388916015625
1782968795389270500,1.3882705078125,-1.0181121826171875,0.1316070556640625,-0.055450439453125
1782968795399196400,1.398196533203125,-0.979034423828125,0.117462158203125,-0.0756683349609375
1782968795409122600,1.40812255859375,-0.9520416259765625,0.0907745361328125,-0.1038055419921875
1782968795419049500,1.418049560546875,-0.921844482421875,0.0677337646484375,-0.141387939453125
1782968795428975600,1.4279755859375,-0.8800811767578125,0.046722412109375,-0.1711578369140625
1782968795438901500,1.437901611328125,-0.836151123046875,0.022552490234375,-0.201995849609375
1782968795448828400,1.447828369140625,-0.7967071533203125,0.0013275146484375,-0.244842529296875
1782968795458754600,1.457754638671875,-0.7708892822265625,-0.009979248046875,-0.2892303466796875
1782968795468680400,1.467680419921875,-0.7631378173828125,-0.007171630859375,-0.3298797607421875
1782968795478607400,1.477607421875,-0.7697601318359375,-0.001068115234375,-0.357269287109375
1782968795488533500,1.487533447265625,-0.7939910888671875,0.0060882568359375,-0.3728179931640625
1782968795498459600,1.497459716796875,-0.8426513671875,0.00469970703125,-0.372802734375
1782968795508385500,1.507385498046875,-0.89923095703125,0.0021209716796875,-0.3646087646484375
1782968795518312400,1.5173125,-0.9539337158203125,0.0116424560546875,-0.3433837890625
1782968795528238600,1.527238525390625,-1.023529052734375,0.03106689453125,-0.307281494140625
1782968795538165500,1.53716552734375,-1.073455810546875,0.060089111328125,-0.2788238525390625
1782968795548091400,1.54709130859375,-1.0870208740234375,0.0922393798828125,-0.26312255859375
1782968795558017500,1.557017578125,-1.063934326171875,0.107391357421875,-0.263336181640625
1782968795567944400,1.5669443359375,-1.002655029296875,0.0998077392578125,-0.2792205810546875
1782968795577870300,1.576870361328125,-0.9213714599609375,0.0671844482421875,-0.303253173828125
1782968795587796500,1.58679638671875,-0.8549346923828125,0.02880859375,-0.3255462646484375
1782968795597723400,1.596723388671875,-0.8045501708984375,-0.0035858154296875,-0.353912353515625
1782968795607649500,1.6066494140625,-0.77972412109375,-0.028289794921875,-0.3824005126953125
1782968795617575400,1.616575439453125,-0.7944793701171875,-0.0397796630859375,-0.4072113037109375
1782968795627501600,1.62650146484375,-0.84124755859375,-0.0374755859375,-0.4200439453125
1782968795637428500,1.636428466796875,-0.8985443115234375,-0.023101806640625,-0.419342041015625
1782968795647354400,1.646354248046875,-0.950653076171875,0.0022735595703125,-0.413665771484375
1782968795657281300,1.65628125,-0.995391845703125,0.0268096923828125,-0.4008636474609375
1782968795667207400,1.66620751953125,-1.03240966796875,0.0459747314453125,-0.3888092041015625
1782968795677133600,1.676133544921875,-1.0575408935546875,0.0601348876953125,-0.3671722412109375
1782968795687059500,1.6860595703125,-1.049468994140625,0.065032958984375,-0.341064453125
1782968795696986400,1.695986328125,-1.0110931396484375,0.0639190673828125,-0.3146820068359375
1782968795706912500,1.70591259765625,-0.96697998046875,0.05401611328125,-0.2795257568359375
1782968795716838700,1.715838623046875,-0.9280548095703125,0.0283355712890625,-0.2503814697265625
1782968795726765600,1.725765625,-0.8968505859375,0.0001678466796875,-0.23486328125
1782968795736691700,1.735691650390625,-0.8756103515625,-0.0282135009765625,-0.233551025390625
1782968795746618600,1.74561865234375,-0.85955810546875,-0.0567626953125,-0.2357330322265625
1782968795756544500,1.75554443359375,-0.8583984375,-0.0823516845703125,-0.2349853515625
1782968795766470700,1.765470703125,-0.87225341796875,-0.1109161376953125,-0.2267303466796875
1782968795776396500,1.775396484375,-0.8951873779296875,-0.1388397216796875,-0.21368408203125
1782968795786323500,1.785323486328125,-0.9226531982421875,-0.1605682373046875,-0.1993255615234375
1782968795796249600,1.79524951171875,-0.93865966796875,-0.1923980712890625,-0.1784210205078125
1782968795806175700,1.80517578125,-0.95587158203125,-0.2249298095703125,-0.157379150390625
1782968795816102400,1.815102294921875,-0.9780120849609375,-0.2546539306640625,-0.1433868408203125
1782968795826028500,1.825028564453125,-0.99993896484375,-0.2842254638671875,-0.1263427734375
1782968795835954700,1.83495458984375,-1.015380859375,-0.31646728515625,-0.1171112060546875
1782968795845881600,1.844881591796875,-1.0213470458984375,-0.3499298095703125,-0.1173858642578125
1782968795855807500,1.854807373046875,-1.022857666015625,-0.3863067626953125,-0.1171112060546875
1782968795865733600,1.864733642578125,-1.0311126708984375,-0.4299468994140625,-0.124908447265625
1782968795875660500,1.87466064453125,-1.04461669921875,-0.4660797119140625,-0.1374053955078125
1782968795885586400,1.88458642578125,-1.0780029296875,-0.4896240234375,-0.1400604248046875
1782968795895512600,1.8945126953125,-1.1147613525390625,-0.51116943359375,-0.128570556640625
1782968795905439500,1.904439453125,-1.134429931640625,-0.5293731689453125,-0.0982513427734375
1782968795915365600,1.91436572265625,-1.1268463134765625,-0.534423828125,-0.0517730712890625
1782968795925291500,1.92429150390625,-1.091827392578125,-0.5370635986328125,0.0030364990234375
1782968795935218700,1.93421875,-1.03350830078125,-0.537872314453125,0.044708251953125
1782968795945144600,1.94414453125,-0.964813232421875,-0.553863525390625,0.0736236572265625
1782968795955070500,1.954070556640625,-0.899261474609375,-0.5608978271484375,0.1089324951171875
1782968795964997600,1.96399755859375,-0.86370849609375,-0.5746307373046875,0.1387786865234375
1782968795974923500,1.973923583984375,-0.8328399658203125,-0.5499420166015625,0.176116943359375
1782968795984849700,1.983849609375,-0.825408935546875,-0.57269287109375,0.18475341796875
1782968795994776600,1.993776611328125,-0.870147705078125,-0.589996337890625,0.160858154296875
1782968796004702500,2.003702392578125,-0.9356842041015625,-0.564727783203125,0.16436767578125
1782968796014628600,2.013628662109375,-1.0226593017578125,-0.5571441650390625,0.1603240966796875
1782968796024555800,2.0235556640625,-1.1096649169921875,-0.5094146728515625,0.160888671875
1782968796034481400,2.0334814453125,-1.1662445068359375,-0.4720458984375,0.1718597412109375
1782968796044407600,2.043407470703125,-1.1916046142578125,-0.4686279296875,0.1834564208984375
1782968796054334700,2.053334716796875,-1.1746368408203125,-0.5012664794921875,0.172760009765625
1782968796064260600,2.063260498046875,-1.120758056640625,-0.516448974609375,0.1450347900390625
1782968796074186500,2.0731865234375,-1.0604400634765625,-0.5136871337890625,0.1235809326171875
1782968796084113700,2.08311376953125,-1.0106964111328125,-0.5148162841796875,0.10943603515625
1782968796094039600,2.09303955078125,-0.99261474609375,-0.5273895263671875,0.100006103515625
1782968796103965400,2.10296533203125,-0.994873046875,-0.527801513671875,0.083984375
1782968796113892600,2.112892578125,-1.0092010498046875,-0.5196075439453125,0.0625457763671875
1782968796123818800,2.12281884765625,-1.037506103515625,-0.50408935546875,0.074554443359375
1782968796133744400,2.132744384765625,-1.0820465087890625,-0.471832275390625,0.1092529296875
1782968796143671600,2.142671630859375,-1.1103973388671875,-0.4100799560546875,0.1416778564453125
1782968796153597700,2.15259765625,-1.119964599609375,-0.351043701171875,0.16180419921875
1782968796163523600,2.162523681640625,-1.1247711181640625,-0.3188018798828125,0.15435791015625
1782968796173450800,2.17245068359375,-1.137969970703125,-0.2934417724609375,0.1172943115234375
1782968796183376600,2.182376708984375,-1.125152587890625,-0.2801361083984375,0.04638671875
1782968796193302500,2.192302490234375,-1.0910491943359375,-0.280517578125,-0.023956298828125
1782968796203229700,2.202229736328125,-1.04864501953125,-0.290985107421875,-0.088531494140625
1782968796213155600,2.212155517578125,-1.0091400146484375,-0.298736572265625,-0.12310791015625
1782968796223081500,2.22208154296875,-1.006256103515625,-0.2690582275390625,-0.099945068359375
1782968796233008600,2.232008544921875,-1.02374267578125,-0.223388671875,-0.067718505859375
1782968796242934800,2.241934814453125,-1.0357666015625,-0.1748046875,-0.0627288818359375
1782968796252860700,2.251860595703125,-1.05224609375,-0.136505126953125,-0.0435028076171875
1782968796262787600,2.26178759765625,-1.0718231201171875,-0.0986175537109375,-0.0281524658203125
1782968796272713700,2.271713623046875,-1.0807342529296875,-0.0566253662109375,-0.0183258056640625
1782968796282639600,2.2816396484375,-1.066162109375,-0.0170135498046875,-0.02227783203125
1782968796292566500,2.29156640625,-1.028564453125,0.0015869140625,-0.03350830078125
1782968796302492700,2.30149267578125,-0.9740142822265625,-0.0086822509765625,-0.053985595703125
1782968796312418800,2.311418701171875,-0.9331817626953125,-0.035491943359375,-0.086578369140625
1782968796322345500,2.321345458984375,-0.920013427734375,-0.05621337890625,-0.1147918701171875
1782968796332271600,2.331271728515625,-0.9245147705078125,-0.0592803955078125,-0.13543701171875
1782968796342197800,2.34119775390625,-0.940673828125,-0.0467529296875,-0.1518402099609375
1782968796352124700,2.351124755859375,-0.973663330078125,-0.0261077880859375,-0.163818359375
1782968796362050600,2.361050537109375,-1.009613037109375,-0.0099334716796875,-0.162017822265625
1782968796371976700,2.370976806640625,-1.0301971435546875,-0.001617431640625,-0.15960693359375
1782968796381903600,2.380903564453125,-1.01702880859375,0.0048675537109375,-0.1568756103515625
1782968796391829500,2.39082958984375,-0.9744873046875,0.0142974853515625,-0.150543212890625
1782968796401755600,2.400755615234375,-0.9237823486328125,0.0139007568359375,-0.138336181640625
1782968796411682600,2.4106826171875,-0.8917694091796875,0.0051422119140625,-0.1208038330078125
1782968796421608700,2.420608642578125,-0.9022674560546875,0.0064239501953125,-0.103057861328125
1782968796431534600,2.43053466796875,-0.9380035400390625,0.0260162353515625,-0.0867156982421875
1782968796441461500,2.44046142578125,-0.96905517578125,0.053985595703125,-0.0758209228515625
1782968796451387600,2.4503876953125,-0.994537353515625,0.067626953125,-0.0755615234375
1782968796461313500,2.4603134765625,-1.0101470947265625,0.07086181640625,-0.0840301513671875
1782968796471240400,2.470240478515625,-1.008544921875,0.069000244140625,-0.0916595458984375
1782968796481166600,2.48016650390625,-0.991607666015625,0.066070556640625,-0.1066436767578125
1782968796491092700,2.4900927734375,-0.961181640625,0.0562286376953125,-0.1343536376953125
1782968796501019400,2.500019287109375,-0.926666259765625,0.0406646728515625,-0.1606597900390625
1782968796510945500,2.509945556640625,-0.901824951171875,0.0221405029296875,-0.187103271484375
1782968796520871700,2.51987158203125,-0.8961029052734375,0.01568603515625,-0.2164764404296875
1782968796530798600,2.529798583984375,-0.910980224609375,0.021331787109375,-0.2485504150390625
1782968796540724500,2.539724365234375,-0.9231719970703125,0.034942626953125,-0.2743377685546875
1782968796550650600,2.549650634765625,-0.9278564453125,0.0529632568359375,-0.29913330078125
1782968796560577500,2.55957763671875,-0.9236297607421875,0.0609130859375,-0.332550048828125
1782968796570503700,2.569503662109375,-0.9165802001953125,0.059326171875,-0.3616790771484375
1782968796580429600,2.5794296875,-0.9168548583984375,0.0507659912109375,-0.3770751953125
1782968796590356500,2.5893564453125,-0.9272003173828125,0.0379638671875,-0.3808441162109375
1782968796600282600,2.59928271484375,-0.94879150390625,0.0338287353515625,-0.3699798583984375
1782968796610208500,2.60920849609375,-0.967620849609375,0.0425262451171875,-0.3361968994140625
1782968796620135400,2.619135498046875,-0.97442626953125,0.0588531494140625,-0.2996063232421875
1782968796630061600,2.6290615234375,-0.952880859375,0.07464599609375,-0.279083251953125
1782968796639987700,2.63898779296875,-0.9116058349609375,0.081390380859375,-0.271270751953125
1782968796649914600,2.64891455078125,-0.869415283203125,0.07843017578125,-0.2733306884765625
1782968796659840500,2.658840576171875,-0.8479766845703125,0.068206787109375,-0.2816162109375
1782968796669766700,2.6687666015625,-0.84954833984375,0.0513153076171875,-0.300201416015625
1782968796679693800,2.67869384765625,-0.869049072265625,0.0355377197265625,-0.3253936767578125
1782968796689619500,2.688619384765625,-0.8993988037109375,0.0257720947265625,-0.3493194580078125
1782968796699545600,2.698545654296875,-0.931060791015625,0.01776123046875,-0.3669586181640625
1782968796709473000,2.70847314453125,-0.962860107421875,0.0116729736328125,-0.3787078857421875
1782968796719399000,2.71839892578125,-0.99334716796875,0.0059661865234375,-0.3812408447265625
1782968796729325000,2.728324951171875,-1.019012451171875,-0.001007080078125,-0.3784332275390625
1782968796739252000,2.738251953125,-1.037261962890625,-0.00775146484375,-0.363922119140625
1782968796749178000,2.74817822265625,-1.028839111328125,-0.0105133056640625,-0.3410797119140625
1782968796759104000,2.75810400390625,-0.9974212646484375,-0.01324462890625,-0.3101043701171875
1782968796769031200,2.76803125,-0.9569549560546875,-0.016204833984375,-0.2804718017578125
1782968796778957000,2.77795703125,-0.9228515625,-0.0294036865234375,-0.2491302490234375
1782968796788883200,2.78788330078125,-0.9008941650390625,-0.04656982421875,-0.2275543212890625
1782968796798810000,2.79781005859375,-0.876617431640625,-0.0654754638671875,-0.219085693359375
1782968796808736000,2.807736083984375,-0.860015869140625,-0.0895233154296875,-0.2110137939453125
1782968796818662100,2.817662109375,-0.8662872314453125,-0.11932373046875,-0.2113037109375
1782968796828589300,2.82758935546875,-0.89154052734375,-0.1448974609375,-0.2210693359375
1782968796838515000,2.837514892578125,-0.9344940185546875,-0.167388916015625,-0.222869873046875
1782968796848441000,2.847441162109375,-0.9886932373046875,-0.180908203125,-0.2124481201171875
1782968796858368300,2.8573681640625,-1.0419921875,-0.1892242431640625,-0.1917266845703125
1782968796868294000,2.8672939453125,-1.0782318115234375,-0.197784423828125,-0.1668853759765625
1782968796878220000,2.877219970703125,-1.0980224609375,-0.2095947265625,-0.145416259765625
1782968796888147200,2.887147216796875,-1.108154296875,-0.2278289794921875,-0.124847412109375
1782968796898073000,2.897072998046875,-1.1063079833984375,-0.254547119140625,-0.1091766357421875
1782968796907999000,2.9069990234375,-1.0904541015625,-0.2804107666015625,-0.090087890625
1782968796917926100,2.916926025390625,-1.07025146484375,-0.3118438720703125,-0.066864013671875
1782968796927852000,2.92685205078125,-1.053924560546875,-0.3378143310546875,-0.0446319580078125
1782968796937778000,2.93677783203125,-1.04241943359375,-0.3589630126953125,-0.0067596435546875
1782968796947705000,2.946705078125,-1.0325469970703125,-0.40557861328125,0.0255279541015625
1782968796957631200,2.95663134765625,-1.0193634033203125,-0.4632415771484375,0.0356903076171875
1782968796967557000,2.96655712890625,-1.014495849609375,-0.561920166015625,-0.0013275146484375
1782968796977484000,2.976484130859375,-0.995849609375,-0.6932373046875,-0.10760498046875
1782968796987410200,2.98641015625,-0.963592529296875,-0.78924560546875,-0.227874755859375
1782968796997336000,2.996336181640625,-0.8826904296875,-0.8022613525390625,-0.2801513671875
1782968797007263200,3.00626318359375,-0.8002471923828125,-0.7834625244140625,-0.1902313232421875
1782968797017189000,3.016189208984375,-0.751434326171875,-0.640380859375,-0.092010498046875
1782968797027115000,3.026114990234375,-0.7787628173828125,-0.4440765380859375,0.00152587890625
1782968797037042200,3.036042236328125,-0.908538818359375,-0.40966796875,0.1898651123046875
1782968797046968000,3.045968017578125,-1.0797576904296875,-0.4692230224609375,0.3824310302734375
1782968797056894000,3.05589404296875,-1.2355804443359375,-0.456329345703125,0.4749755859375
1782968797066821000,3.065821044921875,-1.331024169921875,-0.372589111328125,0.4475250244140625
1782968797076747300,3.075747314453125,-1.351348876953125,-0.3465118408203125,0.37847900390625
1782968797086673000,3.0856728515625,-1.307342529296875,-0.356658935546875,0.3409576416015625
1782968797096600000,3.09560009765625,-1.233917236328125,-0.3651885986328125,0.3070831298828125
1782968797106526200,3.105526123046875,-1.15191650390625,-0.37115478515625,0.2605743408203125
1782968797116452000,3.1154521484375,-1.0767974853515625,-0.388580322265625,0.2227325439453125
1782968797126379000,3.12537890625,-1.0088348388671875,-0.403106689453125,0.192352294921875
1782968797136305200,3.13530517578125,-0.9604339599609375,-0.415740966796875,0.155609130859375
1782968797146231300,3.145231201171875,-0.9420318603515625,-0.423858642578125,0.134674072265625
1782968797156158200,3.155158203125,-0.958984375,-0.417572021484375,0.1330413818359375
1782968797166084000,3.165083984375,-1.009063720703125,-0.3940582275390625,0.1522064208984375
1782968797176010200,3.17501025390625,-1.064849853515625,-0.351898193359375,0.1750030517578125
1782968797185937200,3.184937255859375,-1.1017608642578125,-0.30059814453125,0.1863555908203125
1782968797195863000,3.194863037109375,-1.119781494140625,-0.2593841552734375,0.1836090087890625
1782968797205789200,3.2047890625,-1.119964599609375,-0.231597900390625,0.17718505859375
1782968797215716000,3.214716064453125,-1.0987091064453125,-0.209686279296875,0.1664581298828125
1782968797225642200,3.224642333984375,-1.0750732421875,-0.1954345703125,0.152435302734375
1782968797235568000,3.234568115234375,-1.0467987060546875,-0.1813201904296875,0.1346893310546875
1782968797245495000,3.2444951171875,-1.014923095703125,-0.1688232421875,0.110321044921875
1782968797255421200,3.254421142578125,-0.9879150390625,-0.158294677734375,0.0860137939453125
1782968797265347000,3.26434716796875,-0.9545745849609375,-0.154693603515625,0.06591796875
1782968797275274000,3.27427392578125,-0.9208984375,-0.15460205078125,0.050537109375
1782968797285200100,3.2842001953125,-0.901458740234375,-0.1498260498046875,0.0385589599609375
1782968797295126300,3.294126220703125,-0.901580810546875,-0.136077880859375,0.0228424072265625
1782968797305053000,3.304052978515625,-0.92108154296875,-0.1138763427734375,-0.007293701171875
1782968797314979000,3.31397900390625,-0.9510650634765625,-0.0951690673828125,-0.050048828125
1782968797324905200,3.3239052734375,-0.985809326171875,-0.0885772705078125,-0.09722900390625
1782968797334832000,3.33383203125,-1.0220184326171875,-0.0898590087890625,-0.1448822021484375
1782968797344758000,3.343758056640625,-1.044219970703125,-0.094146728515625,-0.1929931640625
1782968797354684200,3.35368408203125,-1.0240020751953125,-0.0887908935546875,-0.230926513671875
1782968797364611000,3.363611083984375,-0.97540283203125,-0.08447265625,-0.2525177001953125
1782968797374537000,3.373536865234375,-0.93084716796875,-0.0807037353515625,-0.2537689208984375
1782968797384463000,3.383463134765625,-0.916748046875,-0.067108154296875,-0.222869873046875
1782968797394390000,3.39339013671875,-0.9525909423828125,-0.0313873291015625,-0.16278076171875
1782968797404316200,3.403316162109375,-1.0072021484375,0.0201263427734375,-0.10693359375
1782968797414242000,3.413241943359375,-1.0526580810546875,0.067779541015625,-0.0532379150390625
1782968797424169000,3.4231689453125,-1.0767974853515625,0.1050872802734375,-0.0181121826171875
1782968797434095000,3.43309521484375,-1.0765838623046875,0.1264495849609375,-0.008392333984375
1782968797444021000,3.44302099609375,-1.06451416015625,0.1353302001953125,-0.0199127197265625
1782968797453948000,3.452947998046875,-1.037384033203125,0.127197265625,-0.038482666015625
1782968797463874000,3.4628740234375,-0.990264892578125,0.1148834228515625,-0.0588226318359375
1782968797473800200,3.47280029296875,-0.9420318603515625,0.0990447998046875,-0.09320068359375
1782968797483726000,3.48272607421875,-0.899322509765625,0.0861968994140625,-0.1300048828125
1782968797493653000,3.492653076171875,-0.8695220947265625,0.076416015625,-0.1620941162109375
1782968797503579100,3.5025791015625,-0.85345458984375,0.0753173828125,-0.1864471435546875
1782968797513506000,3.512506103515625,-0.8544158935546875,0.077423095703125,-0.20166015625
1782968797523432000,3.522431884765625,-0.869049072265625,0.0919952392578125,-0.2109375
1782968797533358000,3.532358154296875,-0.884857177734375,0.11285400390625,-0.226287841796875
1782968797543285200,3.54228515625,-0.886383056640625,0.1227569580078125,-0.250701904296875
1782968797553211100,3.552211181640625,-0.889923095703125,0.1201019287109375,-0.282470703125
1782968797563137000,3.562136962890625,-0.918548583984375,0.1171112060546875,-0.30731201171875
1782968797573064200,3.572064208984375,-0.9888916015625,0.122406005859375,-0.3274078369140625
1782968797582990000,3.581989990234375,-1.0869903564453125,0.1363372802734375,-0.334136962890625
1782968797592916000,3.591916015625,-1.1623992919921875,0.1535797119140625,-0.3169097900390625
1782968797602842000,3.601842041015625,-1.1866455078125,0.169342041015625,-0.27349853515625
1782968797612769000,3.61176904296875,-1.1571807861328125,0.179962158203125,-0.2301177978515625
1782968797622695200,3.621695068359375,-1.08074951171875,0.1873931884765625,-0.21075439453125
1782968797632622000,3.6316220703125,-0.9797210693359375,0.1837005615234375,-0.2091064453125
1782968797642548000,3.6415478515625,-0.883392333984375,0.166290283203125,-0.2114105224609375
1782968797652474000,3.65147412109375,-0.8141326904296875,0.1444244384765625,-0.227752685546875
1782968797662401300,3.6614013671875,-0.773345947265625,0.1323089599609375,-0.265655517578125
1782968797672327200,3.6713271484375,-0.7677001953125,0.121673583984375,-0.32061767578125
1782968797682253000,3.681253173828125,-0.7929534912109375,0.111236572265625,-0.36932373046875
1782968797692179200,3.69117919921875,-0.83477783203125,0.0937042236328125,-0.4033355712890625
1782968797702106000,3.701106201171875,-0.874237060546875,0.086395263671875,-0.4168853759765625
1782968797712032500,3.711032470703125,-0.9091033935546875,0.0900115966796875,-0.407379150390625
1782968797721959700,3.720959716796875,-0.950714111328125,0.0970611572265625,-0.3817138671875
1782968797731885300,3.73088525390625,-0.990081787109375,0.1056365966796875,-0.360931396484375
1782968797741811500,3.7408115234375,-1.016510009765625,0.1097259521484375,-0.34619140625
1782968797751737600,3.750737548828125,-1.034637451171875,0.1074371337890625,-0.331329345703125
1782968797761664500,3.76066455078125,-1.04132080078125,0.104034423828125,-0.3089752197265625
1782968797771590400,3.77059033203125,-1.0373382568359375,0.1036376953125,-0.279144287109375
1782968797781516500,3.7805166015625,-1.0262908935546875,0.100128173828125,-0.2479095458984375
1782968797791443700,3.790443603515625,-1.0023651123046875,0.100830078125,-0.21807861328125
1782968797801369300,3.800369384765625,-0.96826171875,0.0953521728515625,-0.20025634765625
1782968797811295500,3.81029541015625,-0.9462127685546875,0.0830841064453125,-0.1981658935546875
1782968797821222700,3.82022265625,-0.949462890625,0.065948486328125,-0.209503173828125
1782968797831148500,3.8301484375,-0.973388671875,0.0428314208984375,-0.22137451171875
1782968797841075500,3.840075439453125,-1.010498046875,0.014556884765625,-0.231231689453125
1782968797851001600,3.850001708984375,-1.04791259765625,-0.017852783203125,-0.24560546875
1782968797860927500,3.859927490234375,-1.071319580078125,-0.048065185546875,-0.25653076171875
1782968797870853400,3.869853271484375,-1.0936431884765625,-0.069671630859375,-0.255279541015625
1782968797880780500,3.879780517578125,-1.10260009765625,-0.088104248046875,-0.2438201904296875
1782968797890706400,3.88970654296875,-1.0921478271484375,-0.106903076171875,-0.22314453125
1782968797900632600,3.899632568359375,-1.07916259765625,-0.1277313232421875,-0.1913604736328125
1782968797910559500,3.9095595703125,-1.0672454833984375,-0.1437225341796875,-0.1573333740234375
1782968797920485400,3.9194853515625,-1.0579681396484375,-0.162017822265625,-0.1263275146484375
1782968797930411500,3.92941162109375,-1.0479583740234375,-0.181671142578125,-0.100494384765625
1782968797940338700,3.939338623046875,-1.04052734375,-0.2033233642578125,-0.0813751220703125
1782968797950264600,3.9492646484375,-1.0306854248046875,-0.227020263671875,-0.0708465576171875
1782968797960190500,3.9591904296875,-1.00897216796875,-0.24774169921875,-0.060546875
1782968797970117600,3.96911767578125,-0.98736572265625,-0.283111572265625,-0.0539703369140625
1782968797980043500,3.97904345703125,-0.9680023193359375,-0.3169403076171875,-0.0448760986328125
1782968797989967600,3.988967529296875,-0.95306396484375,-0.334320068359375,-0.0359649658203125
1782968797999893500,3.9988935546875,-0.940673828125,-0.3634033203125,-0.0167694091796875
1782968798009820400,4.0088203125,-0.9356536865234375,-0.39166259765625,0.002105712890625
1782968798019746600,4.01874658203125,-0.92840576171875,-0.4115753173828125,0.0166778564453125
1782968798029672700,4.028672607421875,-0.9213409423828125,-0.4161834716796875,0.0423736572265625
1782968798039599400,4.038599365234375,-0.9293212890625,-0.416656494140625,0.0703277587890625
1782968798049525500,4.048525390625,-0.966766357421875,-0.41082763671875,0.0845947265625
1782968798059451600,4.05845166015625,-1.015716552734375,-0.3971099853515625,0.0963592529296875
1782968798069378600,4.068378662109375,-1.061676025390625,-0.3883056640625,0.10260009765625
1782968798079304400,4.078304443359375,-1.1044158935546875,-0.3837432861328125,0.105743408203125
1782968798089230600,4.088230712890625,-1.1409149169921875,-0.3809967041015625,0.103546142578125
1782968798099157500,4.098157470703125,-1.1656494140625,-0.3656005859375,0.105224609375
1782968798109083400,4.10808349609375,-1.1719970703125,-0.3558807373046875,0.1044158935546875
1782968798119009500,4.118009521484375,-1.1309051513671875,-0.3546905517578125,0.108673095703125
1782968798128936400,4.1279365234375,-1.071197509765625,-0.3553009033203125,0.121490478515625
1782968798138862600,4.137862548828125,-1.0079803466796875,-0.359893798828125,0.12200927734375
1782968798148788500,4.14778857421875,-0.98114013671875,-0.352691650390625,0.137542724609375
1782968798158715400,4.15771533203125,-0.966705322265625,-0.349395751953125,0.132843017578125
1782968798168641500,4.1676416015625,-0.9714813232421875,-0.3465423583984375,0.127777099609375
1782968798178567400,4.1775673828125,-0.9991607666015625,-0.3380584716796875,0.11865234375
1782968798188494300,4.187494384765625,-1.0197601318359375,-0.326751708984375,0.1048431396484375
1782968798198420500,4.19742041015625,-1.0361175537109375,-0.3086090087890625,0.102874755859375
1782968798208346600,4.2073466796875,-1.0521087646484375,-0.280731201171875,0.0974273681640625
1782968798218273300,4.217273193359375,-1.0743560791015625,-0.2567596435546875,0.0924835205078125
1782968798228199400,4.227199462890625,-1.0980072021484375,-0.245513916015625,0.081939697265625
1782968798238125600,4.23712548828125,-1.1095123291015625,-0.2350006103515625,0.079071044921875
1782968798248052500,4.247052490234375,-1.112548828125,-0.21343994140625,0.0808868408203125
1782968798257978400,4.256978271484375,-1.107818603515625,-0.176605224609375,0.0812835693359375
1782968798267904500,4.266904541015625,-1.0894775390625,-0.145050048828125,0.0830230712890625
1782968798277831700,4.276831787109375,-1.0625,-0.1251983642578125,0.08282470703125
1782968798287757300,4.28675732421875,-1.0391998291015625,-0.1174468994140625,0.0737457275390625
1782968798297683500,4.296683349609375,-1.0237274169921875,-0.1071014404296875,0.063629150390625
1782968798307610600,4.306610595703125,-1.0217437744140625,-0.096771240234375,0.0565948486328125
1782968798317536500,4.31653662109375,-1.030548095703125,-0.0799102783203125,0.055023193359375
1782968798327462400,4.32646240234375,-1.0468902587890625,-0.0565338134765625,0.0363616943359375
1782968798337389600,4.3363896484375,-1.0654754638671875,-0.040863037109375,-0.0048370361328125
1782968798347315500,4.3463154296875,-1.068817138671875,-0.0331878662109375,-0.05279541015625
1782968798357241300,4.356241455078125,-1.06182861328125,-0.0395355224609375,-0.0922698974609375
1782968798367168500,4.36616845703125,-1.0551910400390625,-0.051177978515625,-0.1267852783203125
1782968798377094400,4.376094482421875,-1.05572509765625,-0.0587615966796875,-0.160064697265625
1782968798387020500,4.3860205078125,-1.060272216796875,-0.061492919921875,-0.187408447265625
1782968798396947700,4.39594775390625,-1.0650787353515625,-0.0544586181640625,-0.2073211669921875
1782968798406873300,4.405873291015625,-1.065155029296875,-0.04345703125,-0.2111358642578125
1782968798416799500,4.415799560546875,-1.054473876953125,-0.035552978515625,-0.20294189453125
1782968798426726700,4.4257265625,-1.0319976806640625,-0.0296783447265625,-0.1890106201171875
1782968798436652500,4.435652587890625,-1.005584716796875,-0.0226287841796875,-0.1734466552734375
1782968798446578400,4.445578369140625,-0.9735870361328125,-0.00823974609375,-0.1497955322265625
1782968798456505600,4.455505615234375,-0.9510498046875,0.011383056640625,-0.1243896484375
1782968798466431700,4.465431640625,-0.9429168701171875,0.0338134765625,-0.1045684814453125
1782968798476357400,4.475357421875,-0.949005126953125,0.0511474609375,-0.0916290283203125
1782968798486284500,4.485284423828125,-0.966949462890625,0.0626220703125,-0.0816650390625
1782968798496210700,4.495210693359375,-0.9887237548828125,0.0711822509765625,-0.0790863037109375
1782968798506136300,4.50513623046875,-0.9981842041015625,0.08453369140625,-0.08233642578125
1782968798516063500,4.5150634765625,-0.984893798828125,0.102752685546875,-0.08636474609375
1782968798525989600,4.52498974609375,-0.9536895751953125,0.1087493896484375,-0.097442626953125
1782968798535915500,4.53491552734375,-0.91888427734375,0.1058502197265625,-0.11968994140625
1782968798545842400,4.544842529296875,-0.8893585205078125,0.100677490234375,-0.1466217041015625
1782968798555768600,4.5547685546875,-0.869049072265625,0.0965576171875,-0.1720428466796875
1782968798565694500,4.564694580078125,-0.8587188720703125,0.093048095703125,-0.1948089599609375
1782968798575621600,4.57462158203125,-0.863189697265625,0.0985565185546875,-0.2114715576171875
1782968798585547500,4.584547607421875,-0.8777008056640625,0.1199188232421875,-0.2254638671875
1782968798595473400,4.594473388671875,-0.8981781005859375,0.13836669921875,-0.234771728515625
1782968798605400600,4.604400634765625,-0.9249725341796875,0.1509246826171875,-0.2468109130859375
1782968798615326500,4.614326416015625,-0.95611572265625,0.1655120849609375,-0.2602691650390625
1782968798625252600,4.624252685546875,-0.999542236328125,0.176788330078125,-0.28076171875
1782968798635179500,4.634179443359375,-1.055206298828125,0.1848907470703125,-0.29779052734375
1782968798645105700,4.644105712890625,-1.114471435546875,0.19049072265625,-0.306121826171875
1782968798655031600,4.654031494140625,-1.1566619873046875,0.197113037109375,-0.2981414794921875
1782968798664958500,4.66395849609375,-1.170745849609375,0.212615966796875,-0.271728515625
1782968798674884600,4.673884521484375,-1.1445159912109375,0.23236083984375,-0.233306884765625
1782968798684810500,4.683810546875,-1.0795135498046875,0.2467498779296875,-0.2022857666015625
1782968798694737400,4.6937373046875,-0.9906463623046875,0.2404937744140625,-0.1829986572265625
1782968798704663600,4.70366357421875,-0.89971923828125,0.2215576171875,-0.17626953125
1782968798714589000,4.7135888671875,-0.8220977783203125,0.2004852294921875,-0.189056396484375
1782968798724515800,4.723515869140625,-0.769073486328125,0.1795806884765625,-0.2138671875
1782968798734441700,4.733441650390625,-0.749786376953125,0.158355712890625,-0.24578857421875
1782968798744367900,4.743367919921875,-0.7607574462890625,0.1393280029296875,-0.2721405029296875
1782968798754294800,4.753294677734375,-0.7958984375,0.1307220458984375,-0.2887115478515625
1782968798764221000,4.763220947265625,-0.8439483642578125,0.1314544677734375,-0.28558349609375
1782968798774146800,4.773146728515625,-0.9012603759765625,0.137786865234375,-0.274871826171875
1782968798784073700,4.78307373046875,-0.9480438232421875,0.145111083984375,-0.2652740478515625
1782968798794000000,4.792999755859375,-0.9842681884765625,0.1388092041015625,-0.2509765625
1782968798803925800,4.80292578125,-1.0089569091796875,0.126434326171875,-0.2334136962890625
1782968798813852700,4.812852783203125,-1.0173492431640625,0.1074981689453125,-0.2194061279296875
1782968798823778800,4.82277880859375,-1.0069580078125,0.079345703125,-0.20770263671875
1782968798833705000,4.832705078125,-0.9895782470703125,0.0505828857421875,-0.1925048828125
1782968798843631900,4.8426318359375,-0.973114013671875,0.0323333740234375,-0.1693572998046875
1782968798853557800,4.852557861328125,-0.9583892822265625,0.0052642822265625,-0.1429595947265625
1782968798863484000,4.86248388671875,-0.941070556640625,-0.032257080078125,-0.1106719970703125
1782968798873410800,4.872410888671875,-0.917572021484375,-0.07037353515625,-0.094390869140625
1782968798883336700,4.882336669921875,-0.9041900634765625,-0.101806640625,-0.09417724609375
1782968798893262800,4.892262939453125,-0.8999176025390625,-0.1353759765625,-0.1006011962890625
1782968798903190000,4.90218994140625,-0.9103546142578125,-0.1708221435546875,-0.1051025390625
1782968798913115600,4.91211572265625,-0.932373046875,-0.2055816650390625,-0.1069488525390625
1782968798923041800,4.922041748046875,-0.9667510986328125,-0.232757568359375,-0.1079864501953125
1782968798932969000,4.931968994140625,-0.9988250732421875,-0.248748779296875,-0.10308837890625
1782968798942894800,4.941894775390625,-1.0341033935546875,-0.2672576904296875,-0.0911865234375
1782968798952820700,4.95182080078125,-1.0744171142578125,-0.2725830078125,-0.064117431640625
1782968798962748000,4.961747802734375,-1.104583740234375,-0.2686004638671875,-0.0317840576171875
1782968798972673800,4.971673828125,-1.1126251220703125,-0.26922607421875,-0.0045623779296875
1782968798982599700,4.981599609375,-1.1023712158203125,-0.2805938720703125,0.0185394287109375
1782968798992526800,4.99152685546875,-1.08612060546875,-0.3064117431640625,0.02691650390625
1782968799002452700,5.00145263671875,-1.0734710693359375,-0.330169677734375,0.0326995849609375
1782968799012379000,5.01137890625,-1.066864013671875,-0.359405517578125,0.0392608642578125
1782968799022305800,5.021305908203125,-1.055999755859375,-0.382843017578125,0.0446624755859375
1782968799032231700,5.031231689453125,-1.05010986328125,-0.409210205078125,0.0443572998046875
1782968799042157800,5.04115771484375,-1.041778564453125,-0.4459228515625,0.0365447998046875
1782968799052085000,5.0510849609375,-1.0302734375,-0.4759063720703125,0.031646728515625
1782968799062011000,5.061010986328125,-1.0132904052734375,-0.4990234375,0.0191192626953125
1782968799071936800,5.070936767578125,-0.9864501953125,-0.53204345703125,0.0012359619140625
1782968799081864000,5.080864013671875,-0.9515838623046875,-0.5701751708984375,-0.006927490234375
1782968799091790000,5.0907900390625,-0.9189910888671875,-0.598541259765625,-0.020263671875
1782968799101715700,5.1007158203125,-0.8880462646484375,-0.608917236328125,-0.018096923828125
1782968799111643000,5.110642822265625,-0.8545684814453125,-0.5904388427734375,-0.007720947265625
1782968799121569000,5.120569091796875,-0.8868408203125,-0.5425262451171875,0.06805419921875
1782968799131494700,5.13049462890625,-0.95703125,-0.5062408447265625,0.1360931396484375
1782968799141421800,5.140421875,-1.035858154296875,-0.472259521484375,0.2076263427734375
1782968799151348000,5.150347900390625,-1.176177978515625,-0.4571990966796875,0.2855377197265625
1782968799161273900,5.16027392578125,-1.261444091796875,-0.4397125244140625,0.290618896484375
1782968799171200800,5.17020068359375,-1.2738494873046875,-0.4096221923828125,0.2830352783203125
1782968799181127000,5.180126953125,-1.216522216796875,-0.4006195068359375,0.2481231689453125
1782968799191052800,5.190052734375,-1.117889404296875,-0.4046173095703125,0.214080810546875
1782968799200980000,5.19997998046875,-1.0224609375,-0.4187164306640625,0.177734375
1782968799210905900,5.20990576171875,-0.9490814208984375,-0.436248779296875,0.144378662109375
1782968799220831700,5.219831787109375,-0.894744873046875,-0.4524993896484375,0.1119384765625
1782968799230759000,5.229759033203125,-0.8722686767578125,-0.461273193359375,0.076385498046875
1782968799240684800,5.239684814453125,-0.87762451171875,-0.45684814453125,0.0513916015625
1782968799250611000,5.24961083984375,-0.91717529296875,-0.43853759765625,0.05194091796875
1782968799260537900,5.259537841796875,-0.9833526611328125,-0.393096923828125,0.076019287109375
1782968799270464000,5.269464111328125,-1.03338623046875,-0.32916259765625,0.0974273681640625
1782968799280390000,5.279389892578125,-1.0579681396484375,-0.27435302734375,0.1067657470703125
1782968799290316800,5.28931689453125,-1.064788818359375,-0.2462921142578125,0.103240966796875
1782968799300243000,5.299242919921875,-1.054046630859375,-0.2316131591796875,0.07611083984375
1782968799310168800,5.3091689453125,-1.044281005859375,-0.22314453125,0.027618408203125
1782968799320095700,5.319095703125,-1.0467071533203125,-0.2108917236328125,-0.013214111328125
1782968799330022000,5.32902197265625,-1.06671142578125,-0.1851806640625,-0.0210418701171875
1782968799339948000,5.338947998046875,-1.0955352783203125,-0.142822265625,0.0074920654296875
1782968799349874700,5.348874755859375,-1.1124267578125,-0.0937347412109375,0.0299072265625
1782968799359800800,5.35880078125,-1.1016387939453125,-0.0566253662109375,0.0319976806640625
1782968799369727000,5.36872705078125,-1.0830841064453125,-0.026947021484375,0.024139404296875
1782968799379654000,5.37865380859375,-1.0665435791015625,-0.0011749267578125,0.0031280517578125
1782968799389579800,5.388579833984375,-1.0474853515625,0.018035888671875,-0.032623291015625
1782968799399506000,5.398505859375,-1.022216796875,0.03143310546875,-0.0828704833984375
1782968799409432800,5.408432861328125,-0.992523193359375,0.0374755859375,-0.13909912109375
1782968799419358700,5.418358642578125,-0.9686737060546875,0.03802490234375,-0.195892333984375
1782968799429284900,5.428284912109375,-0.9699859619140625,0.034820556640625,-0.2479705810546875
1782968799439211800,5.438211669921875,-1.0035858154296875,0.0489654541015625,-0.270233154296875
1782968799449138000,5.448137939453125,-1.052215576171875,0.0776214599609375,-0.2572174072265625
1782968799459063800,5.458063720703125,-1.0944671630859375,0.11468505859375,-0.2268218994140625
1782968799468990700,5.46799072265625,-1.1332855224609375,0.149810791015625,-0.191986083984375
1782968799478916900,5.477916748046875,-1.158538818359375,0.17572021484375,-0.156890869140625
1782968799488842800,5.4878427734375,-1.16082763671875,0.191070556640625,-0.115753173828125
1782968799498769700,5.497769775390625,-1.13348388671875,0.2001190185546875,-0.078643798828125
1782968799508695800,5.50769580078125,-1.0882720947265625,0.2038726806640625,-0.0475616455078125
1782968799518622000,5.5176220703125,-1.0312652587890625,0.2009735107421875,-0.0336151123046875
1782968799528548900,5.527548828125,-0.971435546875,0.19549560546875,-0.04156494140625
1782968799538474800,5.537474853515625,-0.9162139892578125,0.18023681640625,-0.0660400390625
1782968799548401000,5.54740087890625,-0.868988037109375,0.1615142822265625,-0.1017303466796875
1782968799558327800,5.557327880859375,-0.83782958984375,0.1412353515625,-0.14947509765625
1782968799568253700,5.567253662109375,-0.8352203369140625,0.1265106201171875,-0.1938934326171875
1782968799578179800,5.577179931640625,-0.858428955078125,0.1266937255859375,-0.2211761474609375
1782968799588106800,5.587106689453125,-0.9023895263671875,0.1472015380859375,-0.2348480224609375
1782968799598033000,5.597032958984375,-0.9391937255859375,0.17108154296875,-0.241180419921875
1782968799607958800,5.606958740234375,-0.9558868408203125,0.1887969970703125,-0.248138427734375
1782968799617886000,5.616885986328125,-0.949554443359375,0.1926727294921875,-0.263092041015625
1782968799627811800,5.626811767578125,-0.932586669921875,0.1890106201171875,-0.284027099609375
1782968799637737700,5.63673779296875,-0.9179840087890625,0.180206298828125,-0.3117828369140625
1782968799647665000,5.646664794921875,-0.9188232421875,0.16412353515625,-0.3359527587890625
1782968799657590800,5.6565908203125,-0.9462432861328125,0.150390625,-0.360931396484375
1782968799667517000,5.666516845703125,-1.000274658203125,0.148406982421875,-0.3725128173828125
1782968799677443800,5.67644384765625,-1.0630340576171875,0.15802001953125,-0.37042236328125
1782968799687369700,5.68636962890625,-1.11065673828125,0.1699371337890625,-0.3477020263671875
1782968799697296000,5.6962958984375,-1.132232666015625,0.1900482177734375,-0.3089141845703125
1782968799707223000,5.70622314453125,-1.1203765869140625,0.208099365234375,-0.2723541259765625
1782968799717148400,5.7161484375,-1.0584869384765625,0.2153778076171875,-0.237640380859375
1782968799727074300,5.72607421875,-0.9818267822265625,0.2067108154296875,-0.2186126708984375
1782968799737001500,5.73600146484375,-0.90557861328125,0.1918487548828125,-0.209564208984375
1782968799746927400,5.74592724609375,-0.8521881103515625,0.17462158203125,-0.210845947265625
1782968799756853200,5.755853271484375,-0.8373260498046875,0.1561737060546875,-0.2161407470703125
1782968799766780400,5.765780517578125,-0.8634185791015625,0.139251708984375,-0.2357330322265625
1782968799776706600,5.77570654296875,-0.9007415771484375,0.12548828125,-0.2674102783203125
1782968799786632200,5.785632080078125,-0.93023681640625,0.1090240478515625,-0.29571533203125
1782968799796559400,5.795559326171875,-0.95428466796875,0.089630126953125,-0.3253021240234375
1782968799806485500,5.805485595703125,-0.9759674072265625,0.06866455078125,-0.3431396484375
1782968799816411100,5.8154111328125,-0.994842529296875,0.0590667724609375,-0.33880615234375
1782968799826338300,5.82533837890625,-1.0029296875,0.06317138671875,-0.3178558349609375
1782968799836264400,5.835264404296875,-1.0002593994140625,0.0640106201171875,-0.2924957275390625
1782968799846190300,5.8451904296875,-0.9802398681640625,0.0584716796875,-0.2662506103515625
1782968799856117200,5.8551171875,-0.959442138671875,0.0412750244140625,-0.2465972900390625
1782968799866043400,5.86504345703125,-0.949493408203125,0.0208892822265625,-0.2378387451171875
1782968799875969500,5.874969482421875,-0.9417572021484375,-0.0013275146484375,-0.232391357421875
1782968799885896400,5.884896484375,-0.93914794921875,-0.0277557373046875,-0.2301025390625
1782968799895822300,5.894822265625,-0.9445953369140625,-0.0672760009765625,-0.2345733642578125
1782968799905748500,5.90474853515625,-0.96905517578125,-0.10614013671875,-0.245391845703125
1782968799915675400,5.91467529296875,-1.0068206787109375,-0.128997802734375,-0.26373291015625
1782968799925601300,5.924601318359375,-1.051025390625,-0.1394195556640625,-0.278594970703125
1782968799935527400,5.93452734375,-1.0989837646484375,-0.1414337158203125,-0.281402587890625
1782968799945454300,5.944454345703125,-1.137939453125,-0.148223876953125,-0.2768402099609375
1782968799955380500,5.95438037109375,-1.1524505615234375,-0.159912109375,-0.2669525146484375
1782968799965306400,5.964306396484375,-1.1461334228515625,-0.17401123046875,-0.251373291015625
1782968799975233300,5.9742333984375,-1.13043212890625,-0.1899566650390625,-0.2181854248046875
1782968799985159400,5.984159423828125,-1.10296630859375,-0.2157745361328125,-0.186492919921875
1782968799995085300,5.994085205078125,-1.06427001953125,-0.2383270263671875,-0.160247802734375
1782968800005012200,6.00401220703125,-1.021392822265625,-0.2635040283203125,-0.13287353515625
1782968800014938400,6.0139384765625,-0.9803619384765625,-0.2867279052734375,-0.115234375
1782968800024864500,6.023864501953125,-0.9433746337890625,-0.2992706298828125,-0.095977783203125
1782968800034791200,6.033791259765625,-0.9073333740234375,-0.31695556640625,-0.0709991455078125
1782968800044717300,6.04371728515625,-0.877105712890625,-0.3443756103515625,-0.0629730224609375
1782968800054643500,6.0536435546875,-0.863555908203125,-0.4082794189453125,-0.098114013671875
1782968800064570400,6.0635703125,-0.8600616455078125,-0.41851806640625,-0.1110382080078125
1782968800074496300,6.073496337890625,-0.8365936279296875,-0.442169189453125,-0.1174163818359375
1782968800084422400,6.08342236328125,-0.828125,-0.551483154296875,-0.16973876953125
1782968800094349300,6.093349365234375,-0.845733642578125,-0.57000732421875,-0.1958465576171875
1782968800104275200,6.103275146484375,-0.84136962890625,-0.5722503662109375,-0.1679534912109375
1782968800114201300,6.113201416015625,-0.8505401611328125,-0.58154296875,-0.1334991455078125
1782968800124128300,6.123128173828125,-0.85247802734375,-0.558013916015625,-0.0586395263671875
1782968800134054400,6.133054443359375,-0.863037109375,-0.50360107421875,0.0622406005859375
1782968800143980300,6.142980224609375,-0.884368896484375,-0.4471588134765625,0.192352294921875
1782968800153907200,6.1529072265625,-0.9253387451171875,-0.4199371337890625,0.298675537109375
1782968800163833300,6.162833251953125,-0.94244384765625,-0.4263458251953125,0.360565185546875
1782968800173759500,6.172759521484375,-0.9693603515625,-0.4345703125,0.4210052490234375
1782968800183686100,6.18268603515625,-0.98724365234375,-0.4506683349609375,0.4225921630859375
1782968800193612300,6.1926123046875,-0.98974609375,-0.440399169921875,0.42266845703125
1782968800203538400,6.202538330078125,-1.0229339599609375,-0.4023590087890625,0.4034271240234375
1782968800213465300,6.21246533203125,-1.0760040283203125,-0.3760223388671875,0.3528900146484375
1782968800223391200,6.22239111328125,-1.133575439453125,-0.374664306640625,0.2987060546875
1782968800233317400,6.2323173828125,-1.1686553955078125,-0.381805419921875,0.237030029296875
1782968800243244300,6.242244384765625,-1.1584930419921875,-0.401611328125,0.171875
1782968800253170200,6.252170166015625,-1.1260833740234375,-0.42333984375,0.1255035400390625
1782968800263096300,6.262096435546875,-1.0898895263671875,-0.4355010986328125,0.10101318359375
1782968800273023500,6.2720234375,-1.0669097900390625,-0.430084228515625,0.098785400390625
1782968800282949400,6.281949462890625,-1.044891357421875,-0.4106292724609375,0.1187286376953125
1782968800292875300,6.291875244140625,-1.027740478515625,-0.38983154296875,0.146697998046875
1782968800302802400,6.301802490234375,-1.010101318359375,-0.361968994140625,0.162200927734375
1782968800312728300,6.311728271484375,-0.993804931640625,-0.329803466796875,0.1680145263671875
1782968800322654200,6.321654296875,-0.9798583984375,-0.302276611328125,0.16168212890625
1782968800332581400,6.331581298828125,-0.9834136962890625,-0.2780609130859375,0.1576995849609375
1782968800342507300,6.34150732421875,-1.0009002685546875,-0.248291015625,0.1477203369140625
1782968800352433400,6.351433349609375,-1.01446533203125,-0.2136383056640625,0.1314239501953125
1782968800362360300,6.3613603515625,-1.0225372314453125,-0.177825927734375,0.1143035888671875
1782968800372286200,6.3712861328125,-1.0416107177734375,-0.1378631591796875,0.11248779296875
1782968800382212400,6.38121240234375,-1.0599212646484375,-0.087371826171875,0.10931396484375
1782968800392139500,6.391139404296875,-1.05621337890625,-0.0423126220703125,0.0905914306640625
1782968800402065200,6.401065185546875,-1.0316314697265625,-0.031402587890625,0.0535430908203125
1782968800411991300,6.4109912109375,-0.987091064453125,-0.0524444580078125,0.0004119873046875
1782968800421918500,6.42091845703125,-0.9484405517578125,-0.0883026123046875,-0.05902099609375
1782968800431844400,6.43084423828125,-0.939422607421875,-0.112945556640625,-0.113555908203125
1782968800441770200,6.440770263671875,-0.9591064453125,-0.11474609375,-0.1618499755859375
1782968800451697400,6.450697509765625,-1.001312255859375,-0.102752685546875,-0.2111358642578125
1782968800461623600,6.46062353515625,-1.0557403564453125,-0.0877532958984375,-0.261688232421875
1782968800471549200,6.470549072265625,-1.12408447265625,-0.0631103515625,-0.2916412353515625
1782968800481476400,6.480476318359375,-1.189971923828125,-0.0189971923828125,-0.2906494140625
1782968800491402500,6.490402587890625,-1.2256622314453125,0.0294952392578125,-0.2646942138671875
1782968800501328100,6.500328125,-1.230316162109375,0.069000244140625,-0.2365264892578125
1782968800511255300,6.51025537109375,-1.20989990234375,0.1019439697265625,-0.20782470703125
1782968800521181400,6.520181396484375,-1.1707611083984375,0.1270294189453125,-0.1833038330078125
1782968800531107300,6.530107421875,-1.1236419677734375,0.132293701171875,-0.15716552734375
1782968800541034500,6.540034423828125,-1.0920257568359375,0.1275177001953125,-0.1283416748046875
1782968800550960400,6.54996044921875,-1.075927734375,0.133819580078125,-0.10888671875
1782968800560886300,6.55988623046875,-1.076507568359375,0.14990234375,-0.101348876953125
1782968800570813400,6.5698134765625,-1.0742645263671875,0.1529388427734375,-0.0938873291015625
1782968800580739300,6.5797392578125,-1.0550689697265625,0.144134521484375,-0.0874786376953125
1782968800590665200,6.589665283203125,-1.028717041015625,0.1382293701171875,-0.0841827392578125
1782968800600592400,6.59959228515625,-0.9962615966796875,0.1470184326171875,-0.077728271484375
1782968800610518500,6.6095185546875,-0.9507598876953125,0.161163330078125,-0.071044921875
1782968800620444400,6.6194443359375,-0.8958587646484375,0.1654205322265625,-0.0746612548828125
1782968800630371300,6.629371337890625,-0.8437957763671875,0.1605072021484375,-0.0955810546875
1782968800640297500,6.63929736328125,-0.8036651611328125,0.152069091796875,-0.127777099609375
1782968800650223400,6.649223388671875,-0.7856292724609375,0.1425628662109375,-0.15899658203125
1782968800660150300,6.659150390625,-0.7869720458984375,0.1414642333984375,-0.1921234130859375
1782968800670076400,6.669076416015625,-0.8056488037109375,0.14080810546875,-0.2283477783203125
1782968800680002600,6.67900244140625,-0.8247833251953125,0.1369476318359375,-0.2623748779296875
1782968800689929200,6.68892919921875,-0.8435211181640625,0.1447601318359375,-0.28179931640625
1782968800699855400,6.69885546875,-0.873260498046875,0.166656494140625,-0.2891998291015625
1782968800709781500,6.708781494140625,-0.9140167236328125,0.1948089599609375,-0.28997802734375
1782968800719708700,6.718708740234375,-0.9607086181640625,0.21832275390625,-0.2857666015625
1782968800729634800,6.728634765625,-1.018096923828125,0.234832763671875,-0.2740325927734375
1782968800739560700,6.738560791015625,-1.0800323486328125,0.24591064453125,-0.2567291259765625
1782968800749487600,6.748487548828125,-1.1235504150390625,0.2629241943359375,-0.2277069091796875
1782968800759413800,6.758413818359375,-1.1529998779296875,0.275482177734375,-0.19970703125
1782968800769340000,6.76833984375,-1.16748046875,0.280364990234375,-0.1678466796875
1782968800779266800,6.778266845703125,-1.166473388671875,0.2852935791015625,-0.1383209228515625
1782968800789192700,6.788192626953125,-1.135986328125,0.2823486328125,-0.1248016357421875
1782968800799118800,6.798118896484375,-1.07427978515625,0.277740478515625,-0.124725341796875
1782968800809045800,6.808045654296875,-0.9923248291015625,0.2596282958984375,-0.1324310302734375
1782968800818971600,6.8179716796875,-0.905609130859375,0.2291259765625,-0.154022216796875
1782968800828897800,6.827897705078125,-0.833282470703125,0.191131591796875,-0.1831207275390625
1782968800838824700,6.83782470703125,-0.796295166015625,0.1492156982421875,-0.2258758544921875
1782968800848750800,6.847750732421875,-0.8023529052734375,0.10986328125,-0.26824951171875
1782968800858676700,6.8576767578125,-0.83905029296875,0.0848236083984375,-0.2916259765625
1782968800868603600,6.867603759765625,-0.90948486328125,0.0727386474609375,-0.3123779296875
1782968800878529800,6.87752978515625,-0.9741973876953125,0.063629150390625,-0.319244384765625
1782968800888455700,6.88745556640625,-1.0002288818359375,0.0516815185546875,-0.303375244140625
1782968800898382600,6.897382568359375,-0.9993438720703125,0.0277099609375,-0.2772369384765625
1782968800908308700,6.907308837890625,-0.9921112060546875,0.005828857421875,-0.2645263671875
1782968800918235000,6.91723486328125,-0.9876861572265625,-0.01690673828125,-0.256439208984375
1782968800928161500,6.92716162109375,-0.9991607666015625,-0.04595947265625,-0.2525634765625
1782968800938087700,6.937087646484375,-1.0111236572265625,-0.0836334228515625,-0.251251220703125
1782968800948013800,6.947013916015625,-1.0251312255859375,-0.127655029296875,-0.2547607421875
1782968800957940700,6.956940673828125,-1.04388427734375,-0.1722259521484375,-0.261993408203125
1782968800967866600,6.96686669921875,-1.0665130615234375,-0.2058868408203125,-0.265289306640625
1782968800977792800,6.976792724609375,-1.0989227294921875,-0.230560302734375,-0.276336669921875
1782968800987719700,6.9867197265625,-1.13531494140625,-0.2518463134765625,-0.2859344482421875
1782968800997645600,6.9966455078125,-1.165863037109375,-0.260955810546875,-0.27642822265625
1782968801007571700,7.00657177734375,-1.1811981201171875,-0.2602996826171875,-0.259521484375
1782968801017498600,7.01649853515625,-1.167633056640625,-0.2571563720703125,-0.2310333251953125
1782968801027424800,7.0264248046875,-1.1269378662109375,-0.26031494140625,-0.193145751953125
1782968801037350700,7.0363505859375,-1.0668792724609375,-0.2758941650390625,-0.1552886962890625
1782968801047277600,7.046277587890625,-1.0118865966796875,-0.2970733642578125,-0.11328125
1782968801057203700,7.05620361328125,-0.9752960205078125,-0.3254241943359375,-0.08331298828125
1782968801067129600,7.066129638671875,-0.9569091796875,-0.3566741943359375,-0.0774688720703125
1782968801077056800,7.076056884765625,-0.9402313232421875,-0.3838043212890625,-0.08221435546875
1782968801086982700,7.085982666015625,-0.9227142333984375,-0.403106689453125,-0.0768280029296875
1782968801096908800,7.09590869140625,-0.908355712890625,-0.429351806640625,-0.064788818359375
1782968801106835700,7.105835693359375,-0.89947509765625,-0.44970703125,-0.0514984130859375
1782968801116761600,7.11576171875,-0.888275146484375,-0.4724578857421875,-0.050384521484375
1782968801126687700,7.125687744140625,-0.8649749755859375,-0.504852294921875,-0.06414794921875
1782968801136615000,7.135614990234375,-0.8392486572265625,-0.576690673828125,-0.0775299072265625
1782968801146540500,7.14554052734375,-0.7989654541015625,-0.65155029296875,-0.1305389404296875
1782968801156466700,7.155466796875,-0.7413177490234375,-0.7779541015625,-0.21429443359375
1782968801166393900,7.165393798828125,-0.6881103515625,-0.8243255615234375,-0.2851409912109375
1782968801176319700,7.17531982421875,-0.6461639404296875,-0.7077789306640625,-0.2368927001953125
1782968801186245600,7.18524560546875,-0.6654815673828125,-0.5540313720703125,-0.041534423828125
1782968801196172800,7.1951728515625,-0.765228271484375,-0.467529296875,0.1668701171875
1782968801206098700,7.2050986328125,-0.8618621826171875,-0.4125213623046875,0.3559112548828125
1782968801216024600,7.215024658203125,-0.94573974609375,-0.400634765625,0.48553466796875
1782968801225951700,7.22495166015625,-1.0879058837890625,-0.38616943359375,0.54339599609375
1782968801235877600,7.234877685546875,-1.1598358154296875,-0.37493896484375,0.4966888427734375
1782968801245803800,7.2448037109375,-1.1472320556640625,-0.3782958984375,0.43084716796875
1782968801255730700,7.254730712890625,-1.08197021484375,-0.39923095703125,0.3729705810546875
1782968801265656800,7.26465673828125,-0.9931640625,-0.429107666015625,0.3201751708984375
1782968801275582700,7.274582763671875,-0.92724609375,-0.462799072265625,0.253997802734375
1782968801285510000,7.284510009765625,-0.8852386474609375,-0.4919586181640625,0.17840576171875
1782968801295435800,7.294435791015625,-0.8690643310546875,-0.5152130126953125,0.109619140625
1782968801305361700,7.304361572265625,-0.9012298583984375,-0.517730712890625,0.074188232421875
1782968801315288800,7.314288818359375,-0.9724578857421875,-0.4908447265625,0.082366943359375
1782968801325214700,7.324214599609375,-1.0501708984375,-0.440887451171875,0.109161376953125
1782968801335140600,7.334140625,-1.1243438720703125,-0.37982177734375,0.142303466796875
1782968801345067800,7.34406787109375,-1.1707305908203125,-0.3253021240234375,0.1673583984375
1782968801354994000,7.353993896484375,-1.183319091796875,-0.288970947265625,0.1633148193359375
1782968801364919600,7.36391943359375,-1.1578521728515625,-0.26654052734375,0.1378936767578125
1782968801374846700,7.3738466796875,-1.093719482421875,-0.260894775390625,0.1064910888671875
1782968801384772900,7.38377294921875,-1.01019287109375,-0.269683837890625,0.0693206787109375
1782968801394698500,7.393698486328125,-0.9315338134765625,-0.2733001708984375,0.0299835205078125
1782968801404625700,7.403625732421875,-0.8772430419921875,-0.278350830078125,-0.0128021240234375
1782968801414551800,7.4135517578125,-0.8618316650390625,-0.281158447265625,-0.0362091064453125
1782968801424477700,7.423477783203125,-0.886260986328125,-0.263641357421875,-0.0283050537109375
1782968801434404600,7.433404541015625,-0.9402008056640625,-0.222503662109375,-0.0051116943359375
1782968801444330800,7.443330810546875,-0.9961700439453125,-0.1820526123046875,0.00396728515625
1782968801454257000,7.4532568359375,-1.062530517578125,-0.1362457275390625,-0.0094757080078125
1782968801464183800,7.463183837890625,-1.1298065185546875,-0.0898895263671875,-0.03619384765625
1782968801474109700,7.473109619140625,-1.1929931640625,-0.0512542724609375,-0.071685791015625
1782968801484035800,7.483035888671875,-1.252532958984375,-0.0227813720703125,-0.1147308349609375
1782968801493962800,7.492962646484375,-1.2829437255859375,-0.00927734375,-0.1563568115234375
1782968801503888600,7.502888671875,-1.25469970703125,-0.00555419921875,-0.172332763671875
1782968801513814800,7.512814697265625,-1.171875,0.0017547607421875,-0.1644287109375
1782968801523741700,7.52274169921875,-1.0568084716796875,0.018890380859375,-0.1546478271484375
1782968801533667800,7.532667724609375,-0.9560089111328125,0.0353240966796875,-0.154449462890625
1782968801543594800,7.5425947265625,-0.9040069580078125,0.0426788330078125,-0.147674560546875
1782968801553520600,7.552520751953125,-0.922149658203125,0.0456695556640625,-0.11431884765625
1782968801563446800,7.56244677734375,-0.9863128662109375,0.0696258544921875,-0.0790863037109375
1782968801573372700,7.57237255859375,-1.0611724853515625,0.104644775390625,-0.06787109375
1782968801583299600,7.582299560546875,-1.115386962890625,0.13232421875,-0.06121826171875
1782968801593225700,7.592225830078125,-1.1319732666015625,0.1605072021484375,-0.0439453125
1782968801603152000,7.60215185546875,-1.1174774169921875,0.1798858642578125,-0.028350830078125
1782968801613078800,7.612078857421875,-1.0741729736328125,0.1918792724609375,-0.025848388671875
1782968801623004700,7.622004638671875,-1.01690673828125,0.1942596435546875,-0.0426483154296875
1782968801632931600,7.631931640625,-0.9685821533203125,0.1869354248046875,-0.072235107421875
1782968801642857700,7.641857666015625,-0.92913818359375,0.181427001953125,-0.1132659912109375
1782968801652783600,7.65178369140625,-0.89599609375,0.175018310546875,-0.1558685302734375
1782968801662709800,7.661709716796875,-0.882476806640625,0.1714019775390625,-0.1893157958984375
1782968801672636700,7.67163671875,-0.8934783935546875,0.1711578369140625,-0.221588134765625
1782968801682562800,7.681562744140625,-0.9165802001953125,0.18212890625,-0.25177001953125
1782968801692489700,7.69148974609375,-0.9426727294921875,0.1981658935546875,-0.2695465087890625
1782968801702415600,7.70141552734375,-0.9669189453125,0.218780517578125,-0.2720184326171875
1782968801712341800,7.711341796875,-0.996002197265625,0.2404022216796875,-0.2789459228515625
1782968801722268700,7.7212685546875,-1.022247314453125,0.25640869140625,-0.283203125
1782968801732194600,7.731194580078125,-1.039703369140625,0.2652435302734375,-0.273406982421875
1782968801742120700,7.74112060546875,-1.0387725830078125,0.2662811279296875,-0.251190185546875
1782968801752047600,7.751047607421875,-1.0247039794921875,0.271270751953125,-0.216064453125
1782968801761973500,7.760973388671875,-1.01214599609375,0.2720184326171875,-0.180450439453125
1782968801771899600,7.770899658203125,-1.0093231201171875,0.27008056640625,-0.1654815673828125
1782968801781826800,7.780826904296875,-1.0047760009765625,0.267852783203125,-0.168914794921875
1782968801791752700,7.790752685546875,-0.9950408935546875,0.2625732421875,-0.1760406494140625
1782968801801678600,7.8006787109375,-0.9914398193359375,0.25628662109375,-0.1916046142578125
1782968801811605800,7.810605712890625,-0.989898681640625,0.252593994140625,-0.2204742431640625
1782968801821531600,7.82053173828125,-0.9921875,0.24200439453125,-0.250823974609375
1782968801831457500,7.83045751953125,-0.9880828857421875,0.227081298828125,-0.270660400390625
1782968801841384700,7.840384765625,-0.9596710205078125,0.213134765625,-0.29718017578125
1782968801851310800,7.850310791015625,-0.922027587890625,0.192169189453125,-0.3261260986328125
1782968801861236500,7.860236572265625,-0.8878936767578125,0.16162109375,-0.338134765625
1782968801871163600,7.87016357421875,-0.854736328125,0.1506195068359375,-0.34381103515625
1782968801881089800,7.88008984375,-0.839935302734375,0.1355133056640625,-0.31744384765625
1782968801891015400,7.890015380859375,-0.867156982421875,0.1261138916015625,-0.269012451171875
1782968801900942600,7.899942626953125,-0.92236328125,0.1194000244140625,-0.2412872314453125
1782968801910868700,7.90986865234375,-0.972564697265625,0.1131591796875,-0.24383544921875
1782968801920794600,7.919794677734375,-0.993560791015625,0.0862884521484375,-0.2667694091796875
1782968801930721500,7.929721435546875,-0.9791717529296875,0.0349884033203125,-0.290130615234375
1782968801940647700,7.939647705078125,-0.951568603515625,-0.0217742919921875,-0.3020172119140625
1782968801950573600,7.949573486328125,-0.9423828125,-0.064605712890625,-0.3120574951171875
1782968801960500700,7.959500732421875,-0.9644622802734375,-0.12158203125,-0.321685791015625
1782968801970426600,7.969426513671875,-0.9930572509765625,-0.2062835693359375,-0.2688751220703125
1782968801980352800,7.979352783203125,-0.9991302490234375,-0.16778564453125,-0.373077392578125
1782968801990279700,7.98927978515625,-1.058624267578125,-0.1932220458984375,-0.4027557373046875
1782968802000205800,7.999205810546875,-1.102142333984375,-0.2413330078125,-0.3491363525390625
1782968802010131700,8.009131591796875,-1.1315765380859375,-0.2852325439453125,-0.2843170166015625
1782968802020058600,8.01905859375,-1.139434814453125,-0.2935333251953125,-0.2288055419921875
1782968802029984800,8.02898486328125,-1.1445159912109375,-0.305419921875,-0.16949462890625
1782968802039910700,8.03891064453125,-1.1331329345703125,-0.278564453125,-0.1205596923828125
1782968802049837600,8.048837646484374,-1.1172332763671875,-0.29071044921875,-0.0766754150390625
1782968802059763700,8.058763671875,-1.0931396484375,-0.3407135009765625,0.0096588134765625
1782968802069689900,8.06868994140625,-1.0507049560546875,-0.3525238037109375,0.0331268310546875
1782968802079616500,8.078616455078125,-1.00933837890625,-0.40435791015625,0.00640869140625
1782968802089542700,8.088542724609376,-0.97607421875,-0.4384613037109375,0.031707763671875
1782968802099468800,8.09846875,-0.9235687255859375,-0.476959228515625,0.0150299072265625
1782968802109395700,8.108395751953125,-0.879608154296875,-0.507293701171875,0.0047760009765625
1782968802119321600,8.118321533203124,-0.840484619140625,-0.5257415771484375,0.0009613037109375
1782968802129247700,8.128247802734375,-0.8041839599609375,-0.5414581298828125,0.0105438232421875
1782968802139174700,8.138174560546876,-0.76898193359375,-0.567718505859375,0.0223846435546875
1782968802149100500,8.1481005859375,-0.756866455078125,-0.5962677001953125,0.0371551513671875
1782968802159026700,8.158026611328125,-0.7626495361328125,-0.635650634765625,0.05206298828125
1782968802168953600,8.16795361328125,-0.762054443359375,-0.683624267578125,0.0743255615234375
1782968802178879700,8.177879638671875,-0.7512054443359375,-0.7478790283203125,0.1222076416015625
1782968802188805600,8.1878056640625,-0.762939453125,-0.8097381591796875,0.14764404296875
1782968802198732500,8.197732666015625,-0.75579833984375,-0.78387451171875,0.1231689453125
1782968802208658700,8.20765869140625,-0.763641357421875,-0.675323486328125,0.0633392333984375
1782968802218584600,8.21758447265625,-0.823455810546875,-0.6530609130859375,0.07330322265625
1782968802228511500,8.227511474609376,-0.9319915771484375,-0.647369384765625,0.0682220458984375
1782968802238437600,8.237437744140625,-1.0305328369140625,-0.6513824462890625,0.1338958740234375
1782968802248363800,8.24736376953125,-1.0832061767578125,-0.6391448974609375,0.1666259765625
1782968802258290400,8.25729052734375,-1.076416015625,-0.597137451171875,0.177886962890625
1782968802268216600,8.267216552734375,-1.0391082763671875,-0.568634033203125,0.184478759765625
1782968802278142700,8.277142822265626,-0.9879913330078125,-0.56884765625,0.1728973388671875
1782968802288069600,8.287069580078125,-0.963226318359375,-0.55303955078125,0.1595916748046875
1782968802297995500,8.29699560546875,-0.9612579345703125,-0.53460693359375,0.1184844970703125
1782968802307921700,8.306921630859375,-0.9714813232421875,-0.533935546875,0.0961151123046875
1782968802317848600,8.3168486328125,-0.9798431396484375,-0.4407196044921875,0.064361572265625
1782968802327774500,8.3267744140625,-1.0538787841796875,-0.4590301513671875,0.0833740234375
1782968802337700600,8.33670068359375,-1.120330810546875,-0.555267333984375,0.02862548828125
1782968802347627500,8.34662744140625,-1.1304473876953125,-0.4884185791015625,0.0039520263671875
1782968802357553700,8.3565537109375,-1.0966339111328125,-0.4325103759765625,0.0027923583984375
1782968802367479600,8.3664794921875,-1.0605316162109375,-0.3911895751953125,-0.013580322265625
1782968802377406700,8.37640673828125,-1.07275390625,-0.3528289794921875,-0.0142974853515625
1782968802387332600,8.38633251953125,-1.053466796875,-0.3397674560546875,-0.024200439453125
1782968802397259800,8.396259765625,-1.0361328125,-0.3168182373046875,-0.0527191162109375
1782968802407185700,8.406185546875,-1.0129547119140625,-0.31671142578125,-0.05694580078125
1782968802417112600,8.416112548828124,-0.9704742431640625,-0.3202056884765625,-0.032379150390625
1782968802427038700,8.426038818359375,-0.9192047119140625,-0.2927093505859375,-0.0193023681640625
1782968802436964900,8.43596484375,-0.8904571533203125,-0.2722625732421875,-0.0524444580078125
1782968802446891500,8.4458916015625,-0.8954925537109375,-0.306488037109375,-0.046783447265625
1782968802456817700,8.455817626953126,-0.973480224609375,-0.2703399658203125,-0.029632568359375
1782968802466743800,8.465743896484375,-1.056671142578125,-0.193817138671875,-0.0971832275390625
1782968802476670700,8.475670654296875,-1.1282501220703125,-0.1648101806640625,-0.1293487548828125
1782968802486596600,8.4855966796875,-1.1786041259765625,-0.1508331298828125,-0.1590423583984375
1782968802496522800,8.495522705078125,-1.2157135009765625,-0.1318206787109375,-0.216796875
1782968802506449700,8.50544970703125,-1.2783966064453125,-0.0898895263671875,-0.2842559814453125
1782968802516375600,8.51537548828125,-1.3136444091796875,-0.0661163330078125,-0.3175811767578125
1782968802526301700,8.5253017578125,-1.241241455078125,-0.10235595703125,-0.2801361083984375
1782968802536228600,8.535228515625,-1.141693115234375,-0.0901031494140625,-0.2572784423828125
1782968802546154800,8.54515478515625,-1.122283935546875,-0.060699462890625,-0.2099151611328125
1782968802556080600,8.55508056640625,-1.150390625,-0.0208740234375,-0.150634765625
1782968802566007600,8.565007568359375,-1.1751861572265625,0.0379486083984375,-0.1141815185546875
1782968802575933700,8.57493359375,-1.1780853271484375,0.0683746337890625,-0.094757080078125
1782968802585859600,8.584859619140625,-1.1424713134765625,0.0732879638671875,-0.0930633544921875
1782968802595786500,8.594786376953126,-1.076263427734375,0.0690155029296875,-0.093963623046875
1782968802605712600,8.604712646484375,-1.0062255859375,0.0636444091796875,-0.09539794921875
1782968802615638800,8.614638671875,-0.9420623779296875,0.05181884765625,-0.1100006103515625
1782968802625565400,8.6245654296875,-0.882354736328125,0.046722412109375,-0.1290130615234375
1782968802635491600,8.63449169921875,-0.84552001953125,0.050567626953125,-0.1384735107421875
1782968802645417700,8.644417724609376,-0.8537445068359375,0.0754547119140625,-0.1213226318359375
1782968802655344600,8.6543447265625,-0.896820068359375,0.10693359375,-0.09906005859375
1782968802665270500,8.6642705078125,-0.9440155029296875,0.13323974609375,-0.093841552734375
1782968802675196700,8.67419677734375,-0.970977783203125,0.1555633544921875,-0.1013641357421875
1782968802685123600,8.68412353515625,-0.9723052978515625,0.175445556640625,-0.11163330078125
1782968802695049500,8.694049560546874,-0.9594268798828125,0.182220458984375,-0.123504638671875
1782968802704976600,8.7039765625,-0.9496307373046875,0.1752471923828125,-0.10479736328125
1782968802714902500,8.713902587890624,-0.934417724609375,0.151763916015625,-0.0922393798828125
1782968802724828400,8.723828369140625,-0.8515777587890625,0.1272430419921875,-0.145538330078125
1782968802734755300,8.73375537109375,-0.84124755859375,0.2131195068359375,-0.3180694580078125
1782968802744681500,8.743681396484375,-0.86572265625,0.163665771484375,-0.322113037109375
1782968802754607400,8.753607421875,-0.8963165283203125,0.0994873046875,-0.223388671875
1782968802764534500,8.763534423828125,-0.943359375,0.147125244140625,-0.241912841796875
1782968802774460400,8.77346044921875,-1.0023956298828125,0.1593170166015625,-0.2045440673828125
1782968802784386300,8.78338623046875,-1.0535888671875,0.166046142578125,-0.17926025390625
1782968802794313500,8.7933134765625,-1.0800323486328125,0.16986083984375,-0.18389892578125
1782968802804239400,8.8032392578125,-1.0677337646484375,0.15728759765625,-0.1836700439453125
1782968802814165200,8.813165283203125,-1.007080078125,0.13458251953125,-0.2006378173828125
1782968802824092400,8.823092529296876,-0.927093505859375,0.099212646484375,-0.229705810546875
1782968802834018600,8.8330185546875,-0.862640380859375,0.058807373046875,-0.2537689208984375
1782968802843944200,8.842944091796875,-0.8253631591796875,0.0275726318359375,-0.2756805419921875
1782968802853871400,8.852871337890624,-0.8081817626953125,0.00335693359375,-0.2930145263671875
1782968802863797500,8.862797607421875,-0.8260040283203125,-0.0085601806640625,-0.30450439453125
1782968802873723400,8.872723388671876,-0.866455078125,-0.0152130126953125,-0.31109619140625
1782968802883650300,8.882650390625,-0.910186767578125,-0.0214080810546875,-0.31884765625
1782968802893576400,8.892576416015626,-0.946563720703125,-0.0360260009765625,-0.3242950439453125
1782968802903502600,8.902502685546875,-0.978668212890625,-0.04998779296875,-0.316162109375
1782968802913429500,8.912429443359375,-1.005096435546875,-0.0647125244140625,-0.3193206787109375
1782968802923355400,8.92235546875,-1.0101470947265625,-0.083526611328125,-0.31658935546875
1782968802933281500,8.932281494140625,-0.9871826171875,-0.106048583984375,-0.30950927734375
1782968802943208400,8.94220849609375,-0.9379119873046875,-0.141204833984375,-0.3090362548828125
1782968802953134300,8.95213427734375,-0.8719024658203125,-0.1852264404296875,-0.3107147216796875
1782968802963060500,8.962060546875,-0.8299102783203125,-0.23114013671875,-0.3099365234375
1782968802972987400,8.9719873046875,-0.8401031494140625,-0.258575439453125,-0.3009033203125
1782968802982913500,8.98191357421875,-0.8783111572265625,-0.2445526123046875,-0.2689208984375
1782968802992839400,8.99183935546875,-0.9645233154296875,-0.3076934814453125,-0.248077392578125
1782968803002766300,9.001766357421875,-1.0600128173828125,-0.3387451171875,-0.272064208984375
1782968803012692500,9.0116923828125,-1.0947723388671875,-0.3129425048828125,-0.221343994140625
1782968803022618400,9.021618408203125,-1.112548828125,-0.3199310302734375,-0.1739044189453125
1782968803032545300,9.031545166015626,-1.073211669921875,-0.3735809326171875,-0.121490478515625
1782968803042471400,9.041471435546875,-1.0633392333984375,-0.3145751953125,-0.2356719970703125
1782968803052397600,9.0513974609375,-1.0580596923828125,-0.3871917724609375,-0.2355499267578125
1782968803062324200,9.06132421875,-1.0258331298828125,-0.46405029296875,-0.230682373046875
1782968803072250400,9.07125048828125,-1.00341796875,-0.461029052734375,-0.254150390625
1782968803082176500,9.081176513671876,-1.02008056640625,-0.477264404296875,-0.2363433837890625
1782968803092103400,9.091103515625,-1.0192413330078125,-0.4937591552734375,-0.207000732421875
1782968803102029300,9.101029296875,-0.98468017578125,-0.497589111328125,-0.155914306640625
1782968803111955500,9.11095556640625,-0.960479736328125,-0.5081634521484375,-0.129791259765625
1782968803121882400,9.12088232421875,-0.9296417236328125,-0.522308349609375,-0.1290130615234375
1782968803131808300,9.130808349609374,-0.880828857421875,-0.5387420654296875,-0.1201171875
1782968803141734400,9.140734375,-0.8156280517578125,-0.5458984375,-0.090057373046875
1782968803151661300,9.150661376953124,-0.76312255859375,-0.5033111572265625,-0.0048675537109375
1782968803161587500,9.16058740234375,-0.754547119140625,-0.4945220947265625,-0.124420166015625
1782968803171513300,9.170513427734376,-0.785919189453125,-0.690277099609375,-0.1265106201171875
1782968803181440300,9.180440185546875,-0.7710723876953125,-0.735076904296875,0.0162200927734375
1782968803191366400,9.190366455078125,-0.807861328125,-0.6515045166015625,-0.0748748779296875
1782968803201292300,9.200292236328124,-0.8634033203125,-0.608795166015625,-0.043853759765625
1782968803211219200,9.21021923828125,-0.8690338134765625,-0.6190185546875,0.0205841064453125
1782968803221145300,9.220145263671874,-0.89495849609375,-0.589141845703125,0.006988525390625
1782968803231071500,9.230071533203125,-0.9170684814453125,-0.605377197265625,0.0108795166015625
1782968803240998100,9.239998046875,-0.933074951171875,-0.6265411376953125,0.0400848388671875
1782968803250924300,9.24992431640625,-0.9449920654296875,-0.607330322265625,0.05584716796875
1782968803260850400,9.259850341796875,-0.96185302734375,-0.586181640625,0.0566864013671875
1782968803270777300,9.26977734375,-1.0059814453125,-0.5933837890625,0.0695953369140625
1782968803280703200,9.279703125,-1.043701171875,-0.607757568359375,0.0658111572265625
1782968803290629400,9.28962939453125,-1.04412841796875,-0.609130859375,0.0357208251953125
1782968803300556500,9.299556640625,-1.00921630859375,-0.598419189453125,0.0367279052734375
1782968803310482400,9.309482421875,-0.9517974853515625,-0.57171630859375,0.07763671875
1782968803320408300,9.319408203125,-0.877227783203125,-0.5350799560546875,0.1344146728515625
1782968803330335500,9.32933544921875,-0.7832794189453125,-0.4715423583984375,0.2139739990234375
1782968803340261400,9.339261474609375,-0.7351837158203125,-0.33355712890625,0.24468994140625
1782968803350187300,9.349187255859375,-0.8032989501953125,-0.2994842529296875,0.1959228515625
1782968803360114400,9.359114501953124,-0.8796234130859375,-0.3945770263671875,0.1925048828125
1782968803370040300,9.369040283203125,-0.9776763916015625,-0.5200042724609375,0.1835479736328125
1782968803379966500,9.378966552734376,-1.1128692626953125,-0.62066650390625,0.0970001220703125
1782968803389893400,9.388893310546875,-1.206024169921875,-0.632293701171875,0.021270751953125
1782968803399819300,9.3988193359375,-1.2244720458984375,-0.579498291015625,0.0138092041015625
1782968803409745400,9.408745361328124,-1.16900634765625,-0.4786529541015625,0.0534515380859375
1782968803419672600,9.418672607421875,-1.1256256103515625,-0.4163970947265625,0.1085357666015625
1782968803429598200,9.42859814453125,-1.1090545654296875,-0.338775634765625,0.0851898193359375
1782968803439524400,9.4385244140625,-1.073974609375,-0.2719268798828125,0.06890869140625
1782968803449451500,9.448451416015626,-1.0618438720703125,-0.2205810546875,0.045623779296875
1782968803459377400,9.45837744140625,-1.0890045166015625,-0.1863555908203125,-0.0145263671875
1782968803469303300,9.46830322265625,-1.067535400390625,-0.2388916015625,-0.010101318359375
1782968803479230500,9.47823046875,-1.0238800048828125,-0.26129150390625,-0.0524749755859375
1782968803489156600,9.488156494140625,-0.9902191162109375,-0.262725830078125,-0.093414306640625
1782968803499082200,9.498082275390624,-0.99920654296875,-0.266571044921875,-0.1406097412109375
1782968803509009400,9.508009521484375,-1.0418243408203125,-0.279083251953125,-0.1904754638671875
1782968803518935600,9.517935546875,-1.0911865234375,-0.2611846923828125,-0.2778167724609375
1782968803528861200,9.527861083984375,-1.11981201171875,-0.226898193359375,-0.338592529296875
1782968803538788400,9.537788330078126,-1.1323699951171875,-0.2050018310546875,-0.351531982421875
1782968803548714500,9.547714599609375,-1.117950439453125,-0.1724853515625,-0.34197998046875
1782968803558640400,9.557640380859375,-1.0875244140625,-0.1396942138671875,-0.3160247802734375
1782968803568567300,9.5675673828125,-1.04901123046875,-0.09967041015625,-0.2817535400390625
1782968803578493400,9.577493408203125,-1.0117950439453125,-0.06036376953125,-0.2603759765625
1782968803588419300,9.58741943359375,-0.977020263671875,-0.038726806640625,-0.235321044921875
1782968803598346500,9.597346435546875,-0.9535064697265625,-0.0149688720703125,-0.2267913818359375
1782968803608272400,9.6072724609375,-0.951629638671875,-0.00201416015625,-0.205322265625
1782968803618198300,9.6171982421875,-0.966400146484375,-0.0055084228515625,-0.181884765625
1782968803628125400,9.62712548828125,-0.9800262451171875,0.006561279296875,-0.188720703125
1782968803638051300,9.63705126953125,-0.997344970703125,0.02301025390625,-0.197113037109375
1782968803647977500,9.6469775390625,-1.01220703125,0.04876708984375,-0.2194671630859375
1782968803657904400,9.656904296875,-1.002593994140625,0.044921875,-0.21905517578125
1782968803667830500,9.66683056640625,-1.01690673828125,0.0742034912109375,-0.2421875
1782968803677756400,9.67675634765625,-1.02301025390625,0.07232666015625,-0.231903076171875
1782968803687683300,9.686683349609375,-1.0249786376953125,0.0872802734375,-0.263824462890625
1782968803697609500,9.696609375,-1.0096893310546875,0.113616943359375,-0.2958526611328125
1782968803707535600,9.70653564453125,-1.005828857421875,0.098388671875,-0.291534423828125
1782968803717463000,9.716463134765625,-0.95989990234375,0.0873870849609375,-0.2843475341796875
1782968803727389200,9.72638916015625,-0.90924072265625,0.08856201171875,-0.294189453125
1782968803737315000,9.736315185546875,-0.872711181640625,0.0800018310546875,-0.306884765625
1782968803747242200,9.7462421875,-0.8248443603515625,0.0693206787109375,-0.3000335693359375
1782968803757168000,9.756168212890625,-0.8034210205078125,0.083465576171875,-0.31097412109375
1782968803767094000,9.766093994140626,-0.7957916259765625,0.0815277099609375,-0.3143768310546875
1782968803777021200,9.776021240234375,-0.8123016357421875,0.07208251953125,-0.3104705810546875
1782968803786947000,9.785947021484375,-0.8659515380859375,0.07366943359375,-0.3167724609375
1782968803796873200,9.795873291015624,-0.911529541015625,0.0673065185546875,-0.2957611083984375
1782968803806800100,9.805800048828125,-0.972747802734375,0.0825653076171875,-0.2779693603515625
1782968803816726300,9.815726318359374,-1.00750732421875,0.0959930419921875,-0.242706298828125
1782968803826652200,9.825652099609375,-1.0215301513671875,0.1129913330078125,-0.2076568603515625
1782968803836579000,9.8355791015625,-1.0198211669921875,0.1378936767578125,-0.2072296142578125
1782968803846505200,9.845505126953125,-0.940093994140625,0.135955810546875,-0.1844329833984375
1782968803856431000,9.85543115234375,-0.873199462890625,0.1295013427734375,-0.17742919921875
1782968803866358000,9.86535791015625,-0.818389892578125,0.1093597412109375,-0.167877197265625
1782968803876284200,9.8752841796875,-0.77423095703125,0.0739288330078125,-0.1806182861328125
1782968803886210300,9.885210205078126,-0.766998291015625,0.033203125,-0.2090911865234375
1782968803896137000,9.895136962890625,-0.7940673828125,-0.0019378662109375,-0.23150634765625
1782968803906063000,9.90506298828125,-0.8352508544921875,-0.0235443115234375,-0.248870849609375
1782968803915989200,9.9149892578125,-0.914642333984375,-0.0217437744140625,-0.273651123046875
1782968803925916200,9.924916259765626,-0.942779541015625,-0.0391082763671875,-0.274932861328125
1782968803935842000,9.934842041015624,-0.9070892333984375,-0.05224609375,-0.2725067138671875
1782968803945768200,9.944768310546875,-0.8947601318359375,-0.048583984375,-0.268524169921875
1782968803955695000,9.954695068359374,-0.8976287841796875,-0.06024169921875,-0.2502899169921875
1782968803965621000,9.96462109375,-0.8971710205078125,-0.08331298828125,-0.237060546875
1782968803975547100,9.974547119140626,-0.9051666259765625,-0.11138916015625,-0.25146484375
1782968803985474000,9.98447412109375,-0.9251556396484375,-0.1420135498046875,-0.267486572265625
1782968803995400200,9.994400146484375,-0.9562835693359375,-0.17022705078125,-0.2660369873046875
1782968804005326000,10.004326171875,-0.997314453125,-0.2017974853515625,-0.2717437744140625
1782968804015253000,10.0142529296875,-1.0403900146484375,-0.2458343505859375,-0.2740631103515625
1782968804025179100,10.02417919921875,-1.07965087890625,-0.2841796875,-0.2682647705078125
1782968804035106300,10.034106201171875,-1.1076507568359375,-0.3074188232421875,-0.273345947265625
1782968804045032000,10.044031982421876,-1.113311767578125,-0.3194732666015625,-0.2802276611328125
1782968804054958000,10.0539580078125,-1.0830841064453125,-0.365081787109375,-0.209564208984375
1782968804064885200,10.06388525390625,-1.0459747314453125,-0.3828582763671875,-0.182098388671875
1782968804074811000,10.073810791015624,-1.0083770751953125,-0.3834381103515625,-0.17083740234375
1782968804084737000,10.083737060546875,-1.00567626953125,-0.4138336181640625,-0.1328277587890625
1782968804094664200,10.093664306640624,-1.0054931640625,-0.4560394287109375,-0.091064453125
1782968804104590000,10.103590087890625,-0.9941253662109375,-0.48919677734375,-0.0582427978515625
1782968804114516000,10.113515869140626,-1.004669189453125,-0.5120391845703125,-0.0522613525390625
1782968804124443100,10.123443115234375,-1.014923095703125,-0.5226593017578125,-0.0575103759765625
1782968804134369000,10.133369140625,-1.008026123046875,-0.5545654296875,-0.0731201171875
1782968804144295000,10.143294921875,-0.9952545166015625,-0.6048126220703125,-0.1166839599609375
1782968804154222000,10.15322216796875,-0.9958953857421875,-0.685882568359375,-0.1946868896484375
1782968804164148000,10.16314794921875,-0.9856719970703125,-0.85888671875,-0.2952117919921875
1782968804174074000,10.17307421875,-0.9830322265625,-0.9683685302734375,-0.4587249755859375
1782968804184001300,10.183001220703124,-0.974273681640625,-0.9622344970703125,-0.5493011474609375
1782968804193927200,10.19292724609375,-0.947265625,-0.8370208740234375,-0.450469970703125
1782968804203853000,10.20285302734375,-0.9062347412109375,-0.6014556884765625,-0.2144622802734375
1782968804213780200,10.2127802734375,-0.918548583984375,-0.4248504638671875,0.04302978515625
1782968804223706000,10.2227060546875,-0.9662628173828125,-0.3619232177734375,0.2757720947265625
1782968804233632000,10.232632080078124,-1.016204833984375,-0.3137054443359375,0.4141082763671875
1782968804243559200,10.24255908203125,-1.046600341796875,-0.323089599609375,0.4160003662109375
1782968804253485300,10.2524853515625,-1.0302734375,-0.3472137451171875,0.332275390625
1782968804263411000,10.262410888671875,-0.99658203125,-0.3730010986328125,0.2523651123046875
1782968804273338000,10.272338134765626,-1.0301055908203125,-0.418121337890625,0.171478271484375
1782968804283264300,10.28226416015625,-1.0638275146484375,-0.466064453125,0.1139373779296875
1782968804293190000,10.29218994140625,-1.05560302734375,-0.4693603515625,0.0832977294921875
1782968804303117000,10.302116943359374,-1.0374908447265625,-0.419403076171875,0.0801849365234375
1782968804313043200,10.312043212890625,-1.031341552734375,-0.3671722412109375,0.093048095703125
1782968804322969000,10.321968994140626,-1.03936767578125,-0.33837890625,0.0891265869140625
1782968804332896000,10.33189599609375,-1.05596923828125,-0.3291473388671875,0.0791015625
1782968804342822100,10.341822265625,-1.060211181640625,-0.32489013671875,0.092041015625
1782968804352748000,10.351748046875,-1.051116943359375,-0.32586669921875,0.11041259765625
1782968804362675200,10.36167529296875,-1.02520751953125,-0.34014892578125,0.11114501953125
1782968804372601000,10.37160107421875,-0.98553466796875,-0.3564605712890625,0.1033935546875
1782968804382527200,10.38152734375,-0.9592132568359375,-0.3640289306640625,0.093902587890625
1782968804392454100,10.3914541015625,-0.951019287109375,-0.368316650390625,0.08062744140625
1782968804402380000,10.401380126953125,-0.9553070068359375,-0.368255615234375,0.07171630859375
1782968804412306200,10.41130615234375,-0.9547882080078125,-0.3578643798828125,0.0624237060546875
1782968804422233000,10.421233154296875,-0.9537506103515625,-0.345184326171875,0.0484161376953125
1782968804432159200,10.4311591796875,-0.94775390625,-0.327484130859375,0.0344085693359375
1782968804442085000,10.441085205078124,-0.9497833251953125,-0.3132476806640625,0.0178070068359375
1782968804452012000,10.451011962890625,-0.9725189208984375,-0.300384521484375,0.005157470703125
1782968804461938200,10.460938232421874,-1.016571044921875,-0.278564453125,0.002227783203125
1782968804471864000,10.470864013671875,-1.0440521240234375,-0.239776611328125,0.0054779052734375
1782968804481791000,10.480791015625,-1.0499420166015625,-0.2041168212890625,0.00506591796875
1782968804491717000,10.490717041015625,-1.04486083984375,-0.195587158203125,-0.0040435791015625
1782968804501643300,10.500643310546875,-1.0245819091796875,-0.197174072265625,-0.02874755859375
1782968804511570000,10.51056982421875,-0.9895172119140625,-0.19427490234375,-0.06854248046875
1782968804521496000,10.52049609375,-0.9521636962890625,-0.1783294677734375,-0.1203765869140625
1782968804531422200,10.530422119140624,-0.9538421630859375,-0.14373779296875,-0.188232421875
1782968804541349000,10.54034912109375,-0.9489593505859375,-0.169708251953125,-0.1759796142578125
1782968804551275000,10.55027490234375,-0.9635009765625,-0.1588592529296875,-0.21697998046875
1782968804561201200,10.560201171875,-0.989898681640625,-0.1406707763671875,-0.25909423828125
1782968804571128000,10.570128173828126,-1.038482666015625,-0.13470458984375,-0.2560577392578125
1782968804581054200,10.58005419921875,-1.1031494140625,-0.10638427734375,-0.2374725341796875
1782968804590980000,10.58997998046875,-1.1543426513671875,-0.0615081787109375,-0.215118408203125
1782968804600907000,10.599906982421874,-1.17938232421875,-0.015533447265625,-0.1739044189453125
1782968804610833200,10.609833251953125,-1.1766510009765625,0.028564453125,-0.1288604736328125
1782968804620759000,10.619759033203126,-1.1421356201171875,0.05670166015625,-0.0959320068359375
1782968804630686000,10.62968603515625,-1.085418701171875,0.0673065185546875,-0.0689239501953125
1782968804640612000,10.639612060546876,-1.019439697265625,0.075103759765625,-0.0442962646484375
1782968804650538200,10.649538330078125,-0.958221435546875,0.0794525146484375,-0.0321807861328125
1782968804660465000,10.65946484375,-0.9053192138671875,0.078094482421875,-0.04144287109375
1782968804670391000,10.66939111328125,-0.86138916015625,0.0681304931640625,-0.059173583984375
1782968804680317200,10.679317138671875,-0.84857177734375,0.0582275390625,-0.0868377685546875
1782968804690244000,10.689244140625,-0.8720550537109375,0.0542449951171875,-0.109161376953125
1782968804700170000,10.699169921875,-0.912353515625,0.05712890625,-0.119476318359375
1782968804710096100,10.70909619140625,-0.93414306640625,0.0586700439453125,-0.1232757568359375
1782968804720023000,10.71902294921875,-0.9501800537109375,0.09228515625,-0.1756439208984375
1782968804729949000,10.728948974609375,-0.951263427734375,0.0971221923828125,-0.19451904296875
1782968804739875000,10.738875,-0.942413330078125,0.0896453857421875,-0.21441650390625
1782968804749802200,10.74880224609375,-0.9137115478515625,0.078277587890625,-0.2368316650390625
1782968804759727900,10.758727783203126,-0.8835296630859375,0.07171630859375,-0.2637939453125
1782968804769654000,10.768654052734375,-0.8655853271484375,0.0668182373046875,-0.2787017822265625
1782968804779581200,10.778581298828126,-0.8807220458984375,0.0599365234375,-0.2819061279296875
1782968804789506800,10.7885068359375,-0.9333343505859375,0.056396484375,-0.2797088623046875
1782968804799433000,10.798432861328125,-1.0103759765625,0.059783935546875,-0.2751007080078125
1782968804809360100,10.808360107421874,-1.076171875,0.06829833984375,-0.255706787109375
1782968804819286000,10.8182861328125,-1.1095733642578125,0.0876922607421875,-0.2214813232421875
1782968804829212000,10.8282119140625,-1.0961761474609375,0.0975799560546875,-0.18621826171875
1782968804839139000,10.83813916015625,-1.0654144287109375,0.128448486328125,-0.217742919921875
1782968804849065000,10.84806494140625,-0.979034423828125,0.0927886962890625,-0.2174224853515625
1782968804858990800,10.857990966796875,-0.8985748291015625,0.060577392578125,-0.22613525390625
1782968804868918000,10.86791796875,-0.83428955078125,0.04583740234375,-0.2437896728515625
1782968804878844000,10.877843994140624,-0.7697906494140625,0.02679443359375,-0.2830657958984375
1782968804888770000,10.88777001953125,-0.717498779296875,0.0191497802734375,-0.3385467529296875
1782968804898697000,10.897697021484374,-0.72369384765625,-0.01324462890625,-0.3249053955078125
1782968804908623000,10.907623046875,-0.7684783935546875,-0.0438385009765625,-0.297088623046875
1782968804918549000,10.917549072265626,-0.802703857421875,-0.02178955078125,-0.314056396484375
1782968804928476200,10.92747607421875,-0.857696533203125,0.0091094970703125,-0.3196868896484375
1782968804938402000,10.937402099609375,-0.9471282958984375,-0.013031005859375,-0.2442626953125
1782968804948328000,10.947327880859374,-0.957366943359375,-0.0175628662109375,-0.27166748046875
1782968804958255000,10.957255126953125,-0.94146728515625,0.0079193115234375,-0.287261962890625
1782968804968181000,10.967180908203124,-0.9405975341796875,-0.0146942138671875,-0.261199951171875
1782968804978107000,10.97710693359375,-0.90374755859375,-0.0552978515625,-0.2398681640625
1782968804988034000,10.987033935546876,-0.8921356201171875,-0.075042724609375,-0.230743408203125
1782968804997960200,10.996960205078125,-0.95123291015625,-0.0769805908203125,-0.2803955078125
1782968805007885800,11.0068857421875,-1.0081634521484375,-0.090972900390625,-0.28082275390625
1782968805017813000,11.01681298828125,-1.0389251708984375,-0.1131134033203125,-0.253082275390625
1782968805027739100,11.0267392578125,-1.039520263671875,-0.1313018798828125,-0.2271728515625
1782968805037665000,11.0366650390625,-1.00830078125,-0.1472930908203125,-0.2020721435546875
1782968805047592000,11.046592041015625,-0.9550323486328125,-0.1677398681640625,-0.173553466796875
1782968805057518000,11.05651806640625,-0.9013824462890625,-0.1771697998046875,-0.152557373046875
1782968805067445000,11.066445068359375,-0.8867034912109375,-0.1921234130859375,-0.1398162841796875
1782968805077371100,11.07637109375,-0.92657470703125,-0.1810760498046875,-0.1616668701171875
1782968805087297000,11.086297119140625,-0.9977569580078125,-0.162353515625,-0.1576385498046875
1782968805097223200,11.09622314453125,-1.044921875,-0.156524658203125,-0.1103363037109375
1782968805107150000,11.106150146484374,-1.075531005859375,-0.16705322265625,-0.0711212158203125
1782968805117076000,11.116075927734375,-1.1148834228515625,-0.17938232421875,-0.0617218017578125
1782968805127003000,11.1260029296875,-1.16644287109375,-0.1793670654296875,-0.0904693603515625
1782968805136929000,11.135928955078125,-1.2234954833984375,-0.1655120849609375,-0.14263916015625
1782968805146855200,11.145855224609376,-1.2475738525390625,-0.1799468994140625,-0.1217193603515625
1782968805156781800,11.15578173828125,-1.2422943115234375,-0.200714111328125,-0.08709716796875
1782968805166708000,11.1657080078125,-1.2383270263671875,-0.2053985595703125,-0.06097412109375
1782968805176634000,11.175634033203124,-1.213226318359375,-0.205078125,-0.030609130859375
1782968805186561000,11.18556103515625,-1.1884765625,-0.2053680419921875,0.006683349609375
1782968805196487000,11.19548681640625,-1.18365478515625,-0.2064666748046875,0.0245208740234375
1782968805206413000,11.2054130859375,-1.1792449951171875,-0.2150421142578125,0.0308990478515625
1782968805216340000,11.215340087890626,-1.17108154296875,-0.2351531982421875,0.0509185791015625
1782968805226265900,11.225265869140625,-1.1572723388671875,-0.23358154296875,0.0975189208984375
1782968805236192000,11.23519189453125,-1.1509552001953125,-0.2313690185546875,0.141387939453125
1782968805246119000,11.245118896484374,-1.129974365234375,-0.23193359375,0.14666748046875
1782968805256045000,11.255045166015625,-1.083465576171875,-0.23681640625,0.130279541015625
1782968805265971000,11.264970947265626,-1.046539306640625,-0.2524566650390625,0.106781005859375
1782968805275897900,11.27489794921875,-1.0517425537109375,-0.266082763671875,0.0801849365234375
1782968805285824000,11.284823974609376,-1.1031646728515625,-0.2659149169921875,0.061737060546875
1782968805295750000,11.29475,-1.1569976806640625,-0.2450103759765625,0.062835693359375
1782968805305677000,11.304677001953126,-1.174407958984375,-0.22796630859375,0.1062469482421875
1782968805315603000,11.31460302734375,-1.1511688232421875,-0.2137298583984375,0.1341705322265625
1782968805325529000,11.324529052734375,-1.1037139892578125,-0.1970977783203125,0.150054931640625
1782968805335456000,11.3344560546875,-1.056121826171875,-0.194366455078125,0.170166015625
1782968805345382000,11.3443818359375,-1.027008056640625,-0.2023468017578125,0.171661376953125
1782968805355308000,11.35430810546875,-1.010498046875,-0.2086029052734375,0.1560211181640625
1782968805365235200,11.364235107421875,-1.01251220703125,-0.2012786865234375,0.134796142578125
1782968805375160800,11.374160888671875,-1.0474090576171875,-0.187713623046875,0.1230010986328125
1782968805385087000,11.3840869140625,-1.1077880859375,-0.1732330322265625,0.102996826171875
1782968805395014100,11.39401416015625,-1.176361083984375,-0.1492919921875,0.06622314453125
1782968805404940000,11.40393994140625,-1.21868896484375,-0.1071319580078125,0.0186767578125
1782968805414866000,11.413865966796875,-1.2139129638671875,-0.04931640625,-0.032745361328125
1782968805424793000,11.42379296875,-1.1682281494140625,-0.0045166015625,-0.0704498291015625
1782968805434719000,11.433718994140625,-1.0941162109375,0.0374298095703125,-0.084381103515625
1782968805444644900,11.443644775390625,-1.028106689453125,0.0725860595703125,-0.063232421875
1782968805454572000,11.453572021484375,-0.99920654296875,0.0752716064453125,-0.033203125
1782968805464498000,11.463497802734375,-1.013153076171875,0.0275115966796875,-0.0009307861328125
1782968805474424000,11.473424072265624,-1.0180511474609375,-0.0507049560546875,0.05419921875
1782968805484351000,11.48335107421875,-1.0119476318359375,-0.077911376953125,0.0332183837890625
1782968805494277000,11.493277099609376,-1.0126953125,-0.100921630859375,-0.002655029296875
1782968805504203000,11.503203125,-1.0043182373046875,-0.14910888671875,-0.0031890869140625
1782968805514130200,11.513130126953126,-0.9770965576171875,-0.12152099609375,-0.0666046142578125
1782968805524056000,11.52305615234375,-0.946014404296875,-0.0885467529296875,-0.1121063232421875
1782968805533982000,11.53298193359375,-0.936187744140625,-0.05902099609375,-0.120574951171875
1782968805543909000,11.5429091796875,-0.9376983642578125,-0.0384063720703125,-0.1154022216796875
1782968805553835000,11.5528349609375,-0.9347076416015625,-0.0337371826171875,-0.122528076171875
1782968805563761000,11.562760986328126,-0.9370880126953125,-0.0468292236328125,-0.147857666015625
1782968805573688000,11.57268798828125,-0.9433135986328125,-0.066925048828125,-0.1687469482421875
1782968805583614200,11.5826142578125,-0.9613037109375,-0.0723724365234375,-0.16534423828125
1782968805593539800,11.592539794921874,-1.00653076171875,-0.0548858642578125,-0.1576385498046875
1782968805603467000,11.602467041015625,-1.05517578125,-0.039947509765625,-0.160064697265625
1782968805613393200,11.61239306640625,-1.077056884765625,-0.0287933349609375,-0.170654296875
1782968805623318800,11.62231884765625,-1.0749359130859375,-0.009735107421875,-0.1714019775390625
1782968805633246000,11.632245849609374,-1.05218505859375,0.018646240234375,-0.1673431396484375
1782968805643172000,11.642172119140625,-1.0111083984375,0.0346527099609375,-0.1879119873046875
1782968805653098000,11.652097900390626,-0.979644775390625,0.041717529296875,-0.23260498046875
1782968805663025000,11.66202490234375,-0.9811248779296875,0.0106353759765625,-0.24139404296875
1782968805672951000,11.671950927734375,-0.996063232421875,-0.0393829345703125,-0.193695068359375
1782968805682877200,11.681877197265624,-0.9950103759765625,-0.02911376953125,-0.1834716796875
1782968805692804000,11.69180419921875,-0.9995269775390625,-0.008056640625,-0.1914215087890625
1782968805702730000,11.70172998046875,-0.9807891845703125,-0.010284423828125,-0.169189453125
1782968805712656100,11.71165625,-0.9358673095703125,-0.0167999267578125,-0.147979736328125
1782968805722582300,11.721582275390626,-0.891815185546875,0.00006103515625,-0.171112060546875
1782968805732508400,11.73150830078125,-0.860626220703125,-0.0045623779296875,-0.2071380615234375
1782968805742434600,11.7414345703125,-0.8452301025390625,-0.03643798828125,-0.2362518310546875
1782968805752361200,11.751361328125,-0.8352203369140625,-0.039031982421875,-0.2698516845703125
1782968805762287400,11.761287353515625,-0.8316802978515625,-0.040740966796875,-0.295135498046875
1782968805772213500,11.771213623046876,-0.8216400146484375,-0.0491943359375,-0.3114776611328125
