time,seconds_elapsed,z,y,x
1782968794059141400,0.058141357421875,1.4526350498199463,0.04303108900785446,1.1919057369232178
1782968794069067300,0.0680673828125,1.5132853984832764,-0.13384407758712769,1.270930528640747
1782968794078993400,0.077993408203125,1.5292733907699585,-0.2559066116809845,1.405006766319275
1782968794088920300,0.08792041015625,1.489031195640564,-0.390094518661499,1.523179054260254
1782968794098846500,0.097846435546875,1.443843126296997,-0.5421274304389954,1.5978609323501587
1782968794108772400,0.1077724609375,1.3949579000473022,-0.6162530779838562,1.658731460571289
1782968794118699300,0.11769921875,1.3288108110427856,-0.5464436411857605,1.7049514055252075
1782968794128625400,0.12762548828125,1.234847903251648,-0.3861439824104309,1.7022485733032227
1782968794138551300,0.13755126953125,1.1029822826385498,-0.22548958659172058,1.6222182512283325
1782968794148478200,0.147478271484375,0.9683290719985962,-0.09816518425941467,1.450047254562378
1782968794158404400,0.157404296875,0.8667087554931641,-0.0049521480686962605,1.2122461795806885
1782968794168330500,0.16733056640625,0.8083341121673584,0.013730193488299847,0.929341197013855
1782968794178257200,0.177257080078125,0.7951748967170715,-0.004774248693138361,0.6446788311004639
1782968794188183300,0.187183349609375,0.8254254460334778,-0.07370325177907944,0.4060409963130951
1782968794198109400,0.197109375,0.8852217197418213,-0.1479678899049759,0.2683725953102112
1782968794208036400,0.207036376953125,0.9520270824432373,-0.17743843793869019,0.24268853664398193
1782968794217962200,0.216962158203125,1.0076634883880615,-0.19612184166908264,0.2901279628276825
1782968794227888400,0.226888427734375,1.0914465188980103,-0.3473539650440216,0.3132452666759491
1782968794237815300,0.236815185546875,1.124347448348999,-0.37666019797325134,0.3414721190929413
1782968794247741400,0.246741455078125,1.1015406847000122,-0.25518515706062317,0.38504889607429504
1782968794257667300,0.256667236328125,1.015630841255188,-0.08105463534593582,0.40760132670402527
1782968794267594200,0.26659423828125,0.8572877645492554,0.02744733728468418,0.3868822157382965
1782968794277520400,0.276520263671875,0.6952940821647644,-0.0129336416721344,0.28899532556533813
1782968794287446300,0.2864462890625,0.5971494317054749,-0.049730803817510605,0.24153858423233032
1782968794297373200,0.296373291015625,0.5853284597396851,-0.053409162908792496,0.2596254348754883
1782968794307299300,0.30629931640625,0.6479740142822266,-0.034331873059272766,0.2984359562397003
1782968794317225500,0.3162255859375,0.7513786554336548,-0.03856603428721428,0.31882351636886597
1782968794327152000,0.326152099609375,0.840786874294281,-0.0725351870059967,0.31251955032348633
1782968794337078300,0.336078369140625,0.9016659259796143,-0.12330062687397003,0.29410111904144287
1782968794347004400,0.34600439453125,0.9477628469467163,-0.15442392230033875,0.24732616543769836
1782968794356931300,0.355931396484375,0.8911418914794922,-0.012535765767097473,0.2187243551015854
1782968794366857200,0.365857177734375,0.7250802516937256,0.13681137561798096,0.1597806066274643
1782968794376783400,0.375783447265625,0.5040130615234375,0.16820472478866577,0.05318625643849373
1782968794386710500,0.38571044921875,0.308392733335495,0.07168936729431152,-0.11211002618074417
1782968794396636200,0.39563623046875,0.14360323548316956,-0.010719489306211472,-0.2830396890640259
1782968794406562300,0.405562255859375,-0.007150321267545223,-0.0175038930028677,-0.4289915859699249
1782968794416489500,0.415489501953125,-0.13624732196331024,0.057495784014463425,-0.5337502360343933
1782968794426415400,0.425415283203125,-0.21835044026374817,0.18736030161380768,-0.5635994672775269
1782968794436341200,0.43534130859375,-0.1863538920879364,0.25085699558258057,-0.5572201013565063
1782968794446268400,0.445268310546875,-0.15019136667251587,0.4387637674808502,-0.48813530802726746
1782968794456194300,0.4551943359375,-0.16072683036327362,0.6863930225372314,-0.37598562240600586
1782968794466120200,0.4651201171875,-0.22551408410072327,0.8155616521835327,-0.2678660750389099
1782968794476047400,0.47504736328125,-0.276159405708313,0.737231433391571,-0.20895427465438843
1782968794485973200,0.48497314453125,-0.3505588173866272,0.5834006071090698,-0.2187027782201767
1782968794495899400,0.4948994140625,-0.4589396119117737,0.4106658399105072,-0.2726230025291443
1782968794505826300,0.504826416015625,-0.5723966956138611,0.23932230472564697,-0.3684033155441284
1782968794515752200,0.514752197265625,-0.6769942045211792,0.12078793346881866,-0.4809271991252899
1782968794525679400,0.524679443359375,-0.7745785117149353,0.07454507052898407,-0.5761394500732422
1782968794535605500,0.53460546875,-0.8431844711303711,0.09939156472682953,-0.6183127760887146
1782968794545531400,0.544531494140625,-0.8730302453041077,0.13370533287525177,-0.608573853969574
1782968794555457300,0.554457275390625,-0.8417106866836548,0.1713176965713501,-0.5582646131515503
1782968794565384400,0.564384521484375,-0.7709465026855469,0.19471755623817444,-0.47504615783691406
1782968794575310300,0.574310302734375,-0.6855897903442383,0.16521398723125458,-0.37661013007164
1782968794585237200,0.5842373046875,-0.6287353038787842,0.10597703605890274,-0.27425020933151245
1782968794595163400,0.594163330078125,-0.6253944039344788,0.0003475425182841718,-0.2206524759531021
1782968794605089500,0.604089599609375,-0.6620905995368958,-0.17603442072868347,-0.2559340298175812
1782968794615015200,0.61401513671875,-0.7912312746047974,-0.1624658703804016,-0.28773778676986694
1782968794624942300,0.6239423828125,-0.9453002214431763,-0.15029416978359222,-0.35828837752342224
1782968794634868500,0.633868408203125,-1.0797594785690308,-0.15838484466075897,-0.4716404974460602
1782968794644795400,0.64379541015625,-1.1751786470413208,-0.12861976027488708,-0.5623778700828552
1782968794654721300,0.65372119140625,-1.245522379875183,-0.12922562658786774,-0.6435678005218506
1782968794664647400,0.6636474609375,-1.2912203073501587,-0.1553134173154831,-0.7209733724594116
1782968794674574300,0.67357421875,-1.3033432960510254,-0.1789521723985672,-0.7902927994728088
1782968794684500500,0.68350048828125,-1.2992827892303467,-0.19535590708255768,-0.8281147480010986
1782968794694426400,0.69342626953125,-1.2754323482513428,-0.23243483901023865,-0.8228374123573303
1782968794704353500,0.703353515625,-1.2534985542297363,-0.276374876499176,-0.7672221064567566
1782968794714279400,0.713279541015625,-1.2244032621383667,-0.32340043783187866,-0.6814600229263306
1782968794724205600,0.72320556640625,-1.2019578218460083,-0.36769625544548035,-0.6086114048957825
1782968794734132500,0.733132568359375,-1.1810336112976074,-0.41975918412208557,-0.5740488767623901
1782968794744058400,0.743058349609375,-1.1606208086013794,-0.47278910875320435,-0.5807635188102722
1782968794753984500,0.752984619140625,-1.1405421495437622,-0.5123040676116943,-0.6168704032897949
1782968794763911400,0.762911376953125,-1.1207457780838013,-0.526318371295929,-0.688227117061615
1782968794773837600,0.772837646484375,-1.1031734943389893,-0.5162082314491272,-0.7439261078834534
1782968794783763500,0.782763427734375,-1.087062120437622,-0.4696282148361206,-0.7608528733253479
1782968794793690400,0.7926904296875,-1.0496615171432495,-0.39352813363075256,-0.7238711714744568
1782968794803616500,0.802616455078125,-0.9983711242675781,-0.3104420304298401,-0.6359772682189941
1782968794813542400,0.81254248046875,-0.9737382531166077,-0.23561705648899078,-0.5432044267654419
1782968794823469300,0.82246923828125,-0.9735978841781616,-0.15031467378139496,-0.44630399346351624
1782968794833395500,0.8323955078125,-0.9716223478317261,-0.09358055144548416,-0.37832972407341003
1782968794843321600,0.842321533203125,-0.972741425037384,-0.08159100264310837,-0.34157252311706543
1782968794853248300,0.852248291015625,-1.0236074924468994,-0.1354246735572815,-0.32780584692955017
1782968794863174400,0.86217431640625,-1.021091341972351,-0.24516554176807404,-0.31298187375068665
1782968794873100500,0.8721005859375,-0.9889877438545227,-0.24652349948883057,-0.33799776434898376
1782968794883027500,0.88202734375,-0.8664115071296692,-0.13430054485797882,-0.4652462601661682
1782968794892953300,0.891953369140625,-0.7486987113952637,0.23582184314727783,-0.6739563345909119
1782968794902879500,0.90187939453125,-0.620607316493988,0.6692667603492737,-0.8971028327941895
1782968794912806400,0.911806396484375,-0.45275869965553284,0.949291467666626,-1.1406604051589966
1782968794922732300,0.921732177734375,-0.1922442764043808,1.0394631624221802,-1.1835827827453613
1782968794932658400,0.931658447265625,0.024215590208768845,0.8918606638908386,-0.9783404469490051
1782968794942585300,0.94158544921875,0.20984484255313873,0.5806407332420349,-0.6075003147125244
1782968794952511500,0.951511474609375,0.36348846554756165,0.2032468616962433,-0.11918125301599503
1782968794962437400,0.961437255859375,0.4855184853076935,-0.12271952629089355,0.38707661628723145
1782968794972364500,0.971364501953125,0.5847989916801453,-0.26284122467041016,0.7201429605484009
1782968794982290400,0.98129052734375,0.7075872421264648,-0.23076078295707703,0.8651321530342102
1782968794992216600,0.991216552734375,0.8225125074386597,-0.08878180384635925,0.858806312084198
1782968795002143500,1.0011435546875,0.9076308608055115,0.10979148000478745,0.7669054269790649
1782968795012069400,1.0110693359375,0.9532644152641296,0.2744795083999634,0.6272479295730591
1782968795021995500,1.02099560546875,0.963846743106842,0.35919758677482605,0.49757516384124756
1782968795031922700,1.030922607421875,0.9408639073371887,0.404037207365036,0.4277409613132477
1782968795041848300,1.040848388671875,0.9016579389572144,0.41792985796928406,0.44417905807495117
1782968795051774500,1.0507744140625,0.9084265828132629,0.3956938087940216,0.5026112198829651
1782968795061701600,1.06070166015625,0.957197904586792,0.33346399664878845,0.5560099482536316
1782968795071627300,1.070627197265625,1.0075860023498535,0.25560086965560913,0.6195306181907654
1782968795081553400,1.080553466796875,1.1187942028045654,0.19504539668560028,0.7191511988639832
1782968795091480600,1.09048046875,1.2412575483322144,0.14885632693767548,0.8458673357963562
1782968795101406500,1.100406494140625,1.3876738548278809,0.11763501912355423,0.9342406392097473
1782968795111332400,1.110332275390625,1.4987058639526367,0.12060683965682983,0.9804611206054688
1782968795121259500,1.120259521484375,1.5150009393692017,0.13238626718521118,0.9813977479934692
1782968795131185400,1.130185302734375,1.5468549728393555,0.1633939892053604,0.9977855086326599
1782968795141111300,1.140111328125,1.5099323987960815,0.19826647639274597,1.0073026418685913
1782968795151038500,1.15003857421875,1.4079989194869995,0.15883225202560425,0.9879946708679199
1782968795160964600,1.159964599609375,1.2905726432800293,0.02810194157063961,0.9865506887435913
1782968795170890500,1.169890380859375,1.255851149559021,-0.11801425367593765,1.0186532735824585
1782968795180817400,1.1798173828125,1.2975671291351318,-0.30160245299339294,1.0638066530227661
1782968795190743600,1.18974365234375,1.365304946899414,-0.45981207489967346,1.1070067882537842
1782968795200669400,1.19966943359375,1.4402644634246826,-0.5382773280143738,1.1221638917922974
1782968795210596600,1.2095966796875,1.4829695224761963,-0.5316399335861206,1.109983205795288
1782968795220522500,1.2195224609375,1.467061161994934,-0.44932693243026733,1.0755298137664795
1782968795230448400,1.229448486328125,1.3910627365112305,-0.33111533522605896,1.0300809144973755
1782968795240375600,1.23937548828125,1.2695951461791992,-0.20157545804977417,0.952575147151947
1782968795250301400,1.249301513671875,1.1335431337356567,-0.07960294932126999,0.8459773659706116
1782968795260227300,1.259227294921875,0.9983208179473877,0.06329508125782013,0.7263811826705933
1782968795270154500,1.269154541015625,0.8726646304130554,0.21438206732273102,0.5761040449142456
1782968795280080600,1.27908056640625,0.7443575263023376,0.3205937147140503,0.38672053813934326
1782968795290006300,1.28900634765625,0.6319987773895264,0.36047643423080444,0.17483173310756683
1782968795299933400,1.298933349609375,0.5463762283325195,0.3538672626018524,-0.012744557112455368
1782968795309859600,1.308859619140625,0.4727047085762024,0.2887524366378784,-0.15470115840435028
1782968795319785500,1.318785400390625,0.4155482053756714,0.15171869099140167,-0.22513671219348907
1782968795329712400,1.32871240234375,0.38125014305114746,0.0284137986600399,-0.17945577204227448
1782968795339638500,1.338638427734375,0.3783819377422333,-0.053936202079057693,-0.05119101703166962
1782968795349564700,1.348564697265625,0.3813406825065613,-0.1013718917965889,0.0962759330868721
1782968795359491600,1.35849169921875,0.41759032011032104,-0.10081183165311813,0.2117367535829544
1782968795369417500,1.36841748046875,0.5017677545547485,-0.050817109644412994,0.29747214913368225
1782968795379343600,1.378343505859375,0.6149132251739502,0.01872255466878414,0.3384760618209839
1782968795389270500,1.3882705078125,0.7238311767578125,0.05753945931792259,0.3619896471500397
1782968795399196400,1.398196533203125,0.8050214052200317,0.05687206983566284,0.38425391912460327
1782968795409122600,1.40812255859375,0.8448455333709717,0.027452396228909492,0.4331735372543335
1782968795419049500,1.418049560546875,0.8309739232063293,-0.03051663003861904,0.4787293076515198
1782968795428975600,1.4279755859375,0.7862783074378967,-0.11245730519294739,0.48836782574653625
1782968795438901500,1.437901611328125,0.692855954170227,-0.17406420409679413,0.4509173631668091
1782968795448828400,1.447828369140625,0.5604683756828308,-0.23168542981147766,0.3821990191936493
1782968795458754600,1.457754638671875,0.40818244218826294,-0.27901992201805115,0.2944025993347168
1782968795468680400,1.467680419921875,0.2410680055618286,-0.31318986415863037,0.19378091394901276
1782968795478607400,1.477607421875,0.06614626199007034,-0.34865784645080566,0.06260345876216888
1782968795488533500,1.487533447265625,-0.10236285626888275,-0.36997246742248535,-0.08979859203100204
1782968795498459600,1.497459716796875,-0.2632337510585785,-0.3297155797481537,-0.26041215658187866
1782968795508385500,1.507385498046875,-0.39745602011680603,-0.22414414584636688,-0.43703457713127136
1782968795518312400,1.5173125,-0.4792909622192383,-0.07468542456626892,-0.5554320812225342
1782968795528238600,1.527238525390625,-0.48921576142311096,0.0985148549079895,-0.571287989616394
1782968795538165500,1.53716552734375,-0.4421420097351074,0.2666676342487335,-0.4943807125091553
1782968795548091400,1.54709130859375,-0.3569954037666321,0.39390575885772705,-0.3456527292728424
1782968795558017500,1.557017578125,-0.2667275667190552,0.4523589611053467,-0.17666319012641907
1782968795567944400,1.5669443359375,-0.20773428678512573,0.4036635756492615,-0.04693049192428589
1782968795577870300,1.576870361328125,-0.20777636766433716,0.25078722834587097,0.03181811794638634
1782968795587796500,1.58679638671875,-0.25840944051742554,0.03580407053232193,0.059663861989974976
1782968795597723400,1.596723388671875,-0.34184494614601135,-0.18789799511432648,0.013954165391623974
1782968795607649500,1.6066494140625,-0.4558998942375183,-0.3693745732307434,-0.0870363637804985
1782968795617575400,1.616575439453125,-0.586384654045105,-0.4696985185146332,-0.21724790334701538
1782968795627501600,1.62650146484375,-0.7029067277908325,-0.47166499495506287,-0.3330479860305786
1782968795637428500,1.636428466796875,-0.8075127601623535,-0.4133470952510834,-0.41799405217170715
1782968795647354400,1.646354248046875,-0.8908657431602478,-0.31570175290107727,-0.4735627770423889
1782968795657281300,1.65628125,-0.956462025642395,-0.2061459720134735,-0.4907470941543579
1782968795667207400,1.66620751953125,-0.9917928576469421,-0.07346808910369873,-0.4803221523761749
1782968795677133600,1.676133544921875,-1.0044804811477661,0.10226858407258987,-0.4431430697441101
1782968795687059500,1.6860595703125,-0.9894269108772278,0.2766459882259369,-0.42599791288375854
1782968795696986400,1.695986328125,-0.9431180357933044,0.39192304015159607,-0.43378525972366333
1782968795706912500,1.70591259765625,-0.8908162117004395,0.3974839746952057,-0.4477335810661316
1782968795716838700,1.715838623046875,-0.8518839478492737,0.3186035454273224,-0.4571070969104767
1782968795726765600,1.725765625,-0.8254150748252869,0.19916103780269623,-0.4494782090187073
1782968795736691700,1.735691650390625,-0.8194748759269714,0.06595904380083084,-0.45285722613334656
1782968795746618600,1.74561865234375,-0.816820502281189,-0.06763231009244919,-0.4721102714538574
1782968795756544500,1.75554443359375,-0.8254126906394958,-0.18301668763160706,-0.5129482746124268
1782968795766470700,1.765470703125,-0.8325720429420471,-0.2668418288230896,-0.5739692449569702
1782968795776396500,1.775396484375,-0.836021900177002,-0.28848984837532043,-0.6526981592178345
1782968795786323500,1.785323486328125,-0.8384304642677307,-0.28584879636764526,-0.7411342859268188
1782968795796249600,1.79524951171875,-0.8329694271087646,-0.28901928663253784,-0.8267679810523987
1782968795806175700,1.80517578125,-0.8049883842468262,-0.2911841869354248,-0.8852152824401855
1782968795816102400,1.815102294921875,-0.7597822546958923,-0.30067968368530273,-0.9155332446098328
1782968795826028500,1.825028564453125,-0.7064777612686157,-0.32342466711997986,-0.9081661701202393
1782968795835954700,1.83495458984375,-0.67170649766922,-0.33524325489997864,-0.8950346112251282
1782968795845881600,1.844881591796875,-0.6536603569984436,-0.33510610461235046,-0.8914045095443726
1782968795855807500,1.854807373046875,-0.6464884877204895,-0.2986766993999481,-0.9107973575592041
1782968795865733600,1.864733642578125,-0.6690265536308289,-0.22018828988075256,-0.9499441981315613
1782968795875660500,1.87466064453125,-0.7120408415794373,-0.10235060751438141,-0.9802419543266296
1782968795885586400,1.88458642578125,-0.7708013653755188,0.061764828860759735,-0.9609137773513794
1782968795895512600,1.8945126953125,-0.8489281535148621,0.2214956432580948,-0.8915567994117737
1782968795905439500,1.904439453125,-0.9230486750602722,0.34635740518569946,-0.7740451097488403
1782968795915365600,1.91436572265625,-0.9592823386192322,0.44594553112983704,-0.6248537302017212
1782968795925291500,1.92429150390625,-0.9474826455116272,0.5290848612785339,-0.5003949403762817
1782968795935218700,1.93421875,-0.9130956530570984,0.5888906717300415,-0.422233521938324
1782968795945144600,1.94414453125,-0.8766513466835022,0.619918942451477,-0.41234415769577026
1782968795955070500,1.954070556640625,-0.8394851088523865,0.5781653523445129,-0.40390780568122864
1782968795964997600,1.96399755859375,-0.7646297812461853,0.4469735026359558,-0.41974374651908875
1782968795974923500,1.973923583984375,-0.6112258434295654,0.3925139904022217,-0.556648850440979
1782968795984849700,1.983849609375,-0.5350610017776489,0.44774129986763,-0.674630343914032
1782968795994776600,1.993776611328125,-0.453757107257843,0.4160834848880768,-0.6994483470916748
1782968796004702500,2.003702392578125,-0.35356631875038147,0.33977141976356506,-0.6612117886543274
1782968796014628600,2.013628662109375,-0.23730230331420898,0.303131639957428,-0.52840656042099
1782968796024555800,2.0235556640625,-0.11757057160139084,0.2858181595802307,-0.33249911665916443
1782968796034481400,2.0334814453125,0.04092159867286682,0.2232075184583664,-0.0623382106423378
1782968796044407600,2.043407470703125,0.16064400970935822,0.20336297154426575,0.2241220474243164
1782968796054334700,2.053334716796875,0.24343183636665344,0.19794291257858276,0.4265851378440857
1782968796064260600,2.063260498046875,0.3147225081920624,0.21175086498260498,0.5196373462677002
1782968796074186500,2.0731865234375,0.3931387662887573,0.2578912079334259,0.5176939964294434
1782968796084113700,2.08311376953125,0.4596900939941406,0.3019164502620697,0.46447259187698364
1782968796094039600,2.09303955078125,0.5135282874107361,0.33955118060112,0.40176475048065186
1782968796103965400,2.10296533203125,0.5414323806762695,0.34432703256607056,0.35858771204948425
1782968796113892600,2.112892578125,0.5399370193481445,0.29884982109069824,0.34511399269104004
1782968796123818800,2.12281884765625,0.5520293712615967,0.2424677610397339,0.37487053871154785
1782968796133744400,2.132744384765625,0.6106433868408203,0.19549334049224854,0.45384207367897034
1782968796143671600,2.142671630859375,0.7373097538948059,0.16533435881137848,0.5351384878158569
1782968796153597700,2.15259765625,0.8896813988685608,0.16090978682041168,0.6060593128204346
1782968796163523600,2.162523681640625,1.069880485534668,0.15361325442790985,0.7162885665893555
1782968796173450800,2.17245068359375,1.1840232610702515,0.14658917486667633,0.8294138312339783
1782968796183376600,2.182376708984375,1.2405494451522827,0.11654499173164368,0.9143995642662048
1782968796193302500,2.192302490234375,1.2230277061462402,0.08798950910568237,0.9690667986869812
1782968796203229700,2.202229736328125,1.1184885501861572,0.03618064150214195,0.9645631313323975
1782968796213155600,2.212155517578125,0.9903664588928223,-0.05423687398433685,0.912366509437561
1782968796223081500,2.22208154296875,0.945852518081665,-0.09125375002622604,0.8644613027572632
1782968796233008600,2.232008544921875,0.91401207447052,-0.09607726335525513,0.8312956094741821
1782968796242934800,2.241934814453125,0.910358190536499,-0.08744915574789047,0.8115019202232361
1782968796252860700,2.251860595703125,0.9454038143157959,-0.05491730943322182,0.8215566873550415
1782968796262787600,2.26178759765625,0.9993599653244019,-0.0201066005975008,0.8735317587852478
1782968796272713700,2.271713623046875,1.0820282697677612,0.001865011639893055,0.9452314972877502
1782968796282639600,2.2816396484375,1.179328441619873,0.01930871605873108,1.0045586824417114
1782968796292566500,2.29156640625,1.2577941417694092,0.02107039839029312,1.015625238418579
1782968796302492700,2.30149267578125,1.2861642837524414,-0.03801475837826729,0.963846743106842
1782968796312418800,2.311418701171875,1.2516683340072632,-0.15196555852890015,0.8798865675926208
1782968796322345500,2.321345458984375,1.1780325174331665,-0.27781909704208374,0.7697653770446777
1782968796332271600,2.331271728515625,1.0870999097824097,-0.3854219913482666,0.6487484574317932
1782968796342197800,2.34119775390625,1.013085126876831,-0.44750159978866577,0.5332884192466736
1782968796352124700,2.351124755859375,0.941213846206665,-0.45555126667022705,0.45195308327674866
1782968796362050600,2.361050537109375,0.8773078322410583,-0.40192320942878723,0.4193946123123169
1782968796371976700,2.370976806640625,0.8193449378013611,-0.2968716323375702,0.4096314609050751
1782968796381903600,2.380903564453125,0.7706908583641052,-0.16800817847251892,0.3864111006259918
1782968796391829500,2.39082958984375,0.719450831413269,-0.01366334781050682,0.3082321286201477
1782968796401755600,2.400755615234375,0.6743068099021912,0.12577417492866516,0.16284963488578796
1782968796411682600,2.4106826171875,0.6287294626235962,0.21428965032100677,-0.003337739733979106
1782968796421608700,2.420608642578125,0.5983470678329468,0.28900331258773804,-0.12206172943115234
1782968796431534600,2.43053466796875,0.6036618947982788,0.3285326063632965,-0.17988188564777374
1782968796441461500,2.44046142578125,0.6369612812995911,0.29750144481658936,-0.17912554740905762
1782968796451387600,2.4503876953125,0.6787412166595459,0.22595296800136566,-0.11898444592952728
1782968796461313500,2.4603134765625,0.7160241603851318,0.13422517478466034,-0.013883591629564762
1782968796471240400,2.470240478515625,0.7516833543777466,0.028150411322712898,0.1008288785815239
1782968796481166600,2.48016650390625,0.7759522199630737,-0.06319361925125122,0.20540109276771545
1782968796491092700,2.4900927734375,0.7835251688957214,-0.14495132863521576,0.2757130563259125
1782968796501019400,2.500019287109375,0.7612075805664062,-0.2062186747789383,0.29662156105041504
1782968796510945500,2.509945556640625,0.7135388851165771,-0.24651284515857697,0.2721060812473297
1782968796520871700,2.51987158203125,0.6513018608093262,-0.2677677869796753,0.23671028017997742
1782968796530798600,2.529798583984375,0.5831707715988159,-0.27015426754951477,0.208909273147583
1782968796540724500,2.539724365234375,0.5149232745170593,-0.2647427022457123,0.18867723643779755
1782968796550650600,2.549650634765625,0.43777522444725037,-0.24347656965255737,0.1644432693719864
1782968796560577500,2.55957763671875,0.3354232609272003,-0.1973160058259964,0.10494985431432724
1782968796570503700,2.569503662109375,0.2097202092409134,-0.12653610110282898,0.016335830092430115
1782968796580429600,2.5794296875,0.06922434270381927,-0.03567623719573021,-0.08126077055931091
1782968796590356500,2.5893564453125,-0.07819680124521255,0.07735098153352737,-0.17180956900119781
1782968796600282600,2.59928271484375,-0.20225803554058075,0.1925193816423416,-0.22427810728549957
1782968796610208500,2.60920849609375,-0.2860000729560852,0.2820625901222229,-0.22198006510734558
1782968796620135400,2.619135498046875,-0.3153872489929199,0.33981749415397644,-0.18971507251262665
1782968796630061600,2.6290615234375,-0.32709744572639465,0.34166544675827026,-0.1519426554441452
1782968796639987700,2.63898779296875,-0.33011293411254883,0.26852813363075256,-0.12827780842781067
1782968796649914600,2.64891455078125,-0.33843129873275757,0.12176798284053802,-0.12094719707965851
1782968796659840500,2.658840576171875,-0.3619781732559204,-0.07141639292240143,-0.12121564149856567
1782968796669766700,2.6687666015625,-0.41236358880996704,-0.25323784351348877,-0.1434948444366455
1782968796679693800,2.67869384765625,-0.4852098226547241,-0.3745666742324829,-0.18543323874473572
1782968796689619500,2.688619384765625,-0.5738520622253418,-0.4179826080799103,-0.2400064766407013
1782968796699545600,2.698545654296875,-0.6675724387168884,-0.40018656849861145,-0.2945008873939514
1782968796709473000,2.70847314453125,-0.772131085395813,-0.33598679304122925,-0.34532809257507324
1782968796719399000,2.71839892578125,-0.8733213543891907,-0.238238126039505,-0.3757733702659607
1782968796729325000,2.728324951171875,-0.9788680076599121,-0.11505628377199173,-0.3858124017715454
1782968796739252000,2.738251953125,-1.0766938924789429,0.05823640897870064,-0.3879253566265106
1782968796749178000,2.74817822265625,-1.156997799873352,0.2526263892650604,-0.40796351432800293
1782968796759104000,2.75810400390625,-1.2061171531677246,0.4171588718891144,-0.4594174027442932
1782968796769031200,2.76803125,-1.2330588102340698,0.5213153958320618,-0.5101599097251892
1782968796778957000,2.77795703125,-1.236208200454712,0.5352530479431152,-0.5609464049339294
1782968796788883200,2.78788330078125,-1.237684965133667,0.45288732647895813,-0.6030192971229553
1782968796798810000,2.79781005859375,-1.2471961975097656,0.29474616050720215,-0.6530411839485168
1782968796808736000,2.807736083984375,-1.2576879262924194,0.10402387380599976,-0.7259931564331055
1782968796818662100,2.817662109375,-1.2749710083007812,-0.07782262563705444,-0.8068669438362122
1782968796828589300,2.82758935546875,-1.3153083324432373,-0.23848287761211395,-0.8867082595825195
1782968796838515000,2.837514892578125,-1.3496959209442139,-0.3579466938972473,-0.9516491889953613
1782968796848441000,2.847441162109375,-1.364560842514038,-0.42227375507354736,-0.9921622276306152
1782968796858368300,2.8573681640625,-1.3537225723266602,-0.4018140137195587,-1.020492672920227
1782968796868294000,2.8672939453125,-1.327287197113037,-0.33165010809898376,-1.0492961406707764
1782968796878220000,2.877219970703125,-1.2840989828109741,-0.23027049005031586,-1.0757900476455688
1782968796888147200,2.887147216796875,-1.2438600063323975,-0.11416305601596832,-1.0805139541625977
1782968796898073000,2.897072998046875,-1.2227180004119873,-0.027818581089377403,-1.0660862922668457
1782968796907999000,2.9069990234375,-1.1987255811691284,0.007133277133107185,-1.0356974601745605
1782968796917926100,2.916926025390625,-1.1887315511703491,-0.0201561339199543,-0.9916426539421082
1782968796927852000,2.92685205078125,-1.1652061939239502,-0.09331343322992325,-0.9259393215179443
1782968796937778000,2.93677783203125,-1.1298508644104004,-0.17539578676223755,-0.8399511575698853
1782968796947705000,2.946705078125,-1.0958218574523926,-0.24935096502304077,-0.7443631291389465
1782968796957631200,2.95663134765625,-1.086379885673523,-0.3232204020023346,-0.6298876404762268
1782968796967557000,2.96655712890625,-1.1511434316635132,-0.3656062185764313,-0.5096571445465088
1782968796977484000,2.976484130859375,-1.3425439596176147,-0.4274892807006836,-0.335705041885376
1782968796987410200,2.98641015625,-1.5970872640609741,-0.4785332977771759,-0.2213720679283142
1782968796997336000,2.996336181640625,-1.7142796516418457,-0.4846622943878174,-0.3325459957122803
1782968797007263200,3.00626318359375,-1.6071375608444214,-0.28983020782470703,-0.6914897561073303
1782968797017189000,3.016189208984375,-1.5577481985092163,0.17667756974697113,-1.1315696239471436
1782968797027115000,3.026114990234375,-1.4637774229049683,0.7247307896614075,-1.441741943359375
1782968797037042200,3.036042236328125,-1.2059693336486816,0.9134607911109924,-1.5617005825042725
1782968797046968000,3.045968017578125,-0.8658804893493652,0.8451454043388367,-1.3807203769683838
1782968797056894000,3.05589404296875,-0.5367497205734253,0.63397216796875,-0.9478581547737122
1782968797066821000,3.065821044921875,-0.29496797919273376,0.3677250146865845,-0.42264100909233093
1782968797076747300,3.075747314453125,-0.1060076579451561,0.11321763694286346,0.059055063873529434
1782968797086673000,3.0856728515625,0.06505676358938217,-0.06488791853189468,0.4346145689487457
1782968797096600000,3.09560009765625,0.1997234970331192,-0.16285043954849243,0.6728915572166443
1782968797106526200,3.105526123046875,0.2933783531188965,-0.15081800520420074,0.7801019549369812
1782968797116452000,3.1154521484375,0.35702577233314514,-0.0353822261095047,0.7637407779693604
1782968797126379000,3.12537890625,0.39476728439331055,0.13261237740516663,0.6467390656471252
1782968797136305200,3.13530517578125,0.40539541840553284,0.2905045449733734,0.4894530475139618
1782968797146231300,3.145231201171875,0.39554014801979065,0.3743421733379364,0.33667629957199097
1782968797156158200,3.155158203125,0.39751726388931274,0.3956772983074188,0.24166402220726013
1782968797166084000,3.165083984375,0.4379728138446808,0.4083999991416931,0.23257438838481903
1782968797176010200,3.17501025390625,0.5265178680419922,0.4226500391960144,0.2818596363067627
1782968797185937200,3.184937255859375,0.6356544494628906,0.4355599880218506,0.3662722706794739
1782968797195863000,3.194863037109375,0.75539231300354,0.45912283658981323,0.471022367477417
1782968797205789200,3.2047890625,0.8667652010917664,0.46803590655326843,0.5708922743797302
1782968797215716000,3.214716064453125,0.9693373441696167,0.44671571254730225,0.6692159175872803
1782968797225642200,3.224642333984375,1.0712748765945435,0.40274107456207275,0.7700743079185486
1782968797235568000,3.234568115234375,1.1572990417480469,0.32780689001083374,0.8627904057502747
1782968797245495000,3.2444951171875,1.2256567478179932,0.226283997297287,0.9466128945350647
1782968797255421200,3.254421142578125,1.273261547088623,0.13070981204509735,1.0135014057159424
1782968797265347000,3.26434716796875,1.3105745315551758,0.0335070937871933,1.047759771347046
1782968797275274000,3.27427392578125,1.3294862508773804,-0.08649148046970367,1.0307892560958862
1782968797285200100,3.2842001953125,1.33944833278656,-0.21703244745731354,0.9870628118515015
1782968797295126300,3.294126220703125,1.3522368669509888,-0.33204957842826843,0.9088601469993591
1782968797305053000,3.304052978515625,1.367846131324768,-0.40969377756118774,0.8173667192459106
1782968797314979000,3.31397900390625,1.355393409729004,-0.4602093994617462,0.726557731628418
1782968797324905200,3.3239052734375,1.3103586435317993,-0.47463974356651306,0.6637159585952759
1782968797334832000,3.33383203125,1.223124384880066,-0.4343130886554718,0.6278617978096008
1782968797344758000,3.343758056640625,1.0940101146697998,-0.33518677949905396,0.5777629613876343
1782968797354684200,3.35368408203125,0.9540343284606934,-0.1881999969482422,0.4553089439868927
1782968797364611000,3.363611083984375,0.8000625967979431,-0.020975057035684586,0.25869280099868774
1782968797374537000,3.373536865234375,0.6502629518508911,0.10741700232028961,0.010544253513216972
1782968797384463000,3.383463134765625,0.5323890447616577,0.1630355268716812,-0.20854096114635468
1782968797394390000,3.39339013671875,0.4892956614494324,0.16906306147575378,-0.3306522071361542
1782968797404316200,3.403316162109375,0.5043689012527466,0.11830320954322815,-0.34197571873664856
1782968797414242000,3.413241943359375,0.573008120059967,0.022409701719880104,-0.25795379281044006
1782968797424169000,3.4231689453125,0.666934609413147,-0.08417665958404541,-0.12058579921722412
1782968797434095000,3.43309521484375,0.7629839181900024,-0.20444048941135406,0.04826153814792633
1782968797444021000,3.44302099609375,0.8341731429100037,-0.3055761754512787,0.2333080917596817
1782968797453948000,3.452947998046875,0.8759419322013855,-0.3750931918621063,0.3789353370666504
1782968797463874000,3.4628740234375,0.8907395005226135,-0.39894899725914,0.45987650752067566
1782968797473800200,3.47280029296875,0.8782535195350647,-0.3733525574207306,0.46121102571487427
1782968797483726000,3.48272607421875,0.8348397612571716,-0.32469260692596436,0.4065467119216919
1782968797493653000,3.492653076171875,0.7704687714576721,-0.27440252900123596,0.3140774965286255
1782968797503579100,3.5025791015625,0.689354419708252,-0.23457522690296173,0.21983355283737183
1782968797513506000,3.512506103515625,0.6143406629562378,-0.20754572749137878,0.1312035620212555
1782968797523432000,3.522431884765625,0.5509119033813477,-0.18475013971328735,0.06276964396238327
1782968797533358000,3.532358154296875,0.48974308371543884,-0.17448125779628754,-0.023206518962979317
1782968797543285200,3.54228515625,0.40567559003829956,-0.18823328614234924,-0.14599502086639404
1782968797553211100,3.552211181640625,0.30065837502479553,-0.20598939061164856,-0.31899210810661316
1782968797563137000,3.562136962890625,0.17584559321403503,-0.19697964191436768,-0.4914743900299072
1782968797573064200,3.572064208984375,0.04767830669879913,-0.13238680362701416,-0.5842592120170593
1782968797582990000,3.581989990234375,-0.07289524376392365,0.011326423846185207,-0.5710847973823547
1782968797592916000,3.591916015625,-0.14843447506427765,0.19108207523822784,-0.47369885444641113
1782968797602842000,3.601842041015625,-0.17510417103767395,0.36047616600990295,-0.31941288709640503
1782968797612769000,3.61176904296875,-0.15487027168273926,0.5063406825065613,-0.1670590341091156
1782968797622695200,3.621695068359375,-0.11954397708177567,0.5657792687416077,-0.0490407794713974
1782968797632622000,3.6316220703125,-0.08368424326181412,0.5011986494064331,0.01631425879895687
1782968797642548000,3.6415478515625,-0.06295499950647354,0.3203287422657013,0.03711594268679619
1782968797652474000,3.65147412109375,-0.06275792419910431,0.09807942807674408,0.011767975986003876
1782968797662401300,3.6614013671875,-0.09385858476161957,-0.11967074126005173,-0.04555097222328186
1782968797672327200,3.6713271484375,-0.17096109688282013,-0.29771557450294495,-0.10628090053796768
1782968797682253000,3.681253173828125,-0.2912299931049347,-0.4044284522533417,-0.16464486718177795
1782968797692179200,3.69117919921875,-0.43582338094711304,-0.4199083149433136,-0.24455009400844574
1782968797702106000,3.701106201171875,-0.5873056054115295,-0.35095590353012085,-0.33921295404434204
1782968797712032500,3.711032470703125,-0.712428867816925,-0.21972224116325378,-0.44206422567367554
1782968797721959700,3.720959716796875,-0.7946835160255432,-0.03175393491983414,-0.528628408908844
1782968797731885300,3.73088525390625,-0.8610740303993225,0.17177894711494446,-0.5945102572441101
1782968797741811500,3.7408115234375,-0.9196614027023315,0.34849274158477783,-0.6385080218315125
1782968797751737600,3.750737548828125,-0.9779612421989441,0.48346227407455444,-0.6564502716064453
1782968797761664500,3.76066455078125,-1.0271333456039429,0.5456153750419617,-0.6397802233695984
1782968797771590400,3.77059033203125,-1.0556964874267578,0.5353118777275085,-0.5996447801589966
1782968797781516500,3.7805166015625,-1.0565640926361084,0.4901137948036194,-0.5433285236358643
1782968797791443700,3.790443603515625,-1.0280702114105225,0.39377713203430176,-0.507999837398529
1782968797801369300,3.800369384765625,-0.9954445958137512,0.25675004720687866,-0.51591956615448
1782968797811295500,3.81029541015625,-0.9621233940124512,0.11748987436294556,-0.5526008605957031
1782968797821222700,3.82022265625,-0.9366558790206909,-0.022670425474643707,-0.5923693180084229
1782968797831148500,3.8301484375,-0.9145148396492004,-0.15319807827472687,-0.6231983304023743
1782968797841075500,3.840075439453125,-0.8953193426132202,-0.23675422370433807,-0.642723560333252
1782968797851001600,3.850001708984375,-0.8911765217781067,-0.26168912649154663,-0.6579432487487793
1782968797860927500,3.859927490234375,-0.8998475074768066,-0.2277173101902008,-0.6788301467895508
1782968797870853400,3.869853271484375,-0.9063394665718079,-0.14972823858261108,-0.6755009293556213
1782968797880780500,3.879780517578125,-0.9143028855323792,-0.08989819884300232,-0.6707978248596191
1782968797890706400,3.88970654296875,-0.9226553440093994,-0.06991836428642273,-0.6602604985237122
1782968797900632600,3.899632568359375,-0.9155585765838623,-0.08469224721193314,-0.639658510684967
1782968797910559500,3.9095595703125,-0.8951923251152039,-0.13917653262615204,-0.6103906631469727
1782968797920485400,3.9194853515625,-0.8661755323410034,-0.21496103703975677,-0.5721436738967896
1782968797930411500,3.92941162109375,-0.8323206305503845,-0.2909567356109619,-0.5265775322914124
1782968797940338700,3.939338623046875,-0.8004199862480164,-0.328121155500412,-0.4753284454345703
1782968797950264600,3.9492646484375,-0.7697462439537048,-0.31285324692726135,-0.4408751428127289
1782968797960190500,3.9591904296875,-0.7528764605522156,-0.24208614230155945,-0.42517367005348206
1782968797970117600,3.96911767578125,-0.7506369948387146,-0.12235280871391296,-0.4397568702697754
1782968797980043500,3.97904345703125,-0.7606019973754883,0.028491562232375145,-0.46964526176452637
1782968797989967600,3.988967529296875,-0.770261824131012,0.16724544763565063,-0.5073891878128052
1782968797999893500,3.9988935546875,-0.7752237915992737,0.25207751989364624,-0.5215705037117004
1782968798009820400,4.0088203125,-0.7845683097839355,0.2587743103504181,-0.5273442268371582
1782968798019746600,4.01874658203125,-0.7837781310081482,0.2152119129896164,-0.5337401032447815
1782968798029672700,4.028672607421875,-0.7676500678062439,0.16033828258514404,-0.5708070397377014
1782968798039599400,4.038599365234375,-0.7203288674354553,0.11870534718036652,-0.6202427744865417
1782968798049525500,4.048525390625,-0.6545924544334412,0.10477062314748764,-0.6364379525184631
1782968798059451600,4.05845166015625,-0.5608974099159241,0.10779383778572083,-0.6151111125946045
1782968798069378600,4.068378662109375,-0.4558735191822052,0.11456385999917984,-0.5524019002914429
1782968798079304400,4.078304443359375,-0.3385500907897949,0.12239941209554672,-0.44248953461647034
1782968798089230600,4.088230712890625,-0.21712033450603485,0.13016146421432495,-0.2807059586048126
1782968798099157500,4.098157470703125,-0.0969872698187828,0.14871464669704437,-0.08471888303756714
1782968798109083400,4.10808349609375,0.006184126250445843,0.21511444449424744,0.08795621991157532
1782968798119009500,4.118009521484375,0.11667681485414505,0.3005704879760742,0.18803514540195465
1782968798128936400,4.1279365234375,0.18055114150047302,0.39881661534309387,0.1910937875509262
1782968798138862600,4.137862548828125,0.28480803966522217,0.43478554487228394,0.193501815199852
1782968798148788500,4.14778857421875,0.360809326171875,0.40720638632774353,0.18815259635448456
1782968798158715400,4.15771533203125,0.41313377022743225,0.33024048805236816,0.17831701040267944
1782968798168641500,4.1676416015625,0.46994486451148987,0.21903248131275177,0.2125074714422226
1782968798178567400,4.1775673828125,0.5033414363861084,0.09447084367275238,0.2695726156234741
1782968798188494300,4.187494384765625,0.549320638179779,0.01895025558769703,0.30968862771987915
1782968798198420500,4.19742041015625,0.6137275695800781,0.04164651408791542,0.32681912183761597
1782968798208346600,4.2073466796875,0.690838098526001,0.11699532717466354,0.33566561341285706
1782968798218273300,4.217273193359375,0.7622973918914795,0.2075665146112442,0.3602242171764374
1782968798228199400,4.227199462890625,0.8148508667945862,0.2615290880203247,0.41155746579170227
1782968798238125600,4.23712548828125,0.8594196438789368,0.2657725512981415,0.4798046946525574
1782968798248052500,4.247052490234375,0.9192542433738708,0.2538517117500305,0.5525798201560974
1782968798257978400,4.256978271484375,0.9925694465637207,0.24573546648025513,0.6272023916244507
1782968798267904500,4.266904541015625,1.0766284465789795,0.22556094825267792,0.6818233132362366
1782968798277831700,4.276831787109375,1.150421380996704,0.20370066165924072,0.7234317064285278
1782968798287757300,4.28675732421875,1.209359049797058,0.16498522460460663,0.7589353919029236
1782968798297683500,4.296683349609375,1.2614938020706177,0.10170159488916397,0.78722083568573
1782968798307610600,4.306610595703125,1.3059580326080322,0.016055399551987648,0.8166477084159851
1782968798317536500,4.31653662109375,1.350959062576294,-0.10094738751649857,0.8510173559188843
1782968798327462400,4.32646240234375,1.4034289121627808,-0.22547359764575958,0.9018701910972595
1782968798337389600,4.3363896484375,1.4290013313293457,-0.3327699601650238,0.9555858969688416
1782968798347315500,4.3463154296875,1.4191216230392456,-0.42493584752082825,0.9733233451843262
1782968798357241300,4.356241455078125,1.3811461925506592,-0.49354952573776245,0.9582793712615967
1782968798367168500,4.36616845703125,1.3170058727264404,-0.5279501080513,0.92014479637146
1782968798377094400,4.376094482421875,1.2301785945892334,-0.5141546726226807,0.867093563079834
1782968798387020500,4.3860205078125,1.1255983114242554,-0.44124558568000793,0.7938292026519775
1782968798396947700,4.39594775390625,1.0288842916488647,-0.324985533952713,0.7150206565856934
1782968798406873300,4.405873291015625,0.9308347105979919,-0.19523634016513824,0.6426127552986145
1782968798416799500,4.415799560546875,0.8414385318756104,-0.08729362487792969,0.5707492232322693
1782968798426726700,4.4257265625,0.7585875988006592,0.005932724103331566,0.4896855354309082
1782968798436652500,4.435652587890625,0.6811095476150513,0.08981963247060776,0.4032324254512787
1782968798446578400,4.445578369140625,0.6274860501289368,0.16612239181995392,0.30658310651779175
1782968798456505600,4.455505615234375,0.5961230397224426,0.19794583320617676,0.22533990442752838
1782968798466431700,4.465431640625,0.5862645506858826,0.18439993262290955,0.18198950588703156
1782968798476357400,4.475357421875,0.573464035987854,0.12071336805820465,0.18986473977565765
1782968798486284500,4.485284423828125,0.566811740398407,0.041261155158281326,0.2545531988143921
1782968798496210700,4.495210693359375,0.5578989386558533,-0.026273416355252266,0.3567003309726715
1782968798506136300,4.50513623046875,0.5553503036499023,-0.06846587359905243,0.46187734603881836
1782968798516063500,4.5150634765625,0.5609269738197327,-0.07750491052865982,0.5357531905174255
1782968798525989600,4.52498974609375,0.5573354363441467,-0.08454205095767975,0.5628335475921631
1782968798535915500,4.53491552734375,0.5310987830162048,-0.0912763848900795,0.5542181730270386
1782968798545842400,4.544842529296875,0.4805716872215271,-0.10172076523303986,0.5189270377159119
1782968798555768600,4.5547685546875,0.4071965217590332,-0.12273310869932175,0.4594922363758087
1782968798565694500,4.564694580078125,0.3222792446613312,-0.14285728335380554,0.3873796761035919
1782968798575621600,4.57462158203125,0.23144307732582092,-0.159033864736557,0.3030991554260254
1782968798585547500,4.584547607421875,0.15141375362873077,-0.1770900934934616,0.2142438441514969
1782968798595473400,4.594473388671875,0.0756140649318695,-0.20782296359539032,0.11795033514499664
1782968798605400600,4.604400634765625,-0.004838164895772934,-0.2327972948551178,0.017411747947335243
1782968798615326500,4.614326416015625,-0.08938021212816238,-0.23361940681934357,-0.09610921889543533
1782968798625252600,4.624252685546875,-0.1810307651758194,-0.19735674560070038,-0.19802413880825043
1782968798635179500,4.634179443359375,-0.27305495738983154,-0.1004837304353714,-0.2625237703323364
1782968798645105700,4.644105712890625,-0.36698466539382935,0.06246524304151535,-0.2730882465839386
1782968798655031600,4.654031494140625,-0.4484374523162842,0.2585279643535614,-0.22563019394874573
1782968798664958500,4.66395849609375,-0.48396986722946167,0.4473609924316406,-0.13285765051841736
1782968798674884600,4.673884521484375,-0.4734887182712555,0.579805850982666,-0.01678004488348961
1782968798684810500,4.683810546875,-0.4360572099685669,0.6198909282684326,0.08955491334199905
1782968798694737400,4.6937373046875,-0.38793841004371643,0.5662058591842651,0.16755011677742004
1782968798704663600,4.70366357421875,-0.3519532382488251,0.4381677508354187,0.18345850706100464
1782968798714589000,4.7135888671875,-0.3352046310901642,0.27928251028060913,0.1409991979598999
1782968798724515800,4.723515869140625,-0.35779836773872375,0.1124008446931839,0.06611643731594086
1782968798734441700,4.733441650390625,-0.4226282238960266,-0.046064697206020355,-0.030102241784334183
1782968798744367900,4.743367919921875,-0.5172883868217468,-0.15843623876571655,-0.12235121428966522
1782968798754294800,4.753294677734375,-0.6178773641586304,-0.21824684739112854,-0.20459148287773132
1782968798764221000,4.763220947265625,-0.7076090574264526,-0.2051483541727066,-0.2771186828613281
1782968798774146800,4.773146728515625,-0.7658060789108276,-0.14036031067371368,-0.3270460367202759
1782968798784073700,4.78307373046875,-0.8090006709098816,-0.03608902916312218,-0.3594534993171692
1782968798794000000,4.792999755859375,-0.8374541401863098,0.08430609107017517,-0.37565672397613525
1782968798803925800,4.80292578125,-0.8575551509857178,0.2141847312450409,-0.3712606430053711
1782968798813852700,4.812852783203125,-0.8713135719299316,0.3427256643772125,-0.3648384213447571
1782968798823778800,4.82277880859375,-0.8865511417388916,0.43924206495285034,-0.3767169117927551
1782968798833705000,4.832705078125,-0.891751229763031,0.5075305700302124,-0.40140601992607117
1782968798843631900,4.8426318359375,-0.8848214149475098,0.5157509446144104,-0.4178885817527771
1782968798853557800,4.852557861328125,-0.8696041107177734,0.4550820291042328,-0.41753411293029785
1782968798863484000,4.86248388671875,-0.8477630019187927,0.3253735601902008,-0.41983988881111145
1782968798873410800,4.872410888671875,-0.8338756561279297,0.15441539883613586,-0.44728296995162964
1782968798883336700,4.882336669921875,-0.8214674592018127,-0.003689010627567768,-0.4936443269252777
1782968798893262800,4.892262939453125,-0.8313158750534058,-0.15763463079929352,-0.567698061466217
1782968798903190000,4.90218994140625,-0.8583946228027344,-0.30035823583602905,-0.6515263915061951
1782968798913115600,4.91211572265625,-0.8883455991744995,-0.41472741961479187,-0.7264898419380188
1782968798923041800,4.922041748046875,-0.918132483959198,-0.485068142414093,-0.7977128624916077
1782968798932969000,4.931968994140625,-0.9432871341705322,-0.5216597318649292,-0.8563788533210754
1782968798942894800,4.941894775390625,-0.9561470150947571,-0.5249993205070496,-0.8892523646354675
1782968798952820700,4.95182080078125,-0.9378913044929504,-0.48818379640579224,-0.878223180770874
1782968798962748000,4.961747802734375,-0.8854057192802429,-0.4236234426498413,-0.8375718593597412
1782968798972673800,4.971673828125,-0.8063713312149048,-0.3489886224269867,-0.7952311038970947
1782968798982599700,4.981599609375,-0.7298232913017273,-0.2788124680519104,-0.7585905194282532
1782968798992526800,4.99152685546875,-0.6621699929237366,-0.22775593400001526,-0.7249928712844849
1782968799002452700,5.00145263671875,-0.6087070107460022,-0.18058522045612335,-0.6767057776451111
1782968799012379000,5.01137890625,-0.5621253848075867,-0.15254239737987518,-0.6198587417602539
1782968799022305800,5.021305908203125,-0.5264885425567627,-0.13885748386383057,-0.5508647561073303
1782968799032231700,5.031231689453125,-0.5059417486190796,-0.11566401273012161,-0.47927579283714294
1782968799042157800,5.04115771484375,-0.5064591765403748,-0.08841828256845474,-0.4012422263622284
1782968799052085000,5.0510849609375,-0.5032806992530823,-0.0399135947227478,-0.3257187008857727
1782968799062011000,5.061010986328125,-0.5219284296035767,0.05392581596970558,-0.27612239122390747
1782968799071936800,5.070936767578125,-0.54057377576828,0.17620165646076202,-0.26342764496803284
1782968799081864000,5.080864013671875,-0.5804277062416077,0.30994001030921936,-0.28284981846809387
1782968799091790000,5.0907900390625,-0.5995899438858032,0.4684937000274658,-0.3580380380153656
1782968799101715700,5.1007158203125,-0.6296005845069885,0.6945814490318298,-0.5321648120880127
1782968799111643000,5.110642822265625,-0.569427490234375,0.8845071792602539,-0.7194183468818665
1782968799121569000,5.120569091796875,-0.45960965752601624,1.0077204704284668,-0.8341425061225891
1782968799131494700,5.13049462890625,-0.4097568988800049,0.9745947122573853,-0.8898025751113892
1782968799141421800,5.140421875,-0.1998814195394516,0.7176483869552612,-0.686057448387146
1782968799151348000,5.150347900390625,-0.004524710588157177,0.4260096251964569,-0.31189343333244324
1782968799161273900,5.16027392578125,0.20408815145492554,0.12689483165740967,0.13618899881839752
1782968799171200800,5.17020068359375,0.37930789589881897,-0.06334195286035538,0.524298906326294
1782968799181127000,5.180126953125,0.5342607498168945,-0.1167503148317337,0.7556109428405762
1782968799191052800,5.190052734375,0.6583978533744812,-0.04541248828172684,0.8311696648597717
1782968799200980000,5.19997998046875,0.7444016933441162,0.08756154030561447,0.7986399531364441
1782968799210905900,5.20990576171875,0.7927306294441223,0.19021840393543243,0.7028729319572449
1782968799220831700,5.219831787109375,0.8074350357055664,0.21632830798625946,0.58428555727005
1782968799230759000,5.229759033203125,0.7862842082977295,0.16436363756656647,0.4831187129020691
1782968799240684800,5.239684814453125,0.7444917559623718,0.03431776165962219,0.41922974586486816
1782968799250611000,5.24961083984375,0.7130195498466492,-0.11736231297254562,0.42085081338882446
1782968799260537900,5.259537841796875,0.7379158735275269,-0.2072349488735199,0.49057239294052124
1782968799270464000,5.269464111328125,0.811957597732544,-0.2378178834915161,0.5708578824996948
1782968799280390000,5.279389892578125,0.9044798016548157,-0.20284712314605713,0.654006838798523
1782968799290316800,5.28931689453125,0.9872889518737793,-0.14458328485488892,0.7030074000358582
1782968799300243000,5.299242919921875,1.0403199195861816,-0.08833279460668564,0.7185093760490417
1782968799310168800,5.3091689453125,1.0413700342178345,-0.04442498832941055,0.7202140688896179
1782968799320095700,5.319095703125,1.009451985359192,-0.0252760611474514,0.7238522171974182
1782968799330022000,5.32902197265625,0.983954131603241,-0.05758393555879593,0.7464861869812012
1782968799339948000,5.338947998046875,1.0107662677764893,-0.12474299967288971,0.8005685806274414
1782968799349874700,5.348874755859375,1.061065912246704,-0.2401135265827179,0.8632471561431885
1782968799359800800,5.35880078125,1.1252915859222412,-0.40598106384277344,0.9162110090255737
1782968799369727000,5.36872705078125,1.1939387321472168,-0.5913309454917908,0.955489456653595
1782968799379654000,5.37865380859375,1.2485854625701904,-0.7477067112922668,0.9836105704307556
1782968799389579800,5.388579833984375,1.2719228267669678,-0.8567072153091431,0.9816563725471497
1782968799399506000,5.398505859375,1.2621021270751953,-0.9050465226173401,0.9309473633766174
1782968799409432800,5.408432861328125,1.2078756093978882,-0.9005774855613708,0.8245298266410828
1782968799419358700,5.418358642578125,1.0927402973175049,-0.845644474029541,0.6535394787788391
1782968799429284900,5.428284912109375,0.9380417466163635,-0.7474254965782166,0.4607146084308624
1782968799439211800,5.438211669921875,0.786332905292511,-0.6233056783676147,0.29524415731430054
1782968799449138000,5.448137939453125,0.6647476553916931,-0.5191193222999573,0.18586254119873047
1782968799459063800,5.458063720703125,0.5862517952919006,-0.4537925124168396,0.13812404870986938
1782968799468990700,5.46799072265625,0.5507944226264954,-0.4074780344963074,0.1498163938522339
1782968799478916900,5.477916748046875,0.548056423664093,-0.3737544119358063,0.20857025682926178
1782968799488842800,5.4878427734375,0.5766332149505615,-0.3541535437107086,0.28432974219322205
1782968799498769700,5.497769775390625,0.6312008500099182,-0.3372107744216919,0.362602174282074
1782968799508695800,5.50769580078125,0.7110314965248108,-0.3098753094673157,0.4263332188129425
1782968799518622000,5.5176220703125,0.795284628868103,-0.29517650604248047,0.4637404978275299
1782968799528548900,5.527548828125,0.8608007431030273,-0.2961256802082062,0.47882384061813354
1782968799538474800,5.537474853515625,0.900341808795929,-0.31027743220329285,0.4561938941478729
1782968799548401000,5.54740087890625,0.9021511673927307,-0.32138919830322266,0.3851109445095062
1782968799558327800,5.557327880859375,0.8604061007499695,-0.30267491936683655,0.28261706233024597
1782968799568253700,5.567253662109375,0.7870314717292786,-0.24779461324214935,0.1694984883069992
1782968799578179800,5.577179931640625,0.7132914662361145,-0.1834545135498047,0.09294138848781586
1782968799588106800,5.587106689453125,0.6498427391052246,-0.13387976586818695,0.06605278700590134
1782968799598033000,5.597032958984375,0.597891092300415,-0.11087991297245026,0.08515989780426025
1782968799607958800,5.606958740234375,0.5551111698150635,-0.1252410113811493,0.11709173768758774
1782968799617886000,5.616885986328125,0.5038160085678101,-0.1624203324317932,0.11728854477405548
1782968799627811800,5.626811767578125,0.42716410756111145,-0.21300548315048218,0.07208830863237381
1782968799637737700,5.63673779296875,0.32968708872795105,-0.25413987040519714,-0.0306394025683403
1782968799647665000,5.646664794921875,0.2052125334739685,-0.2601889669895172,-0.17757052183151245
1782968799657590800,5.6565908203125,0.06470096856355667,-0.19272524118423462,-0.3386811316013336
1782968799667517000,5.666516845703125,-0.07809613645076752,-0.03237871080636978,-0.46259188652038574
1782968799677443800,5.67644384765625,-0.20441944897174835,0.1939162164926529,-0.5205150842666626
1782968799687369700,5.68636962890625,-0.29442471265792847,0.44437745213508606,-0.5100962519645691
1782968799697296000,5.6962958984375,-0.3521828055381775,0.6749981641769409,-0.43546783924102783
1782968799707223000,5.70622314453125,-0.3669183552265167,0.8182793855667114,-0.3152218759059906
1782968799717148400,5.7161484375,-0.36322349309921265,0.8710038661956787,-0.21292825043201447
1782968799727074300,5.72607421875,-0.3508528172969818,0.831597626209259,-0.16308265924453735
1782968799737001500,5.73600146484375,-0.3403831422328949,0.6967843770980835,-0.16067250072956085
1782968799746927400,5.74592724609375,-0.3329167068004608,0.5008013248443604,-0.19160804152488708
1782968799756853200,5.755853271484375,-0.33155903220176697,0.31873244047164917,-0.21650220453739166
1782968799766780400,5.765780517578125,-0.350755900144577,0.21800397336483002,-0.22311776876449585
1782968799776706600,5.77570654296875,-0.3902590870857239,0.2003176510334015,-0.2203078716993332
1782968799786632200,5.785632080078125,-0.44836100935935974,0.2630992829799652,-0.22707602381706238
1782968799796559400,5.795559326171875,-0.5345070958137512,0.3938692808151245,-0.24654346704483032
1782968799806485500,5.805485595703125,-0.626663088798523,0.5599038004875183,-0.25692686438560486
1782968799816411100,5.8154111328125,-0.7089577317237854,0.7133117318153381,-0.2507009208202362
1782968799826338300,5.82533837890625,-0.7515248656272888,0.8243684768676758,-0.22337450087070465
1782968799836264400,5.835264404296875,-0.7629730105400085,0.8756330013275146,-0.19174839556217194
1782968799846190300,5.8451904296875,-0.759645938873291,0.8394840359687805,-0.17778703570365906
1782968799856117200,5.8551171875,-0.7506617307662964,0.7195647954940796,-0.16907210648059845
1782968799866043400,5.86504345703125,-0.7419931888580322,0.5427436828613281,-0.17452600598335266
1782968799875969500,5.874969482421875,-0.7367302179336548,0.32090210914611816,-0.19378997385501862
1782968799885896400,5.884896484375,-0.7441021203994751,0.06681524962186813,-0.24121634662151337
1782968799895822300,5.894822265625,-0.7721494436264038,-0.17079703509807587,-0.3253677189350128
1782968799905748500,5.90474853515625,-0.8164244890213013,-0.3442346155643463,-0.42419254779815674
1782968799915675400,5.91467529296875,-0.8656368255615234,-0.4353671669960022,-0.5315677523612976
1782968799925601300,5.924601318359375,-0.9182651042938232,-0.4528420567512512,-0.6179231405258179
1782968799935527400,5.93452734375,-0.9617601633071899,-0.4141489863395691,-0.6649374961853027
1782968799945454300,5.944454345703125,-1.0086314678192139,-0.33158645033836365,-0.6750183701515198
1782968799955380500,5.95438037109375,-1.047844648361206,-0.2537025809288025,-0.6613821983337402
1782968799965306400,5.964306396484375,-1.0759378671646118,-0.18193838000297546,-0.6398282051086426
1782968799975233300,5.9742333984375,-1.0801246166229248,-0.14080744981765747,-0.599980890750885
1782968799985159400,5.984159423828125,-1.0767536163330078,-0.12670041620731354,-0.5592377185821533
1782968799995085300,5.994085205078125,-1.0622590780258179,-0.12746767699718475,-0.5295573472976685
1782968800005012200,6.00401220703125,-1.0402909517288208,-0.11139257252216339,-0.5202010869979858
1782968800014938400,6.0139384765625,-1.0052276849746704,-0.08159259706735611,-0.5257319808006287
1782968800024864500,6.023864501953125,-0.9659455418586731,-0.06049583479762077,-0.5313001275062561
1782968800034791200,6.033791259765625,-0.9044225215911865,-0.0436934195458889,-0.5516043305397034
1782968800044717300,6.04371728515625,-0.8841244578361511,-0.02983965538442135,-0.5746721029281616
1782968800054643500,6.0536435546875,-0.9218034148216248,-0.04471180960536003,-0.5598816871643066
1782968800064570400,6.0635703125,-0.8962474465370178,-0.0075516593642532825,-0.5680527687072754
1782968800074496300,6.073496337890625,-0.9674704670906067,0.1510092169046402,-0.6682822108268738
1782968800084422400,6.08342236328125,-1.1400989294052124,0.25031715631484985,-0.6262069344520569
1782968800094349300,6.093349365234375,-1.2764030694961548,0.2705944776535034,-0.6098678708076477
1782968800104275200,6.103275146484375,-1.404309630393982,0.38255536556243896,-0.5947831869125366
1782968800114201300,6.113201416015625,-1.4962302446365356,0.5402818918228149,-0.5904044508934021
1782968800124128300,6.123128173828125,-1.4989292621612549,0.7343416213989258,-0.6146104335784912
1782968800134054400,6.133054443359375,-1.4015114307403564,0.950032651424408,-0.6498389840126038
1782968800143980300,6.142980224609375,-1.231335997581482,1.0707281827926636,-0.6327955722808838
1782968800153907200,6.1529072265625,-1.0733569860458374,1.0271663665771484,-0.5614478588104248
1782968800163833300,6.162833251953125,-0.8325073719024658,0.7097952961921692,-0.38600441813468933
1782968800173759500,6.172759521484375,-0.6062899231910706,0.23489266633987427,-0.15064729750156403
1782968800183686100,6.18268603515625,-0.42223674058914185,-0.2214421033859253,-0.015425828285515308
1782968800193612300,6.1926123046875,-0.18998298048973083,-0.5199198722839355,0.051965996623039246
1782968800203538400,6.202538330078125,0.040219057351350784,-0.6164069771766663,0.09840700030326843
1782968800213465300,6.21246533203125,0.2384924590587616,-0.5685899257659912,0.17108333110809326
1782968800223391200,6.22239111328125,0.39610791206359863,-0.4223480522632599,0.2906246483325958
1782968800233317400,6.2323173828125,0.49886199831962585,-0.21125684678554535,0.4204236567020416
1782968800243244300,6.242244384765625,0.5360788702964783,0.01973508857190609,0.5012354254722595
1782968800253170200,6.252170166015625,0.5356431603431702,0.2266262173652649,0.5300865173339844
1782968800263096300,6.262096435546875,0.5158252716064453,0.38484781980514526,0.5409772396087646
1782968800273023500,6.2720234375,0.5103378295898438,0.4773242175579071,0.5491635203361511
1782968800282949400,6.281949462890625,0.5322982668876648,0.48516643047332764,0.5621863603591919
1782968800292875300,6.291875244140625,0.5804487466812134,0.454316109418869,0.5806426405906677
1782968800302802400,6.301802490234375,0.6479918360710144,0.3991338014602661,0.6008709073066711
1782968800312728300,6.311728271484375,0.7336702346801758,0.3123112916946411,0.6241648197174072
1782968800322654200,6.321654296875,0.8135133981704712,0.19772399961948395,0.646673321723938
1782968800332581400,6.331581298828125,0.8913751840591431,0.08040269464254379,0.6843903064727783
1782968800342507300,6.34150732421875,0.9633103609085083,0.0043838294222950935,0.7328090071678162
1782968800352433400,6.351433349609375,1.034990668296814,-0.05391303449869156,0.7803663611412048
1782968800362360300,6.3613603515625,1.1064462661743164,-0.09334219992160797,0.8076273202896118
1782968800372286200,6.3712861328125,1.2148480415344238,-0.0857900083065033,0.8448042273521423
1782968800382212400,6.38121240234375,1.3615977764129639,-0.042998332530260086,0.8866264820098877
1782968800392139500,6.391139404296875,1.5070258378982544,-0.014051636680960655,0.9180797934532166
1782968800402065200,6.401065185546875,1.6163432598114014,-0.03217657655477524,0.9199759364128113
1782968800411991300,6.4109912109375,1.6507949829101562,-0.15882720053195953,0.8787456750869751
1782968800421918500,6.42091845703125,1.6182661056518555,-0.36201971769332886,0.7910616397857666
1782968800431844400,6.43084423828125,1.5339552164077759,-0.5687412023544312,0.6755371689796448
1782968800441770200,6.440770263671875,1.4228297472000122,-0.7292278409004211,0.5348202586174011
1782968800451697400,6.450697509765625,1.2871004343032837,-0.8331078886985779,0.3782232105731964
1782968800461623600,6.46062353515625,1.1175521612167358,-0.8766028881072998,0.239246666431427
1782968800471549200,6.470549072265625,0.9466432332992554,-0.8721157312393188,0.17272676527500153
1782968800481476400,6.480476318359375,0.8089857697486877,-0.8457635045051575,0.16910913586616516
1782968800491402500,6.490402587890625,0.7177200317382812,-0.8065479397773743,0.20073390007019043
1782968800501328100,6.500328125,0.6643324494361877,-0.7501426935195923,0.24159371852874756
1782968800511255300,6.51025537109375,0.6425486207008362,-0.6573967933654785,0.27497032284736633
1782968800521181400,6.520181396484375,0.6313744783401489,-0.5391945242881775,0.2690732777118683
1782968800531107300,6.530107421875,0.6134961843490601,-0.41304561495780945,0.22523604333400726
1782968800541034500,6.540034423828125,0.6120378375053406,-0.2680855095386505,0.14456357061862946
1782968800550960400,6.54996044921875,0.6285097599029541,-0.11474841833114624,0.0853939950466156
1782968800560886300,6.55988623046875,0.6399552226066589,0.02510109171271324,0.08366986364126205
1782968800570813400,6.5698134765625,0.6450189352035522,0.11000053584575653,0.12656593322753906
1782968800580739300,6.5797392578125,0.6405054330825806,0.13193991780281067,0.19438466429710388
1782968800590665200,6.589665283203125,0.6358318328857422,0.12767086923122406,0.2860434651374817
1782968800600592400,6.59959228515625,0.6441904306411743,0.0896822139620781,0.38264110684394836
1782968800610518500,6.6095185546875,0.6771856546401978,0.01792041026055813,0.47125327587127686
1782968800620444400,6.6194443359375,0.6945239305496216,-0.08099231868982315,0.5199885964393616
1782968800630371300,6.629371337890625,0.6900894641876221,-0.18754912912845612,0.5225854516029358
1782968800640297500,6.63929736328125,0.6598300933837891,-0.2702421247959137,0.48263323307037354
1782968800650223400,6.649223388671875,0.603489100933075,-0.3200991749763489,0.418864369392395
1782968800660150300,6.659150390625,0.5219963192939758,-0.3357601761817932,0.3342602849006653
1782968800670076400,6.669076416015625,0.40969616174697876,-0.3002948462963104,0.2347046583890915
1782968800680002600,6.67900244140625,0.27761855721473694,-0.23021748661994934,0.1077035591006279
1782968800689929200,6.68892919921875,0.13661696016788483,-0.13983966410160065,-0.033732131123542786
1782968800699855400,6.69885546875,0.0063002402894198895,-0.041909899562597275,-0.17377765476703644
1782968800709781500,6.708781494140625,-0.10947909206151962,0.05130952596664429,-0.2976583242416382
1782968800719708700,6.718708740234375,-0.21892382204532623,0.11500914394855499,-0.3982483148574829
1782968800729634800,6.728634765625,-0.30332818627357483,0.17754149436950684,-0.46260866522789
1782968800739560700,6.738560791015625,-0.3684091866016388,0.2854940593242645,-0.49819114804267883
1782968800749487600,6.748487548828125,-0.4029141664505005,0.4471055865287781,-0.5045872926712036
1782968800759413800,6.758413818359375,-0.40170881152153015,0.6359192132949829,-0.46471041440963745
1782968800769340000,6.76833984375,-0.36282721161842346,0.79872727394104,-0.3586508333683014
1782968800779266800,6.778266845703125,-0.30090072751045227,0.8994578719139099,-0.19996291399002075
1782968800789192700,6.788192626953125,-0.23163455724716187,0.8970882296562195,-0.011518970131874084
1782968800799118800,6.798118896484375,-0.15531715750694275,0.7998862862586975,0.1571613848209381
1782968800809045800,6.808045654296875,-0.09129130095243454,0.6596687436103821,0.24842792749404907
1782968800818971600,6.8179716796875,-0.0571218766272068,0.5077308416366577,0.25570207834243774
1782968800828897800,6.827897705078125,-0.059606604278087616,0.3758002519607544,0.18321695923805237
1782968800838824700,6.83782470703125,-0.10470590740442276,0.2979821562767029,0.06367111951112747
1782968800848750800,6.847750732421875,-0.19055503606796265,0.27820447087287903,-0.059846822172403336
1782968800858676700,6.8576767578125,-0.289718896150589,0.28638702630996704,-0.13681218028068542
1782968800868603600,6.867603759765625,-0.39767545461654663,0.3332839608192444,-0.14720383286476135
1782968800878529800,6.87752978515625,-0.49420785903930664,0.4038420021533966,-0.10202357172966003
1782968800888455700,6.88745556640625,-0.5798529982566833,0.45245614647865295,-0.08543713390827179
1782968800898382600,6.897382568359375,-0.6319335103034973,0.4678223133087158,-0.11405173689126968
1782968800908308700,6.907308837890625,-0.6665790677070618,0.44331565499305725,-0.15932920575141907
1782968800918235000,6.91723486328125,-0.6805761456489563,0.34541597962379456,-0.20850341022014618
1782968800928161500,6.92716162109375,-0.6797284483909607,0.17965391278266907,-0.25278112292289734
1782968800938087700,6.937087646484375,-0.6873267292976379,-0.030133668333292007,-0.29140999913215637
1782968800948013800,6.947013916015625,-0.702041506767273,-0.24907027184963226,-0.3353921175003052
1782968800957940700,6.956940673828125,-0.7285151481628418,-0.4232921302318573,-0.39701953530311584
1782968800967866600,6.96686669921875,-0.765468418598175,-0.524817943572998,-0.4659096300601959
1782968800977792800,6.976792724609375,-0.8211497664451599,-0.5361552834510803,-0.5130254626274109
1782968800987719700,6.9867197265625,-0.8900425434112549,-0.4620722830295563,-0.536387026309967
1782968800997645600,6.9966455078125,-0.9482209086418152,-0.30726540088653564,-0.5374258756637573
1782968801007571700,7.00657177734375,-0.9848007559776306,-0.09927172213792801,-0.5262256860733032
1782968801017498600,7.01649853515625,-0.9963218569755554,0.09872551262378693,-0.5158359408378601
1782968801027424800,7.0264248046875,-0.9852657318115234,0.23443886637687683,-0.5262443423271179
1782968801037350700,7.0363505859375,-0.9425345063209534,0.3060624599456787,-0.5399383306503296
1782968801047277600,7.046277587890625,-0.8827963471412659,0.2853105664253235,-0.5477315187454224
1782968801057203700,7.05620361328125,-0.8130497336387634,0.1764695793390274,-0.5184119939804077
1782968801067129600,7.066129638671875,-0.7697334289550781,0.04700133204460144,-0.4602682590484619
1782968801077056800,7.076056884765625,-0.7353802919387817,-0.03242292255163193,-0.4038228392601013
1782968801086982700,7.085982666015625,-0.7172287106513977,-0.04589691758155823,-0.3681090474128723
1782968801096908800,7.09590869140625,-0.6992483735084534,-0.02315538562834263,-0.32589900493621826
1782968801106835700,7.105835693359375,-0.6836131811141968,0.025248099118471146,-0.2727649509906769
1782968801116761600,7.11576171875,-0.6895850896835327,0.03574761003255844,-0.2347499281167984
1782968801126687700,7.125687744140625,-0.7362106442451477,0.11350499093532562,-0.199830561876297
1782968801136615000,7.135614990234375,-0.8198176622390747,0.18863782286643982,-0.15587109327316284
1782968801146540500,7.14554052734375,-0.964457631111145,0.21679569780826569,-0.17395421862602234
1782968801156466700,7.155466796875,-1.2230650186538696,0.32251226902008057,-0.2657051682472229
1782968801166393900,7.165393798828125,-1.5009125471115112,0.6085985898971558,-0.46754029393196106
1782968801176319700,7.17531982421875,-1.5582016706466675,0.9531224370002747,-0.809715747833252
1782968801186245600,7.18524560546875,-1.452714443206787,1.2273060083389282,-1.047174334526062
1782968801196172800,7.1951728515625,-1.224840521812439,1.3171265125274658,-1.0903048515319824
1782968801206098700,7.2050986328125,-0.9401879906654358,1.1605643033981323,-1.0463781356811523
1782968801216024600,7.215024658203125,-0.5245737433433533,0.8025153875350952,-0.7667965292930603
1782968801225951700,7.22495166015625,-0.15416081249713898,0.3466447591781616,-0.311239093542099
1782968801235877600,7.234877685546875,0.12551690638065338,-0.08745288103818893,0.12671346962451935
1782968801245803800,7.2448037109375,0.3541437089443207,-0.3814584016799927,0.45135146379470825
1782968801255730700,7.254730712890625,0.5271841883659363,-0.5064051151275635,0.6029945015907288
1782968801265656800,7.26465673828125,0.6468525528907776,-0.5048500895500183,0.5996139049530029
1782968801275582700,7.274582763671875,0.7047704458236694,-0.41056597232818604,0.5014652609825134
1782968801285510000,7.284510009765625,0.7023118138313293,-0.28881528973579407,0.3596346080303192
1782968801295435800,7.294435791015625,0.6494703888893127,-0.20438829064369202,0.21942423284053802
1782968801305361700,7.304361572265625,0.5950292944908142,-0.17585039138793945,0.14436623454093933
1782968801315288800,7.314288818359375,0.5780284404754639,-0.17313237488269806,0.1579664647579193
1782968801325214700,7.324214599609375,0.607149064540863,-0.15908019244670868,0.25240081548690796
1782968801335140600,7.334140625,0.6959231495857239,-0.12042787671089172,0.41204002499580383
1782968801345067800,7.34406787109375,0.8214443325996399,-0.05638604238629341,0.6055071949958801
1782968801354994000,7.353993896484375,0.9416090846061707,0.0491022989153862,0.7851774096488953
1782968801364919600,7.36391943359375,1.0385055541992188,0.15070056915283203,0.9167540669441223
1782968801374846700,7.3738466796875,1.105812430381775,0.19743983447551727,0.9814419746398926
1782968801384772900,7.38377294921875,1.1449986696243286,0.19333617389202118,0.9654403328895569
1782968801394698500,7.393698486328125,1.1383154392242432,0.14051370322704315,0.873667299747467
1782968801404625700,7.403625732421875,1.08465576171875,0.017302557826042175,0.7386913895606995
1782968801414551800,7.4135517578125,1.0192266702651978,-0.15478505194187164,0.5866861343383789
1782968801424477700,7.423477783203125,0.9780253767967224,-0.3461228013038635,0.43759918212890625
1782968801434404600,7.433404541015625,0.9685754179954529,-0.5236600041389465,0.3031449615955353
1782968801444330800,7.443330810546875,0.9941686987876892,-0.6904883980751038,0.18643325567245483
1782968801454257000,7.4532568359375,1.0383998155593872,-0.8142125010490417,0.107088103890419
1782968801464183800,7.463183837890625,1.0776667594909668,-0.8793928027153015,0.07300762832164764
1782968801474109700,7.473109619140625,1.0930787324905396,-0.9064161777496338,0.11525095999240875
1782968801484035800,7.483035888671875,1.0714679956436157,-0.8952493071556091,0.22646589577198029
1782968801493962800,7.492962646484375,1.0039153099060059,-0.8538264632225037,0.3747935891151428
1782968801503888600,7.502888671875,0.9190806150436401,-0.800661027431488,0.4753904938697815
1782968801513814800,7.512814697265625,0.8567426204681396,-0.726552426815033,0.47051212191581726
1782968801523741700,7.52274169921875,0.8086054921150208,-0.6154719591140747,0.3528589904308319
1782968801533667800,7.532667724609375,0.7507032752037048,-0.49454793334007263,0.17039410769939423
1782968801543594800,7.5425947265625,0.6808232665061951,-0.39713695645332336,-0.016386697068810463
1782968801553520600,7.552520751953125,0.6374238729476929,-0.31048357486724854,-0.13927453756332397
1782968801563446800,7.56244677734375,0.6255736351013184,-0.2465013861656189,-0.16240328550338745
1782968801573372700,7.57237255859375,0.6321969032287598,-0.17708556354045868,-0.07751236855983734
1782968801583299600,7.582299560546875,0.6598724722862244,-0.10556744039058685,0.05662679299712181
1782968801593225700,7.592225830078125,0.7127149105072021,-0.07677973061800003,0.20024654269218445
1782968801603152000,7.60215185546875,0.7802878022193909,-0.06472653150558472,0.33232441544532776
1782968801613078800,7.612078857421875,0.8463219404220581,-0.09139382839202881,0.4261089563369751
1782968801623004700,7.622004638671875,0.8897740840911865,-0.1536998152732849,0.4860450029373169
1782968801632931600,7.631931640625,0.8969515562057495,-0.23004278540611267,0.511965274810791
1782968801642857700,7.641857666015625,0.8589338660240173,-0.33358436822891235,0.5076424479484558
1782968801652783600,7.65178369140625,0.7874634265899658,-0.44408050179481506,0.47184130549430847
1782968801662709800,7.661709716796875,0.6865496039390564,-0.5127996802330017,0.3976839780807495
1782968801672636700,7.67163671875,0.5626258254051208,-0.5141509175300598,0.3067684471607208
1782968801682562800,7.681562744140625,0.4158978760242462,-0.4485098719596863,0.20551294088363647
1782968801692489700,7.69148974609375,0.27830326557159424,-0.3145297169685364,0.11196594685316086
1782968801702415600,7.70141552734375,0.1519021838903427,-0.157298281788826,0.036665335297584534
1782968801712341800,7.711341796875,0.03509460389614105,0.01251179724931717,-0.005810751114040613
1782968801722268700,7.7212685546875,-0.08316359668970108,0.14925792813301086,-0.014454307034611702
1782968801732194600,7.731194580078125,-0.18451792001724243,0.23765942454338074,-0.00563977612182498
1782968801742120700,7.74112060546875,-0.2670615315437317,0.28720754384994507,-0.012533901259303093
1782968801752047600,7.751047607421875,-0.31690284609794617,0.30655381083488464,-0.034234669059515
1782968801761973500,7.760973388671875,-0.3326796889305115,0.31090274453163147,-0.05934881046414375
1782968801771899600,7.770899658203125,-0.3277565538883209,0.3404281437397003,-0.07998564839363098
1782968801781826800,7.780826904296875,-0.3174474537372589,0.365664541721344,-0.09334832429885864
1782968801791752700,7.790752685546875,-0.3006719648838043,0.38964948058128357,-0.0917312502861023
1782968801801678600,7.8006787109375,-0.2810276746749878,0.40402284264564514,-0.059854812920093536
1782968801811605800,7.810605712890625,-0.2806876003742218,0.39175739884376526,-0.004363855812698603
1782968801821531600,7.82053173828125,-0.30369943380355835,0.4024595618247986,0.09613318741321564
1782968801831457500,7.83045751953125,-0.33433961868286133,0.4406951069831848,0.19290101528167725
1782968801841384700,7.840384765625,-0.38734427094459534,0.4998559057712555,0.2366868406534195
1782968801851310800,7.850310791015625,-0.4603508412837982,0.5594622492790222,0.22121042013168335
1782968801861236500,7.860236572265625,-0.5697728991508484,0.6748615503311157,0.16767342388629913
1782968801871163600,7.87016357421875,-0.6752293109893799,0.7359850406646729,0.0590212419629097
1782968801881089800,7.88008984375,-0.7317641973495483,0.7171922326087952,-0.06518299877643585
1782968801891015400,7.890015380859375,-0.7401614189147949,0.6224028468132019,-0.12638776004314423
1782968801900942600,7.899942626953125,-0.7194359302520752,0.49513864517211914,-0.11323121935129166
1782968801910868700,7.90986865234375,-0.6839724779129028,0.3646405339241028,-0.04349900782108307
1782968801920794600,7.919794677734375,-0.6519263982772827,0.22392603754997253,0.005270928610116243
1782968801930721500,7.929721435546875,-0.6311015486717224,0.0654839351773262,-0.014595454558730125
1782968801940647700,7.939647705078125,-0.6441265344619751,-0.020555607974529266,-0.08031187951564789
1782968801950573600,7.949573486328125,-0.6692808866500854,-0.10211731493473053,-0.17553453147411346
1782968801960500700,7.959500732421875,-0.6307148337364197,-0.1480989158153534,-0.27414846420288086
1782968801970426600,7.969426513671875,-0.706529974937439,-0.24918745458126068,-0.38331568241119385
1782968801980352800,7.979352783203125,-0.9094828367233276,-0.33957380056381226,-0.47376197576522827
1782968801990279700,7.98927978515625,-1.0802308320999146,-0.22664380073547363,-0.5182868242263794
1782968802000205800,7.999205810546875,-1.1773771047592163,-0.17575211822986603,-0.5541646480560303
1782968802010131700,8.009131591796875,-1.233791708946228,-0.13567714393138885,-0.5764028429985046
1782968802020058600,8.01905859375,-1.2626280784606934,-0.06543652713298798,-0.5661092400550842
1782968802029984800,8.02898486328125,-1.2756277322769165,-0.004287689458578825,-0.5596593022346497
1782968802039910700,8.03891064453125,-1.2807942628860474,0.04903731867671013,-0.5320526957511902
1782968802049837600,8.048837646484374,-1.208991527557373,0.009249158203601837,-0.4717179834842682
1782968802059763700,8.058763671875,-1.1282548904418945,-0.0630897507071495,-0.35973232984542847
1782968802069689900,8.06868994140625,-1.0689995288848877,-0.31681790947914124,-0.23351901769638062
1782968802079616500,8.078616455078125,-1.0576975345611572,-0.6231264472007751,-0.10084804892539978
1782968802089542700,8.088542724609376,-1.059182047843933,-0.8308756351470947,0.021997444331645966
1782968802099468800,8.09846875,-1.0581353902816772,-0.9946333765983582,0.09380398690700531
1782968802109395700,8.108395751953125,-1.055301308631897,-1.0791858434677124,0.09849222004413605
1782968802119321600,8.118321533203124,-1.0603288412094116,-1.0413234233856201,0.05285149812698364
1782968802129247700,8.128247802734375,-1.0576927661895752,-0.8844975829124451,-0.03756388649344444
1782968802139174700,8.138174560546876,-1.060455322265625,-0.7484390735626221,-0.1659191995859146
1782968802149100500,8.1481005859375,-1.0706403255462646,-0.6658299565315247,-0.25713247060775757
1782968802159026700,8.158026611328125,-1.0717463493347168,-0.5923581123352051,-0.31169822812080383
1782968802168953600,8.16795361328125,-1.0044481754302979,-0.42747968435287476,-0.3646541237831116
1782968802178879700,8.177879638671875,-0.8644530177116394,-0.17766906321048737,-0.4020180106163025
1782968802188805600,8.1878056640625,-0.654380738735199,0.23070858418941498,-0.49733468890190125
1782968802198732500,8.197732666015625,-0.4860950708389282,0.6263166069984436,-0.6821362376213074
1782968802208658700,8.20765869140625,-0.3441368639469147,0.9904146790504456,-0.8510826230049133
1782968802218584600,8.21758447265625,-0.2812868058681488,1.0957738161087036,-0.8670600056648254
1782968802228511500,8.227511474609376,-0.2358705848455429,0.8911291360855103,-0.6401600241661072
1782968802238437600,8.237437744140625,-0.1396487057209015,0.49906492233276367,-0.2522287964820862
1782968802248363800,8.24736376953125,-0.06628607958555222,0.1086372658610344,0.10321559756994247
1782968802258290400,8.25729052734375,0.03175393491983414,-0.1640467345714569,0.3789113759994507
1782968802268216600,8.267216552734375,0.13299560546875,-0.32609447836875916,0.5265436768531799
1782968802278142700,8.277142822265626,0.25787869095802307,-0.333353728055954,0.5434832572937012
1782968802288069600,8.287069580078125,0.36411669850349426,-0.22076167166233063,0.4991035461425781
1782968802297995500,8.29699560546875,0.47881025075912476,-0.039147935807704926,0.4264530539512634
1782968802307921700,8.306921630859375,0.5622891783714294,0.023876303806900978,0.3229066729545593
1782968802317848600,8.3168486328125,0.718486487865448,0.22303441166877747,0.29174768924713135
1782968802327774500,8.3267744140625,0.8042895793914795,0.573827862739563,0.31312328577041626
1782968802337700600,8.33670068359375,0.7346601486206055,0.5100666880607605,0.4885939061641693
1782968802347627500,8.34662744140625,0.6472392082214355,0.31060102581977844,0.6983593702316284
1782968802357553700,8.3565537109375,0.6498664021492004,0.1778315156698227,0.7642388343811035
1782968802367479600,8.3664794921875,0.6919792890548706,0.2705332338809967,0.7932180166244507
1782968802377406700,8.37640673828125,0.7775511741638184,0.421406090259552,0.8356024622917175
1782968802387332600,8.38633251953125,0.7900552153587341,0.40168964862823486,0.8602004647254944
1782968802397259800,8.396259765625,0.7935943007469177,0.44941428303718567,0.8922236561775208
1782968802407185700,8.406185546875,0.8152514100074768,0.5042024254798889,0.8930031657218933
1782968802417112600,8.416112548828124,0.8410789966583252,0.5455256700515747,0.8349303007125854
1782968802427038700,8.426038818359375,0.8597773313522339,0.5204479694366455,0.7177969813346863
1782968802436964900,8.43596484375,0.8325662016868591,0.3138303756713867,0.5465584397315979
1782968802446891500,8.4458916015625,0.8122846484184265,-0.11467757821083069,0.4058558940887451
1782968802456817700,8.455817626953126,0.7637621164321899,-0.46862101554870605,0.3822866380214691
1782968802466743800,8.465743896484375,0.7337064743041992,-0.6847503781318665,0.40600210428237915
1782968802476670700,8.475670654296875,0.7090815305709839,-0.7981565594673157,0.42756783962249756
1782968802486596600,8.4855966796875,0.6657937169075012,-0.824437141418457,0.4379690885543823
1782968802496522800,8.495522705078125,0.5783445835113525,-0.7066889405250549,0.4495490491390228
1782968802506449700,8.50544970703125,0.5047899484634399,-0.4578397274017334,0.502169668674469
1782968802516375600,8.51537548828125,0.4459836184978485,-0.15445907413959503,0.5694749355316162
1782968802526301700,8.5253017578125,0.3527545928955078,-0.037164412438869476,0.5238922238349915
1782968802536228600,8.535228515625,0.20105108618736267,-0.02900741621851921,0.4035453200340271
1782968802546154800,8.54515478515625,0.10262677818536758,-0.004613127559423447,0.31860247254371643
1782968802556080600,8.55508056640625,0.09259997308254242,0.02889343351125717,0.320911169052124
1782968802566007600,8.565007568359375,0.13994112610816956,0.06482932716608047,0.3880191147327423
1782968802575933700,8.57493359375,0.20636701583862305,0.1143268421292305,0.4964773952960968
1782968802585859600,8.584859619140625,0.25483760237693787,0.18277859687805176,0.5782058238983154
1782968802595786500,8.594786376953126,0.2810652256011963,0.23243270814418793,0.6211016178131104
1782968802605712600,8.604712646484375,0.296737402677536,0.2796928882598877,0.6204526424407959
1782968802615638800,8.614638671875,0.28266072273254395,0.342654287815094,0.56075119972229
1782968802625565400,8.6245654296875,0.24901755154132843,0.39064285159111023,0.4471849501132965
1782968802635491600,8.63449169921875,0.20715078711509705,0.4420389235019684,0.30617350339889526
1782968802645417700,8.644417724609376,0.1904652863740921,0.47770771384239197,0.19031721353530884
1782968802655344600,8.6543447265625,0.1981586217880249,0.4729244112968445,0.14689676463603973
1782968802665270500,8.6642705078125,0.2252459079027176,0.4356633126735687,0.1737624704837799
1782968802675196700,8.67419677734375,0.2652950584888458,0.37540584802627563,0.22302615642547607
1782968802685123600,8.68412353515625,0.30317291617393494,0.2972268760204315,0.2700115144252777
1782968802695049500,8.694049560546874,0.32054606080055237,0.19393964111804962,0.29752781987190247
1782968802704976600,8.7039765625,0.39076268672943115,0.1693144589662552,0.3369583189487457
1782968802714902500,8.713902587890624,0.4731537103652954,0.08508612960577011,0.2637576162815094
1782968802724828400,8.723828369140625,0.34956997632980347,-0.0744049921631813,0.11866646260023117
1782968802734755300,8.73375537109375,0.08139046281576157,-0.13446886837482452,-0.010430802591145039
1782968802744681500,8.743681396484375,-0.035473037511110306,-0.1774432212114334,-0.139817014336586
1782968802754607400,8.753607421875,-0.14112703502178192,-0.19643369317054749,-0.23565086722373962
1782968802764534500,8.763534423828125,-0.21756933629512787,-0.15737071633338928,-0.29010558128356934
1782968802774460400,8.77346044921875,-0.21536371111869812,-0.05441050976514816,-0.3017910122871399
1782968802784386300,8.78338623046875,-0.17877987027168274,0.06555530428886414,-0.2658569812774658
1782968802794313500,8.7933134765625,-0.12894946336746216,0.20995163917541504,-0.18662899732589722
1782968802804239400,8.8032392578125,-0.07898589223623276,0.31423303484916687,-0.11012783646583557
1782968802814165200,8.813165283203125,-0.04932627081871033,0.3258015513420105,-0.07575894147157669
1782968802824092400,8.823092529296876,-0.06073605269193649,0.25527089834213257,-0.07929961383342743
1782968802834018600,8.8330185546875,-0.11350419372320175,0.12367986142635345,-0.10143633931875229
1782968802843944200,8.842944091796875,-0.19135478138923645,-0.03817028924822807,-0.15111520886421204
1782968802853871400,8.852871337890624,-0.2734760046005249,-0.18865540623664856,-0.21309629082679749
1782968802863797500,8.862797607421875,-0.35011807084083557,-0.27954936027526855,-0.27129489183425903
1782968802873723400,8.872723388671876,-0.413897842168808,-0.2763961851596832,-0.3167979121208191
1782968802883650300,8.882650390625,-0.48004570603370667,-0.21122196316719055,-0.3606037199497223
1782968802893576400,8.892576416015626,-0.5395111441612244,-0.13457432389259338,-0.3868766129016876
1782968802903502600,8.902502685546875,-0.5909762382507324,-0.07161160558462143,-0.37384602427482605
1782968802913429500,8.912429443359375,-0.6239320039749146,-0.041378334164619446,-0.3157001733779907
1782968802923355400,8.92235546875,-0.6455464959144592,-0.04487612843513489,-0.2410014271736145
1782968802933281500,8.932281494140625,-0.6676225066184998,-0.06479897350072861,-0.1891041398048401
1782968802943208400,8.94220849609375,-0.6978515386581421,-0.08534206449985504,-0.21071302890777588
1782968802953134300,8.95213427734375,-0.7456094622612,-0.17305167019367218,-0.3161148130893707
1782968802963060500,8.962060546875,-0.8157994747161865,-0.34805330634117126,-0.45827117562294006
1782968802972987400,8.9719873046875,-0.8838704228401184,-0.5658205151557922,-0.5719873309135437
1782968802982913500,8.98191357421875,-0.8714480996131897,-0.7258328199386597,-0.6681019067764282
1782968802992839400,8.99183935546875,-0.9318392872810364,-0.7630733847618103,-0.709815502166748
1782968803002766300,9.001766357421875,-1.0078935623168945,-0.748080849647522,-0.6861996650695801
1782968803012692500,9.0116923828125,-0.9983298778533936,-0.8334335684776306,-0.6312983632087708
1782968803022618400,9.021618408203125,-0.8317749500274658,-0.923056960105896,-0.5933461785316467
1782968803032545300,9.031545166015626,-0.7442320585250854,-1.0551213026046753,-0.5587205290794373
1782968803042471400,9.041471435546875,-0.7411510944366455,-0.9835426807403564,-0.48551902174949646
1782968803052397600,9.0513974609375,-0.7287298440933228,-0.9757388234138489,-0.43570300936698914
1782968803062324200,9.06132421875,-0.7849630117416382,-1.014371395111084,-0.45061323046684265
1782968803072250400,9.07125048828125,-0.8894944787025452,-1.0104831457138062,-0.4448147416114807
1782968803082176500,9.081176513671876,-0.9778544306755066,-0.9349753856658936,-0.366566002368927
1782968803092103400,9.091103515625,-1.0224682092666626,-0.9241365790367126,-0.2515062689781189
1782968803102029300,9.101029296875,-1.0045243501663208,-1.0188732147216797,-0.11698867380619049
1782968803111955500,9.11095556640625,-1.0169360637664795,-1.1158673763275146,0.022053370252251625
1782968803121882400,9.12088232421875,-1.1273683309555054,-1.1128164529800415,0.08887128531932831
1782968803131808300,9.130808349609374,-1.2142133712768555,-1.1456674337387085,0.09968158602714539
1782968803141734400,9.140734375,-1.1905959844589233,-1.0931158065795898,0.06279201060533524
1782968803151661300,9.150661376953124,-1.226255178451538,-0.7719582319259644,-0.041898712515830994
1782968803161587500,9.16058740234375,-1.366936445236206,-0.4330558180809021,-0.12678803503513336
1782968803171513300,9.170513427734376,-1.2499314546585083,-0.641975998878479,-0.3058547377586365
1782968803181440300,9.180440185546875,-1.2525584697723389,-0.7154800295829773,-0.44094011187553406
1782968803191366400,9.190366455078125,-1.3194026947021484,-0.4967794120311737,-0.4677749276161194
1782968803201292300,9.200292236328124,-1.2872514724731445,-0.20892073214054108,-0.4712636470794678
1782968803211219200,9.21021923828125,-1.2072316408157349,-0.11613699048757553,-0.5173645615577698
1782968803221145300,9.220145263671874,-1.1408766508102417,0.013435115106403828,-0.49499908089637756
1782968803231071500,9.230071533203125,-1.0710374116897583,0.03630048409104347,-0.39885950088500977
1782968803240998100,9.239998046875,-0.9934147596359253,-0.026820162311196327,-0.2662367522716522
1782968803250924300,9.24992431640625,-0.9458669424057007,-0.08810535818338394,-0.12602052092552185
1782968803260850400,9.259850341796875,-0.8762028813362122,-0.09265296906232834,0.04638773947954178
1782968803270777300,9.26977734375,-0.7812739610671997,0.0025630262680351734,0.2980567216873169
1782968803280703200,9.279703125,-0.7165575623512268,0.07443029433488846,0.5632636547088623
1782968803290629400,9.28962939453125,-0.7351238131523132,0.11121227592229843,0.7587063312530518
1782968803300556500,9.299556640625,-0.7533504962921143,0.17594945430755615,0.8554299473762512
1782968803310482400,9.309482421875,-0.6995804309844971,0.27639803290367126,0.8151594996452332
1782968803320408300,9.319408203125,-0.42048144340515137,0.41965532302856445,0.515997052192688
1782968803330335500,9.32933544921875,0.08013318479061127,0.7027704119682312,-0.14717534184455872
1782968803340261400,9.339261474609375,0.5281969904899597,1.0557814836502075,-0.7258690595626831
1782968803350187300,9.349187255859375,0.7861717939376831,1.3734691143035889,-1.1140977144241333
1782968803360114400,9.359114501953124,0.9650920033454895,1.489644169807434,-1.302176594734192
1782968803370040300,9.369040283203125,1.015709400177002,1.4221689701080322,-1.2368077039718628
1782968803379966500,9.378966552734376,0.9653692841529846,1.3363842964172363,-0.9736772775650024
1782968803389893400,9.388893310546875,0.8783089518547058,1.2108527421951294,-0.6067836880683899
1782968803399819300,9.3988193359375,0.8448550701141357,1.1133238077163696,-0.1925521343946457
1782968803409745400,9.408745361328124,0.931872546672821,0.8738398551940918,0.18008242547512054
1782968803419672600,9.418672607421875,1.0349544286727905,0.5254533886909485,0.4796733856201172
1782968803429598200,9.42859814453125,1.0819624662399292,0.2012537568807602,0.6552902460098267
1782968803439524400,9.4385244140625,1.194351315498352,-0.019357452169060707,0.7373858690261841
1782968803449451500,9.448451416015626,1.2615447044372559,-0.16334551572799683,0.8553127646446228
1782968803459377400,9.45837744140625,1.3930484056472778,-0.11024101823568344,0.9392990469932556
1782968803469303300,9.46830322265625,1.5122328996658325,0.02460680902004242,0.9361213445663452
1782968803479230500,9.47823046875,1.5894684791564941,0.09829727560281754,0.870083749294281
1782968803489156600,9.488156494140625,1.6215401887893677,0.08765368908643723,0.7863193154335022
1782968803499082200,9.498082275390624,1.6255940198898315,0.06542720645666122,0.7438336610794067
1782968803509009400,9.508009521484375,1.5561425685882568,0.13580922782421112,0.771306574344635
1782968803518935600,9.517935546875,1.403488039970398,0.18458156287670135,0.8167584538459778
1782968803528861200,9.527861083984375,1.222320318222046,0.23679789900779724,0.8578715324401855
1782968803538788400,9.537788330078126,1.0675374269485474,0.28712472319602966,0.8584126830101013
1782968803548714500,9.547714599609375,0.9554404616355896,0.3507223427295685,0.8071114420890808
1782968803558640400,9.557640380859375,0.8860515356063843,0.437732070684433,0.7085294723510742
1782968803568567300,9.5675673828125,0.8658045530319214,0.4964773952960968,0.5808665752410889
1782968803578493400,9.577493408203125,0.8751341700553894,0.5407626032829285,0.41759270429611206
1782968803588419300,9.58741943359375,0.9103201031684875,0.5367881059646606,0.279179185628891
1782968803598346500,9.597346435546875,0.9321987628936768,0.4573094844818115,0.17687997221946716
1782968803608272400,9.6072724609375,0.998680055141449,0.36172011494636536,0.11456546187400818
1782968803618198300,9.6171982421875,1.0157243013381958,0.2311117798089981,0.11029002070426941
1782968803628125400,9.62712548828125,0.9847256541252136,0.0777272880077362,0.15066061913967133
1782968803638051300,9.63705126953125,0.9195940494537354,-0.08113027364015579,0.2362562119960785
1782968803647977500,9.6469775390625,0.8464468717575073,-0.20197546482086182,0.3493689298629761
1782968803657904400,9.656904296875,0.7756195664405823,-0.3296620547771454,0.468818336725235
1782968803667830500,9.66683056640625,0.7290640473365784,-0.3458370268344879,0.577867329120636
1782968803677756400,9.67675634765625,0.7320899367332458,-0.31408601999282837,0.6260055899620056
1782968803687683300,9.686683349609375,0.7078453302383423,-0.17766426503658295,0.5720621943473816
1782968803697609500,9.696609375,0.6343165040016174,0.03598703071475029,0.5675920844078064
1782968803707535600,9.70653564453125,0.5847007632255554,0.1720724254846573,0.5552416443824768
1782968803717463000,9.716463134765625,0.5476705431938171,0.273387610912323,0.49698951840400696
1782968803727389200,9.72638916015625,0.4744216501712799,0.30458518862724304,0.4260847270488739
1782968803737315000,9.736315185546875,0.4396689832210541,0.25433748960494995,0.3095780909061432
1782968803747242200,9.7462421875,0.372167706489563,0.2709537446498871,0.16976985335350037
1782968803757168000,9.756168212890625,0.28149133920669556,0.2226293534040451,0.002195776207372546
1782968803767094000,9.766093994140626,0.21079319715499878,0.13607048988342285,-0.19626405835151672
1782968803777021200,9.776021240234375,0.08768138289451599,0.1435622274875641,-0.3517279326915741
1782968803786947000,9.785947021484375,0.0011052117915824056,0.13820527493953705,-0.5187478065490723
1782968803796873200,9.795873291015624,-0.1224750503897667,0.2557888925075531,-0.580478847026825
1782968803806800100,9.805800048828125,-0.21464598178863525,0.3400217592716217,-0.5619610548019409
1782968803816726300,9.815726318359374,-0.22617827355861664,0.41263285279273987,-0.5212762355804443
1782968803826652200,9.825652099609375,-0.24304381012916565,0.5629778504371643,-0.3505593538284302
1782968803836579000,9.8355791015625,-0.18122358620166779,0.5904220342636108,-0.22599345445632935
1782968803846505200,9.845505126953125,-0.10783938318490982,0.602597177028656,-0.1551898568868637
1782968803856431000,9.85543115234375,-0.015510249882936478,0.5158822536468506,-0.13341185450553894
1782968803866358000,9.86535791015625,0.07027682662010193,0.401528537273407,-0.16688379645347595
1782968803876284200,9.8752841796875,0.11037284880876541,0.22862385213375092,-0.2374487668275833
1782968803886210300,9.885210205078126,0.09154589474201202,-0.0034072482958436012,-0.30749496817588806
1782968803896137000,9.895136962890625,0.054529819637537,-0.24582041800022125,-0.3932546079158783
1782968803906063000,9.90506298828125,-0.056947171688079834,-0.25244688987731934,-0.33351564407348633
1782968803915989200,9.9149892578125,-0.18166619539260864,-0.27716848254203796,-0.21218416094779968
1782968803925916200,9.924916259765626,-0.270025372505188,-0.3195857107639313,-0.16530559957027435
1782968803935842000,9.934842041015624,-0.3318524956703186,-0.3241405189037323,-0.20664185285568237
1782968803945768200,9.944768310546875,-0.3682350218296051,-0.2583146393299103,-0.29396796226501465
1782968803955695000,9.954695068359374,-0.36878761649131775,-0.17295047640800476,-0.41065436601638794
1782968803965621000,9.96462109375,-0.3575330972671509,-0.10887268930673599,-0.5475054383277893
1782968803975547100,9.974547119140626,-0.3653734624385834,-0.08461901545524597,-0.6787974238395691
1782968803985474000,9.98447412109375,-0.3752226233482361,-0.0756649300456047,-0.7975930571556091
1782968803995400200,9.994400146484375,-0.38490694761276245,-0.08686565607786179,-0.8822530508041382
1782968804005326000,10.004326171875,-0.4091038703918457,-0.11609278619289398,-0.9377768039703369
1782968804015253000,10.0142529296875,-0.45031923055648804,-0.1461167335510254,-0.9515588879585266
1782968804025179100,10.02417919921875,-0.5024149417877197,-0.1261286437511444,-0.9225515127182007
1782968804035106300,10.034106201171875,-0.5896779298782349,-0.06920517235994339,-0.8775075674057007
1782968804045032000,10.044031982421876,-0.6023122072219849,0.005007541738450527,-0.8670693039894104
1782968804054958000,10.0539580078125,-0.5844660997390747,0.10115271806716919,-0.8862075805664062
1782968804064885200,10.06388525390625,-0.5757424235343933,0.17848078906536102,-0.9387426972389221
1782968804074811000,10.073810791015624,-0.5752928853034973,0.2559915781021118,-0.9834579825401306
1782968804084737000,10.083737060546875,-0.5767133831977844,0.26097753643989563,-0.9728522300720215
1782968804094664200,10.093664306640624,-0.5501347780227661,0.18653897941112518,-0.9428439736366272
1782968804104590000,10.103590087890625,-0.5224291086196899,0.05523902177810669,-0.8832866549491882
1782968804114516000,10.113515869140626,-0.4862460792064667,-0.0801001638174057,-0.8030881881713867
1782968804124443100,10.123443115234375,-0.4624944031238556,-0.17596358060836792,-0.7229611277580261
1782968804134369000,10.133369140625,-0.4821024537086487,-0.2022620290517807,-0.6658174395561218
1782968804144295000,10.143294921875,-0.5895415544509888,-0.1669602245092392,-0.6507708430290222
1782968804154222000,10.15322216796875,-0.7645062208175659,-0.04797791317105293,-0.666706383228302
1782968804164148000,10.16314794921875,-1.0944364070892334,0.0736880674958229,-0.6854521036148071
1782968804174074000,10.17307421875,-1.5421478748321533,0.02881433814764023,-0.6007193922996521
1782968804184001300,10.183001220703124,-1.9362837076187134,-0.06815801560878754,-0.4746309518814087
1782968804193927200,10.19292724609375,-2.015430212020874,-0.06275765597820282,-0.4676809012889862
1782968804203853000,10.20285302734375,-1.8334702253341675,0.08648882061243057,-0.5315091609954834
1782968804213780200,10.2127802734375,-1.4485719203948975,0.29534322023391724,-0.5642005205154419
1782968804223706000,10.2227060546875,-0.9514931440353394,0.47238272428512573,-0.536166787147522
1782968804233632000,10.232632080078124,-0.4557507634162903,0.5541513562202454,-0.401490718126297
1782968804243559200,10.24255908203125,-0.07122091948986053,0.5432550311088562,-0.23824159801006317
1782968804253485300,10.2524853515625,0.19584566354751587,0.45763707160949707,-0.14424559473991394
1782968804263411000,10.262410888671875,0.30893227458000183,0.3255908787250519,-0.0033683660440146923
1782968804273338000,10.272338134765626,0.2977107763290405,0.061170678585767746,0.2055124044418335
1782968804283264300,10.28226416015625,0.2254088819026947,-0.22647948563098907,0.3950099050998688
1782968804293190000,10.29218994140625,0.17458058893680573,-0.3485774099826813,0.4742799699306488
1782968804303117000,10.302116943359374,0.19775435328483582,-0.26499971747398376,0.44933971762657166
1782968804313043200,10.312043212890625,0.27847957611083984,-0.07145101577043533,0.3954485356807709
1782968804322969000,10.321968994140626,0.37266838550567627,0.16215774416923523,0.36715322732925415
1782968804332896000,10.33189599609375,0.4698982536792755,0.36683499813079834,0.38072842359542847
1782968804342822100,10.341822265625,0.5764555931091309,0.5005390048027039,0.4332909882068634
1782968804352748000,10.351748046875,0.6919779181480408,0.5591461062431335,0.4932693541049957
1782968804362675200,10.36167529296875,0.7919487357139587,0.5529792904853821,0.5330654978752136
1782968804372601000,10.37160107421875,0.8711628913879395,0.5038064122200012,0.5429338812828064
1782968804382527200,10.38152734375,0.933375358581543,0.43343693017959595,0.5400334000587463
1782968804392454100,10.3914541015625,0.9851011633872986,0.3475622236728668,0.5495989322662354
1782968804402380000,10.401380126953125,1.0229686498641968,0.27208423614501953,0.5668735504150391
1782968804412306200,10.41130615234375,1.0538181066513062,0.2129114717245102,0.5719807147979736
1782968804422233000,10.421233154296875,1.0860490798950195,0.1949649602174759,0.5538594722747803
1782968804432159200,10.4311591796875,1.1063036918640137,0.18446864187717438,0.5232017040252686
1782968804442085000,10.441085205078124,1.1084803342819214,0.1506584882736206,0.5015462040901184
1782968804452012000,10.451011962890625,1.1069260835647583,0.09874122589826584,0.5237225890159607
1782968804461938200,10.460938232421874,1.128309726715088,0.06708849221467972,0.5829632878303528
1782968804471864000,10.470864013671875,1.1810985803604126,0.04489956423640251,0.6492906808853149
1782968804481791000,10.480791015625,1.2487291097640991,0.011944809928536415,0.7164976596832275
1782968804491717000,10.490717041015625,1.2978662252426147,-0.053640060126781464,0.7889779806137085
1782968804501643300,10.500643310546875,1.3201971054077148,-0.15406785905361176,0.8284918069839478
1782968804511570000,10.51056982421875,1.3098055124282837,-0.27429893612861633,0.8141691088676453
1782968804521496000,10.52049609375,1.218566656112671,-0.41160380840301514,0.7686389088630676
1782968804531422200,10.530422119140624,1.1494735479354858,-0.454063355922699,0.6971687078475952
1782968804541349000,10.54034912109375,1.0787402391433716,-0.5159682631492615,0.5838714241981506
1782968804551275000,10.55027490234375,0.9473758935928345,-0.49372556805610657,0.4499083161354065
1782968804561201200,10.560201171875,0.7947181463241577,-0.44469597935676575,0.3124484419822693
1782968804571128000,10.570128173828126,0.6565091609954834,-0.35364195704460144,0.19582197070121765
1782968804581054200,10.58005419921875,0.5425338745117188,-0.23702053725719452,0.13538286089897156
1782968804590980000,10.58997998046875,0.4652949869632721,-0.11518944054841995,0.12348278611898422
1782968804600907000,10.599906982421874,0.438668429851532,0.0005281048361212015,0.16329677402973175
1782968804610833200,10.609833251953125,0.4590349495410919,0.08133586496114731,0.24068531394004822
1782968804620759000,10.619759033203126,0.49091407656669617,0.11039841175079346,0.3265325725078583
1782968804630686000,10.62968603515625,0.5339730978012085,0.08665846288204193,0.40526095032691956
1782968804640612000,10.639612060546876,0.593325138092041,0.011317902244627476,0.4691395163536072
1782968804650538200,10.649538330078125,0.6524222493171692,-0.093210369348526,0.5106574296951294
1782968804660465000,10.65946484375,0.6948599815368652,-0.1873946636915207,0.5096573829650879
1782968804670391000,10.66939111328125,0.7054729461669922,-0.26959311962127686,0.4620121121406555
1782968804680317200,10.679317138671875,0.6832427382469177,-0.32549262046813965,0.41436177492141724
1782968804690244000,10.689244140625,0.6455097794532776,-0.3408558666706085,0.38057902455329895
1782968804700170000,10.699169921875,0.6439456939697266,-0.31320318579673767,0.3657854497432709
1782968804710096100,10.70909619140625,0.6022704243659973,-0.28829675912857056,0.3568963408470154
1782968804720023000,10.71902294921875,0.5396698713302612,-0.20704559981822968,0.34619763493537903
1782968804729949000,10.728948974609375,0.48551371693611145,-0.10408485680818558,0.31503596901893616
1782968804739875000,10.738875,0.4243624806404114,0.010121343657374382,0.25564801692962646
1782968804749802200,10.74880224609375,0.3400880694389343,0.08062160760164261,0.156064972281456
1782968804759727900,10.758727783203126,0.23195654153823853,0.10051462054252625,0.013640711084008217
1782968804769654000,10.768654052734375,0.11221841722726822,0.08503606170415878,-0.15462392568588257
1782968804779581200,10.778581298828126,-0.005919408053159714,0.0582614429295063,-0.3057979941368103
1782968804789506800,10.7885068359375,-0.11770719289779663,0.051840294152498245,-0.3968735933303833
1782968804799433000,10.798432861328125,-0.20824481546878815,0.09411078691482544,-0.4135737419128418
1782968804809360100,10.808360107421874,-0.2563183307647705,0.19371753931045532,-0.3694044053554535
1782968804819286000,10.8182861328125,-0.2274603247642517,0.36019760370254517,-0.30933842062950134
1782968804829212000,10.8282119140625,-0.1982278674840927,0.46108078956604004,-0.21625187993049622
1782968804839139000,10.83813916015625,-0.16499987244606018,0.5433655381202698,-0.11664272844791412
1782968804849065000,10.84806494140625,-0.14269617199897766,0.49732428789138794,-0.05940500274300575
1782968804858990800,10.857990966796875,-0.14947684109210968,0.40885379910469055,-0.02400919608771801
1782968804868918000,10.86791796875,-0.16609495878219604,0.3190288543701172,-0.02847318723797798
1782968804878844000,10.877843994140624,-0.2681550085544586,0.11852425336837769,-0.11978179216384888
1782968804888770000,10.88777001953125,-0.40898990631103516,-0.07850465923547745,-0.23306654393672943
1782968804898697000,10.897697021484374,-0.5381726622581482,-0.19697777926921844,-0.3519037067890167
1782968804908623000,10.907623046875,-0.6405589580535889,-0.20713746547698975,-0.47444772720336914
1782968804918549000,10.917549072265626,-0.781242847442627,-0.26874491572380066,-0.6427483558654785
1782968804928476200,10.92747607421875,-0.8512884974479675,-0.2058676779270172,-0.7632761001586914
1782968804938402000,10.937402099609375,-0.8690022230148315,0.005645368713885546,-0.8296979665756226
1782968804948328000,10.947327880859374,-0.9271262884140015,0.0754590705037117,-0.9647061228752136
1782968804958255000,10.957255126953125,-0.9782261848449707,0.15915849804878235,-1.0814990997314453
1782968804968181000,10.967180908203124,-0.9984403848648071,0.19385948777198792,-1.2031937837600708
1782968804978107000,10.97710693359375,-0.966314435005188,0.24828198552131653,-1.4215601682662964
1782968804988034000,10.987033935546876,-1.0171583890914917,0.41371673345565796,-1.5517581701278687
1782968804997960200,10.996960205078125,-1.1036123037338257,0.4121316373348236,-1.5604249238967896
1782968805007885800,11.0068857421875,-1.1926993131637573,0.42849570512771606,-1.4823074340820312
1782968805017813000,11.01681298828125,-1.2552961111068726,0.4428163170814514,-1.3532283306121826
1782968805027739100,11.0267392578125,-1.296937108039856,0.4220263361930847,-1.2375859022140503
1782968805037665000,11.0366650390625,-1.3422517776489258,0.32598477602005005,-1.184889316558838
1782968805047592000,11.046592041015625,-1.365018367767334,0.20657794177532196,-1.2300078868865967
1782968805057518000,11.05651806640625,-1.3497118949890137,0.09476352483034134,-1.3680764436721802
1782968805067445000,11.066445068359375,-1.3505526781082153,0.044258542358875275,-1.5263020992279053
1782968805077371100,11.07637109375,-1.3937400579452515,0.01452834252268076,-1.6395386457443237
1782968805087297000,11.086297119140625,-1.389898657798767,-0.021282652392983437,-1.6898409128189087
1782968805097223200,11.09622314453125,-1.335508942604065,-0.06936442852020264,-1.7072995901107788
1782968805107150000,11.106150146484374,-1.274659514427185,-0.12329769879579544,-1.7056057453155518
1782968805117076000,11.116075927734375,-1.2305796146392822,-0.12805810570716858,-1.6729423999786377
1782968805127003000,11.1260029296875,-1.2578051090240479,-0.07379992306232452,-1.594477891921997
1782968805136929000,11.135928955078125,-1.3018532991409302,-0.062486812472343445,-1.4641615152359009
1782968805146855200,11.145855224609376,-1.2918040752410889,-0.06415075808763504,-1.2880077362060547
1782968805156781800,11.15578173828125,-1.2639561891555786,-0.03608956187963486,-1.0812561511993408
1782968805166708000,11.1657080078125,-1.239878535270691,-0.03265328332781792,-0.8967574238777161
1782968805176634000,11.175634033203124,-1.2170443534851074,-0.058237474411726,-0.7736573219299316
1782968805186561000,11.18556103515625,-1.188172459602356,-0.07080332934856415,-0.6821183562278748
1782968805196487000,11.19548681640625,-1.1582138538360596,-0.04207714647054672,-0.5758108496665955
1782968805206413000,11.2054130859375,-1.1474924087524414,-0.016657274216413498,-0.4717169404029846
1782968805216340000,11.215340087890626,-1.1296449899673462,-0.10342199355363846,-0.34910765290260315
1782968805226265900,11.225265869140625,-1.0852277278900146,-0.22681130468845367,-0.21488593518733978
1782968805236192000,11.23519189453125,-1.0115926265716553,-0.2815677523612976,-0.08318543434143066
1782968805246119000,11.245118896484374,-0.8889389038085938,-0.27784785628318787,0.0305765513330698
1782968805256045000,11.255045166015625,-0.7437202334403992,-0.23218797147274017,0.08763904124498367
1782968805265971000,11.264970947265626,-0.609914243221283,-0.17261864244937897,0.11229485273361206
1782968805275897900,11.27489794921875,-0.5018170475959778,-0.10893101245164871,0.13929077982902527
1782968805285824000,11.284823974609376,-0.4323098659515381,-0.05559401959180832,0.20946906507015228
1782968805295750000,11.29475,-0.3619166612625122,0.051772650331258774,0.3242635726928711
1782968805305677000,11.304677001953126,-0.2651722729206085,0.14759451150894165,0.465824693441391
1782968805315603000,11.31460302734375,-0.14731594920158386,0.09021937847137451,0.5569050908088684
1782968805325529000,11.324529052734375,-0.006828877609223127,0.022042984142899513,0.5968506336212158
1782968805335456000,11.3344560546875,0.16539108753204346,0.007110906299203634,0.5950313806533813
1782968805345382000,11.3443818359375,0.3262990117073059,-0.02052578143775463,0.5715636610984802
1782968805355308000,11.35430810546875,0.45146411657333374,-0.08878446370363235,0.5463656187057495
1782968805365235200,11.364235107421875,0.5482537746429443,-0.18660423159599304,0.5374237895011902
1782968805375160800,11.374160888671875,0.6088215112686157,-0.2790582776069641,0.6333191394805908
1782968805385087000,11.3840869140625,0.6586127877235413,-0.29464760422706604,0.8782396912574768
1782968805395014100,11.39401416015625,0.702204704284668,-0.24331970512866974,1.2357347011566162
1782968805404940000,11.40393994140625,0.7322510480880737,-0.15863758325576782,1.6031584739685059
1782968805414866000,11.413865966796875,0.750829815864563,-0.08425069600343704,1.8482180833816528
1782968805424793000,11.42379296875,0.7790337204933167,-0.011126420460641384,1.8238227367401123
1782968805434719000,11.433718994140625,0.8582116365432739,0.06447779387235641,1.5806963443756104
1782968805444644900,11.443644775390625,0.9973633885383606,0.16611334681510925,1.2783823013305664
1782968805454572000,11.453572021484375,1.1450471878051758,0.28377553820610046,1.074125051498413
1782968805464498000,11.463497802734375,1.3121263980865479,0.44943320751190186,0.9477993249893188
1782968805474424000,11.473424072265624,1.4412477016448975,0.5211926102638245,0.8685708045959473
1782968805484351000,11.48335107421875,1.4976956844329834,0.5057529211044312,0.8319510221481323
1782968805494277000,11.493277099609376,1.592674732208252,0.5282102823257446,0.8642902970314026
1782968805504203000,11.503203125,1.630183458328247,0.4807969927787781,0.909543514251709
1782968805514130200,11.513130126953126,1.5997028350830078,0.3596785366535187,0.9192054867744446
1782968805524056000,11.52305615234375,1.5236932039260864,0.20008568465709686,0.9244492650032043
1782968805533982000,11.53298193359375,1.4212363958358765,0.022436067461967468,0.9366303086280823
1782968805543909000,11.5429091796875,1.3187505006790161,-0.12662452459335327,0.9308490753173828
1782968805553835000,11.5528349609375,1.224705696105957,-0.2277471423149109,0.878450870513916
1782968805563761000,11.562760986328126,1.1616042852401733,-0.2800489664077759,0.7709515690803528
1782968805573688000,11.57268798828125,1.137661337852478,-0.29371124505996704,0.6403189897537231
1782968805583614200,11.5826142578125,1.1207042932510376,-0.3351936936378479,0.5259580612182617
1782968805593539800,11.592539794921874,1.091455340385437,-0.3596298098564148,0.459739625453949
1782968805603467000,11.602467041015625,1.051805853843689,-0.3097778260707855,0.41500306129455566
1782968805613393200,11.61239306640625,1.0346518754959106,-0.2371523678302765,0.3866204023361206
1782968805623318800,11.62231884765625,1.0228298902511597,-0.19903533160686493,0.3619598150253296
1782968805633246000,11.632245849609374,1.0349690914154053,-0.11448796093463898,0.321321040391922
1782968805643172000,11.642172119140625,1.025635838508606,0.05512823164463043,0.2612401247024536
1782968805653098000,11.652097900390626,0.9638645648956299,0.2168596088886261,0.2154683768749237
1782968805663025000,11.66202490234375,0.940548300743103,0.3335329592227936,0.200823113322258
1782968805672951000,11.671950927734375,0.9123790264129639,0.3494560122489929,0.22262614965438843
1782968805682877200,11.681877197265624,0.8186434507369995,0.3820759952068329,0.32742738723754883
1782968805692804000,11.69180419921875,0.6834518313407898,0.334025114774704,0.49032896757125854
1782968805702730000,11.70172998046875,0.5921155214309692,0.16194389760494232,0.49602973461151123
1782968805712656100,11.71165625,0.6160179376602173,0.1990252137184143,0.5153709650039673
1782968805722582300,11.721582275390626,0.6102412343025208,0.14195872843265533,0.5082728266716003
1782968805732508400,11.73150830078125,0.5594936609268188,0.08964173495769501,0.5060349702835083
1782968805742434600,11.7414345703125,0.4846319258213043,0.08713090419769287,0.5136712789535522
1782968805752361200,11.751361328125,0.38510772585868835,0.10054871439933777,0.5412060022354126
1782968805762287400,11.761287353515625,0.2552541494369507,0.10744336992502213,0.5941781401634216
1782968805772213500,11.771213623046876,0.11089376360177994,0.06023431196808815,0.599611222743988
