time,seconds_elapsed,z,y,x
1782952429432748000,0.056748046875,-0.6075592041015625,-0.2103424072265625,-0.03564453125
1782952429442676000,0.066676025390625,-0.626953125,-0.2038116455078125,0.0009307861328125
1782952429452603100,0.07660302734375,-0.6525726318359375,-0.1937103271484375,0.0181732177734375
1782952429462530000,0.086530029296875,-0.741363525390625,-0.18212890625,0.0195465087890625
1782952429472457200,0.096457275390625,-0.897918701171875,-0.1815185546875,-0.005523681640625
1782952429482385200,0.10638525390625,-1.1139068603515625,-0.1868438720703125,-0.03070068359375
1782952429492312000,0.11631201171875,-1.4046173095703125,-0.2177734375,-0.0293731689453125
1782952429502239000,0.126239013671875,-1.75653076171875,-0.2728271484375,-0.019775390625
1782952429512167000,0.1361669921875,-2.1351318359375,-0.3264312744140625,-0.015472412109375
1782952429522094000,0.146093994140625,-2.4541778564453125,-0.3469390869140625,0.0288543701171875
1782952429532021000,0.15602099609375,-2.6773681640625,-0.355682373046875,0.075439453125
1782952429541948200,0.1659482421875,-2.808502197265625,-0.3300933837890625,0.087432861328125
1782952429551876000,0.1758759765625,-2.88360595703125,-0.2924041748046875,0.05224609375
1782952429561803000,0.185802978515625,-2.8765716552734375,-0.2681121826171875,-0.02972412109375
1782952429571730200,0.195730224609375,-2.7795867919921875,-0.253662109375,-0.1076202392578125
1782952429581657000,0.205656982421875,-2.618255615234375,-0.236785888671875,-0.13720703125
1782952429591585300,0.215585205078125,-2.399505615234375,-0.2218017578125,-0.1498565673828125
1782952429601512000,0.225511962890625,-2.1520843505859375,-0.2148895263671875,-0.1510772705078125
1782952429611439000,0.235439208984375,-1.9047088623046875,-0.2156829833984375,-0.162109375
1782952429621366000,0.245365966796875,-1.6745452880859375,-0.219451904296875,-0.1773529052734375
1782952429631294000,0.2552939453125,-1.47515869140625,-0.22265625,-0.1811065673828125
1782952429641221000,0.26522119140625,-1.3039093017578125,-0.223785400390625,-0.1685638427734375
1782952429651148000,0.27514794921875,-1.154632568359375,-0.217041015625,-0.1466522216796875
1782952429661075200,0.2850751953125,-1.022186279296875,-0.2015533447265625,-0.119110107421875
1782952429671003100,0.295003173828125,-0.9162445068359375,-0.18157958984375,-0.0787353515625
1782952429680930000,0.304929931640625,-0.8201904296875,-0.1642913818359375,-0.0376434326171875
1782952429690857000,0.31485693359375,-0.730560302734375,-0.159393310546875,-0.00872802734375
1782952429700783900,0.324783935546875,-0.64141845703125,-0.14202880859375,0.0056915283203125
1782952429710712000,0.334712158203125,-0.54150390625,-0.11944580078125,0.0119476318359375
1782952429720639000,0.344638916015625,-0.4434967041015625,-0.092071533203125,0.0186614990234375
1782952429730566100,0.354566162109375,-0.357269287109375,-0.0804290771484375,0.0266876220703125
1782952429740493000,0.3644931640625,-0.285552978515625,-0.0863494873046875,0.013092041015625
1782952429750421000,0.3744208984375,-0.2464141845703125,-0.0857086181640625,-0.0144805908203125
1782952429760348200,0.38434814453125,-0.2344970703125,-0.074127197265625,-0.045684814453125
1782952429770275000,0.394275146484375,-0.2419586181640625,-0.033599853515625,-0.08673095703125
1782952429780202200,0.4042021484375,-0.2975921630859375,0.05462646484375,-0.1830596923828125
1782952429790130200,0.414130126953125,-0.41925048828125,0.1278076171875,-0.2787017822265625
1782952429800056800,0.424056884765625,-0.49810791015625,0.0974273681640625,-0.2525482177734375
1782952429809984000,0.43398388671875,-0.4813079833984375,0.0884857177734375,-0.189666748046875
1782952429819911000,0.443910888671875,-0.4058074951171875,0.0563812255859375,-0.1271209716796875
1782952429829839000,0.453839111328125,-0.3175048828125,-0.034637451171875,-0.0883636474609375
1782952429839766000,0.46376611328125,-0.226318359375,-0.143646240234375,-0.03826904296875
1782952429849693000,0.47369287109375,-0.1298980712890625,-0.22747802734375,-0.000274658203125
1782952429859620900,0.483620849609375,0.005218505859375,-0.2592926025390625,-0.010284423828125
1782952429869547800,0.4935478515625,0.158538818359375,-0.34368896484375,0.0601043701171875
1782952429879475000,0.503474853515625,-0.0053558349609375,-0.3240814208984375,0.0968475341796875
1782952429889401600,0.513401611328125,-0.15460205078125,-0.3335723876953125,-0.0198822021484375
1782952429899329500,0.52332958984375,-0.3829345703125,-0.4284515380859375,-0.094635009765625
1782952429909256700,0.533256591796875,-0.6337432861328125,-0.5477294921875,-0.1829681396484375
1782952429919183600,0.54318359375,-0.809600830078125,-0.6024169921875,-0.1425628662109375
1782952429929110800,0.55311083984375,-1.1737518310546875,-0.3805084228515625,-0.1148834228515625
1782952429939038700,0.563038818359375,-1.57373046875,0.08526611328125,-0.1262969970703125
1782952429948966000,0.5729658203125,-1.550079345703125,0.124725341796875,-0.1371002197265625
1782952429958892800,0.582892822265625,-1.4109039306640625,0.07952880859375,-0.32269287109375
1782952429968820000,0.592820068359375,-1.327301025390625,0.1804046630859375,-0.3862152099609375
1782952429978748000,0.602747802734375,-1.32373046875,0.223297119140625,-0.304595947265625
1782952429988674800,0.6126748046875,-1.3669281005859375,0.1135406494140625,-0.2018280029296875
1782952429998601700,0.622601806640625,-1.3332366943359375,-0.07037353515625,-0.0310211181640625
1782952430008528600,0.632528564453125,-1.232269287109375,-0.2086029052734375,0.13751220703125
1782952430018456600,0.64245654296875,-1.0944366455078125,-0.2525177001953125,0.1417694091796875
1782952430028383700,0.6523837890625,-0.9861907958984375,-0.223907470703125,0.0351715087890625
1782952430038310700,0.662310546875,-0.880126953125,-0.1927642822265625,-0.0902252197265625
1782952430048237800,0.67223779296875,-0.792633056640625,-0.2050323486328125,-0.132965087890625
1782952430058165800,0.682165771484375,-0.696563720703125,-0.243072509765625,-0.1246490478515625
1782952430068093000,0.692093017578125,-0.6240234375,-0.271575927734375,-0.080078125
1782952430078019800,0.702019775390625,-0.601104736328125,-0.2640533447265625,-0.0360565185546875
1782952430087946800,0.71194677734375,-0.6082000732421875,-0.22821044921875,0.0087738037109375
1782952430097875000,0.721875,-0.618194580078125,-0.18853759765625,0.046142578125
1782952430107801600,0.731801513671875,-0.6149139404296875,-0.158447265625,0.0732879638671875
1782952430117728800,0.741728759765625,-0.610382080078125,-0.1325531005859375,0.0913848876953125
1782952430127655700,0.75165576171875,-0.6118011474609375,-0.1134490966796875,0.0908966064453125
1782952430137583600,0.76158349609375,-0.6225128173828125,-0.1348876953125,0.089385986328125
1782952430147510800,0.7715107421875,-0.6333770751953125,-0.1683349609375,0.0956573486328125
1782952430157437700,0.781437744140625,-0.61944580078125,-0.1769866943359375,0.0853424072265625
1782952430167364900,0.79136474609375,-0.6237640380859375,-0.1741485595703125,0.0843505859375
1782952430177292800,0.801292724609375,-0.65338134765625,-0.1693267822265625,0.103363037109375
1782952430187220000,0.811219970703125,-0.710174560546875,-0.160491943359375,0.130157470703125
1782952430197146600,0.821146728515625,-0.7926483154296875,-0.15545654296875,0.12432861328125
1782952430207073800,0.83107373046875,-0.8554229736328125,-0.1641082763671875,0.11224365234375
1782952430217001700,0.841001708984375,-0.85626220703125,-0.149932861328125,0.1128997802734375
1782952430226928600,0.8509287109375,-0.8124237060546875,-0.1016845703125,0.050689697265625
1782952430236855800,0.860855712890625,-0.7682647705078125,-0.1090240478515625,0.015350341796875
1782952430246783700,0.87078369140625,-0.7547760009765625,-0.1456298828125,-0.0337066650390625
1782952430256710700,0.880710693359375,-0.7516326904296875,-0.1866302490234375,-0.0765533447265625
1782952430266637800,0.890637939453125,-0.8080596923828125,-0.2360687255859375,-0.070953369140625
1782952430276564700,0.900564697265625,-0.9567718505859375,-0.2998046875,-0.0485076904296875
1782952430286492000,0.910491943359375,-1.1661376953125,-0.364959716796875,-0.025482177734375
1782952430296419800,0.920419921875,-1.38067626953125,-0.3976287841796875,-0.0269927978515625
1782952430306346800,0.9303466796875,-1.5611724853515625,-0.4306640625,-0.012786865234375
1782952430316273700,0.940273681640625,-1.72247314453125,-0.46533203125,0.000640869140625
1782952430326201600,0.95020166015625,-1.8838958740234375,-0.485107421875,-0.0389251708984375
1782952430336128800,0.960128662109375,-2.0389404296875,-0.4974365234375,-0.1468048095703125
1782952430346055700,0.9700556640625,-2.1985931396484375,-0.48907470703125,-0.234710693359375
1782952430355982800,0.97998291015625,-2.3995513916015625,-0.4949951171875,-0.3222503662109375
1782952430365910800,0.989910888671875,-2.5644073486328125,-0.5194549560546875,-0.3370819091796875
1782952430375837700,0.999837646484375,-2.6127471923828125,-0.4966583251953125,-0.3355865478515625
1782952430385764900,1.009764892578125,-2.54705810546875,-0.4124755859375,-0.3657989501953125
1782952430395691800,1.01969189453125,-2.4092254638671875,-0.3303985595703125,-0.3690338134765625
1782952430405620000,1.029619873046875,-2.20660400390625,-0.33026123046875,-0.27386474609375
1782952430415546600,1.039546630859375,-1.9202423095703125,-0.4042510986328125,-0.141754150390625
1782952430425473800,1.049473876953125,-1.6395721435546875,-0.406646728515625,-0.0993804931640625
1782952430435400700,1.059400634765625,-1.435760498046875,-0.4005126953125,-0.112396240234375
1782952430445328600,1.06932861328125,-1.30487060546875,-0.382568359375,-0.049652099609375
1782952430455255800,1.079255859375,-1.2075958251953125,-0.3855743408203125,-0.01727294921875
1782952430465182700,1.0891826171875,-1.1073150634765625,-0.335906982421875,-0.02044677734375
1782952430475110000,1.09910986328125,-1.03607177734375,-0.2478485107421875,-0.05059814453125
1782952430485037800,1.109037841796875,-0.9869384765625,-0.2034912109375,-0.057586669921875
1782952430494964700,1.11896484375,-0.9199066162109375,-0.175750732421875,-0.0456390380859375
1782952430504892000,1.128891845703125,-0.8355255126953125,-0.144378662109375,-0.0711212158203125
1782952430514818600,1.138818603515625,-0.70355224609375,-0.157623291015625,-0.0572357177734375
1782952430524746800,1.148746826171875,-0.5546112060546875,-0.1582489013671875,-0.0514068603515625
1782952430534673700,1.158673583984375,-0.42449951171875,-0.1499176025390625,-0.0576019287109375
1782952430544600800,1.168600830078125,-0.3159027099609375,-0.1559600830078125,-0.0434112548828125
1782952430554527700,1.17852783203125,-0.2415313720703125,-0.1498565673828125,-0.0066986083984375
1782952430564455700,1.18845556640625,-0.2127227783203125,-0.123046875,0.018463134765625
1782952430574382800,1.1983828125,-0.2348785400390625,-0.0955047607421875,0.0224456787109375
1782952430584309800,1.208309814453125,-0.286346435546875,-0.0814056396484375,0.023162841796875
1782952430594237000,1.21823681640625,-0.3551177978515625,-0.0815582275390625,0.0284576416015625
1782952430604164900,1.228164794921875,-0.42218017578125,-0.071807861328125,0.03240966796875
1782952430614091800,1.238091796875,-0.463653564453125,-0.062347412109375,0.0231170654296875
1782952430624018700,1.248018798828125,-0.4712677001953125,-0.0767059326171875,0.012115478515625
1782952430633945600,1.257945556640625,-0.448699951171875,-0.10528564453125,0.0048980712890625
1782952430643873800,1.267873779296875,-0.4063262939453125,-0.1422271728515625,0.00433349609375
1782952430653800700,1.27780078125,-0.382171630859375,-0.1835174560546875,0.009521484375
1782952430663727900,1.287727783203125,-0.3643951416015625,-0.2154083251953125,0.00048828125
1782952430673654800,1.29765478515625,-0.3174896240234375,-0.24102783203125,-0.0224609375
1782952430683582700,1.307582763671875,-0.280120849609375,-0.258026123046875,-0.046722412109375
1782952430693510000,1.317510009765625,-0.2520599365234375,-0.2908935546875,-0.045745849609375
1782952430703436800,1.327436767578125,-0.2429962158203125,-0.2861480712890625,-0.0309600830078125
1782952430713363700,1.33736376953125,-0.2544403076171875,-0.2678375244140625,-0.0663604736328125
1782952430723292000,1.3472919921875,-0.310150146484375,-0.257476806640625,-0.0931396484375
1782952430733218600,1.357218505859375,-0.473876953125,-0.22943115234375,-0.1134033203125
1782952430743145700,1.367145751953125,-0.708984375,-0.190673828125,-0.172271728515625
1782952430753072600,1.37707275390625,-0.8704986572265625,-0.1423187255859375,-0.2222442626953125
1782952430763000800,1.387000732421875,-1.0164031982421875,-0.135833740234375,-0.2027435302734375
1782952430772927700,1.396927734375,-1.120880126953125,-0.1578369140625,-0.1828155517578125
1782952430782855000,1.40685498046875,-1.087158203125,-0.1585845947265625,-0.2774810791015625
1782952430792781800,1.41678173828125,-0.957061767578125,-0.15887451171875,-0.3542938232421875
1782952430802709800,1.426709716796875,-0.7491912841796875,-0.216552734375,-0.3193817138671875
1782952430812637000,1.436636962890625,-0.5006256103515625,-0.261810302734375,-0.2347259521484375
1782952430822563600,1.4465634765625,-0.2814483642578125,-0.26495361328125,-0.1673431396484375
1782952430832490800,1.45649072265625,-0.134979248046875,-0.2490386962890625,-0.1152496337890625
1782952430842418700,1.466418701171875,-0.0824737548828125,-0.2047271728515625,-0.0830078125
1782952430852345600,1.476345703125,-0.158721923828125,-0.109893798828125,-0.0718841552734375
1782952430862272800,1.486272705078125,-0.361480712890625,-0.0500030517578125,-0.0498809814453125
1782952430872199700,1.49619970703125,-0.6109771728515625,-0.04010009765625,-0.011962890625
1782952430882128000,1.5061279296875,-0.824188232421875,-0.0292816162109375,-0.017333984375
1782952430892054800,1.5160546875,-0.9703826904296875,-0.036346435546875,-0.0653228759765625
1782952430901981700,1.525981689453125,-1.0438690185546875,-0.0822601318359375,-0.109466552734375
1782952430911908600,1.53590869140625,-1.0470733642578125,-0.14324951171875,-0.161865234375
1782952430921836500,1.54583642578125,-1.004180908203125,-0.1861572265625,-0.2316741943359375
1782952430931763700,1.555763671875,-0.9374847412109375,-0.219757080078125,-0.2837066650390625
1782952430941690600,1.565690673828125,-0.8670806884765625,-0.2457275390625,-0.29412841796875
1782952430951617800,1.57561767578125,-1.0153045654296875,-0.194580078125,-0.374908447265625
1782952430961545700,1.585545654296875,-1.08416748046875,-0.20379638671875,-0.301116943359375
1782952430971472600,1.59547265625,-1.1898193359375,-0.2138671875,-0.2271270751953125
1782952430981399800,1.60539990234375,-1.319000244140625,-0.19757080078125,-0.247314453125
1782952430991326500,1.615326416015625,-1.3267059326171875,-0.2499542236328125,-0.1888427734375
1782952431001254700,1.625254638671875,-1.3495635986328125,-0.314361572265625,-0.1287841796875
1782952431011181600,1.635181640625,-1.3763885498046875,-0.3773040771484375,-0.07275390625
1782952431021108700,1.645108642578125,-1.46075439453125,-0.4136199951171875,-0.023223876953125
1782952431031035600,1.65503564453125,-1.631866455078125,-0.4196014404296875,0.016754150390625
1782952431040963600,1.664963623046875,-1.8863525390625,-0.3768157958984375,0.0062103271484375
1782952431050890800,1.674890869140625,-2.1931915283203125,-0.30438232421875,-0.0402374267578125
1782952431060817700,1.684817626953125,-2.4820709228515625,-0.238128662109375,-0.1282806396484375
1782952431070745600,1.69474560546875,-2.6380157470703125,-0.1801910400390625,-0.251983642578125
1782952431080672800,1.7046728515625,-2.640960693359375,-0.138214111328125,-0.3633880615234375
1782952431090599700,1.714599609375,-2.5429229736328125,-0.14324951171875,-0.4287872314453125
1782952431100526600,1.724526611328125,-2.4291229248046875,-0.1806488037109375,-0.5072174072265625
1782952431110454500,1.73445458984375,-2.2621917724609375,-0.2082061767578125,-0.5775299072265625
1782952431120381700,1.744381591796875,-2.0564422607421875,-0.2336578369140625,-0.6026763916015625
1782952431130308600,1.75430859375,-1.8516693115234375,-0.2363128662109375,-0.5445404052734375
1782952431140235800,1.76423583984375,-1.6288604736328125,-0.2228851318359375,-0.4459381103515625
1782952431150163700,1.774163818359375,-1.4465484619140625,-0.22503662109375,-0.3386077880859375
1782952431160090600,1.784090576171875,-1.2861328125,-0.212493896484375,-0.2382049560546875
1782952431170017800,1.794017822265625,-1.1428375244140625,-0.19512939453125,-0.1628875732421875
1782952431179944700,1.80394482421875,-1.0269622802734375,-0.1830291748046875,-0.1173248291015625
1782952431189872600,1.81387255859375,-0.933624267578125,-0.1674652099609375,-0.0995635986328125
1782952431199799800,1.8237998046875,-0.8672637939453125,-0.1600799560546875,-0.1172027587890625
1782952431209726500,1.8337265625,-0.8141937255859375,-0.1673431396484375,-0.1365203857421875
1782952431219653600,1.843653564453125,-0.780914306640625,-0.17242431640625,-0.1594696044921875
1782952431229581600,1.85358154296875,-0.7635955810546875,-0.1464691162109375,-0.14947509765625
1782952431239508700,1.8635087890625,-0.852203369140625,-0.160675048828125,-0.1573638916015625
1782952431249435600,1.873435546875,-0.70721435546875,-0.192413330078125,-0.11151123046875
1782952431259362800,1.88336279296875,-0.613555908203125,-0.1758270263671875,-0.1139068603515625
1782952431269290800,1.893290771484375,-0.4926300048828125,-0.1436614990234375,-0.0777740478515625
1782952431279217700,1.9032177734375,-0.3655242919921875,-0.0770721435546875,0.0186920166015625
1782952431289144800,1.913144775390625,-0.3645477294921875,-0.04266357421875,0.0660400390625
1782952431299071700,1.92307177734375,-0.3828582763671875,-0.056976318359375,0.0432281494140625
1782952431308999700,1.932999755859375,-0.4091949462890625,-0.0866546630859375,-0.0287933349609375
1782952431318926600,1.942926513671875,-0.4420166015625,-0.089080810546875,-0.0879058837890625
1782952431328853500,1.952853515625,-0.475494384765625,-0.0675048828125,-0.074432373046875
1782952431338780700,1.96278076171875,-0.5097198486328125,-0.0424041748046875,-0.022064208984375
1782952431348708600,1.97270849609375,-0.547943115234375,-0.0501861572265625,0.0041961669921875
1782952431358635800,1.9826357421875,-0.54583740234375,-0.09173583984375,-0.0091094970703125
1782952431368562700,1.992562744140625,-0.513336181640625,-0.1180877685546875,-0.018035888671875
1782952431378489900,2.00248974609375,-0.4680938720703125,-0.1262664794921875,-0.02313232421875
1782952431388417800,2.012417724609375,-0.432281494140625,-0.1402435302734375,0.008697509765625
1782952431398344700,2.0223447265625,-0.41766357421875,-0.1450653076171875,0.030364990234375
1782952431408272000,2.03227197265625,-0.425262451171875,-0.1603851318359375,0.029083251953125
1782952431418198500,2.042198486328125,-0.5128936767578125,-0.1728363037109375,0.021331787109375
1782952431428126500,2.05212646484375,-0.6289215087890625,-0.173980712890625,-0.011138916015625
1782952431438053600,2.0620537109375,-0.7252044677734375,-0.162628173828125,-0.0507049560546875
1782952431447980500,2.07198046875,-0.8024139404296875,-0.150146484375,-0.0659332275390625
1782952431457907700,2.08190771484375,-0.8927001953125,-0.1248931884765625,-0.08734130859375
1782952431467835600,2.091835693359375,-0.9923095703125,-0.096282958984375,-0.095611572265625
1782952431477762800,2.1017626953125,-1.0901336669921875,-0.080596923828125,-0.092681884765625
1782952431487689700,2.111689697265625,-1.1902618408203125,-0.0854644775390625,-0.1074371337890625
1782952431497616600,2.12161669921875,-1.26934814453125,-0.1070709228515625,-0.1415557861328125
1782952431507544800,2.131544921875,-1.272674560546875,-0.131927490234375,-0.1663055419921875
1782952431517471700,2.1414716796875,-1.127197265625,-0.151031494140625,-0.1668701171875
1782952431527398700,2.151398681640625,-0.902984619140625,-0.1573944091796875,-0.1414947509765625
1782952431537325600,2.16132568359375,-0.7256011962890625,-0.14434814453125,-0.1154327392578125
1782952431547253500,2.17125341796875,-0.6046600341796875,-0.140228271484375,-0.102691650390625
1782952431557180700,2.1811806640625,-0.5161590576171875,-0.1538543701171875,-0.088775634765625
1782952431567107600,2.191107666015625,-0.42877197265625,-0.1511077880859375,-0.0728607177734375
1782952431577034800,2.20103466796875,-0.364532470703125,-0.1574859619140625,-0.044677734375
1782952431586962700,2.210962646484375,-0.329254150390625,-0.170501708984375,-0.018157958984375
1782952431596889900,2.220889892578125,-0.3291778564453125,-0.17706298828125,-0.0039825439453125
1782952431606816800,2.230816650390625,-0.3958282470703125,-0.1424713134765625,0.017913818359375
1782952431616743700,2.24074365234375,-0.537628173828125,-0.1023406982421875,0.04010009765625
1782952431626671900,2.250671875,-0.687347412109375,-0.0800933837890625,0.030609130859375
1782952431636598500,2.2605986328125,-0.7869415283203125,-0.0744476318359375,0.00653076171875
1782952431646525700,2.270525634765625,-0.8235015869140625,-0.08251953125,-0.02325439453125
1782952431656452600,2.28045263671875,-0.80230712890625,-0.0873870849609375,-0.0419769287109375
1782952431666380500,2.290380615234375,-0.7508087158203125,-0.0868072509765625,-0.0570220947265625
1782952431676307700,2.3003076171875,-0.6765594482421875,-0.08453369140625,-0.090118408203125
1782952431686234600,2.310234619140625,-0.607269287109375,-0.0888671875,-0.1010894775390625
1782952431696161800,2.320161865234375,-0.5381317138671875,-0.0944671630859375,-0.089630126953125
1782952431706089700,2.33008984375,-0.4987640380859375,-0.1018829345703125,-0.0685272216796875
1782952431716017000,2.340016845703125,-0.5037689208984375,-0.1020965576171875,-0.03826904296875
1782952431725943600,2.349943603515625,-0.5031585693359375,-0.0996551513671875,-0.006378173828125
1782952431735870700,2.35987060546875,-0.4853515625,-0.1048431396484375,-0.003173828125
1782952431745798700,2.369798583984375,-0.5622100830078125,-0.13134765625,-0.0157012939453125
1782952431755725600,2.3797255859375,-0.769317626953125,-0.1596527099609375,-0.0152587890625
1782952431765652700,2.38965283203125,-1.0512237548828125,-0.235260009765625,-0.024017333984375
1782952431775579600,2.39957958984375,-1.3300323486328125,-0.329833984375,-0.0041656494140625
1782952431785507600,2.409507568359375,-1.545501708984375,-0.3649139404296875,0.0550537109375
1782952431795434800,2.419434814453125,-1.7608642578125,-0.3556976318359375,0.1197509765625
1782952431805361700,2.429361572265625,-1.9966888427734375,-0.3453369140625,0.16082763671875
1782952431815288800,2.439288818359375,-2.228973388671875,-0.3570098876953125,0.1536407470703125
1782952431825216800,2.449216796875,-2.457763671875,-0.376312255859375,0.132720947265625
1782952431835143700,2.459143798828125,-2.6364898681640625,-0.3571014404296875,0.1248779296875
1782952431845070600,2.469070556640625,-2.6920013427734375,-0.3015899658203125,0.118804931640625
1782952431854997800,2.478997802734375,-2.6684417724609375,-0.2533721923828125,0.084686279296875
1782952431864925700,2.48892578125,-2.5863800048828125,-0.2282867431640625,0.0284423828125
1782952431874852600,2.4988525390625,-2.4518585205078125,-0.2257537841796875,-0.0354156494140625
1782952431884779800,2.50877978515625,-2.2596893310546875,-0.2216949462890625,-0.0872802734375
1782952431894706700,2.518706787109375,-2.0341796875,-0.2124786376953125,-0.1117706298828125
1782952431904634600,2.528634521484375,-1.8092041015625,-0.22003173828125,-0.125274658203125
1782952431914561800,2.538561767578125,-1.59930419921875,-0.23223876953125,-0.136962890625
1782952431924488400,2.548488525390625,-1.431915283203125,-0.2320709228515625,-0.138580322265625
1782952431934415600,2.55841552734375,-1.3036346435546875,-0.2252197265625,-0.13409423828125
1782952431944343600,2.568343505859375,-1.204498291015625,-0.215911865234375,-0.127471923828125
1782952431954270700,2.578270751953125,-1.1300201416015625,-0.20367431640625,-0.112457275390625
1782952431964197600,2.58819775390625,-1.0238189697265625,-0.1833343505859375,-0.1022796630859375
1782952431974124500,2.59812451171875,-0.9383087158203125,-0.169464111328125,-0.094635009765625
1782952431984052700,2.608052734375,-0.868255615234375,-0.1553497314453125,-0.0887603759765625
1782952431993979600,2.617979736328125,-0.797943115234375,-0.138427734375,-0.080352783203125
1782952432003906800,2.62790673828125,-0.7339935302734375,-0.1220855712890625,-0.062042236328125
1782952432013833500,2.63783349609375,-0.6840972900390625,-0.098968505859375,-0.0373687744140625
1782952432023761700,2.64776171875,-0.644561767578125,-0.078857421875,-0.025787353515625
1782952432033688600,2.6576884765625,-0.5956878662109375,-0.0642547607421875,-0.0279541015625
1782952432043615500,2.667615478515625,-0.5235595703125,-0.0650482177734375,-0.0291595458984375
1782952432053542700,2.677542724609375,-0.4515380859375,-0.0596923828125,-0.0382232666015625
1782952432063470600,2.687470703125,-0.3942108154296875,-0.0570526123046875,-0.0420379638671875
1782952432073397800,2.697397705078125,-0.3474578857421875,-0.0720672607421875,-0.0356292724609375
1782952432083324700,2.70732470703125,-0.307098388671875,-0.092041015625,-0.024932861328125
1782952432093251600,2.71725146484375,-0.27435302734375,-0.103240966796875,-0.013824462890625
1782952432103179800,2.7271796875,-0.2657470703125,-0.1114044189453125,-0.0072174072265625
1782952432113106700,2.737106689453125,-0.3120269775390625,-0.1259918212890625,-0.0080108642578125
1782952432123033600,2.74703369140625,-0.4127655029296875,-0.1269378662109375,-0.003814697265625
1782952432132960500,2.75696044921875,-0.50677490234375,-0.125091552734375,-0.0194091796875
1782952432142888400,2.766888427734375,-0.5585174560546875,-0.1406707763671875,-0.0454864501953125
1782952432152815600,2.776815673828125,-0.5908355712890625,-0.1624603271484375,-0.0463714599609375
1782952432162742500,2.786742431640625,-0.6111907958984375,-0.1804046630859375,-0.07281494140625
1782952432172670700,2.796670654296875,-0.6358184814453125,-0.1963043212890625,-0.085662841796875
1782952432182597600,2.80659765625,-0.6632537841796875,-0.2111968994140625,-0.08721923828125
1782952432192524500,2.816524658203125,-0.698577880859375,-0.2150421142578125,-0.083465576171875
1782952432202451700,2.82645166015625,-0.75262451171875,-0.202667236328125,-0.0711212158203125
1782952432212378600,2.836378662109375,-0.81158447265625,-0.1711273193359375,-0.05841064453125
1782952432222306800,2.846306884765625,-0.8768463134765625,-0.1310577392578125,-0.055694580078125
1782952432232233500,2.8562333984375,-0.973419189453125,-0.1012115478515625,-0.07177734375
1782952432242160600,2.86616064453125,-1.09649658203125,-0.080780029296875,-0.0889739990234375
1782952432252088600,2.876088623046875,-1.2167816162109375,-0.0583953857421875,-0.103668212890625
1782952432262015500,2.886015380859375,-1.301483154296875,-0.045257568359375,-0.1090850830078125
1782952432271942700,2.895942626953125,-1.3116455078125,-0.0437469482421875,-0.1013641357421875
1782952432281869600,2.90586962890625,-1.233551025390625,-0.0427093505859375,-0.0891571044921875
1782952432291797800,2.9157978515625,-1.0865478515625,-0.0557708740234375,-0.0765838623046875
1782952432301724700,2.925724609375,-0.912872314453125,-0.0733489990234375,-0.056243896484375
1782952432311651600,2.935651611328125,-0.7555999755859375,-0.086944580078125,-0.0373687744140625
1782952432321578800,2.945578857421875,-0.6264801025390625,-0.10076904296875,-0.02252197265625
1782952432331506700,2.955506591796875,-0.5062713623046875,-0.110992431640625,-0.01226806640625
1782952432341433600,2.96543359375,-0.3997039794921875,-0.1080780029296875,-0.0007781982421875
1782952432351360500,2.975360595703125,-0.3251190185546875,-0.0943756103515625,0.003326416015625
1782952432361287700,2.98528759765625,-0.2845458984375,-0.08172607421875,0.0008544921875
1782952432371215600,2.995215576171875,-0.2729034423828125,-0.0700225830078125,0.0013885498046875
1782952432381142500,3.005142578125,-0.2881011962890625,-0.0536346435546875,-0.002044677734375
1782952432391069700,3.015069580078125,-0.3229217529296875,-0.0408477783203125,0.0090484619140625
1782952432400996600,3.02499658203125,-0.3595428466796875,-0.03424072265625,0.0148162841796875
1782952432410924800,3.0349248046875,-0.3875274658203125,-0.0294189453125,0.00634765625
1782952432420851700,3.044851806640625,-0.424713134765625,-0.0400543212890625,-0.009063720703125
1782952432430778600,3.054778564453125,-0.458465576171875,-0.056671142578125,-0.0159149169921875
1782952432440705500,3.06470556640625,-0.492034912109375,-0.0655059814453125,-0.011688232421875
1782952432450633500,3.074633544921875,-0.522796630859375,-0.0737457275390625,-0.0048980712890625
1782952432460560600,3.084560546875,-0.5723114013671875,-0.0775604248046875,0.0003204345703125
1782952432470487600,3.094487548828125,-0.6243743896484375,-0.0767822265625,0.00860595703125
1782952432480414700,3.104414794921875,-0.6405181884765625,-0.082916259765625,0.004608154296875
1782952432490342700,3.1143427734375,-0.621795654296875,-0.09661865234375,-0.0024261474609375
1782952432500269600,3.12426953125,-0.5842132568359375,-0.1177520751953125,0.0009765625
1782952432510196700,3.13419677734375,-0.566162109375,-0.1405029296875,0.0046234130859375
1782952432520123600,3.14412353515625,-0.66064453125,-0.14398193359375,0.0430908203125
1782952432530051600,3.154051513671875,-0.9298858642578125,-0.1407928466796875,0.0791778564453125
1782952432539978800,3.163978759765625,-1.278076171875,-0.146209716796875,0.0606231689453125
1782952432549905700,3.17390576171875,-1.643402099609375,-0.1590728759765625,0.049896240234375
1782952432559832600,3.18383251953125,-2.00701904296875,-0.2001495361328125,0.061767578125
1782952432569760500,3.193760498046875,-2.3415985107421875,-0.2524566650390625,0.0861053466796875
1782952432579687700,3.203687744140625,-2.582794189453125,-0.271759033203125,0.101654052734375
1782952432589614600,3.213614501953125,-2.721954345703125,-0.2471466064453125,0.0703887939453125
1782952432599541800,3.223541748046875,-2.7661285400390625,-0.216033935546875,-0.004241943359375
1782952432609469700,3.2334697265625,-2.7411651611328125,-0.2071533203125,-0.0888671875
1782952432619396600,3.243396728515625,-2.660430908203125,-0.2033538818359375,-0.148773193359375
1782952432629323800,3.25332373046875,-2.509979248046875,-0.1822967529296875,-0.1851806640625
1782952432639250400,3.26325048828125,-2.314910888671875,-0.1701507568359375,-0.1866302490234375
1782952432649178600,3.2731787109375,-2.105010986328125,-0.151092529296875,-0.1683502197265625
1782952432659105500,3.28310546875,-1.9384613037109375,-0.1391448974609375,-0.1676177978515625
1782952432669032400,3.293032470703125,-1.804840087890625,-0.1497955322265625,-0.15850830078125
1782952432678959600,3.302959716796875,-1.709381103515625,-0.165313720703125,-0.1341552734375
1782952432688887600,3.312887451171875,-1.668426513671875,-0.1675872802734375,-0.103302001953125
1782952432698814700,3.322814697265625,-1.650665283203125,-0.1706085205078125,-0.0748443603515625
1782952432708741600,3.33274169921875,-1.5959930419921875,-0.173583984375,-0.051177978515625
1782952432718668800,3.342668701171875,-1.51190185546875,-0.1761016845703125,-0.031494140625
1782952432728596700,3.3525966796875,-1.411529541015625,-0.17657470703125,-0.0212860107421875
1782952432738523600,3.362523681640625,-1.2779083251953125,-0.1715545654296875,-0.0233917236328125
1782952432748450600,3.372450439453125,-1.11663818359375,-0.1679534912109375,-0.01885986328125
1782952432758377500,3.38237744140625,-0.94464111328125,-0.1598358154296875,-0.0224761962890625
1782952432768305700,3.3923056640625,-0.7832183837890625,-0.147064208984375,-0.031402587890625
1782952432778232600,3.402232666015625,-0.6335296630859375,-0.134368896484375,-0.0341949462890625
1782952432788159500,3.412159423828125,-0.505035400390625,-0.1208648681640625,-0.023651123046875
1782952432798086700,3.422086669921875,-0.39410400390625,-0.08978271484375,-0.027679443359375
1782952432808014600,3.4320146484375,-0.2951507568359375,-0.079803466796875,-0.0362548828125
1782952432817941800,3.441941650390625,-0.22637939453125,-0.093017578125,-0.0316162109375
1782952432827868700,3.45186865234375,-0.2134246826171875,-0.0906982421875,-0.0481719970703125
1782952432837795800,3.4617958984375,-0.2403717041015625,-0.07757568359375,-0.0531768798828125
1782952432847723800,3.471723876953125,-0.296234130859375,-0.0555572509765625,-0.0282135009765625
1782952432857650400,3.481650390625,-0.385498046875,-0.041168212890625,0.0128936767578125
1782952432867577600,3.49157763671875,-0.4224395751953125,-0.045562744140625,0.02276611328125
1782952432877504500,3.50150439453125,-0.42352294921875,-0.05975341796875,0.007537841796875
1782952432887432400,3.511432373046875,-0.4557342529296875,-0.0661773681640625,0.004852294921875
1782952432897359600,3.521359619140625,-0.4826812744140625,-0.084075927734375,-0.01104736328125
1782952432907286500,3.53128662109375,-0.470123291015625,-0.108612060546875,-0.005950927734375
1782952432917213700,3.541213623046875,-0.4574737548828125,-0.1280364990234375,-0.00738525390625
1782952432927141600,3.5511416015625,-0.4645843505859375,-0.1414642333984375,-0.0072174072265625
1782952432937068800,3.56106884765625,-0.4803619384765625,-0.159210205078125,-0.01995849609375
1782952432946995700,3.57099560546875,-0.524932861328125,-0.1766815185546875,-0.02508544921875
1782952432956922600,3.580922607421875,-0.592742919921875,-0.1874542236328125,-0.028717041015625
1782952432966850600,3.5908505859375,-0.6544342041015625,-0.1936492919921875,-0.031219482421875
1782952432976777500,3.600777587890625,-0.7444610595703125,-0.190338134765625,-0.0384063720703125
1782952432986704600,3.61070458984375,-0.8412322998046875,-0.186187744140625,-0.0548248291015625
1782952432996631600,3.620631591796875,-0.917938232421875,-0.1914520263671875,-0.062286376953125
1782952433006559500,3.6305595703125,-1.0238800048828125,-0.1978912353515625,-0.0651702880859375
1782952433016486700,3.640486572265625,-1.1786956787109375,-0.1796722412109375,-0.0635528564453125
1782952433026413600,3.65041357421875,-1.3408203125,-0.1397552490234375,-0.0581512451171875
1782952433036340700,3.6603408203125,-1.446380615234375,-0.1040191650390625,-0.0697021484375
1782952433046268700,3.6702685546875,-1.44293212890625,-0.085723876953125,-0.08905029296875
1782952433056195800,3.68019580078125,-1.35894775390625,-0.0744171142578125,-0.104339599609375
1782952433066122500,3.69012255859375,-1.2301483154296875,-0.076263427734375,-0.1021270751953125
1782952433076049700,3.700049560546875,-1.0799713134765625,-0.0866546630859375,-0.0872802734375
1782952433085977600,3.7099775390625,-0.932830810546875,-0.097198486328125,-0.083251953125
1782952433095904500,3.719904541015625,-0.8040008544921875,-0.11181640625,-0.0830078125
1782952433105831700,3.729831787109375,-0.6988372802734375,-0.129425048828125,-0.08050537109375
1782952433115758600,3.739758544921875,-0.6065216064453125,-0.1430206298828125,-0.07440185546875
1782952433125686500,3.7496865234375,-0.5243682861328125,-0.1510467529296875,-0.057708740234375
1782952433135613700,3.75961376953125,-0.4639434814453125,-0.155792236328125,-0.037933349609375
1782952433145540600,3.76954052734375,-0.419891357421875,-0.1482696533203125,-0.0230865478515625
1782952433155467800,3.7794677734375,-0.3947296142578125,-0.1280059814453125,-0.011962890625
1782952433165395700,3.789395751953125,-0.382659912109375,-0.1072540283203125,-0.0023193359375
1782952433175322600,3.799322509765625,-0.37646484375,-0.081085205078125,-0.0019073486328125
1782952433185249500,3.80924951171875,-0.40167236328125,-0.0514678955078125,0.0030364990234375
1782952433195176700,3.8191767578125,-0.4561309814453125,-0.024078369140625,0.0186004638671875
1782952433205104600,3.829104736328125,-0.525360107421875,-0.000244140625,0.0265655517578125
1782952433215031600,3.839031494140625,-0.584197998046875,0.0099639892578125,0.02069091796875
1782952433224958700,3.848958740234375,-0.601959228515625,0.0080413818359375,-0.0047454833984375
1782952433234885600,3.8588857421875,-0.5755615234375,-0.008880615234375,-0.0194854736328125
1782952433244813600,3.8688134765625,-0.5174713134765625,-0.0168304443359375,-0.020843505859375
1782952433254740700,3.87874072265625,-0.484344482421875,-0.0128173828125,0.012420654296875
1782952433264667600,3.888667724609375,-0.492218017578125,-0.0258636474609375,0.0511932373046875
1782952433274594600,3.898594482421875,-0.5316314697265625,-0.05853271484375,0.0761871337890625
1782952433284522500,3.9085224609375,-0.5712432861328125,-0.08123779296875,0.080474853515625
1782952433294449700,3.91844970703125,-0.599395751953125,-0.0915679931640625,0.072021484375
1782952433304376600,3.92837646484375,-0.5633087158203125,-0.11505126953125,0.0489654541015625
1782952433314303700,3.9383037109375,-0.4862823486328125,-0.139251708984375,0.031646728515625
1782952433324231700,3.948231689453125,-0.463470458984375,-0.1424713134765625,0.031463623046875
1782952433334158600,3.95815869140625,-0.508544921875,-0.1508331298828125,0.0514068603515625
1782952433344085800,3.968085693359375,-0.641571044921875,-0.1740875244140625,0.1055450439453125
1782952433354012700,3.9780126953125,-0.8734893798828125,-0.205474853515625,0.170135498046875
1782952433363940600,3.987940673828125,-1.183929443359375,-0.23370361328125,0.2313079833984375
1782952433373867800,3.99786767578125,-1.5430145263671875,-0.244720458984375,0.3059539794921875
1782952433383794400,4.00779443359375,-1.8807220458984375,-0.243255615234375,0.358306884765625
1782952433393721600,4.0177216796875,-2.1671142578125,-0.2209014892578125,0.3630218505859375
1782952433403649500,4.0276494140625,-2.40301513671875,-0.1912078857421875,0.3088226318359375
1782952433413576700,4.03757666015625,-2.595947265625,-0.165863037109375,0.2020721435546875
1782952433423503600,4.047503662109375,-2.709320068359375,-0.1447296142578125,0.0826416015625
1782952433433430800,4.0574306640625,-2.7699127197265625,-0.1179962158203125,-0.0194244384765625
1782952433443358700,4.067358642578125,-2.81414794921875,-0.10040283203125,-0.075836181640625
1782952433453285600,4.07728564453125,-2.7962188720703125,-0.093170166015625,-0.1272735595703125
1782952433463212800,4.087212890625,-2.7301025390625,-0.0746307373046875,-0.184844970703125
1782952433473139500,4.097139404296875,-2.630950927734375,-0.102447509765625,-0.254852294921875
1782952433483067600,4.107067626953125,-2.4634552001953125,-0.117340087890625,-0.286712646484375
1782952433492994600,4.11699462890625,-2.2297821044921875,-0.11456298828125,-0.2692108154296875
1782952433502921500,4.12692138671875,-1.98358154296875,-0.110321044921875,-0.2085113525390625
1782952433512848600,4.1368486328125,-1.76641845703125,-0.1029510498046875,-0.1397552490234375
1782952433522776600,4.146776611328125,-1.587127685546875,-0.0987396240234375,-0.0828704833984375
1782952433532703700,4.156703857421875,-1.44171142578125,-0.09930419921875,-0.0437164306640625
1782952433542630700,4.166630615234375,-1.320648193359375,-0.1016082763671875,-0.024383544921875
1782952433552557800,4.176557861328125,-1.204376220703125,-0.1131439208984375,-0.0189361572265625
1782952433562485800,4.18648583984375,-1.08270263671875,-0.1214447021484375,-0.0186767578125
1782952433572412700,4.19641259765625,-0.972137451171875,-0.12628173828125,-0.01177978515625
1782952433582339600,4.206339599609375,-0.8703155517578125,-0.123321533203125,-0.00006103515625
1782952433592267800,4.216267822265625,-0.768707275390625,-0.113372802734375,0.0099639892578125
1782952433602194400,4.2261943359375,-0.6741180419921875,-0.10540771484375,0.0200653076171875
1782952433612121600,4.23612158203125,-0.58477783203125,-0.1009674072265625,0.022796630859375
1782952433622048500,4.246048583984375,-0.4974212646484375,-0.0920257568359375,0.02728271484375
1782952433631975700,4.2559755859375,-0.412353515625,-0.0751953125,0.0475616455078125
1782952433641903600,4.265903564453125,-0.3339385986328125,-0.067779541015625,0.0398712158203125
1782952433651830800,4.275830810546875,-0.27471923828125,-0.0738067626953125,0.0124664306640625
1782952433661757700,4.2857578125,-0.249847412109375,-0.068511962890625,0.0290679931640625
1782952433671684900,4.295684814453125,-0.2428436279296875,-0.0556793212890625,0.06005859375
1782952433681612800,4.30561279296875,-0.2579498291015625,-0.0355682373046875,0.1003265380859375
1782952433691539500,4.31553955078125,-0.2916107177734375,-0.0144195556640625,0.127227783203125
1782952433701466600,4.325466552734375,-0.332366943359375,-0.0049896240234375,0.1316986083984375
1782952433711394600,4.33539453125,-0.3668670654296875,-0.003875732421875,0.1202392578125
1782952433721321500,4.345321533203125,-0.3869171142578125,-0.0236663818359375,0.053619384765625
1782952433731248600,4.35524853515625,-0.405120849609375,-0.0497283935546875,0.002593994140625
1782952433741175600,4.365175537109375,-0.4251708984375,-0.07293701171875,-0.0531005859375
1782952433751103700,4.375103759765625,-0.435089111328125,-0.0906982421875,-0.084197998046875
1782952433761030700,4.38503076171875,-0.4372100830078125,-0.08892822265625,-0.0746002197265625
1782952433770957800,4.394957763671875,-0.45294189453125,-0.08380126953125,-0.0623321533203125
1782952433780884700,4.404884765625,-0.50848388671875,-0.088653564453125,-0.0613555908203125
1782952433790812700,4.414812744140625,-0.5383148193359375,-0.1021270751953125,-0.0923004150390625
1782952433800739600,4.424739501953125,-0.53289794921875,-0.110748291015625,-0.11865234375
1782952433810666500,4.43466650390625,-0.5134124755859375,-0.118011474609375,-0.1405181884765625
1782952433820593700,4.44459375,-0.5322418212890625,-0.1275787353515625,-0.1309051513671875
1782952433830521600,4.454521484375,-0.6319580078125,-0.1559600830078125,-0.151275634765625
1782952433840448500,4.464448486328125,-0.8471527099609375,-0.1826324462890625,-0.1644287109375
1782952433850376000,4.4743759765625,-1.0784454345703125,-0.1618194580078125,-0.1425933837890625
1782952433860302800,4.484302734375,-1.2068634033203125,-0.1435699462890625,-0.116363525390625
1782952433870231000,4.49423095703125,-1.226898193359375,-0.121124267578125,-0.07769775390625
1782952433880158000,4.504157958984375,-1.1381988525390625,-0.09967041015625,-0.068695068359375
1782952433890084900,4.5140849609375,-0.993316650390625,-0.089599609375,-0.0708160400390625
1782952433900011800,4.52401171875,-0.858184814453125,-0.086456298828125,-0.0727691650390625
1782952433909940000,4.53393994140625,-0.744140625,-0.07745361328125,-0.0738067626953125
1782952433919867000,4.543866943359375,-0.6279449462890625,-0.0718994140625,-0.0744781494140625
1782952433929793800,4.553793701171875,-0.53802490234375,-0.0755767822265625,-0.0768280029296875
1782952433939721000,4.563720947265625,-0.4897918701171875,-0.073455810546875,-0.0847320556640625
1782952433949649000,4.57364892578125,-0.4548797607421875,-0.0693359375,-0.09222412109375
1782952433959575800,4.583575927734375,-0.4305877685546875,-0.065521240234375,-0.0952301025390625
1782952433969503000,4.5935029296875,-0.4359130859375,-0.0650634765625,-0.0831756591796875
1782952433979430000,4.603429931640625,-0.456390380859375,-0.0684814453125,-0.062347412109375
1782952433989357800,4.61335791015625,-0.4694671630859375,-0.0704803466796875,-0.02386474609375
1782952433999285000,4.623284912109375,-0.4607086181640625,-0.0858917236328125,0.017303466796875
1782952434009212000,4.6332119140625,-0.4534454345703125,-0.102752685546875,0.0375823974609375
1782952434019138800,4.643138916015625,-0.483123779296875,-0.1165771484375,0.0523681640625
1782952434029066800,4.653066650390625,-0.561492919921875,-0.132080078125,0.068817138671875
1782952434038994000,4.662993896484375,-0.7093048095703125,-0.13531494140625,0.0797271728515625
1782952434048920800,4.6729208984375,-0.8576507568359375,-0.1410675048828125,0.0387725830078125
1782952434058848000,4.682847900390625,-0.93243408203125,-0.1360321044921875,-0.0216827392578125
1782952434068776000,4.69277587890625,-0.9693145751953125,-0.109771728515625,-0.079833984375
1782952434078702800,4.702702880859375,-0.9521331787109375,-0.086822509765625,-0.136749267578125
1782952434088630000,4.712630126953125,-0.9057159423828125,-0.068450927734375,-0.1570892333984375
1782952434098557000,4.722556884765625,-0.916900634765625,-0.071014404296875,-0.1659698486328125
1782952434108484900,4.73248486328125,-1.024322509765625,-0.0967559814453125,-0.1580657958984375
1782952434118411800,4.742411865234375,-1.2019195556640625,-0.124786376953125,-0.1291961669921875
1782952434128338700,4.752338623046875,-1.4145050048828125,-0.1551513671875,-0.0874176025390625
1782952434138265900,4.762265869140625,-1.6344146728515625,-0.1782989501953125,-0.0253753662109375
1782952434148193800,4.77219384765625,-1.8634796142578125,-0.20184326171875,0.0568084716796875
1782952434158121000,4.782120849609375,-2.0961456298828125,-0.22528076171875,0.1041107177734375
1782952434168047900,4.7920478515625,-2.29150390625,-0.210418701171875,0.099822998046875
1782952434177975000,4.80197509765625,-2.4805755615234375,-0.18963623046875,0.093353271484375
1782952434187903000,4.811903076171875,-2.5921478271484375,-0.1814117431640625,0.05377197265625
1782952434197830000,4.821829833984375,-2.601470947265625,-0.1742095947265625,-0.0015411376953125
1782952434207757000,4.831757080078125,-2.55755615234375,-0.1627044677734375,-0.05157470703125
1782952434217683700,4.84168359375,-2.454132080078125,-0.1202392578125,-0.0862274169921875
1782952434227612000,4.85161181640625,-2.32073974609375,-0.085723876953125,-0.1016387939453125
1782952434237538800,4.861538818359375,-2.1743927001953125,-0.08074951171875,-0.11260986328125
1782952434247465700,4.8714658203125,-2.002227783203125,-0.0983734130859375,-0.125335693359375
1782952434257393000,4.881392822265625,-1.83935546875,-0.1230926513671875,-0.137725830078125
1782952434267320800,4.89132080078125,-1.692962646484375,-0.1440277099609375,-0.1313934326171875
1782952434277248000,4.901248046875,-1.56640625,-0.1605682373046875,-0.1200714111328125
1782952434287175000,4.9111748046875,-1.45513916015625,-0.1713409423828125,-0.1219635009765625
1782952434297102000,4.92110205078125,-1.3409271240234375,-0.178619384765625,-0.1244964599609375
1782952434307030000,4.931030029296875,-1.2341156005859375,-0.1788482666015625,-0.1275634765625
1782952434316957000,4.94095703125,-1.1322784423828125,-0.1790924072265625,-0.1327362060546875
1782952434326883800,4.9508837890625,-1.0272674560546875,-0.1791534423828125,-0.1333160400390625
1782952434336810800,4.960810791015625,-0.9184417724609375,-0.1698150634765625,-0.1300506591796875
1782952434346738700,4.97073876953125,-0.8040008544921875,-0.153167724609375,-0.118988037109375
1782952434356665900,4.980665771484375,-0.6932373046875,-0.137298583984375,-0.1016845703125
1782952434366592800,4.9905927734375,-0.58575439453125,-0.1259765625,-0.08203125
1782952434376520000,5.00052001953125,-0.4882049560546875,-0.1177215576171875,-0.0510101318359375
1782952434386448000,5.01044775390625,-0.40386962890625,-0.1091156005859375,-0.0213470458984375
1782952434396375000,5.020375,-0.33074951171875,-0.101104736328125,-0.009124755859375
1782952434406302000,5.030302001953125,-0.2917022705078125,-0.0941925048828125,-0.003448486328125
1782952434416228900,5.040228759765625,-0.2900390625,-0.08941650390625,0.0183868408203125
1782952434426157000,5.050156982421875,-0.2925872802734375,-0.0838775634765625,0.018768310546875
1782952434436083700,5.060083740234375,-0.314056396484375,-0.0817413330078125,0.009002685546875
1782952434446011000,5.070010986328125,-0.3540191650390625,-0.0884552001953125,0.0092620849609375
1782952434455937800,5.079937744140625,-0.4232177734375,-0.08294677734375,0.01678466796875
1782952434465865700,5.08986572265625,-0.5278472900390625,-0.0674591064453125,0.0166473388671875
1782952434475793000,5.09979296875,-0.6219482421875,-0.0691986083984375,0.0115966796875
1782952434485719800,5.1097197265625,-0.6630401611328125,-0.0883636474609375,-0.0171356201171875
1782952434495647000,5.11964697265625,-0.6454315185546875,-0.113037109375,-0.0601654052734375
1782952434505575000,5.129574951171875,-0.5847930908203125,-0.1304168701171875,-0.0895538330078125
1782952434515502000,5.139502197265625,-0.518463134765625,-0.1391448974609375,-0.0994720458984375
1782952434525428700,5.1494287109375,-0.487548828125,-0.1494140625,-0.0876617431640625
1782952434535356000,5.15935595703125,-0.4943695068359375,-0.1627044677734375,-0.08221435546875
1782952434545283800,5.169283935546875,-0.54443359375,-0.1687469482421875,-0.0873565673828125
1782952434555210800,5.179210693359375,-0.63641357421875,-0.1551361083984375,-0.0826568603515625
1782952434565138000,5.189137939453125,-0.7928466796875,-0.1400909423828125,-0.0835418701171875
1782952434575064800,5.19906494140625,-0.956085205078125,-0.1417083740234375,-0.1001739501953125
1782952434584992800,5.20899267578125,-1.096160888671875,-0.1467132568359375,-0.1159820556640625
1782952434594920000,5.218919921875,-1.1770477294921875,-0.1462554931640625,-0.12652587890625
1782952434604846800,5.228846923828125,-1.1706085205078125,-0.15020751953125,-0.1274261474609375
1782952434614774000,5.23877392578125,-1.1432037353515625,-0.1030120849609375,-0.1482086181640625
1782952434624702000,5.248701904296875,-1.0491485595703125,-0.1034393310546875,-0.1169586181640625
1782952434634628900,5.25862890625,-0.9260711669921875,-0.1153564453125,-0.0870513916015625
1782952434644555800,5.2685556640625,-0.839508056640625,-0.1130218505859375,-0.078887939453125
1782952434654483000,5.27848291015625,-0.788848876953125,-0.12872314453125,-0.0579376220703125
1782952434664411000,5.288410888671875,-0.751434326171875,-0.1417694091796875,-0.0401611328125
1782952434674337800,5.298337890625,-0.7255706787109375,-0.14910888671875,-0.0323333740234375
1782952434684265000,5.308264892578125,-0.710174560546875,-0.146820068359375,-0.026092529296875
1782952434694191900,5.31819189453125,-0.6985321044921875,-0.1411895751953125,-0.0189361572265625
1782952434704119800,5.328119873046875,-0.6886138916015625,-0.1372833251953125,-0.01678466796875
1782952434715284700,5.33928466796875,-0.6702423095703125,-0.1298828125,-0.025787353515625
1782952434725212000,5.3492119140625,-0.63165283203125,-0.1226654052734375,-0.03936767578125
1782952434735139800,5.359139892578125,-0.590179443359375,-0.1216583251953125,-0.0504302978515625
1782952434745067000,5.36906689453125,-0.5501708984375,-0.1191558837890625,-0.061981201171875
1782952434754994000,5.378993896484375,-0.49615478515625,-0.11212158203125,-0.0661163330078125
1782952434764920800,5.3889208984375,-0.438812255859375,-0.0987396240234375,-0.06341552734375
1782952434774849000,5.39884912109375,-0.398895263671875,-0.0806121826171875,-0.0568084716796875
1782952434784776000,5.40877587890625,-0.3731231689453125,-0.0608978271484375,-0.06048583984375
1782952434794702800,5.418702880859375,-0.362213134765625,-0.0527191162109375,-0.0706939697265625
1782952434804629800,5.428629638671875,-0.384002685546875,-0.044769287109375,-0.067596435546875
1782952434814557700,5.4385576171875,-0.40380859375,-0.0508880615234375,-0.050689697265625
1782952434824484900,5.44848486328125,-0.45489501953125,-0.05963134765625,-0.0274505615234375
1782952434834411800,5.458411865234375,-0.5627899169921875,-0.0609893798828125,0.0167694091796875
1782952434844339000,5.4683388671875,-0.708526611328125,-0.07470703125,0.05535888671875
1782952434854267000,5.478266845703125,-0.84796142578125,-0.098297119140625,0.0680999755859375
1782952434864193500,5.488193603515625,-0.9297027587890625,-0.1195831298828125,0.0550994873046875
1782952434874120400,5.498120361328125,-0.921356201171875,-0.1131591796875,0.0429840087890625
1782952434884047400,5.50804736328125,-0.8762054443359375,-0.1011962890625,0.0332183837890625
1782952434893975600,5.5179755859375,-0.8831024169921875,-0.0855712890625,0.025543212890625
1782952434903902200,5.527902099609375,-0.971160888671875,-0.0503082275390625,0.0174560546875
1782952434913829400,5.537829345703125,-1.142974853515625,-0.0182037353515625,-0.0060577392578125
1782952434923756300,5.54775634765625,-1.4736480712890625,-0.02581787109375,-0.0109710693359375
1782952434933684200,5.557684326171875,-1.76922607421875,-0.060699462890625,-0.050750732421875
1782952434943611400,5.567611328125,-1.927490234375,-0.0937347412109375,-0.0876922607421875
1782952434953538300,5.577538330078125,-1.98089599609375,-0.0968780517578125,-0.0533447265625
1782952434963465500,5.587465576171875,-1.9794769287109375,-0.0611724853515625,-0.0023956298828125
1782952434973393400,5.597393310546875,-1.9701080322265625,-0.009033203125,-0.007354736328125
1782952434983320600,5.607320556640625,-1.98199462890625,-0.0175323486328125,-0.050445556640625
1782952434993247200,5.617247314453125,-2.043212890625,-0.033905029296875,-0.082244873046875
1782952435003174400,5.62717431640625,-2.1730194091796875,-0.03564453125,-0.1048431396484375
1782952435013102300,5.637102294921875,-2.2856903076171875,-0.019989013671875,-0.120391845703125
1782952435023029200,5.647029296875,-2.3297119140625,-0.0200958251953125,-0.139434814453125
1782952435032956400,5.656956298828125,-2.3349609375,-0.037017822265625,-0.145355224609375
1782952435042883300,5.66688330078125,-2.3218994140625,-0.0594940185546875,-0.1305084228515625
1782952435052811300,5.676811279296875,-2.261566162109375,-0.0867767333984375,-0.1107330322265625
1782952435062738400,5.686738525390625,-2.1645660400390625,-0.103515625,-0.0833740234375
1782952435072665300,5.696665283203125,-2.03521728515625,-0.1178436279296875,-0.056640625
1782952435082592500,5.706592529296875,-1.8822479248046875,-0.13726806640625,-0.037994384765625
1782952435092521500,5.716521484375,-1.737152099609375,-0.154541015625,-0.03302001953125
1782952435102449400,5.726449462890625,-1.58746337890625,-0.1638946533203125,-0.03839111328125
1782952435112376600,5.73637646484375,-1.422119140625,-0.159149169921875,-0.0478363037109375
1782952435122303500,5.746303466796875,-1.251220703125,-0.1603851318359375,-0.05950927734375
1782952435132230400,5.75623046875,-1.0773468017578125,-0.162872314453125,-0.0845489501953125
1782952435142158300,5.766158447265625,-0.9246826171875,-0.1737518310546875,-0.06494140625
1782952435152085200,5.776085205078125,-0.7877960205078125,-0.163482666015625,-0.0628662109375
1782952435162012400,5.786012451171875,-0.661285400390625,-0.156707763671875,-0.05963134765625
1782952435171940400,5.7959404296875,-0.557952880859375,-0.1479339599609375,-0.033660888671875
1782952435181867300,5.8058671875,-0.473175048828125,-0.1199188232421875,0.0035858154296875
1782952435191794400,5.81579443359375,-0.3836212158203125,-0.1154632568359375,-0.0074920654296875
1782952435201721300,5.825721435546875,-0.31817626953125,-0.1216278076171875,0.007537841796875
1782952435211649500,5.8356494140625,-0.2487030029296875,-0.11822509765625,0.01934814453125
1782952435221576400,5.845576416015625,-0.1911163330078125,-0.109039306640625,0.0409393310546875
1782952435231503400,5.85550341796875,-0.1734466552734375,-0.0961761474609375,0.072021484375
1782952435241430300,5.86543017578125,-0.1858367919921875,-0.07806396484375,0.08489990234375
1782952435251358200,5.875358154296875,-0.23565673828125,-0.062469482421875,0.06451416015625
1782952435261285400,5.885285400390625,-0.3049774169921875,-0.05841064453125,0.0324249267578125
1782952435271212300,5.89521240234375,-0.3834381103515625,-0.077239990234375,-0.0112457275390625
1782952435281139500,5.905139404296875,-0.4235076904296875,-0.094329833984375,-0.0555877685546875
1782952435291067400,5.9150673828125,-0.4536590576171875,-0.1009521484375,-0.074188232421875
1782952435300994300,5.924994384765625,-0.4911346435546875,-0.1038360595703125,-0.083282470703125
1782952435310921500,5.93492138671875,-0.52459716796875,-0.100311279296875,-0.087188720703125
1782952435320848400,5.944848388671875,-0.489013671875,-0.08331298828125,-0.0884857177734375
1782952435330776600,5.954776611328125,-0.45989990234375,-0.080810546875,-0.0863800048828125
1782952435340703500,5.964703369140625,-0.4696807861328125,-0.0996246337890625,-0.0958251953125
1782952435350630400,5.97463037109375,-0.5162353515625,-0.114349365234375,-0.0900421142578125
1782952435360557300,5.984557373046875,-0.596923828125,-0.12347412109375,-0.0777435302734375
1782952435370485200,5.9944853515625,-0.69171142578125,-0.1368560791015625,-0.069366455078125
1782952435380412400,6.004412353515625,-0.8089752197265625,-0.1361541748046875,-0.06884765625
1782952435390339300,6.01433935546875,-0.9553070068359375,-0.1205596923828125,-0.06878662109375
1782952435400266500,6.0242666015625,-1.1028594970703125,-0.122161865234375,-0.0733642578125
1782952435410194400,6.0341943359375,-1.2353363037109375,-0.102874755859375,-0.112762451171875
1782952435420121300,6.044121337890625,-1.326904296875,-0.0680389404296875,-0.173919677734375
1782952435430048500,6.054048583984375,-1.3083648681640625,-0.0727996826171875,-0.1757965087890625
1782952435439975400,6.063975341796875,-1.19122314453125,-0.0660400390625,-0.141845703125
1782952435449903600,6.073903564453125,-1.0495147705078125,-0.0562286376953125,-0.124847412109375
1782952435459830300,6.083830322265625,-0.9140472412109375,-0.0596923828125,-0.107452392578125
1782952435469757400,6.09375732421875,-0.7889404296875,-0.0684967041015625,-0.086883544921875
1782952435479684400,6.103684326171875,-0.689788818359375,-0.080718994140625,-0.065277099609375
1782952435489612300,6.1136123046875,-0.6200408935546875,-0.0977630615234375,-0.0492706298828125
1782952435499539500,6.12353955078125,-0.568511962890625,-0.1026763916015625,-0.035369873046875
1782952435509466400,6.13346630859375,-0.515533447265625,-0.0948638916015625,-0.0261993408203125
1782952435519393500,6.1433935546875,-0.4589996337890625,-0.0915985107421875,-0.0359344482421875
1782952435529321500,6.153321533203125,-0.3951263427734375,-0.097198486328125,-0.047760009765625
1782952435539248400,6.163248291015625,-0.3371429443359375,-0.0969696044921875,-0.0554046630859375
1782952435549175600,6.173175537109375,-0.2974090576171875,-0.0994720458984375,-0.057647705078125
1782952435559102200,6.183102294921875,-0.2949371337890625,-0.11334228515625,-0.0548248291015625
1782952435569030400,6.193030517578125,-0.320281982421875,-0.1268768310546875,-0.0518035888671875
1782952435578957300,6.202957275390625,-0.3757171630859375,-0.123931884765625,-0.037200927734375
1782952435588884500,6.212884521484375,-0.4825897216796875,-0.1202239990234375,-0.0179595947265625
1782952435598811400,6.222811279296875,-0.62738037109375,-0.1183929443359375,-0.0070037841796875
1782952435608739300,6.2327392578125,-0.7794342041015625,-0.1141204833984375,-0.004486083984375
1782952435618666500,6.24266650390625,-0.8925933837890625,-0.1131591796875,-0.0189208984375
1782952435628593400,6.252593505859375,-0.9742431640625,-0.125762939453125,-0.0538787841796875
1782952435638520600,6.2625205078125,-0.9952545166015625,-0.1442413330078125,-0.1035919189453125
1782952435648448500,6.272448486328125,-0.9350738525390625,-0.138519287109375,-0.118682861328125
1782952435658375400,6.28237548828125,-0.8446807861328125,-0.1374053955078125,-0.112548828125
1782952435668302300,6.29230224609375,-0.7764739990234375,-0.123291015625,-0.1126861572265625
1782952435678229200,6.302229248046875,-0.7631683349609375,-0.09368896484375,-0.0996856689453125
1782952435688157400,6.312157470703125,-0.806793212890625,-0.0672454833984375,-0.0965728759765625
1782952435698084400,6.32208447265625,-0.919097900390625,-0.0665283203125,-0.111724853515625
1782952435708011300,6.33201123046875,-1.0910797119140625,-0.0815887451171875,-0.1309661865234375
1782952435717938400,6.3419384765625,-1.2788543701171875,-0.095184326171875,-0.1247406005859375
1782952435727866400,6.351866455078125,-1.4502410888671875,-0.1018829345703125,-0.1027374267578125
1782952435737793500,6.36179345703125,-1.613006591796875,-0.13134765625,-0.08465576171875
1782952435747720400,6.371720458984375,-1.751129150390625,-0.15545654296875,-0.0963592529296875
1782952435757647400,6.3816474609375,-1.854736328125,-0.1530303955078125,-0.1253814697265625
1782952435767575600,6.391575439453125,-1.950653076171875,-0.1392669677734375,-0.1681976318359375
1782952435777502200,6.401502197265625,-2.04302978515625,-0.11474609375,-0.208953857421875
1782952435787429400,6.411429443359375,-2.127838134765625,-0.101165771484375,-0.22314453125
1782952435797356300,6.421356201171875,-2.2280120849609375,-0.1044769287109375,-0.20672607421875
1782952435807284500,6.431284423828125,-2.33050537109375,-0.1011199951171875,-0.1675567626953125
1782952435817211400,6.44121142578125,-2.4063720703125,-0.093658447265625,-0.1326446533203125
1782952435827138300,6.45113818359375,-2.4273529052734375,-0.0876617431640625,-0.1120147705078125
1782952435837065500,6.4610654296875,-2.3552703857421875,-0.0844268798828125,-0.0988311767578125
1782952435846993400,6.470993408203125,-2.209136962890625,-0.083587646484375,-0.0854034423828125
1782952435856920600,6.480920654296875,-2.02874755859375,-0.0826416015625,-0.0629119873046875
1782952435866848000,6.490847900390625,-1.82867431640625,-0.087554931640625,-0.03948974609375
1782952435876775000,6.50077490234375,-1.652313232421875,-0.1026611328125,-0.0224456787109375
1782952435886702800,6.510702880859375,-1.5045013427734375,-0.1269683837890625,-0.00634765625
1782952435896629800,6.520629638671875,-1.38671875,-0.147552490234375,0.0067291259765625
1782952435906557000,6.530556884765625,-1.288604736328125,-0.163238525390625,0.00775146484375
1782952435916483800,6.54048388671875,-1.2042236328125,-0.175048828125,0.010040283203125
1782952435926411800,6.550411865234375,-1.1268157958984375,-0.1819000244140625,0.0019073486328125
1782952435936339000,6.5603388671875,-1.0549163818359375,-0.1881256103515625,-0.0178375244140625
1782952435946265900,6.570265869140625,-0.9941253662109375,-0.1832275390625,-0.0315399169921875
1782952435956193000,6.580193115234375,-0.93463134765625,-0.173492431640625,-0.0528564453125
1782952435966121000,6.590120849609375,-0.865234375,-0.158660888671875,-0.0801239013671875
1782952435976047900,6.6000478515625,-0.7821807861328125,-0.138763427734375,-0.0996856689453125
1782952435985974800,6.609974853515625,-0.7076263427734375,-0.128173828125,-0.10174560546875
1782952435995901700,6.619901611328125,-0.6248931884765625,-0.1255645751953125,-0.09295654296875
1782952436005830000,6.629829833984375,-0.5333099365234375,-0.1224212646484375,-0.0638427734375
1782952436015756800,6.6397568359375,-0.46807861328125,-0.111053466796875,-0.0309906005859375
1782952436025684000,6.64968408203125,-0.419647216796875,-0.0938262939453125,-0.0030670166015625
1782952436035611000,6.65961083984375,-0.391387939453125,-0.0924835205078125,0.007415771484375
1782952436045538800,6.669538818359375,-0.381134033203125,-0.09014892578125,0.009674072265625
1782952436055466000,6.679466064453125,-0.3800506591796875,-0.0836639404296875,0.0091400146484375
1782952436065393000,6.689392822265625,-0.3865509033203125,-0.0772857666015625,-0.009979248046875
1782952436075319800,6.69931982421875,-0.40826416015625,-0.0718536376953125,-0.0402984619140625
1782952436085248000,6.709248046875,-0.4334716796875,-0.078582763671875,-0.060028076171875
1782952436095175000,6.7191748046875,-0.4292449951171875,-0.0966949462890625,-0.0692291259765625
1782952436105101800,6.729101806640625,-0.414764404296875,-0.1036376953125,-0.06048583984375
1782952436115028700,6.73902880859375,-0.426422119140625,-0.1006011962890625,-0.02862548828125
1782952436124957000,6.74895703125,-0.4585113525390625,-0.0975341796875,-0.018585205078125
1782952436134883800,6.7588837890625,-0.48699951171875,-0.1112060546875,-0.027191162109375
1782952436144811000,6.76881103515625,-0.503692626953125,-0.1190643310546875,-0.01483154296875
1782952436154738000,6.778738037109375,-0.5122833251953125,-0.1285552978515625,-0.0413970947265625
1782952436164665900,6.788665771484375,-0.5361785888671875,-0.1476287841796875,-0.0807647705078125
1782952436174593000,6.798593017578125,-0.5355224609375,-0.131256103515625,-0.0873565673828125
1782952436184519700,6.808519775390625,-0.5532684326171875,-0.1190948486328125,-0.07122802734375
1782952436194446800,6.81844677734375,-0.688812255859375,-0.1175994873046875,-0.0673980712890625
1782952436204374800,6.828374755859375,-0.9915771484375,-0.1168060302734375,-0.0960845947265625
1782952436214302000,6.838302001953125,-1.338165283203125,-0.1024017333984375,-0.1229095458984375
1782952436224228900,6.848228759765625,-1.5676116943359375,-0.086578369140625,-0.1297607421875
1782952436234155800,6.85815576171875,-1.5859527587890625,-0.0617218017578125,-0.1537322998046875
1782952436244084000,6.868083984375,-1.4553680419921875,-0.075347900390625,-0.1505584716796875
1782952436254011000,6.878010986328125,-1.2942657470703125,-0.0519256591796875,-0.1673431396484375
1782952436263938000,6.88793798828125,-1.1188812255859375,-0.0523223876953125,-0.1516571044921875
1782952436273865000,6.897864990234375,-0.9041595458984375,-0.095733642578125,-0.11346435546875
1782952436283793000,6.90779296875,-0.7195587158203125,-0.11688232421875,-0.1073760986328125
1782952436293719800,6.9177197265625,-0.594879150390625,-0.1326751708984375,-0.08447265625
1782952436303646700,6.927646728515625,-0.4975128173828125,-0.13946533203125,-0.0554656982421875
1782952436313574000,6.937573974609375,-0.41351318359375,-0.1400146484375,-0.0354461669921875
1782952436323501800,6.947501708984375,-0.34906005859375,-0.1436309814453125,-0.0235595703125
1782952436333428700,6.9574287109375,-0.3031005859375,-0.14764404296875,-0.0229949951171875
1782952436343356000,6.96735595703125,-0.269287109375,-0.1418914794921875,-0.0081787109375
1782952436353283800,6.977283935546875,-0.2514495849609375,-0.132080078125,-0.0016021728515625
1782952436363211000,6.9872109375,-0.2458038330078125,-0.1269073486328125,-0.0000457763671875
1782952436373138000,6.997137939453125,-0.2373504638671875,-0.1092681884765625,0.02294921875
1782952436383065000,7.007065185546875,-0.2360992431640625,-0.10101318359375,0.05413818359375
1782952436392991700,7.01699169921875,-0.2368316650390625,-0.1190948486328125,0.0390472412109375
1782952436402919700,7.026919677734375,-0.299346923828125,-0.1203460693359375,0.009521484375
1782952436412846800,7.036846923828125,-0.4400787353515625,-0.1116180419921875,0.00103759765625
1782952436422773800,7.046773681640625,-0.5932769775390625,-0.1135711669921875,0.001678466796875
1782952436432702000,7.056701904296875,-0.69683837890625,-0.1205291748046875,-0.01507568359375
1782952436442628900,7.06662890625,-0.73828125,-0.1270599365234375,-0.0401611328125
1782952436452555800,7.0765556640625,-0.72198486328125,-0.1219024658203125,-0.0573883056640625
1782952436462483000,7.08648291015625,-0.681182861328125,-0.1172637939453125,-0.0692901611328125
1782952436472411000,7.096410888671875,-0.691986083984375,-0.1186981201171875,-0.0837860107421875
1782952436482338000,7.106338134765625,-0.7818603515625,-0.1129302978515625,-0.0916748046875
1782952436492265000,7.116264892578125,-0.9412994384765625,-0.1048736572265625,-0.07940673828125
1782952436502191900,7.12619189453125,-1.183135986328125,-0.1079254150390625,-0.080078125
1782952436512119800,7.136119873046875,-1.5428314208984375,-0.132659912109375,-0.092041015625
1782952436522046700,7.146046630859375,-1.984222412109375,-0.162811279296875,-0.10687255859375
1782952436531974000,7.155973876953125,-2.37005615234375,-0.177886962890625,-0.127471923828125
1782952436541900800,7.16590087890625,-2.5957183837890625,-0.1720733642578125,-0.1360015869140625
1782952436551828000,7.175827880859375,-2.65118408203125,-0.1709442138671875,-0.12835693359375
1782952436561756000,7.185755859375,-2.6107330322265625,-0.1751861572265625,-0.0985107421875
1782952436571682800,7.195682861328125,-2.5729217529296875,-0.172943115234375,-0.0430755615234375
1782952436581610000,7.20560986328125,-2.5272369384765625,-0.159698486328125,-0.0009002685546875
1782952436591537000,7.215536865234375,-2.470367431640625,-0.158203125,-0.0001220703125
1782952436601465000,7.225465087890625,-2.3962554931640625,-0.1750030517578125,-0.0355682373046875
1782952436611391700,7.235391845703125,-2.26727294921875,-0.188873291015625,-0.073822021484375
1782952436621319000,7.24531884765625,-2.0948028564453125,-0.189910888671875,-0.088287353515625
1782952436631246800,7.255246826171875,-1.9196319580078125,-0.1780853271484375,-0.0924835205078125
1782952436641173800,7.265173828125,-1.75372314453125,-0.178955078125,-0.103546142578125
1782952436651101000,7.275100830078125,-1.592071533203125,-0.187103271484375,-0.13580322265625
1782952436661027800,7.28502783203125,-1.447601318359375,-0.19573974609375,-0.1657867431640625
1782952436670955800,7.294955810546875,-1.326263427734375,-0.20068359375,-0.187744140625
1782952436680883000,7.304883056640625,-1.2176513671875,-0.19525146484375,-0.198638916015625
1782952436690809900,7.314809814453125,-1.1284637451171875,-0.1858673095703125,-0.2052764892578125
1782952436700737000,7.324737060546875,-1.040374755859375,-0.17877197265625,-0.2105712890625
1782952436710665000,7.3346650390625,-0.955535888671875,-0.1699676513671875,-0.2037200927734375
1782952436720592000,7.344591796875,-0.86553955078125,-0.1640472412109375,-0.189605712890625
1782952436730518800,7.354518798828125,-0.7662506103515625,-0.15924072265625,-0.1707763671875
1782952436740446000,7.364446044921875,-0.6663970947265625,-0.15570068359375,-0.149932861328125
1782952436750374000,7.374373779296875,-0.5689544677734375,-0.1513824462890625,-0.1226654052734375
1782952436760300800,7.38430078125,-0.48248291015625,-0.147857666015625,-0.0913238525390625
1782952436770228000,7.39422802734375,-0.39910888671875,-0.143402099609375,-0.0618896484375
1782952436780155000,7.40415478515625,-0.318145751953125,-0.1424560546875,-0.0378875732421875
1782952436790082800,7.414082763671875,-0.2607269287109375,-0.139404296875,-0.017486572265625
1782952436800010000,7.424010009765625,-0.2374725341796875,-0.1363677978515625,0.0036163330078125
1782952436809937000,7.43393701171875,-0.22100830078125,-0.1289215087890625,0.024871826171875
1782952436819863800,7.44386376953125,-0.2161712646484375,-0.119354248046875,0.0253143310546875
1782952436829791700,7.453791748046875,-0.24310302734375,-0.1277618408203125,0.023193359375
1782952436839719000,7.463718994140625,-0.301910400390625,-0.1387939453125,0.0268707275390625
1782952436849645800,7.473645751953125,-0.39459228515625,-0.1374053955078125,0.0145263671875
1782952436859572700,7.48357275390625,-0.4958648681640625,-0.129150390625,-0.0174713134765625
1782952436869500700,7.493500732421875,-0.595672607421875,-0.1208343505859375,-0.057037353515625
1782952436879427600,7.503427490234375,-0.6773834228515625,-0.1161651611328125,-0.0965728759765625
1782952436889354800,7.513354736328125,-0.7212677001953125,-0.1200714111328125,-0.12078857421875
1782952436899281700,7.52328173828125,-0.7233734130859375,-0.13043212890625,-0.11822509765625
1782952436909209900,7.5332099609375,-0.720458984375,-0.12286376953125,-0.0838165283203125
1782952436919136500,7.543136474609375,-0.7686614990234375,-0.1048583984375,-0.033935546875
1782952436929063700,7.553063720703125,-0.847198486328125,-0.092437744140625,-0.02728271484375
1782952436938990600,7.562990478515625,-0.960968017578125,-0.0839080810546875,-0.026641845703125
1782952436948918500,7.57291845703125,-1.0751190185546875,-0.082366943359375,-0.02618408203125
1782952436958845700,7.582845703125,-1.1642303466796875,-0.0800628662109375,-0.0343170166015625
1782952436968772600,7.592772705078125,-1.2186737060546875,-0.0750274658203125,-0.0517120361328125
1782952436978699800,7.60269970703125,-1.215789794921875,-0.076934814453125,-0.049713134765625
1782952436988627700,7.612627685546875,-1.172088623046875,-0.0665283203125,-0.03900146484375
1782952436998554600,7.6225546875,-1.08990478515625,-0.059112548828125,-0.0318450927734375
1782952437008481800,7.632481689453125,-0.9876556396484375,-0.057952880859375,-0.0260772705078125
1782952437018408400,7.642408447265625,-0.8821868896484375,-0.0651397705078125,-0.036346435546875
1782952437028336600,7.652336669921875,-0.779937744140625,-0.073577880859375,-0.0472564697265625
1782952437038263600,7.662263671875,-0.6940155029296875,-0.078338623046875,-0.05169677734375
1782952437048190700,7.672190673828125,-0.62237548828125,-0.0753173828125,-0.0586395263671875
1782952437058117600,7.68211767578125,-0.56292724609375,-0.0768890380859375,-0.0611572265625
1782952437068045600,7.692045654296875,-0.515777587890625,-0.0827484130859375,-0.064544677734375
1782952437077972700,7.70197265625,-0.475341796875,-0.079315185546875,-0.0677490234375
1782952437087899600,7.711899658203125,-0.4318389892578125,-0.071044921875,-0.0626983642578125
1782952437097826800,7.721826904296875,-0.4029388427734375,-0.059906005859375,-0.048828125
1782952437107754800,7.731754638671875,-0.39105224609375,-0.0460205078125,-0.030181884765625
1782952437117681700,7.741681640625,-0.389312744140625,-0.038726806640625,-0.0120697021484375
1782952437127608600,7.751608642578125,-0.400787353515625,-0.0334014892578125,0.0001220703125
1782952437137535500,7.761535400390625,-0.4420166015625,-0.0248565673828125,0.01092529296875
1782952437147463700,7.771463623046875,-0.4936370849609375,-0.028167724609375,0.0127716064453125
1782952437157390600,7.781390625,-0.54254150390625,-0.0364532470703125,0.0123443603515625
1782952437167317500,7.7913173828125,-0.5763702392578125,-0.0414581298828125,0.015838623046875
1782952437177244700,7.80124462890625,-0.5965423583984375,-0.056671142578125,0.013580322265625
1782952437187172600,7.811172607421875,-0.6009674072265625,-0.0786590576171875,0.000213623046875
1782952437197099800,7.821099853515625,-0.6237945556640625,-0.1053924560546875,0.001220703125
1782952437207026700,7.831026611328125,-0.66754150390625,-0.1300048828125,-0.0012054443359375
1782952437216953900,7.840953857421875,-0.7375030517578125,-0.1262969970703125,-0.0198211669921875
1782952437226881800,7.8508818359375,-0.7866058349609375,-0.108123779296875,-0.042205810546875
1782952437236808400,7.860808349609375,-0.7946929931640625,-0.0954742431640625,-0.0649261474609375
1782952437246735600,7.870735595703125,-0.7838134765625,-0.0928955078125,-0.079437255859375
1782952437256662500,7.88066259765625,-0.8017120361328125,-0.0917510986328125,-0.0625762939453125
1782952437266590700,7.8905908203125,-0.8628692626953125,-0.0887451171875,-0.0267181396484375
1782952437276517600,7.900517578125,-1.004638671875,-0.0951690673828125,0.0012359619140625
1782952437286444500,7.910444580078125,-1.2725982666015625,-0.10400390625,-0.005401611328125
1782952437296371700,7.920371826171875,-1.6026611328125,-0.09771728515625,-0.0281829833984375
1782952437306299600,7.930299560546875,-1.9199371337890625,-0.10101318359375,-0.058197021484375
1782952437316226800,7.940226806640625,-2.1204376220703125,-0.1049957275390625,-0.092010498046875
1782952437326153500,7.950153564453125,-2.1982421875,-0.1105194091796875,-0.1205902099609375
1782952437336080600,7.96008056640625,-2.2285308837890625,-0.1313629150390625,-0.1473236083984375
1782952437346008600,7.970008544921875,-2.244293212890625,-0.1252288818359375,-0.1663360595703125
1782952437355935500,7.979935546875,-2.256134033203125,-0.09271240234375,-0.1643524169921875
1782952437365862700,7.989862548828125,-2.251495361328125,-0.0714569091796875,-0.1665802001953125
1782952437375789600,7.99978955078125,-2.229217529296875,-0.0783843994140625,-0.16949462890625
1782952437385717500,8.009717529296875,-2.1924285888671875,-0.099090576171875,-0.1599273681640625
1782952437395644700,8.019644775390624,-2.1694488525390625,-0.1151885986328125,-0.1569366455078125
1782952437405571600,8.029571533203125,-2.1439361572265625,-0.12432861328125,-0.139007568359375
1782952437415498800,8.039498779296874,-2.0858001708984375,-0.12738037109375,-0.1102142333984375
1782952437425426700,8.0494267578125,-1.997467041015625,-0.1273651123046875,-0.082000732421875
1782952437435353600,8.059353515625,-1.8744049072265625,-0.1255340576171875,-0.06378173828125
1782952437445280500,8.069280517578125,-1.73199462890625,-0.1259613037109375,-0.0563201904296875
1782952437455207700,8.079207763671874,-1.5819854736328125,-0.1259307861328125,-0.0550384521484375
1782952437465135600,8.089135498046875,-1.4301605224609375,-0.130401611328125,-0.063934326171875
1782952437475062500,8.0990625,-1.2849273681640625,-0.1396331787109375,-0.0717620849609375
1782952437484989700,8.10898974609375,-1.1449432373046875,-0.1457977294921875,-0.0746612548828125
1782952437494916600,8.11891650390625,-1.015533447265625,-0.14459228515625,-0.074951171875
1782952437504844500,8.128844482421876,-0.89947509765625,-0.143218994140625,-0.07305908203125
1782952437514771700,8.138771728515625,-0.7908477783203125,-0.1446533203125,-0.0649261474609375
1782952437524698600,8.14869873046875,-0.6947784423828125,-0.146942138671875,-0.059906005859375
1782952437534625500,8.15862548828125,-0.6205902099609375,-0.1417236328125,-0.0589752197265625
1782952437544553500,8.168553466796874,-0.5491790771484375,-0.138580322265625,-0.0493011474609375
1782952437554480600,8.178480712890625,-0.4801483154296875,-0.133392333984375,-0.0396575927734375
1782952437564407600,8.188407470703124,-0.4045562744140625,-0.128021240234375,-0.03857421875
1782952437574334700,8.198334716796875,-0.338043212890625,-0.1197357177734375,-0.0368804931640625
1782952437584262700,8.2082626953125,-0.3010101318359375,-0.1064453125,-0.026092529296875
1782952437594189600,8.218189453125,-0.28436279296875,-0.0863189697265625,-0.02264404296875
1782952437604116700,8.22811669921875,-0.32080078125,-0.0680084228515625,-0.0019989013671875
1782952437614043600,8.238043701171875,-0.3870849609375,-0.049591064453125,0.012725830078125
1782952437623971600,8.2479716796875,-0.4389801025390625,-0.0428009033203125,-0.0017547607421875
1782952437633898800,8.257898681640626,-0.442962646484375,-0.0461273193359375,-0.02996826171875
1782952437643825400,8.267825439453125,-0.4199371337890625,-0.0568389892578125,-0.0402374267578125
1782952437653752600,8.277752685546876,-0.37823486328125,-0.0736083984375,-0.0528564453125
1782952437663680500,8.287680419921875,-0.36773681640625,-0.082733154296875,-0.0373992919921875
1782952437673607700,8.297607666015624,-0.4155120849609375,-0.082672119140625,-0.006500244140625
1782952437683534600,8.30753466796875,-0.4944000244140625,-0.0731964111328125,0.009185791015625
1782952437693461800,8.317461669921874,-0.5860595703125,-0.0845489501953125,-0.00164794921875
1782952437703389700,8.3273896484375,-0.680999755859375,-0.0919952392578125,-0.02105712890625
1782952437713316600,8.337316650390624,-0.757904052734375,-0.0970001220703125,-0.04730224609375
1782952437723243800,8.347243896484375,-0.8168487548828125,-0.108184814453125,-0.06787109375
1782952437733170700,8.357170654296874,-0.8759765625,-0.125152587890625,-0.0640106201171875
1782952437743098600,8.3670986328125,-0.9522705078125,-0.1333465576171875,-0.0344696044921875
1782952437753025500,8.377025634765625,-1.0448150634765625,-0.1188201904296875,-0.0006256103515625
1782952437762952400,8.386952392578126,-1.13848876953125,-0.094635009765625,0.0104827880859375
1782952437772879600,8.396879638671875,-1.22125244140625,-0.0748748779296875,0.0068359375
1782952437782807600,8.4068076171875,-1.260467529296875,-0.0609283447265625,0.0011749267578125
1782952437792734700,8.416734619140625,-1.2601776123046875,-0.0525054931640625,-0.0019073486328125
1782952437802661600,8.42666162109375,-1.22369384765625,-0.05023193359375,-0.014617919921875
1782952437812588800,8.4365888671875,-1.1509246826171875,-0.052825927734375,-0.04107666015625
1782952437822516700,8.446516845703124,-1.0394439697265625,-0.03741455078125,-0.053314208984375
1782952437832443600,8.456443603515625,-0.92022705078125,-0.0305023193359375,-0.056488037109375
1782952437842370800,8.466370849609374,-0.8034820556640625,-0.0519866943359375,-0.0812835693359375
1782952437852297500,8.47629736328125,-0.6763458251953125,-0.075408935546875,-0.092742919921875
1782952437862227200,8.486227294921875,-0.5544586181640625,-0.0891265869140625,-0.0862579345703125
1782952437872154000,8.496154052734376,-0.461151123046875,-0.0919952392578125,-0.070587158203125
1782952437882081300,8.506081298828125,-0.3928680419921875,-0.093231201171875,-0.054962158203125
1782952437892008200,8.51600830078125,-0.341339111328125,-0.0898895263671875,-0.0429840087890625
1782952437901936400,8.525936279296875,-0.3128509521484375,-0.0740509033203125,-0.036956787109375
1782952437911863300,8.53586328125,-0.3513641357421875,-0.0469207763671875,-0.0381622314453125
1782952437921790500,8.54579052734375,-0.4648284912109375,-0.0313568115234375,-0.05426025390625
1782952437931717000,8.555717041015624,-0.589935302734375,-0.0396270751953125,-0.05609130859375
1782952437941645000,8.56564501953125,-0.7062225341796875,-0.064300537109375,-0.045684814453125
1782952437951572200,8.575572265625,-0.79742431640625,-0.0963134765625,-0.069122314453125
1782952437961499100,8.5854990234375,-0.815521240234375,-0.1264801025390625,-0.1114349365234375
1782952437971426300,8.59542626953125,-0.76898193359375,-0.1207733154296875,-0.12554931640625
1782952437981354200,8.605354248046876,-0.7406768798828125,-0.0935211181640625,-0.1244964599609375
1782952437991281200,8.61528125,-0.70257568359375,-0.0804443359375,-0.124908447265625
1782952438001208300,8.625208251953126,-0.6448974609375,-0.0911712646484375,-0.1149444580078125
1782952438011135200,8.63513525390625,-0.5984649658203125,-0.0984649658203125,-0.0990447998046875
1782952438021063400,8.6450634765625,-0.577117919921875,-0.100372314453125,-0.05511474609375
1782952438030990300,8.654990234375,-0.5850372314453125,-0.099365234375,0.0112457275390625
1782952438040917200,8.664917236328124,-0.6293487548828125,-0.1048126220703125,0.04071044921875
1782952438050844200,8.67484423828125,-0.7688140869140625,-0.1121826171875,0.0485382080078125
1782952438060772000,8.684772216796874,-1.0211944580078125,-0.114532470703125,0.053131103515625
1782952438070699300,8.69469921875,-1.2584381103515625,-0.1237945556640625,0.0514984130859375
1782952438080626200,8.704626220703124,-1.43157958984375,-0.152679443359375,0.0366973876953125
1782952438090553300,8.71455322265625,-1.577239990234375,-0.1973114013671875,0.0102081298828125
1782952438100481300,8.724481201171875,-1.717254638671875,-0.2364349365234375,-0.02825927734375
1782952438110408200,8.734408203125,-1.89739990234375,-0.264312744140625,-0.077239990234375
1782952438120335400,8.74433544921875,-2.10455322265625,-0.281646728515625,-0.1461639404296875
1782952438130262300,8.75426220703125,-2.294036865234375,-0.244293212890625,-0.16302490234375
1782952438140190500,8.7641904296875,-2.452117919921875,-0.18780517578125,-0.1508026123046875
1782952438150117000,8.7741171875,-2.5390472412109375,-0.153411865234375,-0.17242431640625
1782952438160044300,8.784044189453125,-2.5503082275390625,-0.133697509765625,-0.1903839111328125
1782952438169971200,8.79397119140625,-2.4933013916015625,-0.12359619140625,-0.1820068359375
1782952438179899100,8.803899169921875,-2.37957763671875,-0.1232147216796875,-0.1617431640625
1782952438189826300,8.813826416015624,-2.2590484619140625,-0.11785888671875,-0.14971923828125
1782952438199753200,8.823753173828125,-2.142578125,-0.1187286376953125,-0.1513519287109375
1782952438209680400,8.833680419921874,-2.0293426513671875,-0.1271209716796875,-0.150665283203125
1782952438219608300,8.8436083984375,-1.9109344482421875,-0.1352691650390625,-0.14276123046875
1782952438229535200,8.85353515625,-1.7990875244140625,-0.13275146484375,-0.1365203857421875
1782952438239462400,8.86346240234375,-1.6718902587890625,-0.1378021240234375,-0.1280975341796875
1782952438249390300,8.873390380859375,-1.5207061767578125,-0.1463775634765625,-0.1214599609375
1782952438259317200,8.883317138671876,-1.3625335693359375,-0.1498260498046875,-0.109039306640625
1782952438269244200,8.893244140625,-1.192291259765625,-0.148101806640625,-0.100860595703125
1782952438279171300,8.90317138671875,-1.0215301513671875,-0.1354522705078125,-0.085479736328125
1782952438289098200,8.91309814453125,-0.8610992431640625,-0.1307525634765625,-0.077301025390625
1782952438299026200,8.923026123046874,-0.710845947265625,-0.138427734375,-0.0902862548828125
1782952438308953300,8.932953369140625,-0.572845458984375,-0.126861572265625,-0.0905914306640625
1782952438318880300,8.94288037109375,-0.45428466796875,-0.09906005859375,-0.084442138671875
1782952438328807400,8.952807373046875,-0.3451385498046875,-0.075469970703125,-0.079864501953125
1782952438338735400,8.9627353515625,-0.2443084716796875,-0.0608673095703125,-0.072418212890625
1782952438348662300,8.972662353515625,-0.1643218994140625,-0.0466766357421875,-0.065277099609375
1782952438358589200,8.982589111328124,-0.108734130859375,-0.0413818359375,-0.0534515380859375
1782952438368517000,8.99251708984375,-0.1026153564453125,-0.0379180908203125,-0.027587890625
1782952438378444300,9.0024443359375,-0.151824951171875,-0.0486907958984375,-0.0308074951171875
1782952438388371200,9.01237109375,-0.2285614013671875,-0.0722503662109375,-0.051849365234375
1782952438398298400,9.02229833984375,-0.317962646484375,-0.0792083740234375,-0.04986572265625
1782952438408226300,9.032226318359376,-0.4084625244140625,-0.0715789794921875,-0.0274810791015625
1782952438418153200,9.0421533203125,-0.4980926513671875,-0.0664215087890625,-0.030120849609375
1782952438428080400,9.052080322265626,-0.5452728271484375,-0.07330322265625,-0.05780029296875
1782952438438007300,9.06200732421875,-0.5090179443359375,-0.084320068359375,-0.084075927734375
1782952438447934200,9.071934326171874,-0.4449310302734375,-0.0970916748046875,-0.0925445556640625
1782952438457862400,9.0818623046875,-0.4014739990234375,-0.119964599609375,-0.09210205078125
1782952438467789000,9.0917890625,-0.4102325439453125,-0.14056396484375,-0.097076416015625
1782952438477716200,9.10171630859375,-0.477447509765625,-0.141326904296875,-0.1071929931640625
1782952438487644200,9.11164404296875,-0.526092529296875,-0.14190673828125,-0.119873046875
1782952438497571300,9.1215712890625,-0.5961456298828125,-0.1468658447265625,-0.125213623046875
1782952438507498200,9.131498291015625,-0.6813201904296875,-0.1497650146484375,-0.13714599609375
1782952438517425400,9.14142529296875,-0.7797698974609375,-0.161041259765625,-0.1400299072265625
1782952438527353300,9.151353271484375,-0.8898468017578125,-0.175262451171875,-0.136993408203125
1782952438537280300,9.1612802734375,-1.0173492431640625,-0.181365966796875,-0.1157073974609375
1782952438547207400,9.17120751953125,-1.14501953125,-0.169158935546875,-0.076812744140625
1782952438557134000,9.181134033203126,-1.2225189208984375,-0.1435699462890625,-0.0456085205078125
1782952438567062300,9.191062255859375,-1.208282470703125,-0.12579345703125,-0.0270843505859375
1782952438576989200,9.2009892578125,-1.1229705810546875,-0.119140625,-0.0326995849609375
1782952438586916000,9.210916015625,-1.0025177001953125,-0.11419677734375,-0.047271728515625
1782952438596843300,9.22084326171875,-0.8612060546875,-0.1017913818359375,-0.0413360595703125
1782952438606771200,9.230771240234375,-0.72625732421875,-0.10137939453125,-0.035552978515625
1782952438616698400,9.240698486328125,-0.62017822265625,-0.1068267822265625,-0.044677734375
1782952438626625300,9.250625244140625,-0.5403289794921875,-0.105224609375,-0.047515869140625
1782952438636552400,9.260552490234375,-0.47369384765625,-0.08837890625,-0.0598602294921875
1782952438646480400,9.27048046875,-0.4407806396484375,-0.06097412109375,-0.06536865234375
1782952438656407300,9.2804072265625,-0.42578125,-0.0379791259765625,-0.06689453125
1782952438666334200,9.290334228515626,-0.4212799072265625,-0.02288818359375,-0.068756103515625
1782952438676261000,9.30026123046875,-0.4241180419921875,-0.01641845703125,-0.06890869140625
1782952438686189000,9.31018896484375,-0.4165802001953125,-0.0114288330078125,-0.0632781982421875
1782952438696116200,9.3201162109375,-0.4174652099609375,-0.0115509033203125,-0.0460968017578125
1782952438706043100,9.330043212890626,-0.4461212158203125,-0.02099609375,-0.028045654296875
1782952438715969300,9.33996923828125,-0.5287933349609375,-0.03192138671875,-0.0184783935546875
1782952438725896400,9.349896484375,-0.651336669921875,-0.0484619140625,-0.0235595703125
1782952438735823000,9.359822998046875,-0.77020263671875,-0.06744384765625,-0.04974365234375
1782952438745750300,9.369750244140626,-0.833221435546875,-0.0805816650390625,-0.09088134765625
1782952438755678200,9.37967822265625,-0.8484039306640625,-0.097625732421875,-0.1145477294921875
1782952438765605000,9.389605224609374,-0.8377685546875,-0.116058349609375,-0.109771728515625
1782952438775532300,9.3995322265625,-0.796875,-0.1208343505859375,-0.08984375
1782952438785459200,9.409459228515624,-0.6948394775390625,-0.117523193359375,-0.0412750244140625
1782952438795387400,9.419387451171875,-0.6294403076171875,-0.1114501953125,0.0198516845703125
1782952438805314300,9.429314208984374,-0.6537933349609375,-0.1090240478515625,0.0416412353515625
1782952438815241200,9.4392412109375,-0.7123565673828125,-0.12432861328125,0.0168609619140625
1782952438825168400,9.44916845703125,-0.8351898193359375,-0.1466217041015625,-0.016143798828125
1782952438835096300,9.459096435546876,-1.0460968017578125,-0.15869140625,-0.0424041748046875
1782952438845023200,9.469023193359375,-1.2941131591796875,-0.184326171875,-0.0592041015625
1782952438854950100,9.4789501953125,-1.546478271484375,-0.216827392578125,-0.0530242919921875
1782952438864875800,9.488875732421874,-1.782806396484375,-0.244598388671875,-0.0344696044921875
1782952438874803700,9.4988037109375,-1.949310302734375,-0.246795654296875,-0.03582763671875
1782952438884731000,9.50873095703125,-2.0462188720703125,-0.2239532470703125,-0.0598297119140625
1782952438894657800,9.51865771484375,-2.133819580078125,-0.1904449462890625,-0.1009674072265625
1782952438904585000,9.5285849609375,-2.2403564453125,-0.1737060546875,-0.1522674560546875
1782952438914513000,9.538512939453126,-2.3387451171875,-0.1453857421875,-0.192626953125
1782952438924439800,9.548439697265625,-2.4293975830078125,-0.1042327880859375,-0.2168731689453125
1782952438934367000,9.558366943359376,-2.5161285400390625,-0.0854644775390625,-0.2397918701171875
1782952438944294000,9.5682939453125,-2.5391693115234375,-0.07135009765625,-0.2593231201171875
1782952438954222000,9.57822216796875,-2.472503662109375,-0.049346923828125,-0.2916107177734375
1782952438964149000,9.58814892578125,-2.3273468017578125,-0.0272979736328125,-0.32861328125
1782952438974076000,9.598075927734374,-2.1728668212890625,-0.0322265625,-0.3705596923828125
1782952438984002800,9.6080029296875,-1.98858642578125,-0.0389556884765625,-0.3894195556640625
1782952438993930800,9.6179306640625,-1.818603515625,-0.046966552734375,-0.3681793212890625
1782952439003858000,9.62785791015625,-1.6752777099609375,-0.0687408447265625,-0.3292388916015625
1782952439013784800,9.637784912109375,-1.5489349365234375,-0.076324462890625,-0.270294189453125
1782952439023712000,9.6477119140625,-1.43695068359375,-0.0640869140625,-0.2039337158203125
1782952439033640000,9.657639892578125,-1.3191375732421875,-0.064178466796875,-0.1622467041015625
1782952439043566800,9.66756689453125,-1.2037506103515625,-0.0772552490234375,-0.1386260986328125
1782952439053494000,9.677493896484375,-1.1008758544921875,-0.084991455078125,-0.122222900390625
1782952439063420700,9.687420654296876,-1.0010528564453125,-0.0875396728515625,-0.1102447509765625
1782952439073349000,9.69734912109375,-0.9052581787109375,-0.09130859375,-0.095458984375
1782952439083275800,9.70727587890625,-0.8045806884765625,-0.095611572265625,-0.0806427001953125
1782952439093203000,9.717202880859375,-0.6990966796875,-0.09429931640625,-0.0696258544921875
1782952439103129900,9.7271298828125,-0.6012725830078125,-0.0987548828125,-0.0568695068359375
1782952439113057800,9.737057861328125,-0.508880615234375,-0.0894012451171875,-0.0438079833984375
1782952439122985000,9.74698486328125,-0.41357421875,-0.072967529296875,-0.0332794189453125
1782952439132911900,9.756911865234375,-0.32965087890625,-0.0689697265625,-0.0125579833984375
1782952439142839000,9.766839111328125,-0.2696990966796875,-0.068450927734375,-0.0053863525390625
1782952439152767000,9.77676708984375,-0.239288330078125,-0.0712432861328125,-0.01104736328125
1782952439162694000,9.78669384765625,-0.2442474365234375,-0.0710296630859375,-0.01995849609375
1782952439172620800,9.796620849609376,-0.2722625732421875,-0.0772705078125,-0.0332183837890625
1782952439182547700,9.806547607421875,-0.3036956787109375,-0.0864715576171875,-0.0369873046875
1782952439192476000,9.816475830078126,-0.336700439453125,-0.09674072265625,-0.0398712158203125
1782952439202402800,9.82640283203125,-0.3837432861328125,-0.10821533203125,-0.0402679443359375
1782952439212330000,9.836330078125,-0.42999267578125,-0.1206207275390625,-0.0390777587890625
1782952439222257000,9.8462568359375,-0.4598846435546875,-0.141143798828125,-0.052459716796875
1782952439232184800,9.856184814453124,-0.4717254638671875,-0.1703338623046875,-0.07720947265625
1782952439242112000,9.866112060546875,-0.4832916259765625,-0.1894683837890625,-0.0771026611328125
1782952439252039000,9.876038818359374,-0.5234832763671875,-0.18804931640625,-0.051910400390625
1782952439261966000,9.885966064453125,-0.5594482421875,-0.174591064453125,-0.03253173828125
1782952439271894000,9.89589404296875,-0.578277587890625,-0.1632537841796875,-0.022308349609375
1782952439281820700,9.905820556640625,-0.6096038818359375,-0.1553192138671875,-0.010833740234375
1782952439291747800,9.915747802734375,-0.64501953125,-0.156646728515625,-0.0168304443359375
1782952439301674800,9.9256748046875,-0.713226318359375,-0.16363525390625,-0.0249176025390625
1782952439311603000,9.93560302734375,-0.833038330078125,-0.162078857421875,-0.0393524169921875
1782952439321529900,9.94552978515625,-0.9827117919921875,-0.1575469970703125,-0.047088623046875
1782952439331457000,9.95545703125,-1.144256591796875,-0.1580047607421875,-0.0533447265625
1782952439341384000,9.965384033203126,-1.26641845703125,-0.13714599609375,-0.057220458984375
1782952439351312000,9.975311767578125,-1.292694091796875,-0.10272216796875,-0.0661468505859375
1782952439361239000,9.985239013671874,-1.2081451416015625,-0.080780029296875,-0.0726318359375
1782952439371166000,9.995166015625,-1.05389404296875,-0.068939208984375,-0.074798583984375
1782952439381092900,10.0050927734375,-0.89111328125,-0.0602874755859375,-0.0872802734375
1782952439391020800,10.015020751953125,-0.7561492919921875,-0.0529632568359375,-0.08941650390625
1782952439400947700,10.02494775390625,-0.6432647705078125,-0.050567626953125,-0.113922119140625
1782952439410875000,10.034875,-0.55133056640625,-0.064300537109375,-0.12554931640625
1782952439420801800,10.0448017578125,-0.4737548828125,-0.075927734375,-0.1158447265625
1782952439430730000,10.05472998046875,-0.4164581298828125,-0.0828399658203125,-0.1013641357421875
1782952439440657000,10.064656982421875,-0.36810302734375,-0.073974609375,-0.0819244384765625
1782952439450583800,10.074583740234376,-0.316375732421875,-0.063446044921875,-0.0630950927734375
1782952439460512000,10.084511962890625,-0.286956787109375,-0.0578155517578125,-0.0418243408203125
1782952439470439000,10.09443896484375,-0.2799224853515625,-0.0514373779296875,-0.03643798828125
1782952439480366000,10.104365966796875,-0.2801971435546875,-0.03826904296875,-0.030548095703125
1782952439490292700,10.114292724609374,-0.278900146484375,-0.0305328369140625,-0.0163116455078125
1782952439500220700,10.124220703125,-0.3047943115234375,-0.024932861328125,-0.003173828125
1782952439510147800,10.13414794921875,-0.351165771484375,-0.0328521728515625,0.00311279296875
1782952439520074800,10.14407470703125,-0.424224853515625,-0.053863525390625,-0.0008544921875
1782952439530002000,10.154001953125,-0.560760498046875,-0.0672607421875,0.0127716064453125
1782952439539929900,10.163929931640626,-0.730926513671875,-0.07647705078125,0.014678955078125
1782952439549857000,10.17385693359375,-0.869049072265625,-0.09185791015625,-0.0181884765625
1782952439559784000,10.183783935546876,-0.9448394775390625,-0.09521484375,-0.0474853515625
1782952439569710800,10.1937109375,-0.9568328857421875,-0.0759124755859375,-0.0398712158203125
1782952439579639000,10.20363916015625,-0.9119720458984375,-0.0564727783203125,-0.0200347900390625
1782952439589566000,10.21356591796875,-0.85211181640625,-0.0478668212890625,-0.02618408203125
1782952439599492900,10.223492919921876,-0.839385986328125,-0.0577239990234375,-0.03240966796875
1782952439609419800,10.233419677734375,-0.9327392578125,-0.0809783935546875,-0.03594970703125
1782952439619347700,10.24334765625,-1.1767120361328125,-0.0902557373046875,-0.0313262939453125
1782952439629275000,10.25327490234375,-1.5604095458984375,-0.0919952392578125,-0.029754638671875
1782952439639201800,10.263201904296874,-2.002655029296875,-0.113525390625,-0.031707763671875
1782952439649129000,10.27312890625,-2.37384033203125,-0.1337432861328125,-0.044952392578125
1782952439659057000,10.283056884765625,-2.601959228515625,-0.135040283203125,-0.0755462646484375
1782952439668984000,10.292984130859375,-2.6781158447265625,-0.1321868896484375,-0.1082305908203125
1782952439678911000,10.302910888671875,-2.629058837890625,-0.136322021484375,-0.134429931640625
1782952439688838000,10.312837890625,-2.5224761962890625,-0.14501953125,-0.14910888671875
1782952439698766000,10.32276611328125,-2.405548095703125,-0.137969970703125,-0.144805908203125
1782952439708692700,10.332692626953126,-2.310699462890625,-0.1201019287109375,-0.13134765625
1782952439718620000,10.342619873046875,-2.2294769287109375,-0.1100311279296875,-0.1164398193359375
1782952439728546800,10.352546875,-2.1532135009765625,-0.10784912109375,-0.093109130859375
1782952439738474800,10.362474853515625,-2.0729827880859375,-0.095672607421875,-0.0639495849609375
1782952439748402000,10.37240185546875,-1.96820068359375,-0.0943450927734375,-0.0458831787109375
1782952439758328800,10.382328857421875,-1.8620452880859375,-0.1052093505859375,-0.058502197265625
1782952439768256000,10.392256103515624,-1.75604248046875,-0.1259613037109375,-0.09124755859375
1782952439778184000,10.402183837890625,-1.61749267578125,-0.1442718505859375,-0.1238250732421875
1782952439788110800,10.41211083984375,-1.46575927734375,-0.1562652587890625,-0.157562255859375
1782952439798037800,10.422037841796875,-1.31170654296875,-0.15826416015625,-0.182952880859375
1782952439807965000,10.43196484375,-1.168853759765625,-0.14837646484375,-0.1907501220703125
1782952439817892900,10.441892822265626,-1.035797119140625,-0.130218505859375,-0.177581787109375
1782952439827819800,10.45181982421875,-0.906341552734375,-0.1108551025390625,-0.1605072021484375
1782952439837747000,10.461746826171876,-0.77825927734375,-0.0960693359375,-0.1421661376953125
1782952439847673900,10.471673828125,-0.658355712890625,-0.089599609375,-0.1191253662109375
1782952439857601800,10.481601806640626,-0.54962158203125,-0.0869903564453125,-0.1013336181640625
1782952439867529200,10.491529296875,-0.46026611328125,-0.0914764404296875,-0.0945892333984375
1782952439877456100,10.5014560546875,-0.3725738525390625,-0.0969085693359375,-0.089111328125
1782952439887383300,10.51138330078125,-0.3060760498046875,-0.1032867431640625,-0.0774078369140625
1782952439897311200,10.521311279296874,-0.2718963623046875,-0.1186370849609375,-0.07025146484375
1782952439907238100,10.531238037109375,-0.25738525390625,-0.1290435791015625,-0.0641937255859375
1782952439917165300,10.541165283203124,-0.2778472900390625,-0.1329803466796875,-0.05059814453125
1782952439927092000,10.551092041015625,-0.325897216796875,-0.120147705078125,-0.02496337890625
1782952439937020200,10.561020263671875,-0.40869140625,-0.1105194091796875,0.0071258544921875
1782952439946947000,10.570947021484375,-0.5167694091796875,-0.1124114990234375,-0.012237548828125
1782952439956874200,10.580874267578125,-0.568572998046875,-0.131256103515625,-0.0363922119140625
1782952439966801200,10.59080126953125,-0.6043243408203125,-0.1267852783203125,-0.032867431640625
1782952439976729000,10.60072900390625,-0.632904052734375,-0.1356201171875,-0.0198822021484375
1782952439986656300,10.61065625,-0.559112548828125,-0.1392669677734375,-0.052642822265625
1782952439996583200,10.620583251953125,-0.4974365234375,-0.1598663330078125,-0.074981689453125
1782952440006510300,10.63051025390625,-0.5270538330078125,-0.1582794189453125,-0.0895843505859375
1782952440016438300,10.640438232421875,-0.5849151611328125,-0.143829345703125,-0.09161376953125
1782952440026365200,10.650365234375,-0.623809814453125,-0.158599853515625,-0.0711669921875
1782952440036292000,10.6602919921875,-0.659759521484375,-0.15191650390625,-0.0825958251953125
1782952440046219000,10.670218994140624,-0.7590789794921875,-0.1093292236328125,-0.10516357421875
1782952440056147200,10.680147216796875,-0.85479736328125,-0.078399658203125,-0.110443115234375
1782952440066074000,10.69007421875,-1.0399932861328125,-0.084747314453125,-0.12255859375
1782952440076001300,10.700001220703125,-1.1772003173828125,-0.0751495361328125,-0.130523681640625
1782952440085928200,10.70992822265625,-1.2497406005859375,-0.046142578125,-0.1682281494140625
1782952440095856000,10.719856201171876,-1.3116302490234375,-0.0129852294921875,-0.2244110107421875
1782952440105783300,10.729783203125,-1.331787109375,0.0381011962890625,-0.25164794921875
1782952440115710200,10.739710205078126,-1.2517852783203125,0.093536376953125,-0.2634124755859375
1782952440125638100,10.74963818359375,-1.147796630859375,0.123931884765625,-0.263671875
1782952440135565300,10.7595654296875,-1.0578155517578125,0.10498046875,-0.24420166015625
1782952440145492000,10.769491943359375,-0.9598541259765625,0.043304443359375,-0.1869049072265625
1782952440155419100,10.779419189453124,-0.8815460205078125,-0.0262451171875,-0.1209564208984375
1782952440165347000,10.78934716796875,-0.823089599609375,-0.07159423828125,-0.0693511962890625
1782952440175274200,10.799274169921874,-0.7751617431640625,-0.0945281982421875,-0.02874755859375
1782952440185201200,10.809201171875,-0.7639617919921875,-0.1007080078125,0.00250244140625
1782952440195128300,10.81912841796875,-0.7889251708984375,-0.111846923828125,0.00933837890625
1782952440205055200,10.82905517578125,-0.8307952880859375,-0.12933349609375,-0.00341796875
1782952440214983200,10.838983154296875,-0.84619140625,-0.1336669921875,-0.0135955810546875
1782952440224910300,10.848910400390626,-0.8460693359375,-0.1232147216796875,-0.01031494140625
1782952440234837200,10.858837158203125,-0.8650970458984375,-0.1290283203125,-0.0167083740234375
1782952440244765200,10.86876513671875,-0.8924407958984375,-0.142333984375,-0.0241851806640625
1782952440254692000,10.878692138671875,-0.8988189697265625,-0.1413726806640625,-0.02447509765625
1782952440264619000,10.888618896484376,-0.863861083984375,-0.1320343017578125,-0.0408782958984375
1782952440274546200,10.898546142578125,-0.8081512451171875,-0.12127685546875,-0.0472869873046875
1782952440284474000,10.90847412109375,-0.769012451171875,-0.10888671875,-0.04022216796875
1782952440294401300,10.9184013671875,-0.7362823486328125,-0.093292236328125,-0.049530029296875
1782952440304328200,10.928328125,-0.689483642578125,-0.0641326904296875,-0.0419464111328125
1782952440314255400,10.93825537109375,-0.6597442626953125,-0.047698974609375,-0.0326080322265625
1782952440324183300,10.948183349609375,-0.607086181640625,-0.0529327392578125,-0.0302276611328125
1782952440334110200,10.958110107421875,-0.53607177734375,-0.0562591552734375,-0.0232086181640625
1782952440344037400,10.968037353515625,-0.476165771484375,-0.057159423828125,-0.0205535888671875
1782952440353964000,10.977964111328125,-0.46337890625,-0.0577850341796875,-0.0337066650390625
1782952440363892000,10.98789208984375,-0.471435546875,-0.0511322021484375,-0.0571746826171875
1782952440373819100,10.997819091796876,-0.5453338623046875,-0.0816802978515625,-0.044677734375
1782952440383746000,11.00774609375,-0.6470489501953125,-0.0764617919921875,-0.02972412109375
1782952440393673200,11.017673095703126,-0.718475341796875,-0.0447235107421875,-0.0565338134765625
1782952440403601200,11.02760107421875,-0.7311248779296875,-0.04901123046875,-0.10888671875
1782952440413528300,11.0375283203125,-0.6942291259765625,-0.0784454345703125,-0.11248779296875
1782952440423455200,11.047455322265625,-0.6180267333984375,-0.1087799072265625,-0.089996337890625
1782952440433382400,11.05738232421875,-0.56793212890625,-0.13543701171875,-0.094390869140625
1782952440443310300,11.067310302734375,-0.56927490234375,-0.147796630859375,-0.100982666015625
1782952440453237200,11.0772373046875,-0.618316650390625,-0.1351318359375,-0.0982208251953125
1782952440463164200,11.0871640625,-0.7001495361328125,-0.1375885009765625,-0.093505859375
1782952440473091000,11.097091064453124,-0.8641204833984375,-0.1767578125,-0.0459136962890625
