time,seconds_elapsed,z,y,x
1782952429435228200,0.059228271484375,-0.1799047887325287,0.04573632776737213,0.4216114282608032
1782952429445156000,0.069156005859375,-0.12670840322971344,0.03256407007575035,0.29218870401382446
1782952429455083000,0.0790830078125,-0.06420881301164627,0.0491049624979496,0.19693569839000702
1782952429465010200,0.08901025390625,-0.028907814994454384,0.1135723665356636,0.11359953135251999
1782952429474937000,0.09893701171875,0.003754258155822754,0.16168983280658722,0.021445637568831444
1782952429484865000,0.108864990234375,0.08315028250217438,0.29647907614707947,-0.06295153498649597
1782952429494792000,0.1187919921875,0.1898767203092575,0.41554632782936096,-0.0922527015209198
1782952429504719000,0.128718994140625,0.29111653566360474,0.4666427969932556,-0.05837276205420494
1782952429514647000,0.13864697265625,0.4079033434391022,0.5001347064971924,-0.0110470587387681
1782952429524574000,0.148573974609375,0.5656567215919495,0.3956882059574127,0.006448045372962952
1782952429534501000,0.158501220703125,0.7093483805656433,0.28900304436683655,0.020952686667442322
1782952429544428000,0.168427978515625,0.8551367521286011,0.2298198789358139,0.08425389230251312
1782952429554356200,0.178356201171875,0.8802309036254883,0.200801283121109,0.15422791242599487
1782952429564283100,0.188283203125,0.7806593179702759,0.1464453637599945,0.19437214732170105
1782952429574210000,0.1982099609375,0.6650826930999756,0.06018663942813873,0.16406510770320892
1782952429584137000,0.208136962890625,0.5641645789146423,-0.012120844796299934,0.0682046189904213
1782952429594065000,0.21806494140625,0.463395357131958,-0.03447328880429268,-0.0630844235420227
1782952429603992000,0.227991943359375,0.35117268562316895,0.0027233485598117113,-0.19770242273807526
1782952429613919000,0.2379189453125,0.21515785157680511,0.11762543022632599,-0.30747899413108826
1782952429623846100,0.24784619140625,0.058698467910289764,0.2870679795742035,-0.37947115302085876
1782952429633774000,0.257774169921875,-0.09842777252197266,0.49229490756988525,-0.41137129068374634
1782952429643701000,0.267700927734375,-0.2313341498374939,0.721542477607727,-0.41615113615989685
1782952429653628200,0.277628173828125,-0.33491113781929016,0.9012491106987,-0.40721356868743896
1782952429663555000,0.28755517578125,-0.3911323547363281,0.9769119024276733,-0.37415948510169983
1782952429673483000,0.29748291015625,-0.4097883105278015,0.9359277486801147,-0.3035401701927185
1782952429683410200,0.30741015625,-0.39495131373405457,0.8069260716438293,-0.18552166223526
1782952429693337000,0.317337158203125,-0.34759870171546936,0.6450636982917786,-0.01053573191165924
1782952429703264000,0.327263916015625,-0.2832934856414795,0.46475809812545776,0.17899824678897858
1782952429713192000,0.33719189453125,-0.21042194962501526,0.27498388290405273,0.3543431758880615
1782952429723119000,0.347119140625,-0.1370031237602234,0.056951165199279785,0.511806309223175
1782952429733046000,0.3570458984375,-0.07862317562103271,-0.23488840460777283,0.6355007886886597
1782952429742973200,0.36697314453125,-0.05692693218588829,-0.5384736061096191,0.6982134580612183
1782952429752901000,0.376901123046875,-0.05073801055550575,-0.789759635925293,0.6982773542404175
1782952429762828000,0.386828125,-0.07622313499450684,-1.048073410987854,0.6701381206512451
1782952429772755200,0.396755126953125,-0.17611803114414215,-1.3704485893249512,0.6802906394004822
1782952429782681900,0.406681884765625,-0.3414374887943268,-1.857094168663025,0.7772917747497559
1782952429792610000,0.416610107421875,-0.5515214800834656,-2.1528215408325195,0.9520441293716431
1782952429802537000,0.426536865234375,-0.6703085899353027,-2.451677083969116,1.2002145051956177
1782952429812463900,0.4364638671875,-0.6515189409255981,-2.8449087142944336,1.439509391784668
1782952429822391000,0.44639111328125,-0.6440881490707397,-3.078502655029297,1.5595364570617676
1782952429832319000,0.456319091796875,-0.6186168789863586,-3.1265134811401367,1.559857964515686
1782952429842246100,0.46624609375,-0.5601197481155396,-3.020982503890991,1.464537501335144
1782952429852173000,0.476173095703125,-0.47792741656303406,-2.7324538230895996,1.2398431301116943
1782952429862100700,0.486100830078125,-0.3101586699485779,-1.4059746265411377,0.902506411075592
1782952429872028000,0.49602783203125,-0.08928859978914261,-0.017183247953653336,0.6275901794433594
1782952429881954600,0.50595458984375,0.029684392735362053,1.238148808479309,0.32550540566444397
1782952429891881700,0.5158818359375,0.20255017280578613,2.3856921195983887,0.04378476366400719
1782952429901809700,0.5258095703125,0.39527860283851624,3.6530497074127197,-0.33820652961730957
1782952429911736800,0.53573681640625,0.5983547568321228,4.14903450012207,-0.8584731817245483
1782952429921663700,0.545663818359375,0.720574140548706,2.0634634494781494,-1.6599669456481934
1782952429931591000,0.5555908203125,0.9695608019828796,-0.184348002076149,-2.0719425678253174
1782952429941518800,0.565518798828125,1.3862298727035522,0.14865897595882416,-1.9284372329711914
1782952429951445800,0.57544580078125,1.5553995370864868,0.9927880764007568,-1.8409422636032104
1782952429961373000,0.585373046875,1.4168946743011475,1.3926763534545898,-1.8463256359100342
1782952429971299600,0.595299560546875,1.1012663841247559,1.606711983680725,-1.7389440536499023
1782952429981227800,0.605227783203125,0.7358636260032654,1.923378348350525,-1.3581833839416504
1782952429991154700,0.61515478515625,0.5442832708358765,1.974791169166565,-0.861261248588562
1782952430001081600,0.62508154296875,0.5486476421356201,1.8835361003875732,-0.34851858019828796
1782952430011008800,0.6350087890625,0.6460810303688049,1.7963756322860718,0.1327412724494934
1782952430020936700,0.644936767578125,0.6477348208427429,1.6272103786468506,0.5201765894889832
1782952430030864000,0.65486376953125,0.490223228931427,1.2660728693008423,0.7839584350585938
1782952430040790800,0.664790771484375,0.2735905349254608,0.8677590489387512,0.9606064558029175
1782952430050718000,0.674718017578125,0.06272436678409576,0.5266486406326294,1.0142611265182495
1782952430060646000,0.68464599609375,-0.14309456944465637,0.24042245745658875,0.9375767707824707
1782952430070572800,0.69457275390625,-0.33202216029167175,0.013065734878182411,0.8071929216384888
1782952430080499700,0.704499755859375,-0.46549737453460693,-0.09962379932403564,0.6739144921302795
1782952430090426600,0.714426513671875,-0.5022692680358887,-0.07579143345355988,0.5432414412498474
1782952430100354600,0.7243544921875,-0.4464624524116516,0.03616466373205185,0.39784058928489685
1782952430110281700,0.73428173828125,-0.3397493064403534,0.1826062947511673,0.25705230236053467
1782952430120208600,0.744208740234375,-0.24905508756637573,0.4039016664028168,0.15967035293579102
1782952430130135800,0.7541357421875,-0.15607242286205292,0.4533480405807495,0.06825175881385803
1782952430140063700,0.764063720703125,-0.07147258520126343,0.4910099506378174,0.04274453595280647
1782952430149991000,0.773990966796875,-0.018207233399152756,0.47236329317092896,0.05240994319319725
1782952430159917800,0.783917724609375,0.00780652416869998,0.31473955512046814,0.06615611910820007
1782952430169845000,0.793844970703125,0.04751558601856232,0.07980455458164215,0.11474868655204773
1782952430179773000,0.80377294921875,0.10614587366580963,-0.17347271740436554,0.22428449988365173
1782952430189699600,0.813699462890625,0.1681234985589981,-0.3861205279827118,0.4235089123249054
1782952430199626800,0.823626708984375,0.27983057498931885,-0.5633065104484558,0.674778163433075
1782952430209553700,0.8335537109375,0.44391486048698425,-0.5351414680480957,0.8800610303878784
1782952430219481600,0.843481689453125,0.5175858736038208,-0.4350137710571289,0.9930264353752136
1782952430229408800,0.85340869140625,0.5141677260398865,-0.2460518479347229,0.9980060458183289
1782952430239335700,0.863335693359375,0.45849940180778503,-0.041013479232788086,0.9000051617622375
1782952430249263900,0.873263916015625,0.42004868388175964,0.0775403305888176,0.6618943214416504
1782952430259190800,0.883190673828125,0.40174904465675354,-0.014448181726038456,0.3407514691352844
1782952430269118000,0.893117919921875,0.3634176254272461,-0.18823595345020294,0.06604426354169846
1782952430279044900,0.903044921875,0.3193204700946808,-0.4256591498851776,-0.1071765199303627
1782952430288971800,0.9129716796875,0.21736827492713928,-0.5946934819221497,-0.16742467880249023
1782952430298899700,0.922899658203125,0.11531087756156921,-0.8210578560829163,-0.1939963698387146
1782952430308826600,0.93282666015625,0.10539566725492477,-1.2010462284088135,-0.2846466302871704
1782952430318753800,0.94275390625,0.17452813684940338,-1.579824447631836,-0.44791731238365173
1782952430328681700,0.952681640625,0.20187240839004517,-1.7684569358825684,-0.6375056505203247
1782952430338608600,0.962608642578125,0.13582894206047058,-1.7458832263946533,-0.8115592002868652
1782952430348535800,0.972535888671875,0.010774617083370686,-1.5718344449996948,-0.9145902395248413
1782952430358462700,0.982462646484375,-0.0517452210187912,-1.3008066415786743,-0.9340049624443054
1782952430368391000,0.992390869140625,-0.07007575780153275,-0.9428514242172241,-0.883150041103363
1782952430378317800,1.00231787109375,-0.1404266208410263,-0.4517730474472046,-0.7721644043922424
1782952430388245000,1.012244873046875,-0.29399433732032776,0.17223648726940155,-0.5927863717079163
1782952430398171600,1.022171630859375,-0.4474709928035736,0.778851330280304,-0.366157203912735
1782952430408099600,1.032099609375,-0.43583136796951294,0.9591582417488098,-0.26403936743736267
1782952430418026800,1.04202685546875,-0.3846403658390045,0.7812492251396179,-0.26276957988739014
1782952430427953700,1.05195361328125,-0.3377079963684082,0.3839990496635437,-0.29508116841316223
1782952430437880800,1.061880859375,-0.319978266954422,0.11251562833786011,-0.25767070055007935
1782952430447808800,1.071808837890625,-0.2427266240119934,-0.012143481522798538,-0.18671369552612305
1782952430457735700,1.081735595703125,-0.12269023060798645,-0.17967309057712555,-0.13313035666942596
1782952430467662800,1.091662841796875,-0.06024496629834175,-0.1649165153503418,-0.00449994346126914
1782952430477589800,1.10158984375,-0.02274605818092823,-0.012584500946104527,0.18251867592334747
1782952430487518000,1.11151806640625,-0.0044080642983317375,0.3055002689361572,0.4223158359527588
1782952430497444900,1.12144482421875,0.010149572975933552,0.573685884475708,0.6609424948692322
1782952430507371800,1.131371826171875,0.034515634179115295,0.7696381211280823,0.8598899841308594
1782952430517298700,1.141298583984375,0.029865486547350883,0.7753269076347351,1.0024149417877197
1782952430527226600,1.1512265625,-0.021441109478473663,0.6427413821220398,1.1040778160095215
1782952430537153800,1.16115380859375,-0.07817442715167999,0.41466668248176575,1.1682096719741821
1782952430547080700,1.171080810546875,-0.10965672135353088,0.13005466759204865,1.1763168573379517
1782952430557008000,1.1810078125,-0.09994097799062729,-0.14090251922607422,1.1410577297210693
1782952430566935800,1.190935791015625,-0.051651209592819214,-0.3243567645549774,1.0863289833068848
1782952430576862700,1.20086279296875,0.02244698628783226,-0.41947129368782043,1.0370618104934692
1782952430586790000,1.210789794921875,0.09147851914167404,-0.45515206456184387,0.9954339265823364
1782952430596716500,1.220716552734375,0.17495183646678925,-0.4148389995098114,0.9831202626228333
1782952430606645000,1.23064501953125,0.24880768358707428,-0.32225075364112854,1.0176042318344116
1782952430616571600,1.240571533203125,0.30910032987594604,-0.21022513508796692,1.0676099061965942
1782952430626498800,1.250498779296875,0.3533892333507538,-0.14076723158359528,1.1036224365234375
1782952430636425700,1.26042578125,0.3699839115142822,-0.13331039249897003,1.1083368062973022
1782952430646353700,1.270353759765625,0.3448580503463745,-0.11954876780509949,1.1235476732254028
1782952430656280800,1.28028076171875,0.3063109219074249,-0.2385803461074829,1.0862057209014893
1782952430666207700,1.290207763671875,0.279331773519516,-0.46035057306289673,0.9291209578514099
1782952430676135000,1.300135009765625,0.26763543486595154,-0.6406375169754028,0.712948203086853
1782952430686062800,1.310062744140625,0.22780919075012207,-0.6125776171684265,0.46143126487731934
1782952430695989800,1.31998974609375,0.2002960741519928,-0.6059879064559937,0.12185826152563095
1782952430705916700,1.329916748046875,0.2179405838251114,-0.722226619720459,-0.32480791211128235
1782952430715843600,1.339843505859375,0.27044665813446045,-0.9860582947731018,-0.8638634085655212
1782952430725771800,1.349771728515625,0.31071045994758606,-1.3497776985168457,-1.363578200340271
1782952430735698700,1.35969873046875,0.28573480248451233,-1.5904935598373413,-1.6769003868103027
1782952430745625900,1.3696259765625,0.2817440629005432,-1.8437343835830688,-1.9280165433883667
1782952430755552800,1.379552734375,0.35375967621803284,-1.6579421758651733,-1.9572910070419312
1782952430765480700,1.389480712890625,0.4311425983905792,-0.9024419784545898,-1.6824411153793335
1782952430775407900,1.399407958984375,0.3522251546382904,-0.0923491045832634,-1.18791925907135
1782952430785334800,1.409334716796875,0.09601867198944092,0.53789222240448,-0.6400364637374878
1782952430795262000,1.419261962890625,-0.16088661551475525,0.7639967203140259,-0.25231561064720154
1782952430805190000,1.42918994140625,-0.3207188844680786,0.7623253464698792,-0.10105498135089874
1782952430815116500,1.439116455078125,-0.39400002360343933,0.7005138993263245,-0.17047587037086487
1782952430825043700,1.449043701171875,-0.41814664006233215,0.5541156530380249,-0.4272080659866333
1782952430834970600,1.458970703125,-0.43295755982398987,0.3014940619468689,-0.8033132553100586
1782952430844898800,1.46889892578125,-0.48122069239616394,-0.10590406507253647,-1.1873724460601807
1782952430854825700,1.47882568359375,-0.4921516478061676,-0.5051214694976807,-1.4332541227340698
1782952430864753000,1.4887529296875,-0.3771688640117645,-0.7355331182479858,-1.4728175401687622
1782952430874679600,1.498679443359375,-0.17129665613174438,-0.7259801030158997,-1.3011962175369263
1782952430884607700,1.508607666015625,0.041492316871881485,-0.6522398591041565,-0.9972630143165588
1782952430894534700,1.51853466796875,0.2006223201751709,-0.5640947818756104,-0.6730654835700989
1782952430904461600,1.528461669921875,0.2771780788898468,-0.39029157161712646,-0.4060734808444977
1782952430914388700,1.538388671875,0.23719710111618042,-0.1362752765417099,-0.2162071317434311
1782952430924316700,1.548316650390625,0.09336137026548386,0.1790323406457901,-0.09832257777452469
1782952430934243600,1.55824365234375,-0.1328216940164566,0.4600568115711212,-0.051840294152498245
1782952430944170800,1.568170654296875,-0.41884785890579224,0.6963239312171936,0.026259301230311394
1782952430954097700,1.57809765625,-0.6156623959541321,0.9821322560310364,0.10925378650426865
1782952430964025900,1.58802587890625,-0.7043008804321289,1.1893455982208252,0.17621470987796783
1782952430973952800,1.597952880859375,-0.6811535358428955,1.5924662351608276,0.23222550749778748
1782952430983879700,1.607879638671875,-0.5653731226921082,1.657673954963684,0.11776284873485565
1782952430993806600,1.617806640625,-0.4191349446773529,1.5736885070800781,-0.09842909872531891
1782952431003734500,1.627734619140625,-0.30004316568374634,1.2753793001174927,-0.39703232049942017
1782952431013661700,1.63766162109375,-0.2009970247745514,0.7658417820930481,-0.7127450108528137
1782952431023588600,1.647588623046875,-0.12208729237318039,0.08258409053087234,-0.9641266465187073
1782952431033515800,1.657515869140625,-0.05008207634091377,-0.617917001247406,-1.0843595266342163
1782952431043443700,1.667443603515625,0.0343523807823658,-1.2420884370803833,-1.0387800931930542
1782952431053370600,1.67737060546875,0.12770895659923553,-1.6954847574234009,-0.815472424030304
1782952431063297800,1.6872978515625,0.2166644036769867,-1.8626377582550049,-0.5041773915290833
1782952431073225700,1.697225830078125,0.30483847856521606,-1.7489967346191406,-0.21850810945034027
1782952431083153000,1.70715283203125,0.34715211391448975,-1.487413763999939,-0.06625811755657196
1782952431093079600,1.71707958984375,0.271973192691803,-1.129947543144226,-0.007252320181578398
1782952431103006700,1.7270068359375,0.12947650253772736,-0.6549477577209473,0.0021283982787281275
1782952431112934700,1.7369345703125,-0.03711008280515671,-0.16010524332523346,-0.03864939138293266
1782952431122861600,1.746861572265625,-0.17700034379959106,0.3213154375553131,-0.10343824326992035
1782952431132788700,1.756788818359375,-0.2821584641933441,0.6849914193153381,-0.1983567625284195
1782952431142715600,1.766715576171875,-0.35174843668937683,0.882182776927948,-0.29118549823760986
1782952431152643600,1.7766435546875,-0.37346333265304565,0.9280524849891663,-0.340227335691452
1782952431162570800,1.78657080078125,-0.36116936802864075,0.862241268157959,-0.36463308334350586
1782952431172497700,1.79649755859375,-0.3229692578315735,0.7202361822128296,-0.3693487346172333
1782952431182424800,1.8064248046875,-0.28226470947265625,0.5437048673629761,-0.3644796907901764
1782952431192352800,1.816352783203125,-0.26461780071258545,0.4051722586154938,-0.3187180757522583
1782952431202279700,1.82627978515625,-0.27243685722351074,0.3640599846839905,-0.23619654774665833
1782952431212206600,1.83620654296875,-0.31257176399230957,0.39801928400993347,-0.11949364095926285
1782952431222133800,1.8461337890625,-0.37590011954307556,0.5065873265266418,0.011534683406352997
1782952431232061700,1.856061767578125,-0.4739486575126648,0.7964627742767334,0.28142476081848145
1782952431241988600,1.865988525390625,-0.5108107924461365,0.8185039162635803,0.46287763118743896
1782952431251915800,1.875915771484375,-0.5779088735580444,0.8398627042770386,0.5645557641983032
1782952431261842700,1.8858427734375,-0.6169250011444092,0.7525424957275391,0.5703585743904114
1782952431271770600,1.8957705078125,-0.5683896541595459,0.4690271317958832,0.47606322169303894
1782952431281697800,1.90569775390625,-0.4707145094871521,0.26802027225494385,0.3960285484790802
1782952431291624700,1.915624755859375,-0.349338561296463,0.1288149654865265,0.3853394389152527
1782952431301551600,1.925551513671875,-0.2546618580818176,0.037340715527534485,0.4440551996231079
1782952431311479600,1.9354794921875,-0.21998855471611023,0.0402347706258297,0.5321773290634155
1782952431321406700,1.94540673828125,-0.18863968551158905,0.14778253436088562,0.6270895004272461
1782952431331333600,1.955333740234375,-0.11566241830587387,0.2609463632106781,0.6796464323997498
1782952431341260500,1.965260498046875,-0.05119234696030617,0.3248225450515747,0.7237390279769897
1782952431351188700,1.975188720703125,-0.03646426647901535,0.34972789883613586,0.7769098877906799
1782952431361115600,1.98511572265625,-0.0323781780898571,0.3442702889442444,0.83196622133255
1782952431371042800,1.995042724609375,-0.03519447147846222,0.3207916021347046,0.8151984214782715
1782952431380969700,2.0049697265625,-0.007988151162862778,0.30321288108825684,0.6904844045639038
1782952431390897700,2.014897705078125,0.027051590383052826,0.23315362632274628,0.4822577238082886
1782952431400824800,2.024824951171875,0.045588791370391846,0.05421556904911995,0.21981199085712433
1782952431410751500,2.03475146484375,0.02954324521124363,-0.17009928822517395,-0.007109308615326881
1782952431420678700,2.0446787109375,-0.01726767048239708,-0.36737242341041565,-0.1455438882112503
1782952431430606600,2.054606689453125,-0.055260058492422104,-0.5233036875724792,-0.21013513207435608
1782952431440533800,2.06453369140625,-0.0533636212348938,-0.6511540412902832,-0.2558962106704712
1782952431450460700,2.074460693359375,-0.02515036053955555,-0.6743150353431702,-0.2897055745124817
1782952431460387600,2.0843876953125,0.03482802212238312,-0.6322647929191589,-0.32589074969291687
1782952431470315800,2.094315673828125,0.11564990133047104,-0.5837460160255432,-0.34179142117500305
1782952431480242700,2.10424267578125,0.17742379009723663,-0.4771077036857605,-0.3157302737236023
1782952431490169900,2.114169921875,0.22582700848579407,-0.34300529956817627,-0.18989697098731995
1782952431500096500,2.124096435546875,0.29032450914382935,-0.20463569462299347,0.09008408337831497
1782952431510024700,2.134024658203125,0.229886993765831,0.18250775337219238,0.20711323618888855
1782952431519951600,2.14395166015625,0.1594943255186081,0.4987450838088989,0.19404137134552002
1782952431529878500,2.15387841796875,0.12944240868091583,0.7103260159492493,0.16324777901172638
1782952431539805700,2.1638056640625,0.08152974396944046,0.8756952881813049,0.1157686784863472
1782952431549733600,2.173733642578125,0.002561428351327777,1.0395348072052002,0.0674125924706459
1782952431559660800,2.183660888671875,-0.07596933096647263,1.1399775743484497,0.008393751457333565
1782952431569587700,2.193587646484375,-0.1501849740743637,1.1083892583847046,-0.07621300965547562
1782952431579514600,2.2035146484375,-0.1875150352716446,0.9039045572280884,-0.19163601100444794
1782952431589442800,2.21344287109375,-0.21585053205490112,0.556492805480957,-0.3597842752933502
1782952431599369700,2.22336962890625,-0.22084689140319824,0.18284492194652557,-0.5512359738349915
1782952431609296600,2.233296630859375,-0.1956038475036621,-0.05330263450741768,-0.6805271506309509
1782952431619223600,2.2432236328125,-0.14721794426441193,-0.16359612345695496,-0.7061038613319397
1782952431629151500,2.2531513671875,-0.11132492870092392,-0.20303167402744293,-0.6206366419792175
1782952431639078700,2.26307861328125,-0.11414840817451477,-0.2176540344953537,-0.45223698019981384
1782952431649005600,2.273005615234375,-0.1378318965435028,-0.1986694186925888,-0.2334281951189041
1782952431658932700,2.2829326171875,-0.16135400533676147,-0.17083433270454407,0.008185225538909435
1782952431668860700,2.292860595703125,-0.18860666453838348,-0.09992419928312302,0.2386740893125534
1782952431678787600,2.30278759765625,-0.20968611538410187,0.03332679718732834,0.4269968569278717
1782952431688714800,2.31271484375,-0.20364819467067719,0.1729792356491089,0.5326633453369141
1782952431698641700,2.3226416015625,-0.17434756457805634,0.28128519654273987,0.5520213842391968
1782952431708569900,2.33256982421875,-0.1406431347131729,0.3798820972442627,0.5304308533668518
1782952431718496500,2.34249658203125,-0.06850369274616241,0.5226565599441528,0.4630832374095917
1782952431728423700,2.352423583984375,0.03249083086848259,0.55051589012146,0.31787997484207153
1782952431738350600,2.3623505859375,0.12597417831420898,0.5238515138626099,0.1283896565437317
1782952431748278500,2.372278564453125,0.21324676275253296,0.49529096484184265,-0.020917532965540886
1782952431758205700,2.382205810546875,0.2472793012857437,0.4043259024620056,-0.11036539077758789
1782952431768132600,2.392132568359375,0.22689838707447052,0.23176692426204681,-0.14828135073184967
1782952431778059800,2.402059814453125,0.2067321389913559,0.07392136007547379,-0.22280538082122803
1782952431787987700,2.41198779296875,0.23282340168952942,0.0861029252409935,-0.3673098385334015
1782952431797914600,2.42191455078125,0.3228941559791565,0.2462071031332016,-0.5786684155464172
1782952431807841800,2.431841796875,0.39900705218315125,0.3752058446407318,-0.7889153957366943
1782952431817768400,2.4417685546875,0.4106104373931885,0.337724506855011,-0.8790860176086426
1782952431827696600,2.451696533203125,0.3960445523262024,0.19151777029037476,-0.7819325923919678
1782952431837623600,2.46162353515625,0.41279181838035583,-0.0379503108561039,-0.5921251177787781
1782952431847550700,2.47155078125,0.4588136374950409,-0.26434484124183655,-0.37012824416160583
1782952431857477600,2.4814775390625,0.48982617259025574,-0.4400263726711273,-0.1406649649143219
1782952431867405600,2.491405517578125,0.4726085662841797,-0.5464977025985718,0.05657646059989929
1782952431877332700,2.501332763671875,0.4144989252090454,-0.5508407950401306,0.19361074268817902
1782952431887259600,2.511259765625,0.3408699631690979,-0.47253239154815674,0.251607745885849
1782952431897186600,2.5211865234375,0.2624952793121338,-0.35865509510040283,0.22780360281467438
1782952431907114800,2.53111474609375,0.17121729254722595,-0.22521314024925232,0.12016848474740982
1782952431917041700,2.541041748046875,0.07418421655893326,-0.059119511395692825,-0.04719014838337898
1782952431926968600,2.550968505859375,-0.021632058545947075,0.0852440595626831,-0.21962450444698334
1782952431936895500,2.5608955078125,-0.1179247722029686,0.1817045509815216,-0.3690113127231598
1782952431946823700,2.57082373046875,-0.19774369895458221,0.23888900876045227,-0.4402058720588684
1782952431956750600,2.58075048828125,-0.27131325006484985,0.25876179337501526,-0.5061862468719482
1782952431966677800,2.590677734375,-0.32058361172676086,0.27202245593070984,-0.5354024171829224
1782952431976604700,2.600604736328125,-0.353372186422348,0.2985989451408386,-0.5159331560134888
1782952431986532600,2.61053271484375,-0.37281033396720886,0.33123838901519775,-0.44886115193367004
1782952431996459800,2.620459716796875,-0.3699713945388794,0.3490746319293976,-0.34151846170425415
1782952432006386400,2.630386474609375,-0.3508043587207794,0.3200267255306244,-0.204182431101799
1782952432016313600,2.640313720703125,-0.3085509240627289,0.26521727442741394,-0.03892982378602028
1782952432026241500,2.650241455078125,-0.24576689302921295,0.21143394708633423,0.15810760855674744
1782952432036168400,2.66016845703125,-0.16508136689662933,0.14766588807106018,0.3417658507823944
1782952432046095600,2.670095703125,-0.10691606253385544,0.0693332701921463,0.4852479100227356
1782952432056022500,2.6800224609375,-0.07253199070692062,0.0006330333999358118,0.5705944895744324
1782952432065950700,2.68995068359375,-0.0620439313352108,-0.05703425779938698,0.5827758312225342
1782952432075877600,2.699877685546875,-0.06950690597295761,-0.09532944858074188,0.5435445308685303
1782952432085804800,2.7098046875,-0.07891638576984406,-0.11999911069869995,0.45697179436683655
1782952432095731700,2.719731689453125,-0.08645472675561905,-0.15656962990760803,0.32585346698760986
1782952432105659600,2.72965966796875,-0.10380975157022476,-0.24084536731243134,0.20529749989509583
1782952432115586600,2.739586669921875,-0.11419714242219925,-0.3171100318431854,0.16967718303203583
1782952432125513500,2.749513427734375,-0.10577942430973053,-0.3641934096813202,0.2192298173904419
1782952432135440600,2.759440673828125,-0.08861561864614487,-0.4361698627471924,0.29161614179611206
1782952432145368600,2.76936865234375,-0.08490476757287979,-0.5080493688583374,0.35766997933387756
1782952432155295500,2.77929541015625,-0.0761118084192276,-0.5542283058166504,0.38300463557243347
1782952432165222700,2.78922265625,-0.06338802725076675,-0.5544938445091248,0.34472569823265076
1782952432175150600,2.799150634765625,-0.07042090594768524,-0.5345422625541687,0.24254366755485535
1782952432185077800,2.809077880859375,-0.09335897862911224,-0.5103425979614258,0.09219677001237869
1782952432195004700,2.819004638671875,-0.1174701675772667,-0.4943023920059204,-0.05157211422920227
1782952432204931800,2.828931884765625,-0.14161358773708344,-0.48806288838386536,-0.19002239406108856
1782952432214858500,2.8388583984375,-0.14990800619125366,-0.4577704966068268,-0.317399263381958
1782952432224786400,2.848786376953125,-0.15623115003108978,-0.4052524268627167,-0.40911373496055603
1782952432234713600,2.858713623046875,-0.16669178009033203,-0.3165784776210785,-0.4495232105255127
1782952432244640500,2.868640625,-0.17747172713279724,-0.1782885193824768,-0.44851359724998474
1782952432254568700,2.878568603515625,-0.1971820443868637,-0.02564144693315029,-0.39308255910873413
1782952432264495600,2.88849560546875,-0.2058415710926056,0.09492971003055573,-0.24968546628952026
1782952432274422500,2.898422607421875,-0.21264329552650452,0.19770801067352295,-0.04175357148051262
1782952432284349700,2.908349609375,-0.19943241775035858,0.27641960978507996,0.17206710577011108
1782952432294277600,2.918277587890625,-0.1746455729007721,0.3076971173286438,0.33197447657585144
1782952432304204800,2.928204833984375,-0.1514100283384323,0.29235541820526123,0.41901695728302
1782952432314131700,2.938131591796875,-0.1262788474559784,0.2836514115333557,0.4667021930217743
1782952432324058600,2.94805859375,-0.0991303101181984,0.2688943147659302,0.45926398038864136
1782952432333986600,2.957986572265625,-0.0699995905160904,0.23571984469890594,0.3925078511238098
1782952432343913500,2.96791357421875,-0.040712807327508926,0.18077564239501953,0.2839438319206238
1782952432353840600,2.977840576171875,-0.01085610967129469,0.1293390840291977,0.15505483746528625
1782952432363767600,2.987767578125,0.004381965380162001,0.0998176708817482,0.02659991942346096
1782952432373695500,2.997695556640625,0.0031350732315331697,0.09702827781438828,-0.08808485418558121
1782952432383622700,3.00762255859375,-0.004391552414745092,0.12083693593740463,-0.1875818818807602
1782952432393549600,3.017549560546875,-0.01056476030498743,0.1670268028974533,-0.27739620208740234
1782952432403476700,3.027476806640625,-0.025373533368110657,0.20714625716209412,-0.35092154145240784
1782952432413404700,3.03740478515625,-0.042694468051195145,0.2230842113494873,-0.3846227824687958
1782952432423331800,3.047331787109375,-0.06267989426851273,0.17641524970531464,-0.37680932879447937
1782952432433258500,3.057258544921875,-0.07646734267473221,0.07216687500476837,-0.3206816017627716
1782952432443185700,3.067185546875,-0.08351220190525055,-0.02875548228621483,-0.22466214001178741
1782952432453113600,3.077113525390625,-0.0835457593202591,-0.07154315710067749,-0.0914316475391388
1782952432463040500,3.08704052734375,-0.07040093094110489,-0.04645591601729393,0.07662606984376907
1782952432472967700,3.0969677734375,-0.030589867383241653,0.03130572289228439,0.22623980045318604
1782952432482894600,3.10689453125,0.02593120001256466,0.18121398985385895,0.30193161964416504
1782952432492822500,3.116822509765625,0.09999344497919083,0.3722286820411682,0.259787380695343
1782952432502749700,3.126749755859375,0.1727944165468216,0.4544079899787903,0.0487465001642704
1782952432512676600,3.136676513671875,0.26142945885658264,0.44474709033966064,-0.2881796061992645
1782952432522603800,3.146603759765625,0.35650378465652466,0.37617284059524536,-0.5883750915527344
1782952432532531700,3.15653173828125,0.41093215346336365,0.23771189153194427,-0.75703364610672
1782952432542458600,3.166458740234375,0.38967904448509216,0.030701719224452972,-0.8071484565734863
1782952432552385500,3.176385498046875,0.3119800090789795,-0.19138461351394653,-0.7685526013374329
1782952432562312700,3.186312744140625,0.17914710938930511,-0.3773896396160126,-0.6679724454879761
1782952432572240600,3.19624072265625,0.060382116585969925,-0.5201755166053772,-0.5963696241378784
1782952432582167600,3.20616748046875,0.021588116884231567,-0.5659041404724121,-0.5888339877128601
1782952432592094700,3.2160947265625,0.050219226628541946,-0.4999275207519531,-0.5984621047973633
1782952432602021600,3.226021728515625,0.0908990129828453,-0.3723647892475128,-0.542449951171875
1782952432611949600,3.235949462890625,0.13517247140407562,-0.23812255263328552,-0.4051336348056793
1782952432621876700,3.245876708984375,0.18431444466114044,-0.15897579491138458,-0.24558739364147186
1782952432631803600,3.2558037109375,0.24516154825687408,-0.1190803200006485,-0.14142237603664398
1782952432641730600,3.26573046875,0.31470680236816406,-0.06860169768333435,-0.11822997033596039
1782952432651658500,3.275658447265625,0.3749973177909851,0.040713075548410416,-0.15012797713279724
1782952432661585700,3.285585693359375,0.40623193979263306,0.14884646236896515,-0.2184963822364807
1782952432671512600,3.2955126953125,0.410123348236084,0.24248826503753662,-0.2935458719730377
1782952432681439700,3.305439697265625,0.4042004644870758,0.3535064160823822,-0.3480599820613861
1782952432691367700,3.31536767578125,0.38821831345558167,0.4664454758167267,-0.3497718572616577
1782952432701294600,3.325294677734375,0.3719136416912079,0.5341941714286804,-0.31186893582344055
1782952432711221800,3.3352216796875,0.34719738364219666,0.5477102398872375,-0.23371662199497223
1782952432721148700,3.345148681640625,0.3186347186565399,0.5160103440284729,-0.11237873882055283
1782952432731076600,3.35507666015625,0.26524126529693604,0.4543541967868805,0.033477533608675
1782952432741003800,3.365003662109375,0.21207363903522491,0.3973156809806824,0.1766197830438614
1782952432750930400,3.374930419921875,0.1613585352897644,0.360699862241745,0.29592061042785645
1782952432760857600,3.384857666015625,0.11309512704610825,0.347065269947052,0.3966978192329407
1782952432770785500,3.39478564453125,0.06378483772277832,0.34968796372413635,0.4747239053249359
1782952432780712700,3.404712646484375,0.02569391205906868,0.33589091897010803,0.5267404913902283
1782952432790639600,3.4146396484375,0.015578693710267544,0.30401474237442017,0.5710794925689697
1782952432800566800,3.42456689453125,-0.003796069882810116,0.27555036544799805,0.6010751724243164
1782952432810494700,3.43449462890625,-0.01569613814353943,0.24428990483283997,0.5949400663375854
1782952432820421600,3.444421630859375,-0.03788452968001366,0.17927947640419006,0.5401937365531921
1782952432830348800,3.454348876953125,-0.06070968508720398,0.09660643339157104,0.4826236367225647
1782952432840275500,3.464275390625,-0.0626165121793747,0.034743864089250565,0.4655351936817169
1782952432850203600,3.47420361328125,-0.01489612553268671,0.02155003324151039,0.5235763788223267
1782952432860130600,3.484130615234375,0.05985987186431885,-0.030294789001345634,0.602217435836792
1782952432870057500,3.494057373046875,0.12692466378211975,-0.11028549820184708,0.6594349145889282
1782952432879984600,3.503984619140625,0.20003801584243774,-0.15774674713611603,0.7096349596977234
1782952432889912600,3.51391259765625,0.2487560212612152,-0.16342221200466156,0.7520207762718201
1782952432899839700,3.52383984375,0.2754603326320648,-0.16764679551124573,0.7635847330093384
1782952432909766700,3.5337666015625,0.28135737776756287,-0.17694681882858276,0.7397816777229309
1782952432919693800,3.54369384765625,0.2829403579235077,-0.1506960391998291,0.6866667866706848
1782952432929621800,3.553621826171875,0.2689763307571411,-0.12381355464458466,0.5839760899543762
1782952432939548700,3.563548583984375,0.2480311095714569,-0.12768764793872833,0.464668869972229
1782952432949475600,3.5734755859375,0.20803202688694,-0.16109195351600647,0.3396638333797455
1782952432959402500,3.583402587890625,0.15668362379074097,-0.2285357117652893,0.19362220168113708
1782952432969330400,3.593330322265625,0.09299172461032867,-0.2761863172054291,0.060807958245277405
1782952432979257600,3.603257568359375,0.04709986597299576,-0.29042622447013855,-0.06978227943181992
1782952432989184500,3.6131845703125,0.016041550785303116,-0.3046190142631531,-0.22709733247756958
1782952432999111700,3.623111572265625,-0.0183478482067585,-0.34456005692481995,-0.3967404365539551
1782952433009039600,3.63303955078125,-0.061655107885599136,-0.3812333643436432,-0.5143682360649109
1782952433018966800,3.642966796875,-0.09638406336307526,-0.37350860238075256,-0.5242059826850891
1782952433028893700,3.652893798828125,-0.1097150444984436,-0.33627548813819885,-0.39940038323402405
1782952433038820900,3.66282080078125,-0.10153274983167648,-0.275444358587265,-0.2136760652065277
1782952433048748800,3.672748779296875,-0.08864917606115341,-0.1867816001176834,-0.025134913623332977
1782952433058675500,3.682675537109375,-0.06189718842506409,-0.0950775146484375,0.13778476417064667
1782952433068602600,3.6926025390625,-0.012981312349438667,-0.020072244107723236,0.2511552572250366
1782952433078529500,3.702529541015625,0.028600752353668213,0.03605440631508827,0.29937073588371277
1782952433088457500,3.71245751953125,0.05712507292628288,0.06272915750741959,0.3027026057243347
1782952433098384600,3.722384521484375,0.06822912395000458,0.08304402232170105,0.27342408895492554
1782952433108311600,3.7323115234375,0.06375740468502045,0.11293720453977585,0.20846451818943024
1782952433118238700,3.74223876953125,0.043651338666677475,0.14354145526885986,0.11204451322555542
1782952433128166700,3.752166748046875,0.003769704606384039,0.16067036986351013,-0.013530190102756023
1782952433138093800,3.76209375,-0.04737284034490585,0.18012236058712006,-0.1486493945121765
1782952433148020700,3.772020751953125,-0.09948264807462692,0.2156854271888733,-0.2755295932292938
1782952433157947600,3.78194775390625,-0.15264706313610077,0.26043346524238586,-0.36891278624534607
1782952433167875600,3.79187548828125,-0.20982752740383148,0.3218232989311218,-0.44205331802368164
1782952433177802500,3.801802490234375,-0.2646319270133972,0.40051519870758057,-0.4943876266479492
1782952433187729700,3.811729736328125,-0.31563490629196167,0.4667184352874756,-0.5303443074226379
1782952433197656600,3.821656494140625,-0.3507753312587738,0.4942038655281067,-0.5181864500045776
1782952433207584500,3.83158447265625,-0.36209189891815186,0.5521295070648193,-0.45467883348464966
1782952433217511700,3.84151171875,-0.3530169129371643,0.6523175835609436,-0.3738612234592438
1782952433227438600,3.8514384765625,-0.3543809950351715,0.7654218077659607,-0.2914089560508728
1782952433237365800,3.86136572265625,-0.3903837203979492,0.8443480134010315,-0.27952778339385986
1782952433247293700,3.871293701171875,-0.40160709619522095,0.8597978353500366,-0.3120713531970978
1782952433257220900,3.881220947265625,-0.3942141532897949,0.8028077483177185,-0.3418276309967041
1782952433267147500,3.8911474609375,-0.3750484585762024,0.6896897554397583,-0.3144111931324005
1782952433277074700,3.90107470703125,-0.3540100157260895,0.518454372882843,-0.2367640733718872
1782952433287002600,3.911002685546875,-0.32619115710258484,0.35653388500213623,-0.11193984746932983
1782952433296929500,3.920929443359375,-0.2915509045124054,0.24910728633403778,0.012193549424409866
1782952433306856700,3.930856689453125,-0.24990516901016235,0.15969671308994293,0.060272928327322006
1782952433316783600,3.94078369140625,-0.2076842188835144,0.11979244649410248,-0.009080580435693264
1782952433326711600,3.950711669921875,-0.1639133095741272,0.12113574892282486,-0.18014100193977356
1782952433336638700,3.960638671875,-0.11143092066049576,0.12338105589151382,-0.4070385992527008
1782952433346565600,3.970565673828125,-0.054967910051345825,0.10236312448978424,-0.6235248446464539
1782952433356492500,3.980492431640625,-0.009640909731388092,0.07932278513908386,-0.8134894371032715
1782952433366420700,3.990420654296875,0.05970833823084831,0.017417605966329575,-0.9543317556381226
1782952433376347600,4.00034765625,0.1654755175113678,-0.185447096824646,-1.0303764343261719
1782952433386274600,4.010274658203125,0.28238028287887573,-0.5027523636817932,-1.043521523475647
1782952433396201700,4.02020166015625,0.3918199837207794,-0.8556403517723083,-0.9694049954414368
1782952433406129700,4.030129638671875,0.4701105058193207,-1.2038888931274414,-0.7849470376968384
1782952433416056600,4.040056640625,0.5099974870681763,-1.513935923576355,-0.5116329193115234
1782952433425983700,4.049983642578125,0.5484095811843872,-1.657301902770996,-0.22345492243766785
1782952433435910700,4.05991064453125,0.590640664100647,-1.5851377248764038,0.02816479280591011
1782952433445838600,4.069838623046875,0.6363317370414734,-1.3115348815917969,0.20062896609306335
1782952433455765800,4.079765869140625,0.6607595682144165,-0.8168556690216064,0.30837196111679077
1782952433465692400,4.0896923828125,0.6364518404006958,-0.22608666121959686,0.3646208345890045
1782952433475619600,4.09961962890625,0.537814199924469,0.28584906458854675,0.3781163990497589
1782952433485547500,4.109547607421875,0.4301590919494629,0.6137491464614868,0.37062761187553406
1782952433495474700,4.119474609375,0.308547705411911,0.751436173915863,0.3399229347705841
1782952433505401600,4.129401611328125,0.18461166322231293,0.7404937744140625,0.28928107023239136
1782952433515328800,4.139328857421875,0.07542791217565536,0.6562575101852417,0.24725106358528137
1782952433525256700,4.149256591796875,-0.022595856338739395,0.5432318449020386,0.21360895037651062
1782952433535183600,4.15918359375,-0.10849851369857788,0.42958998680114746,0.2279958873987198
1782952433545110800,4.16911083984375,-0.16889554262161255,0.35032686591148376,0.2698301374912262
1782952433555037700,4.17903759765625,-0.21283769607543945,0.2961621582508087,0.3054856061935425
1782952433564965600,4.188965576171875,-0.243970587849617,0.27257028222084045,0.3352717459201813
1782952433574892500,4.198892578125,-0.2593418061733246,0.26602688431739807,0.36682459712028503
1782952433584819500,4.2088193359375,-0.24723908305168152,0.2671835124492645,0.39781633019447327
1782952433594747600,4.21874755859375,-0.2208852469921112,0.25809013843536377,0.4403286576271057
1782952433604674600,4.228674560546875,-0.18787376582622528,0.23683331906795502,0.4934951961040497
1782952433614601700,4.238601806640625,-0.14740224182605743,0.18814913928508759,0.5575615167617798
1782952433624528600,4.248528564453125,-0.0887565016746521,0.12425297498703003,0.603339433670044
1782952433634455800,4.258455810546875,-0.03585067391395569,0.03680168837308884,0.6213650107383728
1782952433644383700,4.2683837890625,-0.03819798678159714,-0.07150374352931976,0.5972588658332825
1782952433654310700,4.278310546875,-0.049971021711826324,-0.1727352887392044,0.5527478456497192
1782952433664237800,4.28823779296875,-0.04159032180905342,-0.2814825475215912,0.4918895661830902
1782952433674164500,4.29816455078125,0.005667739547789097,-0.4444133937358856,0.423835426568985
1782952433684092400,4.308092529296875,0.08291352540254593,-0.6775729060173035,0.3676254153251648
1782952433694019600,4.31801953125,0.1874612420797348,-0.9024730920791626,0.3503047525882721
1782952433703946500,4.327946533203125,0.33726006746292114,-1.078092098236084,0.3821638822555542
1782952433713874700,4.337874755859375,0.4416320025920868,-1.2151618003845215,0.44540703296661377
1782952433723801600,4.347801513671875,0.486783504486084,-1.2770988941192627,0.503815233707428
1782952433733728800,4.357728759765625,0.4747292399406433,-1.2452807426452637,0.5487664341926575
1782952433743655700,4.36765576171875,0.4207285940647125,-1.1169228553771973,0.5711886882781982
1782952433753583600,4.37758349609375,0.3783097565174103,-0.9400532245635986,0.5328521728515625
1782952433763510800,4.3875107421875,0.33725231885910034,-0.7815735936164856,0.4236798882484436
1782952433773437700,4.397437744140625,0.30767127871513367,-0.6437792181968689,0.34485432505607605
1782952433783364600,4.407364501953125,0.2739412784576416,-0.5510751605033875,0.25710874795913696
1782952433793292500,4.41729248046875,0.25314146280288696,-0.4964108169078827,0.15176182985305786
1782952433803219500,4.427219482421875,0.22163358330726624,-0.4464757442474365,0.007755124941468239
1782952433813146600,4.437146728515625,0.198881134390831,-0.3968525528907776,-0.18199776113033295
1782952433823073500,4.447073486328125,0.16350610554218292,-0.3874689042568207,-0.4287356436252594
1782952433833001700,4.457001708984375,0.09046518802642822,-0.34524768590927124,-0.6756405234336853
1782952433842928600,4.4669287109375,0.02718980982899666,-0.25875407457351685,-0.8138849139213562
1782952433852855800,4.476855712890625,-0.03816815838217735,-0.17648981511592865,-0.8234723210334778
1782952433862783000,4.486782958984375,-0.08345494419336319,-0.07602313160896301,-0.7025275230407715
1782952433872711000,4.4967109375,-0.09314938634634018,0.07348460704088211,-0.543350100517273
1782952433882638000,4.50663818359375,-0.09060952812433243,0.19989606738090515,-0.39812660217285156
1782952433892564700,4.516564697265625,-0.09426231682300568,0.28863152861595154,-0.2914044260978699
1782952433902492000,4.526491943359375,-0.10046003013849258,0.356585830450058,-0.21327047049999237
1782952433912419800,4.536419921875,-0.10636239498853683,0.4218481779098511,-0.1844838261604309
1782952433922346800,4.5463466796875,-0.10681992024183273,0.5190229415893555,-0.20254965126514435
1782952433932274000,4.55627392578125,-0.10581617802381516,0.6411821246147156,-0.24162061512470245
1782952433942200800,4.566200927734375,-0.11215929687023163,0.768766462802887,-0.3011912703514099
1782952433952128800,4.576128662109375,-0.12180100381374359,0.890400230884552,-0.3725154995918274
1782952433962056000,4.586055908203125,-0.13785001635551453,0.9677152633666992,-0.42827117443084717
1782952433971982800,4.59598291015625,-0.15891721844673157,0.9703794717788696,-0.4419579803943634
1782952433981910000,4.605909912109375,-0.17563334107398987,0.8899786472320557,-0.42405858635902405
1782952433991838000,4.615837890625,-0.1632602959871292,0.7315762042999268,-0.4038177728652954
1782952434001764900,4.625764892578125,-0.14346501231193542,0.4903870224952698,-0.4402160048484802
1782952434011691800,4.63569189453125,-0.12487135827541351,0.17729195952415466,-0.5184961557388306
1782952434021619000,4.645618896484375,-0.09014108031988144,-0.1210249587893486,-0.59886634349823
1782952434031547000,4.655546875,-0.021454159170389175,-0.2966436445713043,-0.613052487373352
1782952434041473800,4.665473876953125,0.01655154675245285,-0.3975319266319275,-0.5038024187088013
1782952434051401000,4.67540087890625,0.04584898054599762,-0.4326014816761017,-0.30796608328819275
1782952434061328000,4.685327880859375,0.06600884348154068,-0.4180486500263214,-0.02604811266064644
1782952434071255800,4.695255859375,0.07743726670742035,-0.32730117440223694,0.2528407871723175
1782952434081183000,4.705182861328125,0.1035146713256836,-0.20529642701148987,0.40148991346359253
1782952434091110000,4.71510986328125,0.10308510810136795,-0.07889321446418762,0.384718120098114
1782952434101036800,4.725036865234375,0.07116898149251938,0.07315277308225632,0.28431323170661926
1782952434110964700,4.73496484375,0.024571388959884644,0.2850325405597687,0.17561550438404083
1782952434120892000,4.744891845703125,-0.029106486588716507,0.48433205485343933,0.0705532655119896
1782952434130818800,4.75481884765625,-0.06271025538444519,0.5763115286827087,-0.031857531517744064
1782952434140746000,4.76474609375,-0.029501166194677353,0.5711079835891724,-0.09307481348514557
1782952434150674000,4.774673828125,0.053219012916088104,0.5340367555618286,-0.08253855258226395
1782952434160600800,4.784600830078125,0.15009921789169312,0.32084059715270996,-0.06470868736505508
1782952434170528000,4.794528076171875,0.24067546427249908,0.09743494540452957,-0.024926122277975082
1782952434180455000,4.804454833984375,0.32455918192863464,-0.05638737604022026,0.03628050908446312
1782952434190382800,4.8143828125,0.3650487959384918,-0.1862867921590805,0.08064344525337219
1782952434200310000,4.82431005859375,0.3602697551250458,-0.28466662764549255,0.1273622214794159
1782952434210236700,4.834236572265625,0.36041170358657837,-0.3471262753009796,0.17180131375789642
1782952434220163800,4.844163818359375,0.3561810255050659,-0.34262844920158386,0.2277545928955078
1782952434230091800,4.854091796875,0.33406001329421997,-0.2903846800327301,0.27123814821243286
1782952434240019000,4.86401904296875,0.28055256605148315,-0.2100331336259842,0.26536455750465393
1782952434249945900,4.87394580078125,0.204035684466362,-0.09148650616407394,0.20322954654693604
1782952434259873000,4.883873046875,0.12391262501478195,0.018279671669006348,0.08708829432725906
1782952434269801000,4.893801025390625,0.05216600000858307,0.11046285927295685,-0.037450969219207764
1782952434279727900,4.903727783203125,-0.021448833867907524,0.18680930137634277,-0.14296594262123108
1782952434289655000,4.913655029296875,-0.09634970873594284,0.23298823833465576,-0.2090568095445633
1782952434299582000,4.92358203125,-0.16606460511684418,0.25477051734924316,-0.2384336143732071
1782952434309510000,4.933510009765625,-0.23189155757427216,0.2573748230934143,-0.22204186022281647
1782952434319436800,4.943436767578125,-0.29299086332321167,0.2632734477519989,-0.16499987244606018
1782952434329363700,4.95336376953125,-0.34635740518569946,0.2917144000530243,-0.08582595735788345
1782952434339291000,4.963290771484375,-0.37833717465400696,0.33611011505126953,0.0035148400347679853
1782952434349218800,4.97321875,-0.390849232673645,0.38722866773605347,0.1013769581913948
1782952434359146000,4.98314599609375,-0.4021807312965393,0.4267958104610443,0.20791111886501312
1782952434369073000,4.993072998046875,-0.3920647203922272,0.4397358298301697,0.3043670952320099
1782952434379000000,5.003,-0.3555477261543274,0.3957177698612213,0.37687352299690247
1782952434388928000,5.012927978515625,-0.3256406784057617,0.25745177268981934,0.3951073884963989
1782952434398855000,5.02285498046875,-0.30672237277030945,0.08650506287813187,0.3820781111717224
1782952434408781800,5.03278173828125,-0.29880455136299133,-0.02767370641231537,0.3691868185997009
1782952434418708700,5.042708740234375,-0.2930361330509186,-0.1138293594121933,0.3421615958213806
1782952434428636700,5.05263671875,-0.2978561818599701,-0.21344570815563202,0.3059777617454529
1782952434438563800,5.062563720703125,-0.3088390529155731,-0.3331390917301178,0.2687491774559021
1782952434448490800,5.07249072265625,-0.3194517493247986,-0.47570475935935974,0.2501467168331146
1782952434458418000,5.08241796875,-0.30728352069854736,-0.5948814749717712,0.29833075404167175
1782952434468345900,5.092345947265625,-0.25160640478134155,-0.6443009376525879,0.4110543727874756
1782952434478273000,5.10227294921875,-0.18703433871269226,-0.6552484035491943,0.5834386944770813
1782952434488200000,5.112199951171875,-0.12556910514831543,-0.5753874182701111,0.7867124080657959
1782952434498127000,5.122127197265625,-0.06130224093794823,-0.4647916555404663,0.9302080869674683
1782952434508055000,5.132054931640625,-0.0005270395777188241,-0.38607099652290344,0.9479013085365295
1782952434517981700,5.141981689453125,0.05873734876513481,-0.3227788507938385,0.8154212832450867
1782952434527908900,5.151908935546875,0.0930042415857315,-0.270808607339859,0.5611011385917664
1782952434537835800,5.161835693359375,0.09823708981275558,-0.2665075957775116,0.26928871870040894
1782952434547763700,5.171763671875,0.08492394536733627,-0.2857358753681183,-0.022709306329488754
1782952434557691000,5.18169091796875,0.07311895489692688,-0.28886163234710693,-0.2396908849477768
1782952434567617800,5.19161767578125,0.0599948950111866,-0.2825179696083069,-0.36431458592414856
1782952434577545000,5.201544921875,0.03815271332859993,-0.25802966952323914,-0.3719349503517151
1782952434587473000,5.211472900390625,0.0017771273851394653,-0.1980273276567459,-0.288560152053833
1782952434597400000,5.221400146484375,-0.03453720360994339,-0.1367352157831192,-0.1806800365447998
1782952434607327000,5.231326904296875,-0.11202400922775269,-0.08829391002655029,-0.031735826283693314
1782952434617254000,5.24125390625,-0.1339266449213028,0.0062637547962367535,0.11599637567996979
1782952434627181800,5.251181884765625,-0.11413775384426117,0.07549821585416794,0.1515360027551651
1782952434637108700,5.261108642578125,-0.09324446320533752,0.14113794267177582,0.10224168002605438
1782952434647036000,5.271035888671875,-0.09089422225952148,0.2021602839231491,0.014124874025583267
1782952434656962800,5.280962890625,-0.09446525573730469,0.22065460681915283,-0.10599754005670547
1782952434666890800,5.290890869140625,-0.1104988157749176,0.20874282717704773,-0.2430504709482193
1782952434676818000,5.30081787109375,-0.1310831904411316,0.17030781507492065,-0.37918245792388916
1782952434686744800,5.310744873046875,-0.15716378390789032,0.12375763058662415,-0.49504807591438293
1782952434696672000,5.320672119140625,-0.1692790389060974,0.08870270103216171,-0.575695276260376
1782952434706600000,5.330599853515625,-0.18312828242778778,0.06993993371725082,-0.623511791229248
1782952434716525800,5.34052587890625,-0.19430716335773468,0.06546130031347275,-0.6463393568992615
1782952434726452700,5.35045263671875,-0.20478616654872894,0.06941769272089005,-0.6456953883171082
1782952434736380000,5.3603798828125,-0.20170728862285614,0.0814029797911644,-0.6135720610618591
1782952434746307800,5.370307861328125,-0.18424786627292633,0.09312541782855988,-0.5749328136444092
1782952434756235000,5.380235107421875,-0.1555885225534439,0.09278080612421036,-0.5366370677947998
1782952434766162000,5.390161865234375,-0.12135972082614899,0.10738611221313477,-0.511370062828064
1782952434776089900,5.40008984375,-0.09659311920404434,0.14613483846187592,-0.5008354187011719
1782952434786017000,5.41001708984375,-0.08961057662963867,0.20149263739585876,-0.4974289536476135
1782952434795944000,5.41994384765625,-0.09550734609365463,0.29358527064323425,-0.48763251304626465
1782952434805870800,5.429870849609375,-0.09959530085325241,0.39740487933158875,-0.5057425498962402
1782952434815799000,5.439799072265625,-0.11676176637411118,0.4535544514656067,-0.597741425037384
1782952434825725700,5.4497255859375,-0.13487260043621063,0.40252959728240967,-0.732764482498169
1782952434835652900,5.45965283203125,-0.12754596769809723,0.2698032557964325,-0.7779642343521118
1782952434845579800,5.469579833984375,-0.08540837466716766,0.15472859144210815,-0.6235709190368652
1782952434855508000,5.479508056640625,-0.029280124232172966,0.04325719177722931,-0.32077643275260925
1782952434865434400,5.489434326171875,0.07032875716686249,-0.02286030910909176,-0.02292981743812561
1782952434875361500,5.499361572265625,0.19454550743103027,-0.05930859595537186,0.17099304497241974
1782952434885288400,5.509288330078125,0.33360087871551514,-0.08749283105134964,0.21700315177440643
1782952434895216400,5.51921630859375,0.4702572524547577,-0.06003830209374428,0.16125014424324036
1782952434905143600,5.5291435546875,0.593472421169281,-0.049498576670885086,0.06370760500431061
1782952434915070200,5.5390703125,0.6683804392814636,-0.00959856528788805,0.012655341066420078
1782952434924997400,5.548997314453125,0.6951252818107605,-0.007704791147261858,0.07557625323534012
1782952434934925300,5.55892529296875,0.6429214477539062,-0.030026875436306,0.1839597225189209
1782952434944852500,5.5688525390625,0.5026381015777588,-0.186848983168602,0.20910155773162842
1782952434954779400,5.578779296875,0.406279057264328,-0.3095615804195404,0.120118148624897
1782952434964706300,5.588706298828125,0.35343050956726074,-0.3090478479862213,-0.08197981864213943
1782952434974634500,5.598634521484375,0.29793235659599304,-0.2083907574415207,-0.3110191226005554
1782952434984561400,5.6085615234375,0.24848811328411102,-0.11112891882658005,-0.4803756773471832
1782952434994488600,5.618488525390625,0.1839972585439682,-0.029326463118195534,-0.5228147506713867
1782952435004415200,5.628415283203125,0.13968785107135773,0.033536653965711594,-0.4490121603012085
1782952435014343400,5.638343505859375,0.11133797466754913,0.07286594808101654,-0.3228145241737366
1782952435024270300,5.648270263671875,0.08936529606580734,0.09154403209686279,-0.1870974451303482
1782952435034197200,5.658197265625,0.07131492346525192,0.13988280296325684,-0.05062589421868324
1782952435044124400,5.66812451171875,0.05047515779733658,0.20998172461986542,0.07171279937028885
1782952435054052400,5.67805224609375,0.008223574608564377,0.28032833337783813,0.17001354694366455
1782952435063979300,5.687979248046875,-0.0361739844083786,0.3525114357471466,0.23778192698955536
1782952435073906400,5.697906494140625,-0.09021750837564468,0.4016784727573395,0.25864461064338684
1782952435083833300,5.707833251953125,-0.13967986404895782,0.4103212058544159,0.2474265694618225
1782952435093761500,5.717761474609375,-0.18503350019454956,0.40396425127983093,0.2284613996744156
1782952435103689500,5.727689453125,-0.1946118324995041,0.40592512488365173,0.21992890536785126
1782952435113616400,5.737616455078125,-0.20725224912166595,0.4038361608982086,0.23139354586601257
1782952435123543600,5.74754345703125,-0.22038616240024567,0.3781723380088806,0.23804958164691925
1782952435133470200,5.75747021484375,-0.21387925744056702,0.36800599098205566,0.24143072962760925
1782952435143398400,5.7673984375,-0.19794823229312897,0.36621421575546265,0.25876152515411377
1782952435153325300,5.7773251953125,-0.18838322162628174,0.3554494380950928,0.2856610417366028
1782952435163252500,5.78725244140625,-0.17524318397045135,0.3354581594467163,0.33419954776763916
1782952435173180400,5.797180419921875,-0.12048859894275665,0.3137531280517578,0.4186209440231323
1782952435183107300,5.807107421875,-0.08822440356016159,0.24851153790950775,0.5265050530433655
1782952435193034500,5.817034423828125,-0.061042580753564835,0.20254617929458618,0.6377133727073669
1782952435202961400,5.82696142578125,-0.039502400904893875,0.12118794023990631,0.7278347015380859
1782952435212889300,5.836889404296875,-0.02123924158513546,-0.03375343605875969,0.7607950568199158
1782952435222816500,5.84681640625,0.01011149026453495,-0.21327924728393555,0.7405499815940857
1782952435232743400,5.856743408203125,0.06798917055130005,-0.3896729350090027,0.6953667998313904
1782952435242670300,5.86667041015625,0.1401941180229187,-0.5430904626846313,0.6346065402030945
1782952435252598300,5.876598388671875,0.20880301296710968,-0.6314546465873718,0.6104162335395813
1782952435262525400,5.886525390625,0.26279595494270325,-0.6540443897247314,0.6247836947441101
1782952435272452400,5.896452392578125,0.2686426341533661,-0.6570731997489929,0.6422745585441589
1782952435282379300,5.906379150390625,0.24106667935848236,-0.6291494369506836,0.6368685960769653
1782952435292307500,5.916307373046875,0.19978874921798706,-0.5633347034454346,0.5997667908668518
1782952435302234400,5.926234375,0.18659384548664093,-0.5112051963806152,0.5925149917602539
1782952435312161500,5.93616162109375,0.185112863779068,-0.4468504786491394,0.5309607982635498
1782952435322088400,5.94608837890625,0.196114644408226,-0.3571469485759735,0.4126453697681427
1782952435332016400,5.956016357421875,0.18555201590061188,-0.27154842019081116,0.25434625148773193
1782952435341943600,5.965943603515625,0.1678057760000229,-0.25896844267845154,0.04822105914354324
1782952435351870200,5.9758701171875,0.16231194138526917,-0.31910476088523865,-0.1674308031797409
1782952435361797400,5.98579736328125,0.15048643946647644,-0.41580599546432495,-0.35277989506721497
1782952435371725300,5.995725341796875,0.1251150369644165,-0.5135320425033569,-0.49220383167266846
1782952435381652500,6.005652587890625,0.10717731714248657,-0.6331790685653687,-0.5830434560775757
1782952435391579400,6.015579345703125,0.11207514256238937,-0.6837663650512695,-0.6166507005691528
1782952435401506300,6.02550634765625,0.11245037615299225,-0.6736958622932434,-0.6050409078598022
1782952435411434500,6.0354345703125,0.03840038552880287,-0.5809352993965149,-0.487788587808609
1782952435421361400,6.045361328125,-0.0384664312005043,-0.4347280263900757,-0.29877763986587524
1782952435431288600,6.05528857421875,-0.041489385068416595,-0.2814314067363739,-0.12251473218202591
1782952435441215200,6.06521533203125,-0.025057682767510414,-0.14229455590248108,0.01575526036322117
1782952435451143400,6.075143310546875,-0.0008410262526012957,-0.01206651609390974,0.1036401093006134
1782952435461070300,6.0850703125,0.03584614768624306,0.08904305845499039,0.15051786601543427
1782952435470997200,6.094997314453125,0.06958840042352676,0.14653484523296356,0.1640310138463974
1782952435480924400,6.10492431640625,0.07294025272130966,0.1480400711297989,0.17452280223369598
1782952435490852400,6.114852294921875,0.05534474924206734,0.1179567277431488,0.1711091697216034
1782952435500779300,6.124779296875,0.04236450046300888,0.09158691018819809,0.16585049033164978
1782952435510706400,6.13470654296875,0.015174691565334797,0.08794157207012177,0.14799106121063232
1782952435520633300,6.14463330078125,-0.021883994340896606,0.11159177869558334,0.09839288145303726
1782952435530561500,6.1545615234375,-0.06424902379512787,0.17692551016807556,-0.0054424358531832695
1782952435540488400,6.164488525390625,-0.08522780984640121,0.2801232635974884,-0.15592461824417114
1782952435550415400,6.174415283203125,-0.10532695800065994,0.38886919617652893,-0.3499590754508972
1782952435560342300,6.18434228515625,-0.11503923684358597,0.46838346123695374,-0.5746028423309326
1782952435570270200,6.194270263671875,-0.10965725779533386,0.4773159623146057,-0.8076448440551758
1782952435580197400,6.204197265625,-0.09246015548706055,0.3888132572174072,-0.984177827835083
1782952435590124300,6.214124267578125,-0.08299475163221359,0.21012873947620392,-1.0431774854660034
1782952435600051500,6.224051513671875,-0.08479824662208557,-0.0011773834703490138,-0.9713917374610901
1782952435609979400,6.2339794921875,-0.08659002184867859,-0.18924209475517273,-0.7732730507850647
1782952435619906300,6.24390625,-0.10242703557014465,-0.31730154156684875,-0.46821993589401245
1782952435629833500,6.25383349609375,-0.13795147836208344,-0.32854804396629333,-0.1134093850851059
1782952435639760400,6.263760498046875,-0.12350329756736755,-0.238088458776474,0.18976940214633942
1782952435649688600,6.2736884765625,-0.08489198982715607,-0.10161930322647095,0.38250264525413513
1782952435659615200,6.283615234375,-0.04596696048974991,-0.029051359742879868,0.4303590953350067
1782952435669542400,6.29354248046875,0.003628823207691312,0.02364807203412056,0.35611310601234436
1782952435679469300,6.30346923828125,0.06906694918870926,0.08488985896110535,0.2145106941461563
1782952435689397200,6.313397216796875,0.1133904755115509,0.10614294558763504,0.06933220475912094
1782952435699324400,6.323324462890625,0.11089535802602768,0.11866326630115509,-0.013747237622737885
1782952435709251300,6.333251220703125,0.07317141443490982,0.13556288182735443,-0.029089707881212234
1782952435719178500,6.343178466796875,0.03237578272819519,0.14163143932819366,-0.01363405305892229
1782952435729106400,6.3531064453125,-0.004856273997575045,0.09491399675607681,0.0020751350093632936
1782952435739033300,6.363033447265625,-0.051890626549720764,0.017172062769532204,-0.0011864382540807128
1782952435748960500,6.37296044921875,-0.08795009553432465,-0.021341508254408836,-0.026460103690624237
1782952435758887200,6.38288720703125,-0.09880833327770233,-0.01690601371228695,-0.09068862348794937
1782952435768815400,6.3928154296875,-0.10341773182153702,0.03508394956588745,-0.17968986928462982
1782952435778742300,6.4027421875,-0.10745828598737717,0.10075058043003082,-0.2735085189342499
1782952435788669400,6.41266943359375,-0.11615989357233047,0.14107190072536469,-0.3470546305179596
1782952435798596400,6.422596435546875,-0.12295655161142349,0.15470728278160095,-0.37976595759391785
1782952435808524300,6.432524169921875,-0.12194588035345078,0.157075896859169,-0.3697013556957245
1782952435818451500,6.442451416015625,-0.11244931071996689,0.18138816952705383,-0.2975635230541229
1782952435828378400,6.45237841796875,-0.09666022658348083,0.2511643171310425,-0.1953580379486084
1782952435838305500,6.462305419921875,-0.08370368182659149,0.3495076596736908,-0.09726343303918839
1782952435848233500,6.4722333984375,-0.05606433376669884,0.4530569612979889,-0.024710405617952347
1782952435858160400,6.482160400390625,-0.02316284365952015,0.5231830477714539,-0.004887433256953955
1782952435868087800,6.492087890625,0.012152536772191525,0.5501765608787537,-0.03741341829299927
1782952435878014700,6.5020146484375,0.035284753888845444,0.5305522680282593,-0.10363638401031494
1782952435887943000,6.51194287109375,0.05355323851108551,0.4614744186401367,-0.17504265904426575
1782952435897869800,6.521869873046875,0.06454677134752274,0.35010048747062683,-0.23170726001262665
1782952435907796700,6.531796630859375,0.06493426114320755,0.21575333178043365,-0.270590215921402
1782952435917724000,6.541723876953125,0.0703045204281807,0.06665758788585663,-0.2804074287414551
1782952435927651800,6.55165185546875,0.06102367118000984,-0.07177431881427765,-0.2719920873641968
1782952435937579000,6.5615791015625,0.045276135206222534,-0.16911205649375916,-0.22599051892757416
1782952435947506000,6.571505859375,0.028098214417696,-0.19654874503612518,-0.15936967730522156
1782952435957433000,6.58143310546875,0.00004420847471919842,-0.12736141681671143,-0.08959326893091202
1782952435967361000,6.591361083984375,-0.029293972998857498,-0.008205997757613659,-0.03448154404759407
1782952435977287700,6.60128759765625,-0.06701711565256119,0.1336403489112854,0.0215391144156456
1782952435987214800,6.61121484375,-0.10258310288190842,0.2521054744720459,0.08048339188098907
1782952435997141800,6.621141845703125,-0.12486523389816284,0.3124644160270691,0.13237695395946503
1782952436007070000,6.631070068359375,-0.12395017594099045,0.28451427817344666,0.1718074381351471
1782952436016996900,6.640996826171875,-0.09684638679027557,0.22538119554519653,0.18768920004367828
1782952436026923800,6.650923828125,-0.08043811470270157,0.11612766981124878,0.23262126743793488
1782952436036851000,6.660850830078125,-0.048650361597537994,-0.013521401211619377,0.2926696836948395
1782952436046779000,6.67077880859375,0.00809174869209528,-0.1443297415971756,0.3633939325809479
1782952436056706000,6.6807060546875,0.05914374813437462,-0.26706045866012573,0.43197137117385864
1782952436066633000,6.690633056640625,0.10789743810892105,-0.3413727879524231,0.5034631490707397
1782952436076560000,6.700559814453125,0.14761342108249664,-0.37879765033721924,0.597518265247345
1782952436086487800,6.71048779296875,0.1642312854528427,-0.38168132305145264,0.6998196244239807
1782952436096414700,6.720414794921875,0.14611007273197174,-0.3724966049194336,0.7672446966171265
1782952436106342000,6.730341796875,0.11440140753984451,-0.37722983956336975,0.790067195892334
1782952436116268800,6.740268798828125,0.09741736948490143,-0.3750487267971039,0.8034130930900574
1782952436126196700,6.75019677734375,0.09221594780683517,-0.370265394449234,0.8006079792976379
1782952436136124000,6.7601240234375,0.09828422218561172,-0.3757486045360565,0.7826729416847229
1782952436146050800,6.77005078125,0.12423486262559891,-0.4190441370010376,0.71510910987854
1782952436155978000,6.77997802734375,0.1349567472934723,-0.42760246992111206,0.6203780174255371
1782952436165906000,6.789906005859375,0.15769748389720917,-0.44838258624076843,0.4176955223083496
1782952436175833000,6.7998330078125,0.20648419857025146,-0.5138435959815979,0.08221711218357086
1782952436185759700,6.809759765625,0.2357824295759201,-0.6717482805252075,-0.3661833107471466
1782952436195687000,6.81968701171875,0.19614580273628235,-0.8357535004615784,-0.73244708776474
1782952436205614800,6.82961474609375,0.11189644038677216,-0.8492050766944885,-0.8736915588378906
1782952436215541800,6.839541748046875,0.032579246908426285,-0.6900519132614136,-0.788345456123352
1782952436225469000,6.849468994140625,-0.016382701694965363,-0.4922134280204773,-0.5877481698989868
1782952436235395800,6.859395751953125,-0.031204791739583015,-0.21366487443447113,-0.3685993254184723
1782952436245323800,6.86932373046875,-0.02533651515841484,-0.011781824752688408,-0.1377629190683365
1782952436255251000,6.8792509765625,-0.030414098873734474,0.19741959869861603,0.12742772698402405
1782952436265177900,6.889177734375,0.017916416749358177,0.33834344148635864,0.3205825388431549
1782952436275105000,6.89910498046875,0.06059969589114189,0.3732614517211914,0.4155285060405731
1782952436285033000,6.909032958984375,0.07430113106966019,0.3881458640098572,0.462767630815506
1782952436294959900,6.9189599609375,0.07677280902862549,0.3944210708141327,0.47607412934303284
1782952436304886800,6.92888671875,0.07326143234968185,0.3992270231246948,0.44239553809165955
1782952436314814000,6.93881396484375,0.060377590358257294,0.40521860122680664,0.3822650909423828
1782952436324742000,6.948741943359375,0.026154639199376106,0.40116527676582336,0.3077991008758545
1782952436334668800,6.958668701171875,-0.012595420703291893,0.39827173948287964,0.22263386845588684
1782952436344596000,6.968595947265625,-0.044261205941438675,0.37168461084365845,0.138209268450737
1782952436354524000,6.97852392578125,-0.09770099073648453,0.3316311836242676,0.08621398359537125
1782952436364450800,6.988450927734375,-0.1236172765493393,0.29136714339256287,0.024645958095788956
1782952436374378000,6.9983779296875,-0.11325092613697052,0.2388429343700409,-0.03967390954494476
1782952436384305000,7.008304931640625,-0.11091773211956024,0.1782885193824768,-0.1197034940123558
1782952436394231800,7.018231689453125,-0.10111356526613235,0.09479628503322601,-0.1976614147424698
1782952436404159700,7.02815966796875,-0.07389073818922043,0.0046786414459347725,-0.214885413646698
1782952436414087000,7.0380869140625,-0.04238500818610191,-0.05700629577040672,-0.12853214144706726
1782952436424013800,7.048013916015625,-0.0017925737192854285,-0.10168801248073578,0.022913305088877678
1782952436433941800,7.057941650390625,0.037215810269117355,-0.13839569687843323,0.19879618287086487
1782952436443869000,7.067868896484375,0.08214546740055084,-0.14240534603595734,0.3098510801792145
1782952436453795800,7.0777958984375,0.12604555487632751,-0.18862131237983704,0.28771620988845825
1782952436463723000,7.087722900390625,0.1519799381494522,-0.23287558555603027,0.15292775630950928
1782952436473651000,7.09765087890625,0.16876238584518433,-0.22245357930660248,-0.007573497481644154
1782952436483577900,7.107577880859375,0.1838657110929489,-0.16483475267887115,-0.17768371105194092
1782952436493505000,7.117505126953125,0.20835666358470917,-0.04140842705965042,-0.3597792088985443
1782952436503431700,7.127431640625,0.22152972221374512,0.15749721229076385,-0.5230826735496521
1782952436513360000,7.13735986328125,0.21793605387210846,0.3590444326400757,-0.5939493775367737
1782952436523286800,7.147286865234375,0.19195106625556946,0.5336053371429443,-0.5429831147193909
1782952436533214000,7.1572138671875,0.1789625585079193,0.6897150278091431,-0.41240033507347107
1782952436543140900,7.167140869140625,0.19579826295375824,0.7577210068702698,-0.26790493726730347
1782952436553068000,7.177068115234375,0.19381020963191986,0.7010156512260437,-0.1412774920463562
1782952436562996000,7.186995849609375,0.19192630052566528,0.582949161529541,-0.03868001699447632
1782952436572923000,7.1969228515625,0.19649361073970795,0.44087645411491394,0.020592892542481422
1782952436582850000,7.20685009765625,0.205118790268898,0.29438716173171997,0.018272213637828827
1782952436592776700,7.216776611328125,0.2032252848148346,0.16357988119125366,0.004513259045779705
1782952436602705000,7.226704833984375,0.16604037582874298,0.06681924313306808,-0.017198961228132248
1782952436612631800,7.2366318359375,0.10954966396093369,-0.01619601435959339,-0.05667899176478386
1782952436622558700,7.246558837890625,0.062121160328388214,-0.09378082305192947,-0.11474229395389557
1782952436632487000,7.25648681640625,0.014398912899196148,-0.15577149391174316,-0.17934738099575043
1782952436642413800,7.266413818359375,-0.04487133398652077,-0.19222989678382874,-0.2618720829486847
1782952436652341000,7.276341064453125,-0.12266626209020615,-0.22309939563274384,-0.36166927218437195
1782952436662268000,7.286267822265625,-0.2013741284608841,-0.251201331615448,-0.4510609209537506
1782952436672195800,7.29619580078125,-0.2822476625442505,-0.2671419680118561,-0.5194330811500549
1782952436682123000,7.306123046875,-0.35760635137557983,-0.25822728872299194,-0.5375497341156006
1782952436692050000,7.3160498046875,-0.415689617395401,-0.22177819907665253,-0.5088821649551392
1782952436701976800,7.325976806640625,-0.47201812267303467,-0.14292439818382263,-0.42721524834632874
1782952436711905000,7.335905029296875,-0.5089631080627441,-0.041078194975852966,-0.3085578382015228
1782952436721831700,7.345831787109375,-0.5239835977554321,0.08241737633943558,-0.18456824123859406
1782952436731758800,7.3557587890625,-0.5245881080627441,0.22110815346240997,-0.061043113470077515
1782952436741685800,7.365685791015625,-0.5063169598579407,0.3532100021839142,0.049000564962625504
1782952436751614000,7.375614013671875,-0.45811429619789124,0.44889578223228455,0.17330120503902435
1782952436761540900,7.385540771484375,-0.37923547625541687,0.4610866606235504,0.30420437455177307
1782952436771468000,7.395468017578125,-0.2819203734397888,0.3625345230102539,0.39964964985847473
1782952436781395000,7.40539501953125,-0.1871613711118698,0.18393920361995697,0.4442264437675476
1782952436791323000,7.415322998046875,-0.10554080456495285,0.020671457052230835,0.4516926109790802
1782952436801250000,7.42525,-0.03323358669877052,-0.06762857735157013,0.413782000541687
1782952436811176700,7.4351767578125,0.033792849630117416,-0.14434625208377838,0.31499922275543213
1782952436821103900,7.445103759765625,0.06925976276397705,-0.23670122027397156,0.1661413013935089
1782952436831031800,7.45503173828125,0.07407502830028534,-0.34201565384864807,-0.004501541145145893
1782952436840958700,7.464958740234375,0.06515529751777649,-0.43189680576324463,-0.12693637609481812
1782952436850886000,7.474885986328125,0.05711521580815315,-0.4799373149871826,-0.15865541994571686
1782952436860812500,7.4848125,0.062182679772377014,-0.4459681510925293,-0.09309026598930359
1782952436870740700,7.49474072265625,0.07430858910083771,-0.3516666889190674,0.026159698143601418
1782952436880667600,7.504667724609375,0.08234920352697372,-0.23632092773914337,0.14993970096111298
1782952436890594800,7.5145947265625,0.07018201798200607,-0.15351392328739166,0.2065606266260147
1782952436900521500,7.524521484375,0.031200263649225235,-0.09232992678880692,0.15555045008659363
1782952436910449700,7.53444970703125,0.013079849071800709,-0.04321831092238426,0.07903729379177094
1782952436920376600,7.54437646484375,-0.035046134144067764,-0.030553914606571198,-0.011930961161851883
1782952436930303500,7.554303466796875,-0.0895162969827652,-0.011325891129672527,-0.07439620047807693
1782952436940230700,7.564230712890625,-0.13812164962291718,0.05120566487312317,-0.11817697435617447
1782952436950158600,7.57415869140625,-0.17215818166732788,0.1449795663356781,-0.15783250331878662
1782952436960085500,7.58408544921875,-0.20785093307495117,0.23228037357330322,-0.17865389585494995
1782952436970012700,7.5940126953125,-0.22682754695415497,0.2779186964035034,-0.14816176891326904
1782952436979939600,7.603939697265625,-0.2207012176513672,0.29092636704444885,-0.06141488999128342
1782952436989867800,7.61386767578125,-0.19337105751037598,0.2538421154022217,0.05783320590853691
1782952436999794700,7.623794677734375,-0.14539368450641632,0.16684837639331818,0.18078921735286713
1782952437009721600,7.6337216796875,-0.10138893872499466,0.06351133435964584,0.2758062779903412
1782952437019648500,7.6436484375,-0.0611584298312664,-0.027400998398661613,0.33211055397987366
1782952437029576400,7.653576416015625,-0.03247884660959244,-0.08874505013227463,0.3319406509399414
1782952437039503600,7.663503662109375,-0.016098275780677795,-0.10136204212903976,0.28075096011161804
1782952437049430500,7.673430419921875,-0.014749119058251381,-0.07691342383623123,0.20428548753261566
1782952437059357700,7.683357666015625,-0.025530127808451653,-0.022718628868460655,0.11164051294326782
1782952437069285600,7.69328564453125,-0.05926412343978882,0.07396131008863449,0.016629310324788094
1782952437079212500,7.703212646484375,-0.09849274903535843,0.18332801759243011,-0.07411550730466843
1782952437089139700,7.7131396484375,-0.13652056455612183,0.28549566864967346,-0.1602163016796112
1782952437099066600,7.723066650390625,-0.18008455634117126,0.3825029134750366,-0.2412634789943695
1782952437108994800,7.732994873046875,-0.21891823410987854,0.4508531987667084,-0.3201085031032562
1782952437118921500,7.74292138671875,-0.24174445867538452,0.4720218777656555,-0.4093691408634186
1782952437128848600,7.7528486328125,-0.23736993968486786,0.44236356019973755,-0.48060283064842224
1782952437138775600,7.762775634765625,-0.21938668191432953,0.3588215410709381,-0.49931126832962036
1782952437148703500,7.772703369140625,-0.20204497873783112,0.23376987874507904,-0.45675769448280334
1782952437158630700,7.782630615234375,-0.17917294800281525,0.08870004117488861,-0.37057405710220337
1782952437168557600,7.7925576171875,-0.1420077383518219,-0.0449024923145771,-0.27006715536117554
1782952437178484700,7.802484619140625,-0.09928024560213089,-0.1491234451532364,-0.19576044380664825
1782952437188412700,7.81241259765625,-0.05600228160619736,-0.24536368250846863,-0.15535683929920197
1782952437198339600,7.822339599609375,-0.018680211156606674,-0.3379146456718445,-0.12335895001888275
1782952437208266800,7.832266845703125,0.0285248514264822,-0.3676890730857849,-0.052024584263563156
1782952437218193400,7.842193359375,0.0930471196770668,-0.3015094995498657,0.0538986511528492
1782952437228121600,7.85212158203125,0.17012272775173187,-0.19431515038013458,0.16966760158538818
1782952437238048500,7.862048583984375,0.22947926819324493,-0.08907394856214523,0.2488790601491928
1782952437247975700,7.8719755859375,0.2932864725589752,-0.03867122903466225,0.25692659616470337
1782952437257902600,7.881902587890625,0.3610394299030304,-0.06890982389450073,0.13394954800605774
1782952437267830500,7.89183056640625,0.40205901861190796,-0.14889253675937653,-0.08825263381004333
1782952437277757700,7.9017578125,0.38171300292015076,-0.24872486293315887,-0.31435394287109375
1782952437287684600,7.9116845703125,0.31702402234077454,-0.3541088104248047,-0.42962646484375
1782952437297611800,7.92161181640625,0.23514966666698456,-0.35691899061203003,-0.4026297330856323
1782952437307539700,7.931539794921875,0.14953702688217163,-0.3117712140083313,-0.3202568292617798
1782952437317466600,7.941466552734375,0.10640793293714523,-0.258333295583725,-0.2920241355895996
1782952437327393500,7.9513935546875,0.06782059371471405,-0.17718090116977692,-0.30020561814308167
1782952437337320400,7.961320556640625,0.02394315041601658,-0.09977586567401886,-0.29895126819610596
1782952437347248600,7.97124853515625,0.008973787538707256,-0.027161313220858574,-0.2542083263397217
1782952437357175600,7.981175537109375,0.03963262960314751,0.041247304528951645,-0.18282175064086914
1782952437367102700,7.991102783203125,0.06728743016719818,0.0860707014799118,-0.1138237714767456
1782952437377029600,8.001029541015624,0.0668320283293724,0.08634553849697113,-0.081582210958004
1782952437386957600,8.01095751953125,0.04219725355505943,0.10547449439764023,-0.0787278339266777
1782952437396884700,8.020884765625,0.00683047529309988,0.14796656370162964,-0.0711442157626152
1782952437406811600,8.030811767578125,-0.06149052456021309,0.18929935991764069,-0.05266907066106796
1782952437416738800,8.04073876953125,-0.13590669631958008,0.23255334794521332,-0.016334498301148415
1782952437426666800,8.050666748046876,-0.2088293731212616,0.2806183397769928,0.01296586636453867
1782952437436593400,8.060593505859375,-0.27483344078063965,0.3262241780757904,0.032111331820487976
1782952437446520600,8.0705205078125,-0.3254004716873169,0.3641609251499176,0.04103531688451767
1782952437456447500,8.080447509765625,-0.36714470386505127,0.381539911031723,0.03172171115875244
1782952437466375700,8.090375732421874,-0.4013756513595581,0.376944363117218,0.02424648404121399
1782952437476302600,8.100302490234375,-0.4308730959892273,0.3449222445487976,0.021582257002592087
1782952437486229800,8.110229736328124,-0.4425281584262848,0.2952609360218048,0.03777267783880234
1782952437496156700,8.12015673828125,-0.4358745217323303,0.2456182837486267,0.0719335749745369
1782952437506084600,8.130084716796874,-0.42253392934799194,0.20032404363155365,0.13386964797973633
1782952437516011800,8.14001171875,-0.4030095040798187,0.1701488345861435,0.21103766560554504
1782952437525938700,8.149938720703124,-0.38226985931396484,0.14813727140426636,0.2977435290813446
1782952437535865600,8.159865478515625,-0.35949450731277466,0.1386614739894867,0.3904615044593811
1782952437545793500,8.16979345703125,-0.328641802072525,0.13041339814662933,0.4951373040676117
1782952437555720400,8.179720458984375,-0.3002628982067108,0.11778122931718826,0.568895161151886
1782952437565647600,8.189647705078125,-0.26689961552619934,0.0897464007139206,0.588323175907135
1782952437575574500,8.199574462890626,-0.21980826556682587,0.08053053170442581,0.5538632273674011
1782952437585502700,8.209502685546875,-0.16705024242401123,0.06300799548625946,0.4723867177963257
1782952437595429600,8.2194296875,-0.1115662083029747,0.0015137407463043928,0.3646607995033264
1782952437605356800,8.229356689453125,-0.05294976755976677,-0.06319468468427658,0.3095056414604187
1782952437615283700,8.23928369140625,0.004640025552362204,-0.10932835191488266,0.34473901987075806
1782952437625211600,8.249211669921875,0.043783966451883316,-0.1623540222644806,0.44237929582595825
1782952437635138800,8.259138916015624,0.08287730813026428,-0.22644618153572083,0.5647736191749573
1782952437645065500,8.2690654296875,0.10226858407258987,-0.3019161820411682,0.6146133542060852
1782952437654992600,8.27899267578125,0.10412374138832092,-0.3414292335510254,0.5783083438873291
1782952437664920600,8.288920654296875,0.11719799786806107,-0.3611731231212616,0.49656927585601807
1782952437674847500,8.298847412109374,0.1445380002260208,-0.3912801444530487,0.3726382851600647
1782952437684774700,8.308774658203125,0.1436953842639923,-0.4554106593132019,0.2696242928504944
1782952437694701600,8.31870166015625,0.15036234259605408,-0.4850950539112091,0.19391754269599915
1782952437704629800,8.328629638671876,0.18005631864070892,-0.4500308036804199,0.13541242480278015
1782952437714556700,8.338556640625,0.2015080749988556,-0.3813207149505615,0.06034722924232483
1782952437724483800,8.34848388671875,0.18527185916900635,-0.33205223083496094,-0.048531848937273026
1782952437734410500,8.358410400390625,0.14550793170928955,-0.28657984733581543,-0.1577819138765335
1782952437744338700,8.368338623046874,0.1127593070268631,-0.20977160334587097,-0.25379952788352966
1782952437754265600,8.378265625,0.0877266526222229,-0.09267987310886383,-0.3360120952129364
1782952437764192500,8.388192626953124,0.06516781449317932,0.009034774266183376,-0.38389280438423157
1782952437774119700,8.39811962890625,0.04479197412729263,0.02442171983420849,-0.42671164870262146
1782952437784047600,8.408047607421874,0.018563564866781235,-0.03256513178348541,-0.4381698966026306
1782952437793974500,8.417974609375,-0.01113201305270195,-0.09295257925987244,-0.3854486346244812
1782952437803901700,8.427901611328124,-0.059185028076171875,-0.13866999745368958,-0.27895891666412354
1782952437813828600,8.43782861328125,-0.06931835412979126,-0.14750902354717255,-0.18768468499183655
1782952437823756800,8.4477568359375,-0.04772411286830902,-0.129595547914505,-0.11604458093643188
1782952437833683700,8.45768359375,-0.031207187101244926,-0.08370741456747055,-0.060572534799575806
1782952437843610600,8.467610595703125,-0.039082154631614685,-0.026728283613920212,-0.030764836817979813
1782952437853537500,8.47753759765625,-0.059539493173360825,0.025623338297009468,-0.04802744835615158
1782952437863467300,8.48746728515625,-0.06372091919183731,0.07347315549850464,-0.10231918096542358
1782952437873394200,8.497394287109374,-0.06067772954702377,0.09466472268104553,-0.1746290624141693
1782952437883321300,8.5073212890625,-0.054305050522089005,0.10137668997049332,-0.2565588057041168
1782952437893248300,8.517248291015624,-0.049914561212062836,0.09134988486766815,-0.3526672422885895
1782952437903176200,8.52717626953125,-0.04258394613862038,0.09663625806570053,-0.4518049955368042
1782952437913103400,8.537103271484375,-0.042090993374586105,0.0837542861700058,-0.5069468021392822
1782952437923030300,8.5470302734375,-0.056475792080163956,0.009435047395527363,-0.5090289115905762
1782952437932957200,8.556957275390625,-0.07095246762037277,-0.11269459128379822,-0.4500047266483307
1782952437942885000,8.566885009765626,-0.09344952553510666,-0.24272368848323822,-0.35284513235092163
1782952437952812300,8.576812255859375,-0.15377917885780334,-0.292144775390625,-0.20906853675842285
1782952437962739200,8.5867392578125,-0.16686168313026428,-0.24465927481651306,-0.0995582789182663
1782952437972666400,8.596666259765625,-0.16441556811332703,-0.11121946573257446,0.024476313963532448
1782952437982594300,8.60659423828125,-0.15281164646148682,0.056225456297397614,0.17435289919376373
1782952437992521200,8.616521240234375,-0.11530262231826782,0.2760432958602905,0.31382983922958374
1782952438002448400,8.626448486328124,-0.06974126398563385,0.5148563981056213,0.4282589256763458
1782952438012375300,8.636375244140625,-0.03614282235503197,0.6727160811424255,0.47679397463798523
1782952438022303200,8.64630322265625,0.023439012467861176,0.7162097692489624,0.43285074830055237
1782952438032230400,8.65623046875,0.11784300953149796,0.6212960481643677,0.30416548252105713
1782952438042157000,8.666156982421874,0.23736435174942017,0.4105134904384613,0.13907000422477722
1782952438052084200,8.676084228515625,0.338848352432251,0.1293686479330063,0.029587186872959137
1782952438062012200,8.68601220703125,0.39954739809036255,-0.21285821497440338,0.011141068302094936
1782952438071939300,8.695939208984376,0.45279836654663086,-0.4743550717830658,0.048539839684963226
1782952438081866200,8.7058662109375,0.49142539501190186,-0.5876094698905945,0.07360418140888214
1782952438091793400,8.71579345703125,0.5152026414871216,-0.6046392917633057,-0.022273346781730652
1782952438101721300,8.725721435546875,0.5313272476196289,-0.5320900082588196,-0.22641369700431824
1782952438111648300,8.735648193359374,0.4879600703716278,-0.4175516963005066,-0.4486832618713379
1782952438121575400,8.745575439453125,0.4118804931640625,-0.3489702343940735,-0.6194054484367371
1782952438131502000,8.755502197265624,0.3062550127506256,-0.336934357881546,-0.660795271396637
1782952438141430300,8.76543017578125,0.19415536522865295,-0.36859267950057983,-0.5650492906570435
1782952438151357200,8.775357177734374,0.0911131352186203,-0.3686600625514984,-0.398208886384964
1782952438161284000,8.7852841796875,0.006469084415584803,-0.3052627146244049,-0.24530483782291412
1782952438171211300,8.795211181640624,-0.054960187524557114,-0.1792975813150406,-0.15194664895534515
1782952438181139200,8.80513916015625,-0.08466961234807968,0.017710020765662193,-0.10884232819080353
1782952438191066400,8.81506640625,-0.0993707925081253,0.24724946916103363,-0.08315640687942505
1782952438200993300,8.8249931640625,-0.09642507135868073,0.4255070984363556,-0.06385141611099243
1782952438210920400,8.83492041015625,-0.08714289218187332,0.5063720941543579,-0.030838606879115105
1782952438220848400,8.844848388671876,-0.08794210851192474,0.5294931530952454,0.023859526962041855
1782952438230775300,8.854775390625,-0.08119605481624603,0.5147767663002014,0.08366213738918304
1782952438240702200,8.8647021484375,-0.08150551468133926,0.4556788504123688,0.145346537232399
1782952438250630400,8.87463037109375,-0.08304934948682785,0.38136520981788635,0.20977745950222015
1782952438260557000,8.88455712890625,-0.09964589774608612,0.3201708197593689,0.29002729058265686
1782952438270484200,8.894484130859375,-0.10380548983812332,0.2820620536804199,0.36856257915496826
1782952438280411100,8.9044111328125,-0.10883860290050507,0.2580088973045349,0.43353039026260376
1782952438290338300,8.91433837890625,-0.1364995241165161,0.2528679370880127,0.4909052848815918
1782952438300266200,8.924266357421875,-0.16435298323631287,0.23635713756084442,0.5420536994934082
1782952438310193400,8.934193359375,-0.18112237751483917,0.22562913596630096,0.5904310941696167
1782952438320120300,8.944120361328125,-0.18524575233459473,0.20082364976406097,0.6332719922065735
1782952438330047500,8.954047607421876,-0.17633987963199615,0.14143621921539307,0.6632203459739685
1782952438339975400,8.963975341796875,-0.1561770886182785,0.05614129826426506,0.6678789854049683
1782952438349902000,8.973902099609376,-0.11284026503562927,-0.024929851293563843,0.6085088849067688
1782952438359829200,8.983829345703125,-0.03243623673915863,-0.1156001016497612,0.4815802276134491
1782952438369757200,8.993757080078124,0.045703038573265076,-0.18606601655483246,0.3634099066257477
1782952438379684000,9.00368408203125,0.09570948034524918,-0.2398328334093094,0.2834889590740204
1782952438389611300,9.013611328125,0.10638609528541565,-0.35694801807403564,0.2505747079849243
1782952438399538200,9.0235380859375,0.11542513221502304,-0.49393782019615173,0.26297223567962646
1782952438409466400,9.03346630859375,0.12995001673698425,-0.5445818305015564,0.33987581729888916
1782952438419393300,9.043393310546875,0.12446709722280502,-0.5235023498535156,0.4597979485988617
1782952438429320400,9.053320556640625,0.094368577003479,-0.48201003670692444,0.5475416779518127
1782952438439247400,9.063247314453125,0.07551313191652298,-0.41697460412979126,0.5381913185119629
1782952438449174300,9.07317431640625,0.06247429549694061,-0.35588300228118896,0.43953609466552734
1782952438459102200,9.083102294921876,0.04758536070585251,-0.3172019124031067,0.2591775059700012
1782952438469029000,9.093029052734375,0.03988802805542946,-0.2682413160800934,0.14720383286476135
1782952438478956300,9.102956298828126,0.021524732932448387,-0.2568190097808838,0.038957253098487854
1782952438488884200,9.11288427734375,0.032124113291502,-0.24062059819698334,-0.049429334700107574
1782952438498811100,9.12281103515625,0.059173308312892914,-0.21525612473487854,-0.13697250187397003
1782952438508738300,9.13273828125,0.08672930300235748,-0.1879238337278366,-0.24185897409915924
1782952438518665200,9.142665283203126,0.0905834287405014,-0.15495708584785461,-0.3370581865310669
1782952438528593400,9.152593505859375,0.07243851572275162,-0.10360255837440491,-0.4198169708251953
1782952438538520300,9.162520263671874,0.05319451168179512,-0.02875867672264576,-0.4678875803947449
1782952438548447500,9.172447509765625,0.03044978529214859,0.003335342975333333,-0.4663546681404114
1782952438558374100,9.1823740234375,0.013104083947837353,-0.0070587084628641605,-0.39910292625427246
1782952438568302000,9.192302001953125,-0.0018913770327344537,-0.06422878801822662,-0.2719250023365021
1782952438578229200,9.202229248046875,-0.017975538969039917,-0.1100362241268158,-0.12903068959712982
1782952438588156200,9.21215625,-0.011623899452388287,-0.13637675344944,-0.030734477564692497
1782952438598083300,9.222083251953125,0.0006809702608734369,-0.1378484070301056,0.002558765234425664
1782952438608011300,9.23201123046875,-0.0018335863715037704,-0.11698786914348602,-0.01996811479330063
1782952438617938200,9.241938232421875,-0.020363861694931984,-0.06536275893449783,-0.06951010227203369
1782952438627865300,9.251865234375,-0.05393460392951965,-0.01852894388139248,-0.13069969415664673
1782952438637792300,9.261792236328125,-0.09736809879541397,0.05811310559511185,-0.1955053210258484
1782952438647720400,9.271720458984374,-0.13666170835494995,0.15242815017700195,-0.2473466843366623
1782952438657647400,9.2816474609375,-0.17339761555194855,0.23875105381011963,-0.29421699047088623
1782952438667574300,9.29157421875,-0.20220449566841125,0.30212897062301636,-0.3401415944099426
1782952438677501200,9.301501220703125,-0.22477425634860992,0.3305222690105438,-0.40445640683174133
1782952438687429000,9.31142919921875,-0.23115278780460358,0.3234209418296814,-0.4939330220222473
1782952438697356300,9.321356201171875,-0.2287255823612213,0.24789048731327057,-0.6110945343971252
1782952438707283200,9.331283203125,-0.23098474740982056,0.14031130075454712,-0.7246977686882019
1782952438717209300,9.341209228515625,-0.2160867601633072,0.07103103399276733,-0.7572349905967712
1782952438727137300,9.35113720703125,-0.18257008492946625,0.06197415664792061,-0.6812757253646851
1782952438737064400,9.361064453125,-0.1582663357257843,0.07518529891967773,-0.5231002569198608
1782952438746991000,9.3709912109375,-0.1579936295747757,0.10620180517435074,-0.30696341395378113
1782952438756918300,9.380918212890625,-0.16179849207401276,0.19309142231941223,-0.037627268582582474
1782952438766846200,9.39084619140625,-0.15600158274173737,0.3386465013027191,0.26502659916877747
1782952438776773000,9.400773193359376,-0.11576788127422333,0.4182609021663666,0.49257373809814453
1782952438786700300,9.4107001953125,-0.02690511755645275,0.39922356605529785,0.5595732927322388
1782952438796627200,9.420627197265626,0.10140039026737213,0.348108172416687,0.49371835589408875
1782952438806555400,9.430555419921875,0.246696338057518,0.2765516936779022,0.3073016107082367
1782952438816482300,9.440482421875,0.3603645861148834,0.15341432392597198,0.06587808579206467
1782952438826409200,9.4504091796875,0.42958465218544006,0.014449512585997581,-0.13210716843605042
1782952438836336400,9.46033642578125,0.44140616059303284,-0.10746360570192337,-0.24703428149223328
1782952438846264300,9.470264404296875,0.40469154715538025,-0.2579708397388458,-0.2908688485622406
1782952438856191200,9.480191162109374,0.3472418487071991,-0.40062570571899414,-0.26817500591278076
1782952438866117000,9.4901171875,0.2997150719165802,-0.48152536153793335,-0.2439013421535492
1782952438876043800,9.500043701171874,0.2596510052680969,-0.5086959600448608,-0.2957232594490051
1782952438885971700,9.5099716796875,0.21595360338687897,-0.5235825181007385,-0.39740169048309326
1782952438895899000,9.51989892578125,0.15004302561283112,-0.5241460800170898,-0.45951059460639954
1782952438905825800,9.52982568359375,0.08658469468355179,-0.5382160544395447,-0.4770624339580536
1782952438915753000,9.5397529296875,0.037935931235551834,-0.6122434139251709,-0.4678042232990265
1782952438925681000,9.549680908203126,-0.002380599733442068,-0.7050684094429016,-0.39547568559646606
1782952438935607800,9.55960791015625,-0.024466460570693016,-0.7822942137718201,-0.25616654753685
1782952438945535000,9.569534912109376,0.0054448326118290424,-0.8196666240692139,-0.10214820504188538
1782952438955462000,9.5794619140625,0.0621776208281517,-0.7702404856681824,-0.0037936728913336992
1782952438965390000,9.58939013671875,0.08993228524923325,-0.5585136413574219,0.028600219637155533
1782952438975317000,9.59931689453125,0.11043410003185272,-0.20607620477676392,-0.00350365461781621
1782952438985244000,9.609243896484376,0.12099912762641907,0.21590113639831543,-0.09071552008390427
1782952438995170800,9.6191708984375,0.11985716223716736,0.5769834518432617,-0.17154432833194733
1782952439005098800,9.6290986328125,0.11414681375026703,0.8108241558074951,-0.20460054278373718
1782952439015026000,9.63902587890625,0.12993375957012177,0.931806206703186,-0.18098948895931244
1782952439024952800,9.648952880859374,0.1634262055158615,0.9407262206077576,-0.12477868050336838
1782952439034880800,9.658880859375,0.1767617166042328,0.8761927485466003,-0.06915590167045593
1782952439044808000,9.668807861328125,0.17798064649105072,0.7841494083404541,-0.0020042951218783855
1782952439054738000,9.678738037109374,0.15077459812164307,0.7026867866516113,0.05498841777443886
1782952439064664800,9.688664794921875,0.11501660197973251,0.6421557664871216,0.10879572480916977
1782952439074592000,9.698592041015624,0.07189549505710602,0.6017665266990662,0.1567153036594391
1782952439084520000,9.70852001953125,0.026935476809740067,0.5931978225708008,0.20935988426208496
1782952439094446800,9.71844677734375,-0.02418443188071251,0.5993308424949646,0.2733580470085144
1782952439104374000,9.7283740234375,-0.06380268186330795,0.6045114398002625,0.35684654116630554
1782952439114301000,9.738301025390625,-0.0902571901679039,0.5763357281684875,0.4345264136791229
1782952439124228900,9.748228759765626,-0.09197306632995605,0.5033957362174988,0.47930559515953064
1782952439134156000,9.758156005859375,-0.0735626369714737,0.39285674691200256,0.47518783807754517
1782952439144082700,9.768082763671876,-0.06744562089443207,0.29135435819625854,0.44688668847084045
1782952439154009900,9.778009765625,-0.06700246781110764,0.22199444472789764,0.39810290932655334
1782952439163937800,9.787937744140624,-0.058872371912002563,0.17257656157016754,0.3555288016796112
1782952439173865000,9.797864990234375,-0.05072709172964096,0.1584112048149109,0.3414750397205353
1782952439183791900,9.8077919921875,-0.028924591839313507,0.16141952574253082,0.3444330096244812
1782952439193718800,9.81771875,0.0010817759903147817,0.1444069743156433,0.36161279678344727
1782952439203647000,9.82764697265625,0.04416320100426674,0.10814404487609863,0.40585002303123474
1782952439213574000,9.837573974609375,0.08769523352384567,0.046069756150245667,0.45981845259666443
1782952439223501000,9.8475009765625,0.09428895264863968,-0.022184930741786957,0.4979589283466339
1782952439233428000,9.857427978515625,0.07735444605350494,-0.08352977782487869,0.4996090233325958
1782952439243356000,9.86735595703125,0.05565527081489563,-0.09172698855400085,0.4870849549770355
1782952439253282800,9.87728271484375,0.04712037369608879,-0.10398472100496292,0.4546620547771454
1782952439263209700,9.887209716796875,0.03612072020769119,-0.1799684315919876,0.3736598789691925
1782952439273137000,9.897136962890626,0.055817726999521255,-0.2591300904750824,0.30622598528862
1782952439283064800,9.90706494140625,0.06932474672794342,-0.38085708022117615,0.20356057584285736
1782952439292992000,9.916991943359376,0.0747128501534462,-0.5389782786369324,0.07107657194137573
1782952439302919000,9.9269189453125,0.06272969394922256,-0.6866651773452759,-0.06667516380548477
1782952439312845800,9.936845703125,0.05040698125958443,-0.7711337208747864,-0.16505900025367737
1782952439322774000,9.94677392578125,0.02124643325805664,-0.8025363683700562,-0.20498031377792358
1782952439332701000,9.956700927734374,-0.02480068802833557,-0.7961349487304688,-0.19209301471710205
1782952439342628000,9.966628173828125,-0.07535893470048904,-0.734251856803894,-0.13203100860118866
1782952439352554800,9.9765546875,-0.12834785878658295,-0.6413264870643616,-0.0725996345281601
1782952439362482700,9.986482666015625,-0.16894134879112244,-0.5136334896087646,-0.04495735466480255
1782952439372409900,9.996409912109375,-0.19146503508090973,-0.39102527499198914,-0.05705689266324043
1782952439382336800,10.006336669921875,-0.18798215687274933,-0.2626747786998749,-0.09683067351579666
1782952439392264000,10.016263916015625,-0.1757233589887619,-0.1733211874961853,-0.1423688679933548
1782952439402192000,10.02619189453125,-0.17216376960277557,-0.10698157548904419,-0.1740034818649292
1782952439412118800,10.036118896484375,-0.1796099692583084,-0.06585518270730972,-0.1908080279827118
1782952439422046000,10.0460458984375,-0.18812036514282227,-0.014998123981058598,-0.19551889598369598
1782952439431972900,10.055972900390625,-0.1972033530473709,0.05383846536278725,-0.18473975360393524
1782952439441901000,10.065901123046874,-0.1983911246061325,0.15155251324176788,-0.18604284524917603
1782952439451828000,10.075827880859375,-0.1957644373178482,0.2757876515388489,-0.20610842108726501
1782952439461755000,10.0857548828125,-0.19232283532619476,0.42582881450653076,-0.24718742072582245
1782952439471681800,10.095681884765625,-0.19260486960411072,0.5616745352745056,-0.3042685389518738
1782952439481609700,10.105609619140624,-0.19675034284591675,0.6713621616363525,-0.37415069341659546
1782952439491537000,10.115536865234375,-0.19746381044387817,0.7331493496894836,-0.4359022080898285
1782952439501463800,10.1254638671875,-0.18102118372917175,0.7256544232368469,-0.4725227952003479
1782952439511391000,10.135390869140625,-0.19119632244110107,0.6372803449630737,-0.49489283561706543
1782952439521319000,10.14531884765625,-0.20128092169761658,0.4586551785469055,-0.4613274037837982
1782952439531245800,10.155245849609376,-0.19281472265720367,0.2705470621585846,-0.335485577583313
1782952439541173000,10.165173095703125,-0.17279867827892303,0.12770655751228333,-0.10756054520606995
1782952439551100000,10.175099853515626,-0.1762714385986328,0.02285764552652836,0.162736713886261
1782952439561028000,10.185028076171875,-0.14875619113445282,-0.01606099121272564,0.3720574378967285
1782952439570954800,10.194954833984376,-0.06274540722370148,0.025239309296011925,0.44379448890686035
1782952439580882000,10.2048818359375,0.04896274954080582,0.09950076043605804,0.3193385899066925
1782952439590808800,10.214808837890626,0.17246390879154205,0.1649508774280548,0.044189032167196274
1782952439600736800,10.22473681640625,0.28053018450737,0.1946517676115036,-0.28675639629364014
1782952439610664000,10.234663818359374,0.36761581897735596,0.1549866497516632,-0.5630319118499756
1782952439620590800,10.2445908203125,0.4274698495864868,0.07995688170194626,-0.6972752213478088
1782952439630518000,10.25451806640625,0.46095722913742065,-0.031326763331890106,-0.6358795166015625
1782952439640446000,10.264446044921876,0.48359328508377075,-0.22015659511089325,-0.42684265971183777
1782952439650372900,10.274372802734375,0.481889933347702,-0.3876763582229614,-0.1715555042028427
1782952439660299800,10.2842998046875,0.4454491138458252,-0.432762086391449,0.036186233162879944
1782952439670226700,10.294226806640625,0.3749150335788727,-0.3788546323776245,0.11423096805810928
1782952439680155000,10.30415478515625,0.2868080735206604,-0.29971614480018616,0.0609632171690464
1782952439690081800,10.314081787109375,0.19003811478614807,-0.21591845154762268,-0.060331784188747406
1782952439700009000,10.324009033203126,0.09836145490407944,-0.12196345627307892,-0.17961131036281586
1782952439709935900,10.333935791015625,0.023385750129818916,-0.06806053966283798,-0.25580033659935
1782952439719863800,10.34386376953125,-0.028392227366566658,-0.0872318372130394,-0.26741093397140503
1782952439729791000,10.353791015625,-0.0266510508954525,-0.19459877908229828,-0.2048700600862503
1782952439739718000,10.3637177734375,0.02334793284535408,-0.3727104663848877,-0.12436109781265259
1782952439749645000,10.37364501953125,0.10489285737276077,-0.5434648990631104,-0.058328285813331604
1782952439759573000,10.383572998046875,0.16902151703834534,-0.6469148397445679,-0.007274424657225609
1782952439769500000,10.3935,0.21436475217342377,-0.6510621905326843,0.007999869994819164
1782952439779426800,10.4034267578125,0.23793426156044006,-0.5576217174530029,-0.03493880853056908
1782952439789354800,10.413354736328126,0.2222527712583542,-0.3876614570617676,-0.11364640295505524
1782952439799282000,10.423281982421875,0.1862843930721283,-0.19148580729961395,-0.18389180302619934
1782952439809208800,10.433208740234376,0.1496688574552536,-0.018577944487333298,-0.20686236023902893
1782952439819136000,10.443135986328125,0.110814668238163,0.11454841494560242,-0.17445063591003418
1782952439829064000,10.45306396484375,0.0706653818488121,0.21648330986499786,-0.10085151344537735
1782952439838990800,10.462990966796875,0.04711691290140152,0.29825353622436523,-0.007682687137275934
1782952439848918000,10.47291796875,0.03315369039773941,0.3829982578754425,0.09642187505960464
1782952439858845000,10.482844970703125,0.03357580304145813,0.4640321135520935,0.20246203243732452
1782952439868773000,10.492773193359374,0.027119236066937447,0.512404203414917,0.3025100529193878
1782952439878700300,10.5027001953125,0.031263113021850586,0.5504003167152405,0.3658807873725891
1782952439888627200,10.512627197265624,0.04059722647070885,0.5800048112869263,0.3928340971469879
1782952439898554000,10.52255419921875,0.051240283995866776,0.5347108244895935,0.36719852685928345
1782952439908482000,10.53248193359375,0.04045421630144119,0.3903113007545471,0.3121754825115204
1782952439918409200,10.5424091796875,0.06493798643350601,0.22415053844451904,0.26285773515701294
1782952439928336100,10.552336181640625,0.12281939387321472,0.08598201721906662,0.24927374720573425
1782952439938263300,10.56226318359375,0.17341865599155426,-0.011286476626992226,0.28214195370674133
1782952439948191200,10.572191162109375,0.2238416224718094,-0.003909520339220762,0.30091243982315063
1782952439958118100,10.5821181640625,0.26622235774993896,-0.14955806732177734,0.30395856499671936
1782952439968045300,10.59204541015625,0.3033055365085602,-0.34712812304496765,0.38573676347732544
1782952439977972200,10.60197216796875,0.27147170901298523,-0.3687386214733124,0.4644571542739868
1782952439987900200,10.611900146484375,0.21321401000022888,-0.22057472169399261,0.44677403569221497
1782952439997827300,10.621827392578124,0.16361317038536072,-0.14641393721103668,0.2899678945541382
1782952440007754000,10.63175390625,0.09752842038869858,-0.16495487093925476,0.11622381210327148
1782952440017681200,10.64168115234375,0.0019377160351723433,0.0312841534614563,0.041739724576473236
1782952440027609000,10.651609130859375,-0.10333012044429779,0.25920119881629944,-0.05724118649959564
1782952440037536300,10.661536376953125,-0.11350232362747192,0.20181594789028168,-0.1847408264875412
1782952440047463200,10.671463134765625,-0.10203741490840912,-0.10448459535837173,-0.3323204219341278
1782952440057390300,10.681390380859375,-0.0864451453089714,-0.36315158009529114,-0.41900497674942017
1782952440067318300,10.691318359375,-0.10300547629594803,-0.4655724763870239,-0.4247922897338867
1782952440077245200,10.7012451171875,-0.17156988382339478,-0.36972665786743164,-0.40280285477638245
1782952440087172400,10.71117236328125,-0.30111801624298096,-0.3239351809024811,-0.3898862600326538
1782952440097099000,10.72109912109375,-0.38880208134651184,-0.39316993951797485,-0.35182303190231323
1782952440107027200,10.731027099609374,-0.41892296075820923,-0.3823862671852112,-0.3524605929851532
1782952440116954000,10.7409541015625,-0.4371640086174011,-0.27772748470306396,-0.34813639521598816
1782952440126881000,10.750881103515624,-0.46419671177864075,-0.15102547407150269,-0.25157150626182556
1782952440136808200,10.76080810546875,-0.4817962050437927,0.017708422616124153,-0.060741908848285675
1782952440146736000,10.770736083984374,-0.44568267464637756,0.17317843437194824,0.16784518957138062
1782952440156663300,10.780663330078125,-0.35684919357299805,0.2520141303539276,0.37925198674201965
1782952440166590200,10.790590087890624,-0.24747078120708466,0.25818920135498047,0.5075359344482422
1782952440176517400,10.800517333984375,-0.14238616824150085,0.19362671673297882,0.5540844798088074
1782952440186445300,10.8104453125,-0.05017182230949402,0.14600594341754913,0.5667569041252136
1782952440196372200,10.820372314453126,0.03588156774640083,0.18269231915473938,0.5662897825241089
1782952440206299100,10.830299072265625,0.11335771530866623,0.19956104457378387,0.5298976898193359
1782952440216226000,10.84022607421875,0.19989900290966034,0.1653527468442917,0.4259587526321411
1782952440226154000,10.850154052734375,0.2630699872970581,0.1006120964884758,0.2728397846221924
1782952440236081200,10.8600810546875,0.2926267981529236,0.03284050524234772,0.11489995568990707
1782952440246008000,10.870008056640625,0.2832777798175812,-0.01738538220524788,-0.005394499283283949
1782952440255935200,10.879935302734374,0.22202934324741364,-0.05290316045284271,-0.0976884737610817
1782952440265863200,10.88986328125,0.13909024000167847,-0.04272296279668808,-0.18667614459991455
1782952440275790300,10.899790283203124,0.0550488717854023,-0.0364762507379055,-0.22012144327163696
1782952440285717200,10.90971728515625,-0.04735579714179039,-0.05266347900032997,-0.16811683773994446
1782952440295644200,10.91964404296875,-0.12910312414169312,-0.06812658905982971,-0.10196071863174438
1782952440305572400,10.929572265625,-0.22247621417045593,-0.12243670225143433,0.00401631323620677
1782952440315499000,10.9394990234375,-0.30549731850624084,-0.15747004747390747,0.10212130844593048
1782952440325426200,10.94942626953125,-0.3528192937374115,-0.17618036270141602,0.15125955641269684
1782952440335353000,10.95935302734375,-0.35135191679000854,-0.17276139557361603,0.10021501779556274
1782952440345281000,10.969281005859376,-0.27854108810424805,-0.12566044926643372,-0.02713388204574585
1782952440355208200,10.979208251953125,-0.1769460141658783,-0.04132666811347008,-0.19182482361793518
1782952440365135000,10.989135009765626,-0.04958432912826538,0.10947403311729431,-0.30712398886680603
1782952440375062300,10.999062255859375,0.10337911546230316,0.18602685630321503,-0.2816506028175354
1782952440384990200,11.008990234375,0.1181788370013237,0.1161218136548996,0.07484254986047745
1782952440394917400,11.01891748046875,-0.02973153069615364,-0.0906529352068901,0.4211634695529938
1782952440404844300,11.02884423828125,-0.15357251465320587,-0.29013168811798096,0.6315335035324097
1782952440414771200,11.038771240234375,-0.13920316100120544,-0.2484087496995926,0.713542103767395
1782952440424699100,11.04869921875,-0.05938902497291565,-0.15319646894931793,0.6596487760543823
1782952440434626000,11.0586259765625,0.03214728459715843,-0.05570906773209572,0.49423903226852417
1782952440444553200,11.06855322265625,0.14112676680088043,0.030069751664996147,0.27369439601898193
1782952440454480100,11.078480224609375,0.2302667647600174,0.003111637430265546,0.01931031420826912
1782952440464408000,11.088407958984375,0.3062371611595154,-0.10958215594291687,-0.22548584640026093
1782952440474335200,11.098335205078126,0.381240576505661,-0.24655066430568695,-0.4687530994415283
