time,seconds_elapsed,z,y,x
1782969997160888300,0.022888427734375,0.013821604603528976,-0.007468079991498962,-0.005600961812213063
1782969997170814000,0.03281396484375,0.024743396112322805,-0.0010646609562914818,-0.005429368104971945
1782969997180740000,0.042739990234375,0.029082886621356007,-0.018528951177420094,0.0018683876877650617
1782969997190667300,0.052667236328125,0.009029694151878357,-0.011137635349715128,-0.018727076698560267
1782969997200593200,0.06259326171875,0.018906360521912573,0.018096039652870967,-0.0011433065499179065
1782969997210519000,0.07251904296875,0.02145195335149765,-0.00953045588140376,-0.011981219167541711
1782969997220446200,0.0824462890625,0.016662380987405776,-0.007058074418501928,0.016610011479351667
1782969997230372000,0.0923720703125,0.02354629528224468,-0.009392709644837304,0.0064837177298031744
1782969997240298000,0.102298095703125,0.009779051214456557,0.0018337091000284998,-0.0013928791305050253
1782969997250225200,0.11222509765625,0.021001286974549293,-0.0004238331689499318,-0.012269662453792988
1782969997260151000,0.122151123046875,0.021747136905789374,0.004276343878637999,-0.024603932842705397
1782969997270077200,0.1320771484375,0.025337854874134064,-0.0030128906809259205,-0.00022359788911417125
1782969997280004000,0.142004150390625,0.02593874337673187,-0.012913750777300446,-0.001090389052592218
1782969997289930000,0.151929931640625,0.030129180803894994,-0.004686650845734402,-0.004879095544759184
1782969997299856100,0.161856201171875,0.01561257967352867,-0.010459142433106899,-0.0014935995586216448
1782969997309783300,0.171783203125,0.014563362881541251,-0.005218118240777403,-0.0013593787197023629
1782969997319709200,0.181709228515625,0.02623275788724422,-0.007142875758279115,0.002971709287166595
1782969997329635000,0.191635009765625,0.031467151409387585,0.001690355106582865,0.0028939861421473324
1782969997339562200,0.201562255859375,0.028021394869685173,-0.006679998353729024,-0.00670242024809122
1782969997349488000,0.211488037109375,0.025779168900847433,0.002973882977943867,-0.003522127977851778
1782969997359414000,0.2214140625,0.010067805027961731,-0.0053261451925151046,-0.0001857135641388595
1782969997369341200,0.231341064453125,0.01979191118478775,0.0025877788703422993,-0.005960990763641894
1782969997379267300,0.241267333984375,0.013058803537487984,0.00658785395771265,-0.007611296987626701
1782969997389193200,0.251193115234375,0.012909750455617904,0.006618641821620985,0.006405008204095065
1782969997399120400,0.261120361328125,0.01395604463815689,-0.0011452245123684407,-0.010298051853571086
1782969997409046500,0.271046630859375,0.028773090019822117,-0.007361596542876213,-0.003234506675507873
1782969997418972400,0.280972412109375,0.031767011138796805,-0.0016848660807125269,-0.00043565147090703245
1782969997428899600,0.290899658203125,0.017550854259729385,-0.006521830383641645,-0.002756367769744247
1782969997438825500,0.300825439453125,0.011714987713098526,-0.007972586314380168,-0.00328039164384827
1782969997448751400,0.31075146484375,0.007673018845915794,-0.010192627850873395,-0.0036279081735759973
1782969997458678500,0.320678466796875,0.01814531302154064,-0.018222405978897585,0.003190557935927063
1782969997468604400,0.3306044921875,0.015601473757624626,-0.0035910010961350053,-0.00872444586129859
1782969997478530300,0.3405302734375,0.020237901386618615,-0.019056062057754022,-0.015531751255970448
1782969997488457500,0.35045751953125,0.001980360162258148,-0.0045553160836454476,-0.014315562132932245
1782969997498383600,0.360383544921875,0.026222821015119552,-0.00359822542136535,-0.014602726777549832
1782969997508309200,0.370309326171875,0.009763853645324706,-0.004283823932195082,-0.024283596580848096
1782969997518236400,0.380236328125,0.025474048474431035,-0.0030056206899229435,-0.01496098389700055
1782969997528162600,0.39016259765625,0.026371289575099943,0.0011153864965308456,-0.010691270688548684
1782969997538088400,0.40008837890625,0.0238286193549633,-0.009654091394226998,0.011223843195289372
1782969997548015400,0.410015380859375,0.02412847908437252,-0.012548799055581912,0.005546254216600209
1782969997557941500,0.41994140625,0.0214367557823658,-0.0017620321033056823,-0.010751896568294613
1782969997567867400,0.429867431640625,0.012310030996799469,-0.0022758633769582957,-0.0019419278480112552
1782969997577794300,0.439794189453125,0.017843115204572678,-0.011806410589907317,0.0031655513588339087
1782969997587720400,0.449720458984375,0.02323006893992424,0.001189492912357673,-0.008329089868161827
1782969997597646600,0.459646484375,0.02068330706655979,-0.0038372492084745315,0.0003214139740914106
1782969997607573500,0.469573486328125,0.025320903739333152,-0.0037535255809314546,-0.0034276180948130783
1782969997617499400,0.47949951171875,0.018738602739572525,-0.0064738904555328184,0.001453614608105272
1782969997627425500,0.489425537109375,0.01604220326244831,-0.011650461976369842,-0.01427555891610682
1782969997637352400,0.4993525390625,0.02203063002228737,0.001949115640623495,-0.012032565762288868
1782969997647278300,0.5092783203125,0.011408113721013068,0.0024704361009877172,-0.016275664958450942
1782969997657204500,0.51920458984375,0.013953122028708458,0.0000969758347608149,-0.005582750302087516
1782969997667131400,0.52913134765625,0.010214520022273063,0.005567525333492085,-0.016757183131389318
1782969997677057500,0.5390576171875,0.010966799694299697,-0.006106016124365851,-0.00537343666665256
1782969997686983400,0.5489833984375,0.011865209838747977,0.0029522556680254635,0.004815528789255768
1782969997696909300,0.558909423828125,0.02578150698840618,-0.005695170301152393,-0.00538896302934736
1782969997706836500,0.56883642578125,0.023237667724490166,-0.006574985342985019,-0.00882354058790952
1782969997716762400,0.578762451171875,0.005880874732136726,-0.005775140202185139,0.011069620747957379
1782969997726688500,0.5886884765625,0.01201367839872837,-0.009254040959663689,-0.006114939216338097
1782969997736615400,0.598615478515625,0.019943302354216576,-0.005735529711004346,0.00497196145998314
1782969997746541600,0.60854150390625,0.011263736814260482,-0.01782612753715366,-0.011157098102010786
1782969997756467500,0.618467529296875,0.029222002831101417,0.011671660028025508,-0.0020464476684108374
1782969997766394400,0.628394287109375,0.025480478215217588,0.005659687995817512,0.00877182866698131
1782969997776320500,0.638320556640625,0.007523381242156029,0.0012663849403150378,-0.024784111715201288
1782969997786246400,0.648246337890625,0.010962123519182205,-0.010643942681793124,-0.012081409872695802
1782969997796173300,0.65817333984375,0.006174304720759392,0.0051272616195492445,-0.0037910263134166597
1782969997806099500,0.668099365234375,0.018594225832819937,-0.005912046188535168,-0.009203187555260955
1782969997816025600,0.678025634765625,0.0179945063740015,-0.006298150296136736,0.0011712905353866516
1782969997825952500,0.687952392578125,0.027866496568918226,0.0051068490191828455,-0.011608970055356622
1782969997835878400,0.69787841796875,0.027267946153879164,-0.007921458915341646,0.0012911357890814542
1782969997845804500,0.707804443359375,0.01230477029979229,0.005812713999906555,-0.014135584189835935
1782969997855731500,0.7177314453125,0.028912206229567528,-0.002370345860533416,-0.014353300327435136
1782969997865657300,0.7276572265625,0.03115560124218464,-0.0022798454323317854,0.006175382432993501
1782969997875583500,0.73758349609375,0.029210312393307684,0.003557318022241816,-0.013436185482516884
1782969997885510400,0.747510498046875,0.018732757520675658,0.004036169314058497,-0.014196502330526708
1782969997895436500,0.7574365234375,0.016190087300539016,0.0005222155095078051,-0.006099814712442458
1782969997905362400,0.767362548828125,0.0176852942943573,-0.004484086611494422,-0.0009887735753320156
1782969997915289300,0.777289306640625,0.0242687643378973,-0.008489367596944793,-0.014284929532650857
1782969997925215500,0.787215576171875,0.02037526403069496,0.005118548590131103,-0.014518208565562962
1782969997935141400,0.797141357421875,0.021721417942643165,-0.004093899983819574,0.006108180681988596
1782969997945068300,0.807068359375,0.02276946569085121,-0.015128686880413442,-0.010738817891012876
1782969997954994400,0.816994384765625,0.02426701077222824,-0.008044701702520252,-0.002471066288650036
1782969997964920600,0.826920654296875,0.017533318603038788,0.001366603044932708,-0.00271203543767333
1782969997974847200,0.83684716796875,0.017981646892428396,-0.004686148522235453,-0.013415215759724378
1782969997984773400,0.8467734375,0.025915947023034094,0.0023140308297239245,-0.00734314757073298
1782969997994699500,0.856699462890625,0.013048282143473625,-0.008586544361105189,-0.008759170114807783
1782969998004626400,0.86662646484375,0.01828384470939636,0.004244651832431555,-0.011901066603418439
1782969998014552300,0.87655224609375,0.021276596784591675,0.008095920433104038,-0.0001870104720816016
1782969998024478500,0.886478515625,0.007509937238693237,0.0030680914668831973,-0.0186469606670551
1782969998034405400,0.8964052734375,0.019332476979494095,-0.007981819933606311,0.0008225866955704987
1782969998044331300,0.906331298828125,0.023074586117267606,-0.004628089058911428,-0.018898286813311276
1782969998054257400,0.91625732421875,0.02367138296663761,-0.002478966467315331,-0.01567758946744725
1782969998064184300,0.926184326171875,0.014394436055421829,-0.0064767034671269355,-0.008256189028732479
1782969998074110500,0.9361103515625,0.01903495533764362,-0.0020730616807006297,-0.012811368115060031
1782969998084036400,0.946036376953125,0.026072598889470097,0.01179606272582896,-0.003074091949407011
1782969998093963300,0.95596337890625,0.018141221368312834,-0.0005739822293631732,-0.0053245560236275195
1782969998103889400,0.965889404296875,0.016643676286935805,-0.0023882103107869626,0.0072200691803358495
1782969998113815300,0.975815185546875,0.032203648990392686,-0.00018213336756452917,-0.013348141872882842
1782969998123742500,0.985742431640625,0.008860767325758934,0.00023953524376265704,-0.008898706449661403
1782969998133668400,0.99566845703125,0.004520692294836044,0.0031805845311842855,-0.01240691550001502
1782969998143594500,1.005594482421875,0.0344470440030098,0.003357256272342056,-0.016838851799163966
1782969998153521400,1.015521484375,0.04387421303987503,-0.02282641090932302,-0.0008317198500968515
1782969998163447300,1.025447265625,0.007360299634933471,-0.019266462538577615,-0.0036427221502177416
1782969998173373400,1.03537353515625,0.017388357174396515,-0.01119479976389557,-0.010631886917818337
1782969998183300600,1.045300537109375,0.017387772652506826,-0.00518346705250442,-0.00016395839005708694
1782969998193226200,1.055226318359375,0.02472059975862503,0.0037249296741094437,-0.017178532082308084
1782969998203152400,1.06515234375,0.020829437538981435,-0.010434683845285326,-0.0009284947554580867
1782969998213079600,1.07507958984375,0.011555413237214087,-0.012128555216360836,-0.003362918828148395
1782969998223005200,1.085005126953125,0.02831424033641815,-0.009248570200102403,-0.01427725768284872
1782969998232931300,1.094931396484375,0.015594459494948386,-0.007022838708339259,0.0030137035316787656
1782969998242857500,1.104857421875,0.016341478469967842,-0.008781984734814613,-0.0017534743375144898
1782969998252784400,1.114784423828125,0.019185177463293075,-0.010495939912693575,-0.009635167498048394
1782969998262710300,1.124710205078125,0.022176175972819328,-0.023712619159324093,-0.0019600297602824866
1782969998272636400,1.134636474609375,0.018732757520675658,0.008251905579259618,-0.013477558672521263
1782969998282563300,1.144563232421875,0.01050268931388855,0.004072765864245593,-0.016051628677919507
1782969998292489500,1.154489501953125,0.013794132074713706,-0.008749909096118062,-0.013491331469547002
1782969998302415400,1.164415283203125,0.02112988179028034,-0.0048577604957856235,0.0037637547140009697
1782969998312342500,1.174342529296875,0.016490531551837922,-0.0011398633506614715,-0.0033653482472524045
1782969998322268400,1.184268310546875,0.020081834042072293,-0.010573772655567153,-0.013130042142793535
1782969998332194300,1.1941943359375,0.027561960664391517,-0.009241839065216481,-0.01165985999237746
1782969998342121500,1.20412158203125,0.02636369079053402,-0.009018195510329678,0.0004792531506158411
1782969998352047400,1.21404736328125,0.010052607458829878,-0.000951565103791654,-0.006195329242479055
1782969998361973500,1.223973388671875,0.017235796961188314,-0.007281279581971466,-0.010237024115025996
1782969998371900400,1.233900390625,0.014989479339122772,-0.008661618891311808,-0.00651177478050813
1782969998381826300,1.243826416015625,0.025912439891695976,-0.0017821707090362906,0.005782035733852535
1782969998391752400,1.25375244140625,0.014687866044044495,0.000706750896712765,0.004477583805471658
1782969998401679400,1.263679443359375,0.02680675838291645,-0.006322965076984838,0.014923811958078294
1782969998411605200,1.273605224609375,0.01812485475540161,-0.011508971146447583,0.0027975034977309405
1782969998421531400,1.283531494140625,0.021267828956246376,-0.0007757427460048347,0.006239606775622814
1782969998431458600,1.29345849609375,0.030696167036890983,-0.007331721994420513,0.0016497582347132264
1782969998441384200,1.30338427734375,0.02530745973587036,-0.0008815503411926329,-0.007981335876416414
1782969998451310300,1.313310302734375,0.023065233767032622,0.003146554397419095,-0.017706866805348543
1782969998461237500,1.323237548828125,0.01647884111404419,-0.005022568269213662,0.0022804938863031565
1782969998471163400,1.333163330078125,0.02021978120803833,0.006473726058751344,-0.002756605231761932
1782969998481089300,1.34308935546875,0.028450433936715123,-0.005994308511354029,0.014435115125682204
1782969998491016400,1.353016357421875,0.010492752441763877,-0.015714386947033927,0.0008905008326284587
1782969998500942600,1.362942626953125,0.010339607706665992,0.009004176118131726,-0.012244345349445938
1782969998510868200,1.3728681640625,0.012883446970582007,0.000014585647778585553,0.000046158962976187466
1782969998520794400,1.38279443359375,0.015278817674517631,0.009443471717694774,-0.00360153162330389
1782969998530721500,1.392721435546875,0.029643443113565444,-0.012663127883942797,0.0023578334388323127
1782969998540647200,1.402647216796875,0.01692366227209568,0.0028694270896259693,-0.0057599882988259195
1782969998550573300,1.4125732421875,0.014379823008179663,0.007719342205673455,-0.010170443418528885
1782969998560500500,1.42250048828125,0.029793665239214895,-0.0012591240824665873,0.004988035811949521
1782969998570426400,1.43242626953125,0.027401217144727704,0.005146669572917744,-0.002125266791973263
1782969998580352300,1.442352294921875,0.024555180063843725,0.00243990396540612,-0.005168525211699307
1782969998590279400,1.452279541015625,0.018418869265913962,0.0037559458668809382,0.018549966565985232
1782969998600205300,1.462205322265625,0.02021276694536209,-0.000024221125803887843,-0.00494664435563609
1782969998610131200,1.472131103515625,0.017525135296583175,-0.00598759564277716,-0.00326641791742295
1782969998620058400,1.482058349609375,0.02111585326492786,0.013326688092900439,-0.0020298253271728755
1782969998629984300,1.491984375,0.031737785044312475,-0.005065704158041626,-0.00938683702647686
1782969998639910400,1.501910400390625,0.01722293747961521,-0.0038470034175086764,0.0056728945372626184
1782969998649837300,1.51183740234375,0.020363573592901228,0.007350189232872798,0.002978230359498411
1782969998659763500,1.521763427734375,0.015728315007686615,-0.00794388080970384,0.0012643391137011348
1782969998669689300,1.531689453125,0.014980126988887786,-0.0006120674837380647,-0.0008279935230500996
1782969998679616500,1.541616455078125,0.011839490875601768,-0.0027138072696514426,-0.015329817209392785
1782969998689542400,1.55154248046875,0.02231470766067505,-0.005044953630957752,0.013123174010589718
1782969998699468300,1.56146826171875,0.011693360403180121,-0.003018032646924257,0.007572170553635805
1782969998709395500,1.5713955078125,0.02456102528274059,-0.00213223538887687,-0.0025270707922056316
1782969998719321300,1.5813212890625,0.023213702327013013,-0.0047102783164940775,0.006996288628131151
1782969998729247200,1.591247314453125,0.019772037440538404,-0.006030128743406385,-0.003259458453673869
1782969998739174400,1.60117431640625,0.019323709151148796,-0.01213671112335287,0.006567066898010671
1782969998749100500,1.6111005859375,0.02067161662876606,-0.00616707126237452,-0.0021780198925174772
1782969998759026200,1.621026123046875,0.02216682362258434,0.009041548986453563,-0.01503267916003242
1782969998768953300,1.630953369140625,-0.0016290625065565108,0.003667765259929001,-0.0050966290192678565
1782969998778879500,1.64087939453125,0.009894786548614502,0.0017711743909865616,0.0018003091539256274
1782969998788805400,1.650805419921875,0.02560556589961052,-0.006258064880920573,-0.010400982505083084
1782969998798731300,1.660731201171875,0.030691490861773488,-0.010675844790553673,-0.006467058855947107
1782969998808658400,1.670658447265625,0.019917583391070366,0.0006511847845744341,-0.008481339554116129
1782969998818584300,1.680584228515625,0.011535539492964745,-0.0023283424828667194,-0.01282965269042179
1782969998828510200,1.69051025390625,0.01796878741085529,0.0033052794899325814,-0.014473985831346362
1782969998838437400,1.700437255859375,0.03218494428992271,-0.006276093727955594,0.004614288862422109
1782969998848363500,1.710363525390625,0.02006546742916107,-0.004732517547765746,0.009280052183754741
1782969998858289400,1.720289306640625,0.01872048256099224,-0.004111791833536699,0.0010269136286340653
1782969998868216300,1.73021630859375,0.023958383214473723,0.004397075048321858,-0.020970983167830852
1782969998878142500,1.740142578125,0.012883446970582007,-0.00934859650847502,-0.008750183090753852
1782969998888068400,1.750068359375,0.022010171756148337,-0.018529599631391464,0.00231541906921193
1782969998897995500,1.75999560546875,0.03682663261592388,-0.004078729814151302,0.003716865098662674
1782969998907921400,1.76992138671875,0.018122516667842863,0.0018347137470263986,-0.006745547003764659
1782969998917847300,1.779847412109375,0.033086277043819425,0.009650821724906564,0.002516111006774008
1782969998927774500,1.7897744140625,0.02081540901362896,-0.004078026561252773,-0.0036199440628290175
1782969998937700400,1.799700439453125,0.013631634989380836,-0.00016339213447645305,-0.012258903597760945
1782969998947626200,1.809626220703125,0.01377484285235405,-0.008426494961185381,0.006626359337195754
1782969998957553400,1.819553466796875,0.005393383476138115,0.0010468513049650937,-0.018564433482754973
1782969998967479600,1.8294794921875,0.005094108268618583,0.004572705609863624,-0.0022035744588822124
1782969998977405200,1.8394052734375,0.021105331870913506,-0.005333259919891134,-0.004097644577175379
1782969998987332400,1.849332275390625,0.029033786782622334,-0.0031507099827285854,-0.013328834384214132
1782969998997258500,1.859258544921875,0.025590952852368353,-0.002042995335999876,-0.008201061308011412
1782969999007184400,1.869184326171875,0.025443068814277648,0.001320635878201574,0.007906005617883056
1782969999017110300,1.8791103515625,0.01721416965126991,0.0005474138828460127,-0.011451368340849876
1782969999027037400,1.889037353515625,0.013172785305976866,-0.006333943128725514,-0.002808043158054352
1782969999036963600,1.898963623046875,0.017663082462549207,-0.0175752580486238,-0.0050986383132636546
1782969999046889200,1.90888916015625,0.021102993783354757,-0.010616917677549645,-0.01150304372915998
1782969999056816400,1.91881640625,0.0243950210660696,0.01072280747112818,-0.01126649502692744
1782969999066742500,1.928742431640625,0.03277297331094742,-0.012616850189957767,-0.0012746413120068609
1782969999076668200,1.938668212890625,0.032923195436596865,0.004375539069948717,0.0012835370045155285
1782969999086595300,1.94859521484375,0.011375965017080306,-0.0007104406911414116,-0.006369443700369447
1782969999096521500,1.958521484375,0.010481062003970145,0.011556637079920619,-0.012849873494543135
1782969999106447400,1.968447265625,0.01586567765176296,-0.00003540010694414377,-0.009643825728539376
1782969999116374300,1.978374267578125,0.027387773141264914,0.004810916546219959,-0.005061393309105188
1782969999126300400,1.988300537109375,0.015718378135561942,-0.002486912311753258,-0.009764036308415233
1782969999136226300,1.998226318359375,0.015120412242412565,-0.0022393124925438315,-0.003939440074469894
1782969999146153500,2.008153564453125,0.011079027897119521,-0.004606954939337447,-0.003893408975657075
1782969999156079400,2.018079345703125,0.009731704941391944,-0.0024825831965077667,-0.007616356755234301
1782969999166005200,2.028005126953125,0.007638532054424285,0.0017195264021400362,-0.012794051654078065
1782969999175932400,2.037932373046875,0.02035948193967342,-0.0006472757944371551,-0.0018525507978163658
1782969999185858600,2.047858642578125,0.018114333361387253,-0.007832438058173283,0.002534432114753872
1782969999195784400,2.057784423828125,0.0202121824234724,0.001770507670706138,-0.001131597845815122
1782969999205711400,2.06771142578125,0.019316694888472555,-0.009604818025557323,-0.005905625580903143
1782969999215637500,2.077637451171875,0.025751111850142477,-0.008136389440810307,-0.002292312188260257
1782969999225563400,2.0875634765625,0.013180384090542792,0.004337453815573826,0.0010156798485666512
1782969999235489300,2.0974892578125,0.01886778207719326,0.004180390957184136,-0.019852354401443152
1782969999245416400,2.10741650390625,0.023355741146206855,-0.004585656422981992,-0.014464505616948007
1782969999255342600,2.117342529296875,0.034579145950078966,-0.007620402742689475,0.010979896637890488
1782969999265268200,2.127268310546875,0.016174889731407165,-0.0007244692164938896,0.009403221905697137
1782969999275195400,2.1371953125,0.018572014001011848,-0.005811444491427392,-0.004137866989709436
1782969999285121500,2.14712158203125,0.013780103549361229,-0.008206139341928065,-0.007202296061627566
1782969999295047200,2.157047119140625,0.016921324184536932,-0.002259551562974229,-0.0037773265816271303
1782969999304974300,2.166974365234375,0.024253566768765448,0.008429956426750868,-0.001583360201306641
1782969999314900500,2.176900390625,0.01871697542965412,0.0012051745386794208,0.02192134269522503
1782969999324826400,2.186826416015625,0.012580664631724357,-0.0036649522483348843,-0.010835099606029689
1782969999334753300,2.196753173828125,0.02155950537919998,-0.01795091382744722,-0.0030017390992492436
1782969999344679400,2.206679443359375,0.016623218020796776,-0.016959610368311406,0.0015648746965453027
1782969999354605300,2.216605224609375,0.013927987587451934,0.0011903605620376765,-0.005720149478781968
1782969999364532500,2.226532470703125,0.012581249153614044,-0.011241990773333236,0.00011831088373437523
1782969999374458400,2.236458251953125,0.01587327643632889,-0.00003240443225950003,-0.008109875893220306
1782969999384384500,2.246384521484375,0.027397125491499898,-0.005983366992231458,-0.009181669843196868
1782969999394311200,2.256311279296875,0.025301029995083806,0.003616829657135531,0.007031707001384347
1782969999404237000,2.266237060546875,0.020660510712862012,-0.006468465361744165,-0.0019046097786165773
1782969999414163200,2.2761630859375,0.03711947808265686,0.0038691239177715032,0.0025057722758501768
1782969999424089000,2.286089111328125,0.027694062611460683,-0.0017576390559785066,-0.0012724493549205363
1782969999434016300,2.296016357421875,0.026494623693823813,0.009182674490194767,-0.013562789270561188
1782969999443942100,2.305942138671875,0.024400866284966467,-0.002235522233415395,-0.005649257933348417
1782969999453868000,2.315867919921875,0.026195933008193967,0.0009347509663086384,-0.014640117912180721
1782969999463795200,2.325795166015625,0.024700726014375684,-0.01610252774809487,-0.008321874676086008
1782969999473721000,2.33572119140625,0.01661854184567928,0.006107614426407963,0.003998020127601921
1782969999483647200,2.345647216796875,0.020509119543433187,-0.001851080359937623,0.0028534349360503255
1782969999493574100,2.35557421875,0.02589607327878475,-0.0023578973709139973,0.00979918068703264
1782969999503500300,2.365500244140625,0.02394903086423874,-0.009010715456772594,-0.020071312648057938
1782969999513426200,2.37542626953125,0.00988134254515171,0.007819295448809861,0.0061640573213808236
1782969999523353000,2.38535302734375,0.023646833047270773,0.002168311349255964,-0.002495031686127186
1782969999533279200,2.395279296875,0.03337561537921428,-0.00723702031513676,0.004088164362777025
1782969999543205000,2.405205078125,0.02724105814695358,0.00024670477006584403,-0.0233219667407684
1782969999553132000,2.415132080078125,0.02260170790851116,-0.00007359495917335152,-0.016516067851893603
1782969999563058200,2.42505810546875,0.020958616876602172,-0.004378251616843044,-0.016133772269729525
1782969999572984300,2.434984375,0.012430442506074904,-0.018064046212565153,-0.0015871047946624456
1782969999582911000,2.444910888671875,0.03517418923377991,-0.005071375847002491,0.004174253477342426
1782969999592837000,2.454837158203125,0.022902152159810066,-0.009007938977796583,-0.013012955101765691
1782969999602763300,2.46476318359375,0.021702713242173193,0.0010029573643114418,0.006446198731008917
1782969999612690200,2.474690185546875,0.02798690807819366,0.003947477250453084,-0.014235336503572761
1782969999622616000,2.484615966796875,0.028733927053213117,0.003273359114862978,0.004913892863504589
1782969999632542200,2.494542236328125,0.01676291875243187,0.0029850436927750705,0.0037346564836800095
1782969999642468000,2.504468017578125,0.02125146234333515,-0.0009471629233099519,-0.008315097875427455
1782969999652395000,2.51439501953125,0.028581951361894606,0.004356889168405905,-0.009162344088219105
1782969999662321200,2.524321044921875,0.028432898280024526,-0.0052013771685305975,0.0013902670483104884
1782969999672247300,2.534247314453125,0.025440146204829213,0.0017236728542950003,-0.003280574306938797
1782969999682174200,2.54417431640625,0.01975391726195812,0.014471255018142982,-0.004209452654886991
1782969999692100000,2.55410009765625,0.020056115078926084,-0.007692673394456505,-0.0037982780381105837
1782969999702026200,2.564026123046875,0.02245265482664108,0.0021032558895647526,-0.0005771970997564494
1782969999711953200,2.573953125,0.033227146819233895,-0.008563592743780463,-0.001952303111553192
1782969999721879000,2.583879150390625,0.026493454650044438,-0.0024208339387550948,-0.004193213906139135
1782969999731805200,2.59380517578125,0.02305529689490795,0.0063754533160477874,0.0005227086998522281
1782969999741732000,2.603732177734375,0.0196153855741024,0.005791223687306046,0.007694025101326406
1782969999751658200,2.613658203125,0.018266309052705765,0.00045547954938374456,-0.01616290703266859
1782969999761584000,2.623584228515625,0.03308101634681224,0.003938508492708206,-0.008021174696460366
1782969999771511000,2.633510986328125,0.015271803411841391,-0.002455886985827237,-0.01269113926887512
1782969999781437200,2.643437255859375,0.017366145342588422,-0.008113739217584952,-0.006998754579853266
1782969999791363000,2.653363037109375,0.01541734936237335,0.000971155720250681,-0.008661080035194755
1782969999801290000,2.6632900390625,0.012575403934717178,-0.0033349165763705965,0.0006825389040634036
1782969999811216100,2.673216064453125,0.024098083946108816,-0.007074815490748733,-0.0023595139392651615
1782969999821142300,2.683142333984375,0.023050620719790457,0.008822691204538569,-0.014960947364382445
1782969999831068200,2.693068115234375,0.01646656615436077,0.009685801706742495,-0.013125767826475203
1782969999840995000,2.7029951171875,0.015269465324282645,0.00488105917298235,-0.009679737292136996
1782969999850921200,2.712921142578125,0.017061609438061714,0.004495046396926045,-0.0005405548837967216
1782969999860847400,2.722847412109375,0.019005144721269608,-0.004685244339937344,0.012532788635697215
1782969999870774000,2.73277392578125,0.027235212928056717,-0.003310156594449654,0.006487918980885297
1782969999880700200,2.7427001953125,0.029480361506342888,-0.0051786264806054525,0.0029212760078720745
1782969999890626300,2.752626220703125,0.0014940379500389099,0.00791375966607593,-0.0001863346186466515
1782969999900553200,2.76255322265625,0.0059866731941699974,-0.0005857731318566948,0.006292999196983873
1782969999910479000,2.77247900390625,0.01736030012369156,-0.0018785985545255242,-0.004478752849251031
1782969999920405200,2.7824052734375,0.013616437420248985,0.00015237755011767148,-0.02293019094420597
1782969999930332200,2.792332275390625,0.024089900639653203,-0.015200802268553524,-0.004508125074207782
1782969999940258000,2.802258056640625,0.02154606137573719,-0.0008216368474997579,0.003411068818811327
1782969999950184200,2.81218408203125,0.02289279980957508,0.0025144031068775803,0.0009949110551737248
1782969999960111000,2.822111083984375,0.01795358984172344,-0.0030922029948327687,0.0009973404742777347
1782969999970037200,2.832037353515625,0.01720247921347618,0.0030218959712889045,0.0021142704739235342
1782969999979963100,2.841963134765625,0.030965631628036498,0.0015194737853948025,-0.006901687413547188
1782969999989890000,2.85189013671875,0.01779576893150806,-0.0058741344640962775,-0.001928776105493307
1782969999999816200,2.861816162109375,0.019289806881546974,0.007530980026721954,-0.003946417804528027
1782970000009742000,2.8717421875,0.011357260316610336,-0.0049962099852506065,0.001067775361984968
1782970000019668200,2.881668212890625,0.010313888743519782,-0.00991276972987689,-0.007153433684911579
1782970000029595100,2.89159521484375,0.014802432334423065,0.0052056697511579835,0.01501485124239698
1782970000039521300,2.901521240234375,0.016447276932001112,0.0016886380735319107,0.011421393327694386
1782970000049447200,2.911447265625,0.02826806310713291,0.010103460863232612,0.006340473334211855
1782970000059374000,2.9213740234375,0.01240706163048744,-0.0009348057652357965,0.01287670670254156
1782970000069300200,2.93130029296875,0.005225625693798065,-0.008928434867644683,0.008238087116461247
1782970000079226000,2.94122607421875,0.017345687076449394,-0.0015338585037738084,-0.01481954786600545
1782970000089153000,2.951153076171875,0.019442951616644857,-0.004741440639737993,-0.011024959622323513
1782970000099079200,2.9610791015625,0.019741057780385016,0.009427022906392812,0.0000199650757946074
1782970000109005300,2.97100537109375,0.014653379252552985,-0.007691476951213553,-0.006968213311117142
1782970000118932000,2.980931884765625,0.025429624810814858,-0.010151528655504807,0.008634429490286857
1782970000128858000,2.990858154296875,0.02213993561565876,-0.0031623547547496855,0.0012064531803131103
1782970000138784300,3.0007841796875,0.015855156257748602,-0.010498469796497375,0.004062025274522602
1782970000148711200,3.010711181640625,0.023633389043807983,0.00783903219574131,-0.015423541641142218
1782970000158637000,3.020636962890625,0.02617664378583431,-0.011440244158636778,-0.009728417005762458
1782970000168563200,3.030563232421875,0.02602642166018486,0.0007206972236745059,-0.002833232398238033
1782970000178489000,3.040489013671875,0.026177228307723996,0.006727883482910692,-0.014179587728343903
1782970000188416000,3.050416015625,0.01614800172448158,-0.001436508209677413,-0.0065280317955650384
1782970000198342100,3.060342041015625,0.029465163937211034,-0.0033116818312555548,-0.012543730154819787
1782970000208268300,3.070268310546875,0.03231061649620533,0.007780452142609283,-0.010773834405466913
1782970000218195200,3.0801953125,0.010762217032909393,-0.0017404321928508578,-0.009626308338157832
1782970000228121000,3.09012109375,0.02228665060997009,0.006349085898930206,-0.0123281329090707
1782970000238047200,3.100047119140625,0.015099953976273535,0.004957467143749818,0.0067383135453797875
1782970000247974100,3.10997412109375,0.03051145811975002,-0.009042654098151252,-0.0025311259128153324
1782970000257900300,3.119900390625,0.019289222359657285,-0.008093564079236238,0.004545790203474462
1782970000267826200,3.129826171875,0.027966449812054633,-0.0017596574831288308,0.005625931856688112
1782970000277753000,3.139753173828125,0.02362520573735237,-0.004670448629604652,0.0035698578434064984
1782970000287679200,3.14967919921875,0.01943593735396862,0.0037993831498082725,0.005219616078119725
1782970000297605000,3.159605224609375,0.018985855498909947,0.002073500072117895,0.009744747086055576
1782970000307532000,3.169531982421875,0.0236281283468008,-0.002259359766729176,-0.008319372191745788
1782970000317458200,3.179458251953125,0.009710077631473541,0.002213456532079726,-0.012548497661482543
1782970000327384300,3.18938427734375,0.017342179945111273,0.0159979074629955,0.0037185273327864704
1782970000337311000,3.19931103515625,0.024675591573119163,-0.0002657108646351844,-0.001958678053412586
1782970000347237000,3.209237060546875,0.019888357296586036,-0.02197435152409598,0.0012910627238452434
1782970000357163300,3.219163330078125,0.018995207849144935,-0.010273227939568459,0.002133029973320663
1782970000367089200,3.229089111328125,0.020940496698021886,-0.0011099796690512448,-0.008974913491029291
1782970000377016000,3.23901611328125,0.024681436792016027,0.00018903803238645196,-0.013286602677684277
1782970000386942200,3.248942138671875,0.02812251715660095,0.006430224843742325,-0.006750698102917522
1782970000396868600,3.25886865234375,0.02497720486819744,-0.005195157490298152,-0.005290124031063169
1782970000406795800,3.268795654296875,0.02467909870445728,-0.002425985037907958,-0.007679996575973927
1782970000416722000,3.278721923828125,0.024377485409379004,0.005609857504721731,-0.00973457275191322
1782970000426647600,3.2886474609375,0.015548866787552833,-0.008926681301975622,0.0004939392630942165
1782970000436574700,3.29857470703125,0.027969372421503064,-0.007643418292095884,0.003634630175307393
1782970000446500900,3.3085009765625,0.02647416542768478,-0.011192178548546507,0.001700575106497854
1782970000456426800,3.3184267578125,0.012262100201845169,-0.014106906084623188,0.008265303916949778
1782970000466353700,3.328353759765625,0.014507833302021026,-0.009153265732619912,0.009807473591342568
1782970000476279800,3.33827978515625,0.01241407589316368,-0.0038855453296098856,0.0011476721977815032
1782970000486205700,3.348205810546875,0.02034486889243126,-0.017974121173098684,-0.0061648245063610375
1782970000496132900,3.3581328125,0.015856909823417663,0.0020769706708379087,-0.0032384521982632575
1782970000506058800,3.368058837890625,0.0007435118436813354,-0.0026112054117023945,-0.0030651962568983434
1782970000515985000,3.37798486328125,0.019296821144223212,0.002323054386395961,-0.005758837521355599
1782970000525911800,3.387911865234375,0.013761398848891257,-0.002062613351922482,0.004093077999912202
1782970000535837700,3.397837646484375,0.009422492861747742,-0.00817399977114983,-0.002412705431226641
1782970000545763800,3.407763916015625,0.02184241397380829,-0.006214390135975554,-0.008098916107788682
1782970000555689700,3.417689697265625,0.022889877200126647,-0.020408590911561622,-0.0017003741770982741
1782970000565617000,3.427616943359375,0.019147768062353132,0.0026360110593959688,-0.004604187593515962
1782970000575542800,3.437542724609375,0.032467268362641334,-0.0026867639990989117,0.010472166311461478
1782970000585468700,3.44746875,0.021844752061367035,-0.010901095780637115,0.004932743694446981
1782970000595395800,3.457395751953125,0.020948095482587813,-0.006503582340897992,-0.01540971404518932
1782970000605321700,3.46732177734375,0.019453473010659215,-0.007811523134307935,-0.006308817820623517
1782970000615247600,3.47724755859375,0.013466215294599532,-0.003764485366363078,0.001429649210628122
1782970000625174800,3.4871748046875,0.01915185971558094,0.0013207272097468376,-0.0027365305581130085
1782970000635101000,3.497100830078125,0.021398177337646485,0.005721327655715868,0.017911559064593165
1782970000645026600,3.507026611328125,0.020201661029458046,-0.000673725409945473,0.0003041705783456564
1782970000654953700,3.51695361328125,0.010627192476391791,-0.00022870332249440252,0.003561345743387937
1782970000664879900,3.5268798828125,0.015564064356684684,-0.007166996419383212,-0.007661438005976379
1782970000674805800,3.5368056640625,0.02364391043782234,-0.005223908660747111,-0.0032888672112487255
1782970000684732700,3.546732666015625,0.017210077998042105,-0.012937588310614227,0.009314502442628145
1782970000694658800,3.556658935546875,0.011973346388339995,-0.003066602762695402,0.01586339436313137
1782970000704585000,3.5665849609375,0.01152268001139164,0.011883293484710157,-0.0052570620116777714
1782970000714510600,3.576510498046875,0.03456628646850586,-0.0011241086591035126,-0.0010321195267140864
1782970000724437800,3.586437744140625,0.02214461179077625,-0.003616930121835321,0.004584788773301989
1782970000734364000,3.596364013671875,0.028429975670576094,0.0124503345166333,0.0005749503437429667
1782970000744289500,3.60628955078125,0.00912672478556633,-0.006986296957079321,-0.00591587298028171
1782970000754216700,3.616216796875,0.014064765709638594,0.0025820615156088023,0.005308846997842192
1782970000764142800,3.626142822265625,0.025590368330478667,0.000648618368152529,0.004814688539039344
1782970000774068700,3.63606884765625,0.03531856614053249,-0.008671035173628478,0.006369407167751342
1782970000783995600,3.64599560546875,0.02963350624144077,0.0068403034819755695,0.014125720382947474
1782970000793921800,3.655921875,0.017961773148179053,-0.009348660440556704,-0.007707377773243934
1782970000803847700,3.66584765625,0.019903554865717887,-0.0080617350357119,0.00861048235911876
1782970000813774800,3.67577490234375,0.022449147695302964,-0.002379479015059769,0.004867386840656399
1782970000823700700,3.68570068359375,0.02754033335447311,-0.006294971958361565,-0.002396978139132261
1782970000833626600,3.695626708984375,0.019759762480854988,-0.0028789255703333765,0.012546981557831167
1782970000843553800,3.7055537109375,0.014227262794971465,0.004323607953311875,0.008978986877948045
1782970000853480000,3.71547998046875,0.026499299868941305,0.003095700993016362,0.013657463550381362
1782970000863405800,3.72540576171875,0.022458500045537948,-0.010206053588027134,0.0058976797364652155
1782970000873331700,3.735331787109375,0.03158347126543522,0.00700988789522089,-0.006676409024000168
1782970000883259000,3.7452587890625,0.0224561619579792,-0.013025120463594794,-0.007323913147300481
1782970000893184800,3.755184814453125,0.013775427374243735,-0.005571671785647049,-0.019726061140652746
1782970000903110700,3.765110595703125,0.031578795090317725,-0.004536291722767055,-0.0030102329329587518
1782970000913037800,3.775037841796875,0.02409749942421913,-0.00004867971362546086,-0.006018767099175602
1782970000922964000,3.7849638671875,0.016019406908750533,-0.0012690061556641012,0.003562807048112154
1782970000932889600,3.7948896484375,0.02455284197628498,-0.002431190935987979,-0.0042203211087733505
1782970000942816800,3.804816650390625,0.01437690039873123,0.003747296769544482,-0.006453687917720526
1782970000952743000,3.814742919921875,0.01542436362504959,-0.008757836674246936,0.006909176600258797
1782970000962668500,3.82466845703125,0.010936404556035995,-0.013341301140142604,-0.00356554699447006
1782970000972595700,3.834595703125,0.02320610354244709,-0.010108383633522317,-0.011083393544983118
1782970000982521900,3.84452197265625,0.01362929690182209,0.0007602620490826666,-0.012683175158128142
1782970000992447700,3.85444775390625,0.016768763971328735,-0.0027412432658486066,0.003269450124725699
1782970001002374700,3.864374755859375,0.0015057283878326415,-0.009999068906996398,-0.0026587343478575347
1782970001012300800,3.87430078125,0.01916179658770561,-0.006735290471231565,0.006401300143357366
1782970001022226700,3.884226806640625,0.01811316431760788,0.009976025958126411,0.0008570552207529544
1782970001032152600,3.894152587890625,0.010929390293359756,-0.007531619347538799,-0.0018718948191031811
1782970001042079700,3.904079833984375,0.011375965017080306,-0.02376349083003588,0.004333243431337177
1782970001052006000,3.914005859375,0.028435236367583272,0.0013187087825965135,-0.00028389497529715296
1782970001061930800,3.9239306640625,0.010181202274560928,0.014041503565059975,0.0019621486521326005
1782970001071856600,3.933856689453125,0.019459318229556082,-0.01783173529403284,-0.011977036182768642
1782970001081782800,3.94378271484375,0.027389526706933974,-0.017976915918383747,-0.009220778010878712
1782970001091710000,3.9537099609375,0.022902152159810066,0.0012480546991806476,-0.0049334195478819304
1782970001101635600,3.963635498046875,0.009884849676489829,0.0016287793787661939,-0.011523136669117957
1782970001111561700,3.973561767578125,0.01736848343014717,-0.0005368285567499697,0.000702376115694642
1782970001121489000,3.983489013671875,0.024101591077446936,0.0021511227524373677,-0.012154548174142837
1782970001131414500,3.99341455078125,0.01796586480140686,-0.004775717368675395,0.006179200091585516
1782970001141340700,4.003340576171875,0.0161690445125103,0.007499635040387511,0.0017741335330531
1782970001151267800,4.013267822265625,0.020056115078926084,-0.01701714924182743,-0.0023295389261096715
1782970001161193700,4.02319384765625,0.029483868637681005,0.004293221948202699,-0.00780227124877274
1782970001171119600,4.03311962890625,0.023349311405420303,-0.007634276004415005,-0.008803301517479122
1782970001181046800,4.043046875,0.021406360644102094,-0.004317799267033115,0.0018352708694525063
1782970001190973000,4.052972900390625,0.010182955840229987,-0.015541076206741854,-0.0033707368084229528
1782970001200898600,4.062898681640625,0.011830138525366782,-0.007184221548819914,-0.0035784612749703228
1782970001210825700,4.07282568359375,0.02589607327878475,-0.00700445366827771,-0.012577066168840974
1782970001220752000,4.082751953125,0.01452419991493225,-0.001260905047599226,0.0007823460167273879
1782970001230677800,4.092677734375,0.01571720909178257,-0.004232322073820978,-0.008671601429209112
1782970001240603600,4.102603759765625,0.021702713242173193,0.005025198617717251,-0.012869728972483426
1782970001250530800,4.11253076171875,0.016166706424951553,-0.007358966194372624,-0.001997877552639693
1782970001260456700,4.122456787109375,0.029632921719551085,0.002392110167769715,-0.0019330869544297456
1782970001270382600,4.132382568359375,0.021107085436582563,-0.007550652841571718,-0.0009330613327212631
1782970001280309800,4.142309814453125,0.022452070304751395,-0.0002986815524753183,0.007975545456446707
1782970001290235600,4.152235595703125,0.03561667230427265,0.002233695602510124,-0.011237360263988375
1782970001300161800,4.162161865234375,0.009428922602534294,-0.008612071528006344,-0.007675210803002119
1782970001310088700,4.172088623046875,0.008377367722988128,-0.013089627934014424,0.010259893533959985
1782970001320014600,4.1820146484375,0.02019873842000961,-0.015052717301063239,-0.0034388153422623873
1782970001329940700,4.191940673828125,0.005385784691572189,-0.00029258060525171455,0.004590962785761803
1782970001339868000,4.201867919921875,0.012119476860761641,-0.00006156659466214478,0.01798950140532106
1782970001349793800,4.211793701171875,0.02154723041951656,-0.009620481385570019,-0.0074863737000152464
1782970001359719700,4.2217197265625,0.016159692162275315,0.0020057320655323565,-0.014144973072689027
1782970001369646800,4.231646728515625,0.02932546320557594,0.001866067866515368,-0.008478325613122433
1782970001379572700,4.24157275390625,0.02004851629436016,-0.006984726054500788,0.0019989369985647498
1782970001389498600,4.25149853515625,0.021994974187016486,-0.0044897583004552865,-0.005535440561641007
1782970001399424500,4.261424560546875,0.03396598248779774,-0.0014462715518660844,-0.009746409320179372
1782970001409351700,4.2713515625,0.020348960545659062,-0.0052633364888373755,-0.007013659888040274
1782970001419277600,4.281277587890625,0.017357377514243124,-0.0038209739271085705,0.0035766163777559996
1782970001429203700,4.29120361328125,0.01900280663371086,-0.002665492882207036,-0.0045309944931417705
1782970001439130600,4.301130615234375,0.024240122765302657,-0.006252110064169392,-0.0024486717937514182
1782970001449056500,4.311056396484375,0.02184241397380829,-0.0029863953996449705,-0.009679079705011098
1782970001458982700,4.320982666015625,0.021991467055678365,0.0056744654398411505,-0.00615640373788774
1782970001468910600,4.33091064453125,0.018553309300541877,-0.015313085270300507,-0.002006736712530255
1782970001478837800,4.340837646484375,0.02813479211628437,-0.016157070946926252,-0.01537555604726076
1782970001488763600,4.350763671875,0.028433482801914215,-0.006848221926949918,-0.0029022242475301024
1782970001498689500,4.360689453125,0.011674655702710151,-0.00525651402240619,0.0039621816292405125
1782970001508615700,4.37061572265625,0.01362228263914585,-0.010075495144072919,-0.005734013607352971
1782970001518542800,4.38054296875,0.02409925298988819,0.003875179199222475,-0.0021872626448981463
1782970001528468700,4.39046875,0.03218026811480522,0.0001298277915921062,-0.006106573246791958
1782970001538394600,4.40039453125,0.02545125212073326,-0.00474938648417592,0.00037897111391648646
1782970001548321800,4.41032177734375,0.024105098208785057,-0.00027468875553458925,-0.005473517773952335
1782970001558247700,4.42024755859375,0.009439443996548651,-0.0032287893207743764,-0.017252583699207753
1782970001568173600,4.430173583984375,0.01826689357459545,-0.0013767317133024334,-0.0001563048065640032
1782970001578100700,4.440100830078125,0.012583002719283103,-0.002583404089324176,-0.012753007257636636
1782970001588027000,4.45002685546875,0.018567922347784042,-0.007728539292281493,-0.0008538403503596783
1782970001597952500,4.459952392578125,0.024255904856324194,0.0009134524499531835,-0.01398466794444248
1782970001607879700,4.469879638671875,0.011835399222373961,-0.004506298443302512,-0.01781673865430057
1782970001617805800,4.479805908203125,0.01258183367550373,-0.008109830227447674,-0.0004564385306090116
1782970001627731500,4.4897314453125,0.014975450813770294,-0.004157731600804254,-0.013044665414281188
1782970001637657600,4.49965771484375,0.009286299261450767,0.00033836510889232157,0.00048533583153039216
1782970001647584800,4.509584716796875,0.01422317114174366,-0.014536730602942406,-0.0037376521583646536
1782970001657510700,4.5195107421875,0.028440497064590453,0.004706561122601851,-0.008882997423876077
1782970001667436500,4.5294365234375,0.021560089901089666,0.0002172868793364614,-0.008955021480470894
1782970001677363700,4.53936376953125,0.017070961788296698,0.0044089572823606425,-0.01087325792564079
1782970001687289600,4.54928955078125,0.018565584260225296,0.004832708252919838,-0.001330317021999508
1782970001697215500,4.559215576171875,0.024250059637427327,0.00458463350967504,-0.00724545934991911
1782970001707142700,4.569142578125,0.007641454663872719,-0.01069435769477859,-0.010592705684900283
1782970001717068800,4.57906884765625,0.01856324617266655,-0.006701424734247848,-0.0006839271435514092
1782970001726994700,4.58899462890625,0.016167290946841238,-0.009801272179419174,0.008496171797066927
1782970001736921600,4.598921630859375,0.024996494090557098,-0.006586410919297486,-0.0019001527992077172
1782970001746847700,4.60884765625,0.022749591946601866,-0.0015900091378018258,-0.010200692426320164
1782970001756773600,4.618773681640625,0.008984101444482803,-0.000276442321203649,0.0002479834116995335
1782970001766700800,4.62870068359375,0.020505027890205384,0.0011441833327524363,-0.005745996306091547
1782970001776626700,4.638626708984375,0.019308511582016945,-0.006939991863630712,-0.011913652090355753
1782970001786552600,4.648552490234375,0.01406710379719734,-0.010546482789842411,-0.006236081377975642
1782970001796479700,4.658479736328125,0.020499767193198203,-0.005880061881383881,-0.004340988346375525
1782970001806405600,4.668405517578125,0.02888064204752445,0.0029902039250824597,-0.00623275690972805
1782970001816331500,4.67833154296875,0.027684125739336013,0.008637461697589605,0.004978007608279585
1782970001826257700,4.688257568359375,0.022294249394536017,-0.006491426112223416,-0.006019570816773921
1782970001836184800,4.698184814453125,0.020499182671308517,0.0008001374017447232,-0.007042465857416391
1782970001846110500,4.7081103515625,0.020198153898119926,0.0010364760414231567,-0.006124163702409714
1782970001856036600,4.71803662109375,0.017504677030444143,-0.008224022058490663,-0.01331093340134248
1782970001865963800,4.7279638671875,0.020496260061860082,-0.006649539283383637,0.0016373371445573865
1782970001875889700,4.7378896484375,0.014659224471449852,-0.012947159856557845,-0.008167104239482432
1782970001885815600,4.747815673828125,0.03425999699831009,-0.01635074862181209,-0.018397698613721876
1782970001895742700,4.75774267578125,0.03485796289145946,0.0005850059468764812,-0.003559756574500352
1782970001905668600,4.767668701171875,0.017199556604027746,-0.00916824410604313,-0.0073495042462833225
1782970001915594500,4.777594482421875,0.013159925824403762,0.0031488559523597357,-0.016885960610210894
1782970001925521700,4.787521728515625,0.02782499551475048,0.006906482319673523,-0.010613145684730261
1782970001935447800,4.79744775390625,0.02273848603069782,0.0016162578239105642,0.005518398095294833
1782970001945373700,4.807373779296875,0.015106968238949775,-0.0024906021061819046,0.0005223799062892794
1782970001955299600,4.817299560546875,0.021093056911230087,0.002178120357217267,-0.0021160423059016463
1782970001965226800,4.827226806640625,0.025879706665873525,-0.011582712236093357,-0.004268416300509125
1782970001975152600,4.837152587890625,0.0143564421325922,0.0017846275276038794,-0.010208912265393883
1782970001985078500,4.84707861328125,0.029918168401718136,0.002908288662135601,-0.0039857086353003975
1782970001995005700,4.857005615234375,0.004333645290136337,-0.012219831962697207,0.011087759192846715
1782970002004931600,4.866931640625,0.012115385207533835,-0.021451688490016385,-0.010531988473609089
1782970002014857700,4.876857666015625,0.021392916640639303,-0.010329049780033529,0.018618593089096247
1782970002024784600,4.88678466796875,0.022143442746996877,-0.012024455521069467,-0.0016912227562628686
1782970002034710500,4.89671044921875,0.016455460238456725,-0.012315145563334226,-0.007606840008217841
1782970002044636700,4.90663671875,0.01989595608115196,-0.006839983821567148,0.0010895305360667407
1782970002054563800,4.916563720703125,0.016602759754657744,0.0023283516160212455,0.0014202237951569257
1782970002064489700,4.92648974609375,0.014360533785820006,-0.010446922272350638,-0.0013542093542404472
1782970002074415600,4.93641552734375,0.02004851629436016,0.005834624437615275,0.00003764686295762658
1782970002084342800,4.9463427734375,0.01825286504924297,0.008723276817519218,-0.0008951587414368987
1782970002094268700,4.9562685546875,0.016607435929775236,0.006279491261439398,-0.002525445090699941
1782970002104194600,4.966194580078125,0.02738134340047836,0.00043208954064175486,-0.0020988902417011556
1782970002114120700,4.97612060546875,0.01510755276083946,0.004947658135788515,-0.0030759551129303873
1782970002124048000,4.9860478515625,0.01166471883058548,0.0004040690225549042,0.008152655589021741
1782970002133973500,4.995973388671875,0.019744564911723137,-0.003876110780984163,-0.003084850805439055
1782970002143899600,5.005899658203125,0.012710428491234778,-0.0058835324801038945,-0.006556454172451049
1782970002153826800,5.015826904296875,0.01285889705121517,-0.003679126904159784,-0.023941724340617657
1782970002163752400,5.02575244140625,0.00791851803958416,-0.0022370474702212957,0.00036751813814043995
1782970002173678600,5.0356787109375,0.016298223850131036,-0.008484709688136353,-0.006697707540355622
1782970002183605800,5.045605712890625,0.02752572030723095,0.001138347247010097,-0.006725874188914895
1782970002193531600,5.05553173828125,0.02049684458374977,-0.01546263154251501,-0.005365545621141791
1782970002203457500,5.06545751953125,0.023937340426445006,-0.00797581031792797,-0.0018604966422542928
1782970002213384700,5.075384765625,0.01840016456544399,0.0096041513052769,-0.007730338523723184
1782970002223310600,5.085310546875,0.015552373918890952,0.006190945328306406,-0.016571286904159932
1782970002233236500,5.095236572265625,0.011958148819208144,-0.019882630808698013,-0.0020958032354712487
1782970002243163600,5.10516357421875,0.022129998743534086,0.009936908657290041,-0.0032681166841648517
1782970002253089800,5.11508984375,0.02257774251103401,0.009061733257956802,0.0021664573188871143
1782970002263015700,5.125015625,0.01943769091963768,-0.0010691910009365529,-0.0016457761793397367
1782970002272941600,5.134941650390625,0.015848141995072364,0.006048970441194251,-0.007074669360276311
1782970002282868700,5.14486865234375,0.0034270518392324444,-0.00031825390262529255,0.0008901172401383519
1782970002292794600,5.154794677734375,0.01823825200200081,-0.004088758017821237,-0.005935965920239687
1782970002302720500,5.164720458984375,0.03125847709476948,-0.0024593301850836724,-0.003926744989678263
1782970002312647700,5.174647705078125,0.026616204246878623,-0.005145482262829318,-0.007110343461856246
1782970002322573600,5.184573486328125,0.02990589344203472,-0.007801759792119264,-0.0016263408265076577
1782970002332499700,5.194499755859375,0.022128245177865026,0.005233279277291149,-0.003111026426311582
1782970002342427000,5.204427001953125,0.014048983618617056,-0.009982830158248543,-0.006686400695051997
1782970002352352500,5.2143525390625,0.02197919209599495,-0.0011824147175997495,0.0008568542913533747
1782970002362278700,5.224278564453125,0.022727380114793777,-0.0005152651789132505,-0.002946520046982914
1782970002372205800,5.234205810546875,0.013448679637908936,0.0006685651776380837,-0.004962700441293418
1782970002382131500,5.24413134765625,0.022128829699754715,0.005602514448482543,-0.0011369681406766176
1782970002392057600,5.2540576171875,0.02392272737920284,0.01254787660697475,0.0008591010473668574
1782970002401983000,5.26398291015625,0.017938976794481275,-0.001493289031367749,-0.010043145510740578
1782970002411910100,5.27391015625,0.009113280782103538,-0.004750372864864767,0.008417005613632499
1782970002421836000,5.2838359375,0.0156985043913126,-0.021899240461271254,0.0061804969995282585
1782970002431762000,5.293761962890625,0.03410217608809471,-0.0044635278806556015,-0.009914020972047001
1782970002441689000,5.303689208984375,0.03020867578089237,0.012510448939725756,0.00007744915038347244
1782970002451615000,5.313614990234375,0.025722470277547836,-0.0065431288999971,0.008870758996810764
1782970002461540900,5.323540771484375,0.015100538498163223,-0.004232787864701822,0.00416172278933227
1782970002471468000,5.333468017578125,0.021835399711132047,0.014805583272734657,-0.00313301906241104
1782970002481394200,5.343394287109375,0.031412790873646734,-0.002955835864599794,-0.014476506581995636
1782970002491320000,5.353320068359375,0.023629881912469862,-0.008683648060029373,-0.0036695005592890084
1782970002501247000,5.3632470703125,0.022282558956742287,0.0022285993022844192,0.004888557492848485
1782970002511173000,5.373173095703125,0.02497369773685932,-0.004906933399755508,0.000054031742177903646
1782970002521099000,5.38309912109375,0.020932897913455963,0.003917209976352751,-0.0009572641922160983
1782970002531025000,5.39302490234375,0.027515783435106276,-0.0006218034264631569,-0.003353913537785411
1782970002540952000,5.4029521484375,0.028116671937704084,-0.010604962378274648,0.0036777021320536733
1782970002550878000,5.4128779296875,0.010756956335902214,0.002972814398864284,-0.0009961348978802561
1782970002560804000,5.42280419921875,0.02736439226567745,-0.000039354762854054567,-0.0047198863950558
1782970002570731000,5.43273095703125,0.034846272453665735,0.011943490106193349,-0.005775204134266823
1782970002580657000,5.442656982421875,0.02167816332280636,0.00794147879006341,0.000346347485948354
1782970002590583000,5.4525830078125,0.026165537869930266,-0.00468265052405186,-0.010118530568201094
1782970002600510200,5.46251025390625,0.01898410193324089,-0.008505113155348226,-0.004127254264149814
1782970002610435800,5.472435791015625,0.019284546184539793,0.000620716581074521,-0.013361786805745214
1782970002620362000,5.482362060546875,0.021976269486546515,0.0005881386188790202,-0.010202701720315963
1782970002630289200,5.4922890625,0.015841712254285812,0.007541802814835682,-0.003268080151546746
1782970002640215000,5.502215087890625,0.020182956328988075,-0.012962193028908222,-0.0003742766724899411
1782970002650141000,5.512140869140625,0.014196283134818076,-0.012368729780940339,-0.0074832501611672335
1782970002660067000,5.522067138671875,0.01659340740442276,-0.005029874792834743,0.0009781791160814463
1782970002669994200,5.531994140625,0.03140869922041893,-0.01777954844906926,0.001485580648947507
1782970002679919900,5.541919921875,0.023928572598099707,-0.0019357355692423879,0.0039475868483074
1782970002689846000,5.551845947265625,0.024826982742547986,-0.011620907088322564,-0.0022491854325868187
1782970002699773200,5.561773193359375,0.012558452799916266,-0.0023955625001806763,-0.0013175488719716667
1782970002709699000,5.571698974609375,0.02827098571658134,0.009385604050615802,0.011073895064275712
1782970002719625000,5.581625,0.02617489022016525,0.013295416171802207,0.0019058153550140559
1782970002729552100,5.59155224609375,0.02662321850955486,0.006755867468379437,0.004300017015170306
1782970002739478000,5.60147802734375,0.02258124964237213,-0.01222410627901554,-0.0025137181202881036
1782970002749404000,5.61140380859375,0.018091537007689475,-0.008658422287227586,-0.0006324709509499371
1782970002759331000,5.6213310546875,0.019741642302274702,0.0012973828667774796,0.003822736625932157
1782970002769257000,5.631257080078125,0.01734802516400814,-0.007938547047460451,-0.0020895926903933284
1782970002779183000,5.64118310546875,0.015104045629501342,0.003780477519938722,0.000826605283562094
1782970002789110000,5.651110107421875,0.02123801833987236,0.00586135718091391,-0.008490947632677853
1782970002799036000,5.661035888671875,0.015101707541942596,-0.01334289030903019,-0.006558335602283478
1782970002808962000,5.670962158203125,0.005526069945096969,0.00045768977277912195,-0.012937095120269804
1782970002818888000,5.680887939453125,-0.0016588731229305266,0.008868347844015806,-0.008037102917954324
1782970002828815000,5.690815185546875,0.03949322147667408,-0.0007298669108189642,-0.002586692024953663
1782970002838741000,5.700740966796875,0.031712066081166265,-0.0012857106952928006,0.007127769520692527
1782970002848667100,5.710667236328125,0.02767301982343197,0.004271485040429979,-0.007206223318073898
1782970002858594000,5.720593994140625,0.023483166918158528,0.0030712150057312097,0.0016281674574129283
1782970002868520000,5.73052001953125,0.03425473630130291,-0.0007470281081739812,-0.0027898681805469095
1782970002878446000,5.740446044921875,0.026325112345814704,-0.010862179409200324,-0.00443843910517171
1782970002888373200,5.750373291015625,0.023929741641879082,-0.007592336558829993,-0.014512673873919992
1782970002898299000,5.760298828125,0.0016325696378946303,-0.005297795880865305,0.00018039806820452212
1782970002908225000,5.77022509765625,0.012854805397987366,-0.0056956086925696574,-0.004633011829201132
1782970002918152200,5.780152099609375,0.010459434694051742,0.001547019379446283,0.006919113472383469
1782970002928077800,5.790077880859375,0.01958791304528713,0.0034970300692133602,-0.011955372340232133
1782970002938004000,5.80000390625,0.035298692396283145,-0.010287831853656098,-0.007232526803109794
1782970002947930000,5.80993017578125,0.02557049458622932,-0.008408484380459413,-0.013501998994033784
1782970002957857000,5.81985693359375,0.027664836516976356,0.0038894543197471646,0.008484664022363721
1782970002967783000,5.829782958984375,0.021079028385877607,0.00204481283375062,0.018266473449487237
1782970002977709000,5.839708984375,0.01718669712245464,-0.00615981040452607,0.007421071645151823
1782970002987636000,5.849635986328125,0.024067688807845114,-0.0014673143398948013,0.0015397402552887796
1782970002997561900,5.859561767578125,0.019129063361883164,-0.011863355808379128,-0.0058086497461423275
1782970003007488000,5.869488037109375,0.013739187017083166,0.0003951550637371838,-0.01462451848424971
1782970003017415200,5.879415283203125,0.005361234772205352,-0.0007139569556340575,0.002987929769605398
1782970003027341000,5.889341064453125,0.018979425758123395,-0.0033120380242820826,-0.009419296257663518
1782970003037267000,5.899266845703125,0.0233189162671566,-0.0034429709275718774,-0.0058423328200355165
1782970003047194000,5.909194091796875,0.02571487149298191,-0.00660618419884704,0.006332381359301507
1782970003057120000,5.9191201171875,0.01733282759487629,-0.0009084292149636894,0.0021230931011959908
1782970003067046000,5.9290458984375,0.01478957285284996,0.00763616656740196,0.005471892072446644
1782970003076972000,5.938971923828125,0.015389876833558082,0.009618435558956116,-0.00037646862957626577
1782970003086899000,5.94889892578125,0.014344751694798468,-0.005488614878384396,0.0051448886077851055
1782970003096825000,5.9588251953125,0.00850713158249855,-0.009507805658178404,0.019740144464932382
1782970003106751000,5.9687509765625,0.010152560701966285,-0.006944156582094728,-0.009125026018824428
1782970003116678000,5.978677978515625,0.018829203632473944,-0.005196134737832471,-0.0030718269270844758
1782970003126604000,5.98860400390625,0.026162030738592145,0.004443617603788152,-0.00032629107860848304
1782970003136530000,5.998530029296875,0.017631518280506134,-0.0013884221510961651,-0.006847217279952019
1782970003146456800,6.008456787109375,0.014040215790271758,-0.0002324479158502072,-0.009797883779089897
1782970003156383000,6.018383056640625,0.03020166151821613,-0.015610305518051608,-0.007042246661707758
1782970003166309000,6.02830908203125,0.019881343033909798,-0.01413659796998836,0.007324041011463851
1782970003176236000,6.038236083984375,0.020780337700247762,-0.010123362006945535,-0.007687321365904063
1782970003186162000,6.048161865234375,0.022427520385384557,-0.009910057182982563,0.016585461559984832
1782970003196088000,6.058088134765625,0.019731705430150032,-0.007049215258611366,-0.005847538718115538
1782970003206014000,6.068013916015625,0.031551907083392144,-0.010584458446362986,-0.007777118541207164
1782970003215940900,6.07794091796875,0.020029227072000503,0.004506773367337882,-0.008922160390485077
1782970003225867000,6.087866943359375,0.032300679624080654,-0.007063015455100685,0.0018273615576326846
1782970003235793200,6.097793212890625,0.019431845700740812,-0.0009749277130700647,-0.005790072909835725
1782970003245720000,6.107719970703125,0.018685411247611045,-0.0178505404592026,0.008144892407674341
1782970003255646000,6.11764599609375,0.021380641680955884,-0.015807599922129885,-0.0025450083076953888
1782970003265572000,6.127572021484375,0.02213116778731346,0.017621992400335146,0.005956771246250718
1782970003275499000,6.1374990234375,0.007469605228304863,-0.005601381937321275,-0.009602909196261316
1782970003285425000,6.1474248046875,0.012707505881786346,-0.00546200999924913,-0.0012787146989256142
1782970003295351000,6.15735107421875,0.02393149520754814,-0.009101298083364963,0.0012914280500262974
1782970003305278000,6.16727783203125,0.02916822681725025,-0.01713736895485781,-0.0037960130157880484
1782970003315204000,6.1772041015625,0.014500819039344786,-0.015954844639403745,-0.006001615034975111
1782970003325130000,6.1871298828125,0.01883855598270893,0.006015113837365061,0.0039092093329876655
1782970003335056100,6.19705615234375,0.029160628032684325,-0.005339963655313477,0.013957579008117317
1782970003344983000,6.206983154296875,0.02197919209599495,-0.00850227274429053,0.005851283311471342
1782970003354909000,6.216908935546875,0.02422200258672237,-0.006725892455223948,0.007630074753332883
1782970003364835000,6.2268349609375,0.020632453662157057,0.01222889205198735,-0.006061912121158093
1782970003374762000,6.236761962890625,0.01016015948653221,-0.0041598687589634205,-0.000585289074666798
1782970003384688000,6.246688232421875,0.030360651472210884,-0.010805179391801357,-0.00945151802683249
1782970003394614500,6.256614501953125,0.022877602240443228,-0.0012880670491605996,-0.007260181995015591
1782970003404541400,6.26654150390625,0.024074703070521352,0.002594793133018538,0.0005487564565613865
1782970003414467300,6.27646728515625,0.01779109275639057,0.002892196043860167,0.011400186142884194
1782970003424393500,6.2863935546875,0.016296470284461975,0.001290688264509663,-0.00210128312818706
1782970003434320400,6.2963203125,0.025724808365106582,-0.00202901247642003,-0.004652538513578474
1782970003444246300,6.306246337890625,0.027519290566444397,-0.008691137246740982,0.005988262363057583
1782970003454172400,6.31617236328125,0.017940730360150335,-0.00862199926697649,0.0013817001493647693
1782970003464098600,6.3260986328125,0.023177461969852445,0.008869608219340443,0.003584543955884874
1782970003474025500,6.336025390625,0.03350245662927628,0.0034670641892123964,0.0040257301184348756
1782970003483951400,6.345951416015625,0.023771336209774015,0.0008331263558939098,0.005633238380309194
1782970003493877500,6.35587744140625,0.014941548544168471,0.012848393923509865,0.00805407231906429
1782970003503804400,6.365804443359375,0.021374211940169332,-0.002370939515577629,-0.010587207525875419
1782970003513730600,6.37573046875,0.023322423398494718,0.004243729383824393,-0.01140367500791326
1782970003523656400,6.385656494140625,0.02736322322189808,0.004620755135826766,0.0026591362066566942
1782970003533583400,6.395583251953125,0.019282792618870732,0.00029989626202732325,0.001765931960288435
1782970003543509500,6.405509521484375,0.020482231536507606,-0.0071058682161383325,0.008889737691916524
1782970003553435400,6.415435302734375,0.015394553008675574,-0.008590727345878258,0.010866663788072764
1782970003563362300,6.4253623046875,0.01704173569381237,0.006657475994667038,0.003599065671581775
1782970003573288400,6.435288330078125,0.02033376297652721,0.0034523141446523367,-0.022829653179179874
1782970003583214600,6.445214599609375,0.026470073774456978,0.0019429964270908384,-0.008069489083904773
1782970003593140500,6.455140380859375,0.04188333148360252,-0.00002763692559674382,-0.0009003463732078671
1782970003603067400,6.4650673828125,0.027216508227586745,0.010186417305795475,-0.009492927749454974
1782970003612993500,6.47499365234375,0.01973404351770878,0.007044977474911138,0.0008862082500010728
1782970003622919400,6.48491943359375,0.019133739537000656,-0.004829739977698773,0.005699855609424412
1782970003632846300,6.494846435546875,0.013894085317850111,0.000850442816875875,-0.014025036487448959
1782970003642772500,6.5047724609375,0.019580898782610892,-0.001747428189218044,-0.0057855063325725495
1782970003652698600,6.51469873046875,0.027659575819969175,-0.0007991692873649299,0.005066325212549418
1782970003662625300,6.524625244140625,0.038134792605042454,0.008205043363384902,0.003464260310772806
1782970003672551400,6.534551513671875,0.010000000488758086,0.0030759825123939663,-0.010961721660383046
1782970003682477600,6.5444775390625,0.03693535368740558,-0.0019769717619288712,-0.002631974205095321
1782970003692404500,6.554404541015625,0.0311006561845541,-0.0023890870936214923,-0.0017246866344474256
1782970003702330400,6.564330322265625,0.024217910933494565,0.0012106178987771271,-0.0071282079121097915
1782970003712256500,6.574256591796875,0.018531097468733788,-0.0004133848401717841,0.007539802653994411
1782970003722182400,6.584182373046875,0.016738368833065034,-0.008912771507631987,-0.008390775193832814
1782970003732109300,6.594109375,0.011800327908992766,-0.0015684822925832122,-0.00798184733306989
1782970003742035500,6.604035400390625,0.0032709844946861265,0.0018560031302273271,-0.025013134698104112
1782970003751961300,6.61396142578125,0.016442016234993934,0.0077716203821823,-0.0022253661655820905
1782970003761888500,6.623888427734375,0.010753449204564093,0.0018971936571411786,0.0015400507825426757
1782970003771814400,6.633814453125,0.017785247537493706,0.001883950583077967,-0.005100264014769346
1782970003781740500,6.643740478515625,0.015387538745999336,-0.012469797268928958,-0.0033611469961702823
1782970003791667500,6.65366748046875,0.0251139829903841,0.0029785226204432544,-0.0004063340448774397
1782970003801593300,6.66359326171875,0.01852700581550598,-0.011155527199432254,0.01799664353216067
1782970003811519500,6.67351953125,0.0035649990051984785,-0.007589797541871666,-0.013943769678473472
1782970003821446400,6.6834462890625,0.030050854870676994,0.0012669785953592508,0.0023406448420137164
1782970003831372500,6.69337255859375,0.022719196808338164,-0.0025374917215202,0.0020322730125859377
1782970003841298400,6.70329833984375,0.019876666858792302,-0.01223820786960423,0.008279716034792363
1782970003851224300,6.713224365234375,0.020025135418772697,-0.009224385606916621,-0.012308240898512303
1782970003861151500,6.7231513671875,0.02286708084642887,-0.010457955123018474,-0.013708335221093148
1782970003871077400,6.733077392578125,0.027059271839261052,0.012956694869883358,-0.02548745594527572
1782970003881003300,6.743003173828125,0.013441080853343008,0.002074924844224006,-0.003302840937674045
1782970003890930400,6.752930419921875,0.026309330254793165,-0.009399778706440702,-0.0024049605161882938
1782970003900856600,6.762856689453125,0.021672902625799177,0.007889237146172672,0.0038208734624087808
1782970003910782500,6.772782470703125,0.0037181437402963634,0.004915710361255332,0.005301978865638375
1782970003920709400,6.78270947265625,0.031253800919651985,0.0014689035087823868,0.004844517421722412
1782970003930635500,6.792635498046875,0.028708792611956593,-0.002975216418504715,0.005509959060512483
1782970003940561400,6.8025615234375,0.012693477356433868,0.0016928849903866648,0.006179930743947625
1782970003950488300,6.81248828125,0.030649405285716056,0.008043130799941718,0.011374010522011667
1782970003960414500,6.82241455078125,0.013146481820940971,0.0043968558526132255,0.003021338848862797
1782970003970340600,6.832340576171875,0.040378772139549254,0.012918582216044886,0.0034384134834632278
1782970003980266200,6.842266357421875,0.025713702449202538,-0.007715908139571547,-0.005391301116906107
1782970003990193400,6.852193359375,0.02062836200892925,-0.0006034001200925558,0.00023525179428979752
1782970004000119600,6.86211962890625,0.03065583502650261,-0.0025455745632760227,0.008926051114313304
1782970004010045400,6.87204541015625,0.01853577364385128,-0.00024475027499720455,0.006307539178989827
1782970004019972400,6.881972412109375,0.022878186762332914,0.003364617594890296,-0.0001904080055654049
1782970004029898500,6.8918984375,0.010012275448441505,-0.002415116584021598,-0.020190591646172106
1782970004039824400,6.901824462890625,0.02841886975467205,0.009738262546341865,0.015117380035109818
1782970004049751600,6.91175146484375,0.017945406535267827,-0.0013128909631632268,0.014727850994560867
1782970004059677400,6.921677490234375,-0.0010597381860017775,-0.0018307316916529087,-0.010263071871735155
1782970004069603300,6.931603271484375,0.03215688723921776,-0.008985718012833967,0.0005001132755540311
1782970004079530500,6.941530517578125,0.03544833000004291,0.009300912308692932,0.013675254935398697
1782970004089456400,6.951456298828125,0.009856792625784873,0.003506364153139293,-0.009739997845701873
1782970004099382500,6.961382568359375,0.011802665996551514,-0.001709662595251575,-0.007831734805274755
1782970004109308400,6.971308349609375,0.018688918378949163,-0.006733144179917871,-0.00228834839919582
1782970004119235600,6.981235595703125,0.028415947145223615,-0.016038787462655454,-0.007520568230561912
1782970004129161500,6.991161376953125,0.02692132467329502,0.00008363229599781334,-0.014948599339462815
1782970004139087400,7.00108740234375,0.022729718202352523,0.006937261050427332,-0.01254341962756589
1782970004149014500,7.0110146484375,0.02691957110762596,-0.0018521306727081535,0.004943155490607023
1782970004158940400,7.0209404296875,0.02198211470544338,-0.012844137873500585,-0.0017599954098463056
1782970004168866300,7.0308662109375,0.015098200410604477,0.00005674428907223046,-0.0035733284421265122
1782970004178793500,7.04079345703125,0.022284312522411344,-0.0047741738655604415,0.007575549820810556
1782970004188719600,7.0507197265625,0.012558452799916266,0.01004015896921046,-0.006112034873198718
1782970004198645200,7.060645263671875,0.031113515666127203,-0.00144124831687659,-0.010028587262425571
1782970004208571400,7.0705712890625,0.01734919420778751,-0.008426668491121381,0.006978716438822448
1782970004218498600,7.08049853515625,0.0194411980509758,-0.003008826427161693,0.0012810527864843607
1782970004228424200,7.090424072265625,0.029167057773470877,0.007779922419646755,-0.002887026678398251
1782970004238350300,7.100350341796875,0.02093815861046314,-0.006918976475065574,-0.004711885751690716
1782970004248277500,7.110277587890625,0.015552958440780638,0.003766896519158035,0.014513788118772207
1782970004258203400,7.120203369140625,0.006425064611434936,-0.006876918298471719,0.017539602213352917
1782970004268129300,7.13012939453125,0.019592004698514937,-0.0034547709632199255,0.007920910926070064
1782970004278056400,7.140056396484375,0.015402736315131187,0.006083786026248708,-0.010030614822730422
1782970004287982300,7.149982421875,0.012261515679955481,0.007592473556147888,-0.007595387032441794
1782970004297908200,7.159908203125,0.020939327654242515,0.0015237115690950303,0.0013993819365277886
1782970004307835400,7.16983544921875,0.031714404168725015,-0.008619569847872481,-0.003779518538713455
1782970004317761500,7.179761474609375,0.010613163951039313,-0.004336905826302245,-0.006401080947648734
1782970004327687400,7.1896875,0.028567922836542126,0.00227204571836628,0.019158362521603703
1782970004337613300,7.19961328125,0.009262918385863303,-0.0009723156308755278,0.011776910500787198
1782970004347540500,7.20954052734375,0.020935820522904394,-0.001793258358631283,-0.003300064458698034
1782970004357466400,7.21946630859375,0.017346856120228765,0.0011347396509721875,-0.00820800250545144
1782970004367392300,7.229392333984375,0.020189386069774627,-0.0037975473857484758,-0.006218509188666939
1782970004377319400,7.2393193359375,0.01689794330894947,-0.0029743122362066057,-0.004676668307837099
1782970004387245300,7.249245361328125,0.02467968322634697,0.004192145327059552,-0.000027088936325162646
1782970004397171200,7.259171142578125,0.007474865925312042,0.0071702112897764885,-0.007882149818260221
1782970004407098000,7.26909814453125,0.027676526954770086,-0.007012043319689109,-0.0007573577059432864
1782970004417024300,7.279024169921875,0.028425884017348288,-0.013148892973735928,-0.009506243888754397
1782970004426950100,7.2889501953125,0.026632570859789848,0.00972860880200751,-0.0027705424255691467
1782970004436877300,7.298877197265625,0.022741993162035942,-0.010310198949091135,-0.009832425369508563
1782970004446803200,7.30880322265625,0.01989829416871071,-0.0043313072025775905,-0.008444496408756821
1782970004456729000,7.31872900390625,0.023788287344574926,-0.008311070154281333,-0.003817402863688767
1782970004466655200,7.3286552734375,0.01017068088054657,0.005221835434669629,0.003041121261566877
1782970004476582100,7.33858203125,0.021543723288178444,-0.002104872457915917,0.0030050270348787305
1782970004486508000,7.348508056640625,0.012413491371273993,-0.012507188403559848,0.0011307758619077503
1782970004496434200,7.35843408203125,0.01989654060304165,0.007860878701368347,-0.009570449965074657
1782970004506361300,7.368361328125,0.023040683847665784,-0.0005454776540864259,0.0032100846203044057
1782970004516287000,7.378286865234375,0.007775310176610946,0.008973826645640656,-0.004654072883538901
1782970004526213000,7.388213134765625,0.01391162097454071,0.007614073466602712,0.009202785696461796
1782970004536140300,7.398140380859375,0.024686112967133522,0.006541603663191199,-0.010880180856771766
1782970004546066000,7.40806591796875,0.03486205454468727,0.004450303072901443,-0.005818111694231629
1782970004555992000,7.417991943359375,0.012117138773202895,-0.007718209694512188,0.008748648720793426
1782970004565919200,7.427919189453125,0.021990298011898994,-0.0035613822760060428,-0.0074917987938039
1782970004575845000,7.43784521484375,0.022737901508808136,0.0024525351181160656,0.0010651998124085367
1782970004585771000,7.44777099609375,0.02079144361615181,-0.00745436199340038,-0.0012276055661961435
1782970004595697200,7.457697265625,0.023635142609477043,-0.005151455345889553,-0.009988127387873828
1782970004605624300,7.467624267578125,0.02557984693646431,0.013088732884870842,-0.01741243216972798
1782970004615550200,7.47755029296875,0.024979542955756186,-0.0007333009769208729,-0.01033750708112493
1782970004625476000,7.48747607421875,0.024976035824418066,-0.00798617644831538,-0.01004910032749176
1782970004635403300,7.4974033203125,0.023929157119989393,-0.00849268293203786,0.009122176474612206
1782970004645329200,7.5073291015625,0.02258124964237213,0.009025374169787392,-0.010412800807040185
1782970004655255000,7.517255126953125,0.018093290573358536,-0.00941708603426814,0.003143449124880135
1782970004665182200,7.52718212890625,0.020337854629755018,-0.00718753688391298,-0.005220876453444361
1782970004675108000,7.537108154296875,0.027220015358924866,-0.0019965897778514772,-0.00462327588647604
1782970004685034200,7.5470341796875,0.022729133680462837,-0.007188623729301616,0.004138104451727122
1782970004694960000,7.556960205078125,0.009861468800902365,0.004204785612924024,-0.01973886582329869
1782970004704887000,7.566886962890625,0.025424364113807676,-0.008383103344030678,0.00401164679415524
1782970004714813200,7.576813232421875,0.023328268617391585,-0.004447325664525851,-0.006122373604122549
1782970004724739000,7.586739013671875,0.01973345899581909,-0.01028865383756347,-0.0028811266605742276
1782970004734666000,7.596666015625,0.03140577661097049,-0.00022491306336596607,-0.015089743109513073
1782970004744592100,7.606592041015625,0.03155424517095089,0.0012841671921778469,0.0027780133459717033
1782970004754518300,7.616518310546875,0.007313537883758545,0.003044792789686471,0.0029274134877137837
1782970004764445200,7.626445068359375,0.015242577317357063,0.00922265944071114,0.00942863034158945
1782970004774371000,7.63637109375,0.023473814567923544,0.00154244366902858,-0.002708692703116685
1782970004784297200,7.646297119140625,0.024820553001761433,-0.019406720392638816,-0.009022625090274959
1782970004794224400,7.656224365234375,0.016442016234993934,-0.0105786406269297,0.0004955466982908546
1782970004804150000,7.66614990234375,0.013299626556038856,-0.0019994210557546465,-0.0128493072389625
1782970004814076200,7.676076171875,0.02167933236658573,-0.018702709442283957,-0.0018582864188589154
1782970004824002300,7.686002197265625,0.012401800933480263,0.00027321831765584644,0.0059521864026784894
1782970004833929000,7.695928955078125,0.020782091265916822,-0.004896010146941989,0.003609550532978028
1782970004843855000,7.705855224609375,0.009559855505824088,0.0016271993430331348,0.006790774384979158
1782970004853781200,7.71578125,0.01719546495079994,-0.002614950005058199,0.0056352476743049915
1782970004863708200,7.725708251953125,0.02856733831465244,-0.00007572298417799174,-0.005538180507998913
1782970004873634000,7.735634033203125,0.013003273957967758,-0.009378443657467142,-0.0005795899862423539
1782970004883560200,7.745560302734375,0.015695581781864164,-0.003574077360797673,0.0035527057792060076
1782970004893487000,7.755487060546875,0.022280220869183538,-0.001198397738020867,0.0030910796168260274
1782970004903413000,7.7654130859375,0.011055647021532057,-0.00032827297314070165,0.0009554740939289331
1782970004913339100,7.775339111328125,0.021230419555306433,-0.0026449889502953737,-0.012270758432336151
1782970004923265300,7.785265380859375,0.014493804776668548,-0.0021784034850075838,-0.002650879834964871
1782970004933192200,7.795192138671875,0.023469138392806052,0.005389072627201676,-0.012101722008362412
1782970004943118000,7.8051181640625,0.02301964105963707,0.009944817969109862,-0.005980334784928709
1782970004953044200,7.815044189453125,0.02107552125453949,0.003946755731245502,-0.006150905578862875
1782970004962971100,7.82497119140625,0.03558861525356769,0.001784636660758406,0.011074406520929187
1782970004972897000,7.83489697265625,0.035143209573626516,-0.009359227500343695,-0.005833090067654848
1782970004982823200,7.8448232421875,0.019580898782610892,0.0074769391513895235,-0.006974551720358431
1782970004992750000,7.85475,0.010902502286434173,-0.00350121305398643,-0.016104747104644775
1782970005002676200,7.86467626953125,0.01254910044968128,0.002369962268043309,-0.007916709674987941
1782970005012602000,7.87460205078125,0.019131985971331596,0.006766443661320954,-0.008061762435175477
1782970005022529000,7.884529052734375,0.025416765329241753,0.01199842603066936,-0.007013842551130801
1782970005032455200,7.894455078125,0.015841127732396126,0.011914592805271967,-0.0039680999133735895
1782970005042381000,7.904381103515625,0.019583236870169638,0.008438769920868798,-0.004939063837379217
1782970005052307200,7.91430712890625,0.01479483354985714,-0.003396501437341794,0.0022844576753675936
1782970005062232300,7.924232421875,0.00955634837448597,0.01108809711956419,-0.0028622940959408876
1782970005072158200,7.934158203125,0.02437105566859245,-0.0024078739924822,-0.004523359175957739
1782970005082085000,7.944085205078125,0.024673838007450103,0.02100529642938636,-0.007378017954714596
1782970005092011300,7.95401123046875,0.021233926686644554,-0.0020816742454189806,-0.006417904218286276
1782970005101937200,7.963937255859375,0.02318038457930088,-0.015257099033053964,0.006540818211901933
1782970005111864000,7.973864013671875,0.017194295907020568,-0.002531975296186283,-0.011057729380764067
1782970005121790200,7.983790283203125,0.02407879472374916,-0.0021714531544130295,-0.009536565961781889
1782970005131716400,7.99371630859375,0.014652210208773612,-0.0015024952511303127,-0.0083184406099841
1782970005141643000,8.00364306640625,0.03215805628299713,-0.015087258891481905,-0.005057447786349803
1782970005151569200,8.013569091796874,0.02767301982343197,0.00014090630803257226,-0.005464329820498824
1782970005161495300,8.023495361328125,0.02587561501264572,-0.0009920249783433974,-0.0042155901347286995
1782970005171421000,8.0334208984375,0.022732640811800955,0.005262541904393583,-0.017139003789518027
1782970005181348000,8.04334814453125,0.013753215542435646,-0.0042935690080747,-0.00643757703313604
1782970005191274200,8.053274169921876,0.033655601364374156,-0.00031191549338400364,-0.003565254733525216
1782970005201200000,8.0632001953125,0.02123451120853424,-0.007859782722825184,0.0012248290872201324
1782970005211127000,8.073126953125,0.029464579415321348,0.011342592470441013,0.00329281273400411
1782970005221053200,8.08305322265625,0.009264087429642676,0.009574486819375306,0.01011964481305331
1782970005230979300,8.092979248046875,0.025725392886996268,0.00005712788156233727,-0.003669007368944585
1782970005240906200,8.10290625,0.02093815861046314,-0.002586326698772609,-0.008858155243564397
1782970005250832100,8.11283203125,0.022133505874872207,-0.005045236758748069,-0.01242764776078984
1782970005260758300,8.12275830078125,0.031109424012899397,-0.005830368387605995,-0.0026479389592073857
1782970005270685200,8.132685302734375,0.027368483918905256,0.011482092272676526,-0.015872874577529728
1782970005280611300,8.142611328125,0.02452712301313877,0.017471870739385484,0.0067587170125916595
1782970005290537200,8.152537109375,0.020486907711625098,0.006359497695090249,0.008742145914770662
1782970005300463000,8.162463134765625,0.012104863813519478,0.00559726288462989,-0.007375825997628272
1782970005310390300,8.172390380859374,0.013601239851117133,0.0002782598189543932,-0.014300254965946077
1782970005320316200,8.182316162109375,0.013149404430389403,0.0035870007744524626,-0.013222433133982121
1782970005330242000,8.192241943359376,0.013449848681688309,0.0017643062587827444,-0.004458952170237899
1782970005340169200,8.202169189453125,0.03185644298791885,0.0016816968760918825,0.004987907947786152
1782970005350095400,8.212095458984376,0.02392623451054096,-0.0030916276060976087,-0.0037563385925255713
1782970005360021000,8.22202099609375,0.018985855498909947,0.01445668763667345,-0.012459339806996286
1782970005369948200,8.2319482421875,0.02736439226567745,0.011887576934183016,0.0031871238698251542
1782970005379874300,8.241874267578124,0.019434768310189247,-0.0022277499189134685,0.013199435850884764
1782970005389800200,8.25180029296875,0.01120586914718151,-0.01682126134354621,0.002090670402627438
1782970005399726300,8.261726318359376,0.03245499340295791,-0.01369650778598152,-0.004821611470170318
1782970005409653500,8.271653564453125,0.022578911554813383,-0.0003432056807912886,-0.004551927683316171
1782970005419579400,8.281579345703125,0.015693243694305418,0.012822099571628495,-0.014540511728916317
1782970005429505500,8.291505615234374,0.015096446844935416,0.0011055226896423845,-0.004435479963105172
1782970005439432400,8.301432373046875,0.01868774933516979,-0.005524088050564751,-0.007375168410502374
1782970005449358300,8.3113583984375,0.014195114091038703,0.0029980127722024916,-0.002685768485255539
1782970005459284500,8.321284423828125,0.016739537876844405,0.002840511522395536,-0.017385781624820084
1782970005469211600,8.331211669921874,0.015092939713597297,-0.006607152313226833,0.0024378581387922166
1782970005479138600,8.341138671875,0.0014765022933483122,0.002033880447782576,-0.004754811577964574
1782970005489064400,8.351064453125,0.021375380983948707,-0.0053111850854009384,0.00024080475224182008
1782970005498990600,8.360990478515625,0.03334638928472996,-0.00142669920171611,-0.012624174979887902
1782970005508917500,8.37091748046875,0.0091062665194273,0.016239068408263845,-0.017341157031804322
1782970005518843400,8.380843505859374,0.024368717581033705,-0.001667449155030772,0.007212890520878135
1782970005528769500,8.39076953125,0.025715456014871595,-0.004013957482250407,-0.0007466171162202954
1782970005538696400,8.400696533203124,0.013439911809563635,0.00663072498505935,0.0037545667605474588
1782970005548622600,8.41062255859375,0.03558744620978832,0.005494332233117893,-0.011831764226872474
1782970005558548500,8.420548583984376,0.02182137118577957,0.0035667343045584854,0.005946268118545412
1782970005568474600,8.430474609375,0.024810031607747078,0.00632733985800296,0.005676913125254214
1782970005578401500,8.440401611328125,0.016879238608479497,0.004129053495591506,0.001281089319102466
1782970005588327400,8.450327392578124,0.019123802664875983,-0.0013378975402563809,-0.011986187603604048
1782970005598253600,8.460253662109375,0.03349076619148254,-0.005027947697229683,0.0056983760383911425
1782970005608180500,8.470180419921874,0.017631518280506134,0.005068170109763741,-0.011902838435396551
1782970005618106600,8.480106689453125,0.02361643790900707,0.0038492045077495275,0.011217212525103241
1782970005628032500,8.490032470703126,0.027655484166741368,0.00469226773576811,0.0030003691260702906
1782970005637959400,8.49995947265625,0.020920038431882858,-0.003097070966195315,-0.0010873568452894687
1782970005647885600,8.509885498046875,0.006853519156575202,0.006794217584235593,-0.0051150779914110895
1782970005657811500,8.5198115234375,0.01852232964038849,0.0006966770272701979,-0.008261522790975868
1782970005667737600,8.529737548828125,0.032435704180598254,0.008424978857534005,0.009226714561320841
1782970005677664500,8.53966455078125,0.018369184905290603,0.008964163768151774,-0.009244652076810599
1782970005687590700,8.549590576171875,0.022407646641135214,-0.0029205910212825982,-0.018037322602421045
1782970005697516500,8.5595166015625,0.018366262295842168,0.005371171644330024,0.0009946553268469869
1782970005707443500,8.569443359375,0.006243862825632095,0.010101880827499552,-0.002417454671580344
1782970005717369600,8.57936962890625,0.01821370208263397,0.005509292340232059,-0.016293766870722173
1782970005727295500,8.58929541015625,0.02210369525849819,-0.0045227655209135265,-0.0036905798799358306
1782970005737222400,8.599222412109375,0.01102817449271679,-0.006368356854980811,-0.003641553106438368
1782970005747148500,8.6091484375,0.015662848556041716,-0.0064001858985051506,-0.00902775792311877
1782970005757074700,8.61907470703125,0.04109831858575344,-0.008386455211741849,-0.004866820585075766
1782970005767001300,8.62900146484375,0.02418810031712055,0.005098683979036286,0.0008688004574738443
1782970005776927500,8.638927490234375,0.022091420298814772,-0.007872149014053866,0.007673767764586955
1782970005786853600,8.648853515625,0.03570727319717407,-0.005317788356123492,-0.010986216780822724
1782970005796779500,8.658779541015624,0.024931612160801885,0.00678218008656986,-0.001685669798310846
1782970005806706400,8.66870654296875,0.021786884394288063,0.0012017404725775122,-0.015389785502012818
1782970005816632600,8.678632568359374,0.017743746483325957,-0.006468008704017847,-0.0010889094815589486
1782970005826558500,8.688558349609375,0.020887889727950096,-0.0037912729085888713,0.005831299969367682
1782970005836485400,8.6984853515625,0.022980478093028067,-0.002142665451345965,-0.016010109357442705
1782970005846411500,8.70841162109375,0.017893384087085722,0.012673968938365579,-0.0030545469987206158
1782970005856337700,8.718337646484375,0.015348375779390334,0.0017488072955515234,-0.011324088699370622
1782970005866264600,8.7282646484375,0.024174071791768073,0.007817249622195958,-0.00463556911246851
1782970005876190500,8.7381904296875,0.02222702937722206,-0.004816633900953457,-0.013866210930235684
1782970005886116600,8.74811669921875,0.01444528945982456,-0.008894222070788963,-0.011089019568171352
1782970005896042500,8.75804248046875,0.022077391773462293,0.006771046771202236,0.00806433798475191
1782970005905969400,8.767969482421876,0.023425883772969246,0.006866278173448518,-0.008317728223931044
1782970005915895600,8.7778955078125,0.02118015067279339,-0.011365050897421314,-0.008870503268484025
1782970005925821400,8.787821533203125,0.013098551025986671,0.002531198978051543,-0.0010012494644150137
1782970005935748600,8.79774853515625,0.029261165797710417,0.006531639391602948,-0.003172876148764044
1782970005945674500,8.807674560546875,0.01504442439675331,-0.009866263707028701,-0.003590626636799425
1782970005955600400,8.817600341796876,0.026119945162534713,-0.0097361253881827,-0.0007577595647424459
1782970005965527600,8.827527587890625,0.010557634371519088,-0.0057039289963431656,0.010765212707594037
1782970005975453400,8.837453369140626,0.018490180936455724,0.014262946029705926,-0.004820241496991366
1782970005985379600,8.847379638671875,0.016695114213228224,0.0025311533122789115,0.0017625709594227372
1782970005995305500,8.857305419921875,0.022981062614917752,0.002837351450929418,0.0007859079469926655
1782970006005232600,8.867232666015624,0.025077158111333847,0.014340696574188768,0.0014961933745071291
1782970006015158500,8.877158447265625,0.025074235501885412,0.002024171904521063,-0.006958203373756259
1782970006025084400,8.88708447265625,0.03509995495378971,0.013133439676277338,-0.014011884744931011
1782970006035011600,8.897011474609375,0.019238368955254555,-0.00018917502970434725,-0.013852401600591837
1782970006044937700,8.906937744140626,0.015349544823169707,0.011684017186099663,-0.012964713779557496
1782970006054863400,8.91686328125,0.017745500048995017,0.008713486075866967,0.014267375609651207
1782970006064790500,8.92679052734375,0.012206570622324943,-0.008855497495597229,-0.0017065481895580886
1782970006074716700,8.936716552734374,0.02612228325009346,0.008690872385259717,-0.005278086533397436
1782970006084642300,8.946642333984375,0.016393500918149947,0.0005811060898937285,0.0035553909266367555
1782970006094569500,8.956569580078124,0.01714285798072815,-0.011462282460508868,0.001603599271737039
1782970006104495600,8.96649560546875,0.03240647808611393,-0.01102041131136939,0.002482866324298084
1782970006114421500,8.97642138671875,0.028965982243418693,-0.0034546156995929776,-0.011151563410367816
1782970006124347400,8.986347412109374,0.021930092257261277,-0.0074636321452446275,-0.0009875314663164317
1782970006134274600,8.996274658203125,0.007113046875596046,-0.008640493904892355,-0.0012597542701289057
1782970006144200400,9.006200439453124,0.015043255352973937,0.0027894297891296444,-0.00982226930167526
1782970006154126300,9.016126220703125,0.01848375119566917,-0.007268977222824469,0.00404269951954484
1782970006164053500,9.026053466796874,0.019529460856318473,0.007032117993338033,0.0025569362075068057
1782970006173979600,9.035979736328125,0.024464579170942306,0.009739760383684187,-0.002480729166138917
1782970006183905500,9.045905517578126,0.021920155385136603,0.008174903953447938,-0.013916680742148309
1782970006193832400,9.05583251953125,0.008300795355439186,-0.008423928544763475,-0.018864585473109034
1782970006203758600,9.065758544921875,0.012639116820693016,-0.00820054071820341,-0.002844831504486501
1782970006213684500,9.0756845703125,0.018324761241674422,0.011003240980859846,-0.006438873941078782
1782970006223610400,9.0856103515625,0.02281213578879833,0.011489188733743503,-0.0010007014751434325
1782970006233537500,9.09553759765625,0.019521862071752546,0.0067343954220879815,0.004095635283179581
1782970006243463400,9.10546337890625,0.02266366722881794,-0.00012801029384136198,0.007399572199396788
1782970006253389600,9.1153896484375,0.020271803656220434,-0.0007771583849564194,0.011169263463839887
1782970006263316500,9.12531640625,0.023115502649545667,0.0024080840550363062,-0.010873732849676162
1782970006273242400,9.135242431640625,0.025507366222143172,-0.0011148750398773698,0.0001451075591146946
1782970006283168500,9.14516845703125,0.01398527073264122,-0.0010083367923274635,-0.005530380794033408
1782970006293095700,9.155095703125,0.022213585373759268,0.009424958813469856,-0.013624693791940808
1782970006303021300,9.165021240234376,0.016681085687875748,0.007611771911662071,0.0038243623274378477
1782970006312947500,9.174947509765625,0.020569325298070908,0.0011673998115584255,-0.021465360822342336
1782970006322873600,9.18487353515625,0.018921558091044424,-0.002884852987620979,0.0009708360598422586
1782970006332800500,9.194800537109375,0.023115502649545667,-0.009785499221552163,-0.010960936209093778
1782970006342726400,9.204726318359375,0.013241174367070197,-0.006834485662542283,-0.004651625198125839
1782970006352652500,9.214652587890624,0.02925239796936512,0.00016642434177920222,0.009603511984460055
1782970006362579700,9.224579833984375,0.02266483627259731,-0.0024303506857715545,0.0001622230906970799
1782970006372505300,9.23450537109375,0.010994272223114967,0.004297888990165665,-0.005613455967605114
1782970006382431500,9.244431396484375,0.021321020448207852,0.004238934477698058,-0.010162570639327169
1782970006392358700,9.254358642578126,0.010844634619355201,-0.010489683701843023,0.0010909187755547463
1782970006402284500,9.264284423828125,0.02491056937277317,-0.005377939311834052,0.0015211816852912306
1782970006412210700,9.274210693359375,0.017128244933485984,-0.0032244236729107793,0.0003458908282220363
1782970006422136600,9.284136474609374,0.012488894695043563,-0.010164963525813073,0.00523139784745872
1782970006432063500,9.2940634765625,0.0273012639015913,0.0034146033496130256,-0.004792896832339465
1782970006441989600,9.30398974609375,0.03807750945985317,0.0023113000165205446,-0.010132522560935466
1782970006451915500,9.31391552734375,0.01802548603415489,-0.0034368791135028004,0.0023984577101655302
1782970006461842400,9.323842529296876,0.009494973576068877,0.002962694863649085,0.005232018901966512
1782970006471768600,9.3337685546875,0.022362053933739662,-0.00250839349119924,-0.0005551131321117281
1782970006481694700,9.34369482421875,0.024902386066317558,0.009642848481005058,-0.01411806679945439
1782970006491621600,9.35362158203125,0.03238192816674709,0.0043371889540925615,-0.0014227445458061992
1782970006501547500,9.363547607421875,0.025942835029959678,-0.008655399213079363,-0.00037668782528489826
1782970006511473700,9.3734736328125,0.017261515924334524,0.002006645380984992,-0.013296356886718421
1782970006521399800,9.38339990234375,0.024295067822933194,0.0003231675397604704,-0.004906239280011504
1782970006531326500,9.393326416015626,0.018308979150652886,0.00400155465840362,0.0004298793172463774
1782970006541252600,9.403252685546875,0.017261515924334524,0.012722612119372933,0.007124024927336722
1782970006551178800,9.4131787109375,0.018609423401951788,0.010275766956526785,-0.017001001824624835
1782970006561105700,9.423105712890624,0.01037935519516468,0.0014918551261071116,-0.018363796344120054
1782970006571031600,9.433031494140625,0.013970657685399054,-0.005260404746234417,-0.006536781357601285
1782970006580957700,9.442957763671876,0.032677111721038814,0.008086084025679155,0.010062507798336446
1782970006590884600,9.452884521484375,0.02309972055852413,0.007755326834507286,-0.008262710101064294
1782970006600810500,9.462810546875,0.018758476483821868,0.0043948739580810066,-0.002105137319397181
1782970006610736600,9.472736572265624,0.013818097472190856,-0.0022156393560115247,-0.005943893498368561
1782970006620662800,9.482662841796875,0.02384264788031578,-0.009178984695766121,0.0018277634164318441
1782970006630589700,9.492589599609374,0.02174655238389969,0.012405719056772067,0.005023052326403558
1782970006640515600,9.502515625,0.018005612289905548,0.003951934229861944,-0.0016277838649228213
1782970006650441700,9.512441650390626,0.01710661762356758,0.0030732699654996394,-0.007806746494490653
1782970006660368600,9.52236865234375,0.015906009662151336,-0.014211590301804244,0.009108001818787306
1782970006670294500,9.53229443359375,0.01680383528470993,0.000977055738074705,-0.006425612600706517
1782970006680220700,9.542220703125,0.015454174241423606,0.006770197387831285,-0.01083604945410043
1782970006690147600,9.552147705078125,0.02248714161813259,0.010294051531888544,-0.010030304295476525
1782970006700073700,9.56207373046875,0.02517769587635994,0.005958543078228831,0.003894559753127396
1782970006709999600,9.57199951171875,0.029519524472951888,-0.006351551850652322,-0.0004052198000252247
1782970006719926500,9.581926513671876,0.009467501047253609,-0.0017307967148255557,-0.008867124001309274
1782970006729852700,9.591852783203125,0.014103344154357909,0.011197247449308632,-0.01457901710839942
1782970006739778600,9.601778564453125,0.009164134186506271,0.0019781590720172972,-0.00199427908975631
1782970006749704700,9.61170458984375,0.016498130336403845,0.0010898867290932684,0.0010133234946988522
1782970006759631600,9.621631591796875,0.009767360776662825,-0.0010730360589921474,-0.002413436083588749
1782970006769557800,9.631557861328124,0.022487726140022278,0.004425004234863445,0.0005008439279161394
1782970006779483600,9.641483642578125,0.01949555858671665,0.0035237171467393633,0.0016706914248876272
1782970006789410600,9.65141064453125,0.02144318552315235,0.004926049092179164,-0.003036408553831279
1782970006799336700,9.661336669921875,0.02563771460354328,0.00001675933855585754,-0.011900701277237385
1782970006809262600,9.6712626953125,0.02414192308783531,0.015239983501471578,-0.002621398012153804
1782970006819188500,9.6811884765625,0.017556699478626252,0.0007494392609689384,0.004442402894236147
1782970006829115600,9.69111572265625,0.027134090641140935,0.006305310689285398,-0.0035299276918172836
1782970006839041800,9.701041748046874,0.01785772825181484,0.0013285086574032902,0.004200556962378323
1782970006848967700,9.7109677734375,0.01995265470445156,-0.0059620045437943185,-0.01185921848937869
1782970006858894600,9.72089453125,0.022645547050237653,0.0033316560402046887,0.0017757044356316327
1782970006868820700,9.73082080078125,0.016513327905535696,0.004759807413490489,0.00225419040126726
1782970006878746600,9.74074658203125,-0.0038292028993368145,0.0018903255249373614,0.0027664325060322878
1782970006888673500,9.750673583984375,0.028349311649799345,0.005098008125601336,0.008927859478909521
1782970006898599700,9.760599609375,0.021469489008188247,0.0021992727431003004,-0.002968421351537108
1782970006908525800,9.77052587890625,0.026112930899858472,-0.011532708215061575,-0.0051683973475359374
1782970006918452500,9.780452392578125,0.021625556352734564,-0.0027352793159428983,0.0112368488073349
1782970006928378600,9.790378662109376,0.03883329626321792,-0.0020527952108066526,-0.004089169009774923
1782970006938304800,9.8003046875,0.019232523736357688,0.00014965587006881832,-0.003100925157405436
1782970006948230400,9.81023046875,0.009806523743271827,0.0016996617910452186,-0.011581442727614194
1782970006958157600,9.820157470703125,0.014743980145454406,0.014803290850948541,0.00019923063283786176
1782970006968083700,9.830083740234375,0.028815175595879552,0.007408677954459562,-0.009550704084988683
1782970006978009600,9.840009521484374,0.03853928175270557,-0.005359353342372924,0.0063272302601486445
1782970006987936800,9.849936767578125,0.05064882174134254,-0.0040998913331888615,0.01789641629438847
1782970006997862700,9.859862548828126,0.010240238985419273,-0.0007170713613275438,0.0010285210638307034
1782970007007788500,9.86978857421875,-0.012358546313643455,-0.012849727364070713,-0.004465820302441716
1782970007017715700,9.8797158203125,0.011132803910970688,-0.007897667047800495,-0.016018256131280214
