time,seconds_elapsed,z,y,x
1782969997159648300,0.021648193359375,0.0020516992080956697,0.0067910607904195786,0.0030868700705468655
1782969997169574100,0.03157421875,-0.0007009439868852496,0.0041364217177033424,0.002466087229549885
1782969997179500000,0.0415,-0.0004846953088417649,0.005122057627886534,0.0024652881547808647
1782969997189427200,0.05142724609375,-0.0015214639715850353,0.004588892683386803,-0.0005371595616452396
1782969997199353300,0.061353271484375,0.0017925737192854285,0.00401711231097579,0.0025015072897076607
1782969997209279000,0.071279052734375,-0.001330249011516571,0.004012851044535637,0.0011371697764843702
1782969997219206100,0.0812060546875,-0.0006878945278003812,0.004455202259123325,0.00119602563790977
1782969997229132300,0.09113232421875,-0.001859152689576149,0.007551925722509623,0.0008596684201620519
1782969997239058000,0.101057861328125,0.002609631512314081,0.003916444722563028,0.003739078063517809
1782969997248985000,0.110985107421875,-0.0006061354652047157,0.0054608117789030075,0.0007337008719332516
1782969997258911200,0.1209111328125,-0.0001968075957847759,0.005018726922571659,-0.00023675501870457083
1782969997268837000,0.130837158203125,-0.00010199906682828441,0.004856273997575045,0.0036189695820212364
1782969997278764000,0.140763916015625,-0.00018455706594977528,0.003570766421034932,0.0031435952987521887
1782969997288690200,0.150690185546875,-0.000990962260402739,0.005667739547789097,0.004208327271044254
1782969997298616000,0.160615966796875,-0.0012743226252496243,0.006403038278222084,0.003120692213997245
1782969997308543200,0.170543212890625,-0.001531850197352469,0.002198972040787339,0.0012900352012366056
1782969997318469000,0.18046923828125,0.0010636665392667055,0.0034967304673045874,0.004487426485866308
1782969997328395000,0.19039501953125,-0.0002801645314320922,0.004597681108862162,0.003215766977518797
1782969997338322200,0.200322265625,-0.001529187080450356,0.005623531062155962,0.0020903151016682386
1782969997348248000,0.210248046875,-0.00007882956560933962,0.006557767745107412,0.0018791264155879617
1782969997358174200,0.22017431640625,-0.0008777778712101281,0.004093012306839228,0.0031459920573979616
1782969997368101000,0.23010107421875,-0.003186738584190607,0.005212072748690844,0.0009680590592324734
1782969997378027300,0.24002734375,0.00126766471657902,0.004598213825374842,0.0032059133518487215
1782969997387953400,0.249953369140625,-0.001116130850277841,0.005114600993692875,0.0038780951872467995
1782969997397880300,0.25988037109375,0.000496945867780596,0.003935352899134159,0.0037169738207012415
1782969997407806500,0.269806396484375,0.00045619948650710285,0.004549744538962841,0.0014836470363661647
1782969997417732400,0.279732421875,0.00016218650853261352,0.004977714270353317,0.0037001960445195436
1782969997427659500,0.289659423828125,-0.002520415699109435,0.004662129562348127,-0.0001323590986430645
1782969997437585400,0.29958544921875,0.0017678063595667481,0.0044232443906366825,-0.0009432916413061321
1782969997447511600,0.309511474609375,0.00042264367220923305,0.004456267226487398,0.003340935567393899
1782969997457438500,0.3194384765625,0.0015419702976942062,0.005628590937703848,0.001589108258485794
1782969997467364400,0.3293642578125,0.0004814995336346328,0.006456567905843258,0.002116147894412279
1782969997477290500,0.33929052734375,-0.0013731258222833276,0.005572664551436901,0.0017243968322873116
1782969997487217400,0.349217529296875,-0.000480434246128425,0.005084240809082985,0.0030623688362538815
1782969997497143600,0.3591435546875,-0.0008372978190891445,0.004545483272522688,0.0007446198142133653
1782969997507069400,0.3690693359375,-0.00003062635369133204,0.004063451196998358,0.0002008023438975215
1782969997516996400,0.378996337890625,0.0006761765689589083,0.0038133803755044937,0.0014125406742095947
1782969997526922500,0.388922607421875,0.0007488809060305357,0.005876531358808279,0.004632302559912205
1782969997536848400,0.398848388671875,-0.0008855010382831097,0.003954794257879257,0.0009249158320017159
1782969997546775300,0.408775390625,-0.0015227955300360918,0.0046384274028241634,0.0010064085945487022
1782969997556701400,0.418701416015625,-0.00013422331539914012,0.004850149154663086,0.0029971215408295393
1782969997566627600,0.428627685546875,0.0008247809601016343,0.004460262134671211,0.0010580739472061396
1782969997576554200,0.43855419921875,0.0009004147723317146,0.004585164599120617,0.0012780509423464537
1782969997586480400,0.44848046875,0.0017747305100783706,0.004113518632948399,0.002341983839869499
1782969997596406500,0.458406494140625,-0.000019707391402334906,0.005298358853906393,0.0019595539197325706
1782969997606333400,0.46833349609375,-0.0010404969798400998,0.006045641843229532,0.0014322480419650674
1782969997616259300,0.47825927734375,-0.0005446164286695421,0.005086371209472418,0.0008554073283448815
1782969997626185500,0.488185546875,-0.0005640574963763356,0.004791293293237686,0.0025561018846929073
1782969997636112400,0.4981123046875,0.00018908442871179432,0.006381732877343893,0.0005403553950600326
1782969997646038300,0.508038330078125,0.0006072007236070931,0.003297259798273444,0.003081543603911996
1782969997655964400,0.51796435546875,-0.0014929680619388819,0.005559614859521389,-0.00016298545233439654
1782969997665891300,0.527891357421875,0.0014066817238926888,0.005391569808125496,0.0018612833227962255
1782969997675817500,0.5378173828125,0.00009800432599149644,0.007252053823322058,0.001540904981084168
1782969997685743400,0.547743408203125,-0.0011946940794587135,0.005178783088922501,0.0033515882678329945
1782969997695669500,0.55766943359375,-0.001597363967448473,0.005404885392636061,0.00133877107873559
1782969997705596400,0.567596435546875,0.0007595335482619703,0.005255215801298618,0.0031396006233990192
1782969997715522600,0.5775224609375,-0.0026607641484588385,0.005320196971297264,0.0018463695887476206
1782969997725448400,0.587448486328125,-0.00014753911818843335,0.004317782819271088,0.002570483135059476
1782969997735375400,0.597375244140625,-0.0022599585354328156,0.004335626028478146,0.0033712955191731453
1782969997745301500,0.607301513671875,-0.0005025385180488229,0.003230947069823742,0.00029534456552937627
1782969997755227400,0.617227294921875,-0.0006058691651560366,0.004363056737929583,0.0021025657188147306
1782969997765154300,0.627154296875,0.0007776430575177073,0.008851815015077591,0.004518585279583931
1782969997775080400,0.63708056640625,-0.000025832661776803434,0.005948170088231564,0.0022855247370898724
1782969997785006600,0.647006591796875,-0.0007744472241029143,0.005179848056286573,0.0016466324450448155
1782969997794933200,0.656933349609375,0.0012756541837006807,0.00449887802824378,0.0020000338554382324
1782969997804859400,0.666859375,0.0014255901332944632,0.003727093804627657,0.0030091057997196913
1782969997814785500,0.67678564453125,-0.0005837649223394692,0.00293320557102561,0.002110022585839033
1782969997824712400,0.68671240234375,-0.0029001825023442507,0.005030711181461811,0.0008527441532351077
1782969997834638300,0.696638427734375,0.00006072007090551779,0.003439206164330244,0.002974750939756632
1782969997844564500,0.706564453125,-0.001115598133765161,0.003949201665818691,0.0012836436508223414
1782969997854491400,0.716491455078125,-0.002767024328932166,0.007255782373249531,0.004054929129779339
1782969997864417300,0.726417236328125,0.0010018812026828527,0.005387841258198023,0.0004665858286898583
1782969997874343400,0.736343505859375,0.00138031633105129,0.006313555873930454,0.0005470133037306368
1782969997884270300,0.746270263671875,-0.0019467707024887204,0.0049217878840863705,0.0033720945939421654
1782969997894196500,0.756196533203125,-0.0004916195175610483,0.004548412747681141,0.0037563887890428305
1782969997904122400,0.766122314453125,-0.0014045510906726122,0.0054757255129516125,-0.000294545607175678
1782969997914049300,0.77604931640625,-0.0026053704787045717,0.005091697443276644,0.00037950044497847557
1782969997923975400,0.785975341796875,-0.0000045273736759554595,0.0036799560766667128,0.002734533743932843
1782969997933901300,0.7959013671875,0.00045833003241568804,0.005851497408002615,0.0009081379394046962
1782969997943828200,0.805828125,0.00009480853623244911,0.0054397727362811565,0.0024674187880009413
1782969997953754400,0.81575439453125,-0.00017310546536464244,0.0056954361498355865,0.0034011229872703552
1782969997963680500,0.825680419921875,-0.00009241169027518481,0.0033073797821998596,0.00449914438650012
1782969997973607400,0.835607421875,0.0016335829859599471,0.00410552928224206,-0.0008223841432482004
1782969997983533300,0.845533203125,-0.0007321029552258551,0.005542304366827011,0.0029614351224154234
1782969997993459500,0.85545947265625,0.00016777914424892515,0.0062669506296515465,0.002180862706154585
1782969998003386600,0.86538671875,-0.0014032195322215557,0.0051747881807386875,0.0006628608098253608
1782969998013312300,0.875312255859375,-0.0008029430755414069,0.005577990785241127,0.0018333201296627522
1782969998023238400,0.88523828125,0.0005033374181948602,0.005167597904801369,0.0033571808598935604
1782969998033165600,0.89516552734375,-0.0012242551892995834,0.007048321887850761,0.0019062906503677368
1782969998043091200,0.90509130859375,0.0011171960504725575,0.005661081522703171,0.0024434502702206373
1782969998053017300,0.915017333984375,-0.00018189390539191663,0.0038725025951862335,0.001525991247035563
1782969998062944500,0.924944580078125,0.00010466222738614306,0.00577905960381031,-0.0002300971100339666
1782969998072870400,0.934870361328125,-0.0008860336965881288,0.00481339730322361,0.001285241567529738
1782969998082796300,0.94479638671875,-0.001241033081896603,0.005770271178334951,0.0013265205780044198
1782969998092723500,0.954723388671875,-0.002225870033726096,0.0034946000669151545,0.0033369408920407295
1782969998102649300,0.9646494140625,0.0020562265999615192,0.005578257143497467,0.004031759686768055
1782969998112575200,0.9745751953125,-0.000404534162953496,0.005812349263578653,-0.00015925703337416053
1782969998122502400,0.98450244140625,-0.0015923039754852653,0.0036613137926906347,0.0026727484073489904
1782969998132428300,0.99442822265625,-0.0002569950302131474,0.00501180300489068,0.003754790872335434
1782969998142354400,1.0043544921875,-0.00046072687837295234,0.006391320377588272,-0.000678307143971324
1782969998152281600,1.014281494140625,0.0004655205411836505,0.00293320557102561,-0.00038828887045383453
1782969998162207500,1.02420751953125,-0.0031425300985574722,0.0039867521263659,0.00015446334145963192
1782969998172133400,1.03413330078125,-0.0001579254458192736,0.006929811555892229,-0.001148355077020824
1782969998182060500,1.044060546875,0.0007952199084684253,0.00691889226436615,0.0013909690314903855
1782969998191986400,1.053986328125,0.0010610034223645926,0.0059902481734752655,0.0013371731620281935
1782969998201912300,1.063912353515625,0.0011182613670825958,0.00504003232344985,0.0036543896421790123
1782969998211839500,1.073839599609375,-0.001683650421909988,0.005717806983739138,0.0012658004416152835
1782969998221765600,1.083765625,-0.0016618125373497605,0.007209709845483303,0.0026104305870831013
1782969998231691300,1.093691162109375,-0.0023425165563821793,0.004552407655864954,-0.0015361113473773003
1782969998241617400,1.103617431640625,-0.0004649879119824618,0.0041278996504843235,0.0014650048688054085
1782969998251544600,1.113544677734375,0.0005486111622303724,0.00523790530860424,0.0005787048721686006
1782969998261470200,1.12347021484375,-0.0012538161827251315,0.005474660079926252,0.0011478224769234657
1782969998271396400,1.133396240234375,-0.0003640541108325124,0.006272543221712112,-0.0017294568242505193
1782969998281323500,1.143323486328125,-0.002665291540324688,0.005894108209758997,-0.0004743089957628399
1782969998291249400,1.15324951171875,-0.0011677960865199566,0.005175320897251368,0.0025158883072435856
1782969998301175300,1.16317529296875,-0.0000327568814100232,0.0037228327710181475,0.0007877630414441228
1782969998311102500,1.1731025390625,0.000016245283404714428,0.0047849016264081,0.0013054815353825688
1782969998321028400,1.1830283203125,-0.0015962987672537565,0.00418462511152029,0.003707919269800186
1782969998330954200,1.192954345703125,0.0010876349406316876,0.004779309034347534,0.0008996158139780164
1782969998340881400,1.20288134765625,-0.0009901633020490408,0.006386792752891779,0.0033214944414794445
1782969998350807600,1.2128076171875,-0.00044341632747091353,0.005464540328830481,0.0026820695493370295
1782969998360733400,1.2227333984375,0.002572613535448909,0.005108742043375969,0.0009741843095980585
1782969998370660400,1.232660400390625,-0.00005352953667170368,0.006810501683503389,0.0005486111622303724
1782969998380586500,1.24258642578125,-0.0015049523208290339,0.0030280142091214657,-0.00033449303009547293
1782969998390512400,1.252512451171875,-0.000046072687837295234,0.005095958709716797,0.0010021475609391928
1782969998400439300,1.262439208984375,-0.0010274475207552314,0.005549495108425617,0.0018836538074538112
1782969998410365400,1.272365478515625,-0.0021315941121429205,0.0037321539130061865,0.002469815546646714
1782969998420291300,1.282291259765625,0.0004868258547503501,0.006995591334998608,0.0015092133544385433
1782969998430218500,1.292218505859375,0.0005395564367063344,0.004674113821238279,0.0026370619889348745
1782969998440144400,1.302144287109375,-0.001591505017131567,0.005751895252615213,0.003344131400808692
1782969998450070300,1.3120703125,0.000060453756304923445,0.007843009196221828,0.0001781654718797654
1782969998459997400,1.32199755859375,0.0008127967594191432,0.002983539365231991,0.001586178783327341
1782969998469923300,1.33192333984375,0.0011574097443372011,0.0027262780349701643,0.0009084042394533753
1782969998479849200,1.34184912109375,-0.000841825210954994,0.0056954361498355865,0.0009510148083791137
1782969998489776400,1.3517763671875,-0.000669518718495965,0.004640025552362204,0.001686846255324781
1782969998499702500,1.36170263671875,-0.0006466155173256993,0.005120726302266121,0.0010511496802791953
1782969998509628400,1.37162841796875,0.00009827064059209079,0.0032256206031888723,0.0017986990278586745
1782969998519554300,1.38155419921875,-0.0009930927772074938,0.007269630674272776,0.004200870171189308
1782969998529481500,1.3914814453125,-0.0008617989369668067,0.005517537239938974,0.0010194580536335707
1782969998539407400,1.401407470703125,-0.00019654128118418157,0.007986820302903652,0.001764344167895615
1782969998549333200,1.411333251953125,0.00006897587445564568,0.005140966270118952,-0.00002370213405811228
1782969998559260400,1.421260498046875,-0.00038163099088706076,0.006356166675686836,0.001663410454057157
1782969998569186600,1.4311865234375,0.0010543455136939883,0.00657454552128911,0.00021917815320193768
1782969998579112200,1.4411123046875,-0.0006130596739239991,0.004093811381608248,0.00022796659322921187
1782969998589039400,1.451039306640625,-0.002588059986010194,0.0037558560725301504,0.0030029804911464453
1782969998598965500,1.460965576171875,-0.0011544802691787481,0.005599562544375658,0.0013078784104436636
1782969998608891400,1.470891357421875,0.002654106356203556,0.005817142780870199,0.0016429040115326643
1782969998618818300,1.480818359375,-0.003998736385256052,0.005468002520501614,0.0011329087428748608
1782969998628744400,1.490744384765625,-0.0003201119543518871,0.003861583536490798,0.002287122653797269
1782969998638670300,1.50067041015625,-0.000931307440623641,0.0037268276792019606,0.0010668623726814985
1782969998648597500,1.510597412109375,-0.0028967203106731176,0.005653890781104565,0.0002644518972374499
1782969998658523400,1.5205234375,-0.0020538298413157463,0.004982774145901203,0.001648496720008552
1782969998668449300,1.53044921875,0.0012205267557874322,0.006055229343473911,-0.00006178533658385277
1782969998678376400,1.54037646484375,0.001258343574590981,0.004325239919126034,0.003952929750084877
1782969998688302300,1.55030224609375,-0.0008072041091509163,0.00749227125197649,0.002114816103130579
1782969998698228500,1.560228515625,-0.00025060345069505274,0.005200088489800692,0.00028336033574305475
1782969998708155400,1.5701552734375,-0.0005246427026577294,0.0028367992490530014,0.002674879040569067
1782969998718081500,1.58008154296875,-0.004495149478316307,0.0017116136150434613,0.0006543386843986809
1782969998728007400,1.59000732421875,-0.00029774141148664057,0.006874950136989355,0.0009214537567459047
1782969998737934300,1.599934326171875,0.0014900385867804289,0.006444850005209446,0.0015819176333025098
1782969998747860500,1.609860595703125,-0.001817607437260449,0.006301038898527622,0.0012833772925660014
1782969998757786400,1.619786376953125,0.0009739180095493793,0.003257312346249819,-0.0016335829859599471
1782969998767713300,1.62971337890625,0.0006434197421185672,0.0031617048662155867,0.004578772932291031
1782969998777639400,1.639639404296875,-0.0007014766451902688,0.007931692525744438,0.002067944500595331
1782969998787565600,1.649565673828125,0.00009986854274757206,0.005567338317632675,0.003591539105400443
1782969998797491200,1.6594912109375,-0.0035989959724247456,0.005106344819068909,0.002347842790186405
1782969998807418400,1.66941845703125,-0.002332396572455764,0.006803577765822411,0.0005363606614992023
1782969998817344500,1.679344482421875,-0.003400324145331979,0.004250671248883009,0.002817358123138547
1782969998827270100,1.689270263671875,0.0024445154704153538,0.0038312235847115517,-0.00010226538870483637
1782969998837197300,1.699197265625,-0.002642122097313404,0.004523379262536764,0.0012338425731286407
1782969998847123500,1.70912353515625,0.0007819040911272168,0.00404614070430398,0.0025150892324745655
1782969998857049300,1.71904931640625,-0.0006202502408996224,0.0017062872648239136,0.001264202524907887
1782969998866976300,1.728976318359375,-0.0015430354978889227,0.004535363521426916,0.003174487967044115
1782969998876902400,1.73890234375,0.0005512743373401463,0.00478303711861372,0.0005936186062172055
1782969998886828500,1.74882861328125,0.0011299792677164078,0.004336425103247166,0.003382480936124921
1782969998896755500,1.75875537109375,0.0024716798216104507,0.004742290824651718,0.0016359798610210419
1782969998906681300,1.768681396484375,-0.0007366303470917046,0.0030975225381553173,0.0014950985787436366
1782969998916607500,1.778607421875,0.0011944277212023735,0.00657641002908349,0.0022242721170186996
1782969998926534400,1.788534423828125,0.0010934938909485936,0.004227235447615385,0.0039009982720017433
1782969998936460300,1.798460205078125,0.00030173614504747093,0.0027545075863599777,0.0046426886692643166
1782969998946386400,1.808386474609375,0.0007843009079806507,0.004110855516046286,0.002499110298231244
1782969998956313300,1.818313232421875,-0.001327053178101778,0.003953196108341217,0.0012610068079084158
1782969998966239500,1.828239501953125,0.0011283813510090113,0.004838697146624327,0.001297225710004568
1782969998976165400,1.838165283203125,0.00023702133330516517,0.005794771946966648,0.0008082693675532937
1782969998986092300,1.84809228515625,0.00031638352083973587,0.003945473115891218,0.002522546099498868
1782969998996018400,1.858018310546875,0.0007115966291166842,0.005606486462056637,0.002612028270959854
1782969999005944300,1.8679443359375,-0.0018434401135891676,0.006286924239248037,0.0015188007382676005
1782969999015870200,1.8778701171875,-0.0019528960110619664,0.006494651082903147,0.002508964156731963
1782969999025797400,1.88779736328125,-0.0006452839006669819,0.004025900736451149,0.0007483482477255166
1782969999035723500,1.8977236328125,-0.0002878876985050738,0.001955559244379401,0.0025872609112411737
1782969999045649400,1.9076494140625,-0.0020546286832541227,0.00624191714450717,0.0004468784318305552
1782969999055576300,1.917576416015625,0.0002633866388350725,0.00535428524017334,0.00098217383492738
1782969999065502500,1.92750244140625,0.00012623383372556418,0.0070613715797662735,0.0011014834744855762
1782969999075428600,1.9374287109375,-0.00002450108149787411,0.006235791835933924,-0.003094326937571168
1782969999085355300,1.947355224609375,-0.0014319816837087274,0.004815794061869383,0.002367816399782896
1782969999095281400,1.957281494140625,-0.002796851797029376,0.006353503558784723,-0.0003424825263209641
1782969999105207600,1.96720751953125,-0.00041012681322172284,0.0028509139083325863,0.000940095866099
1782969999115134500,1.977134521484375,-0.001116130850277841,0.006650978233665228,0.001885784324258566
1782969999125060400,1.987060302734375,-0.0019430422689765692,0.005681587848812342,0.0017928400775417686
1782969999134986500,1.996986572265625,-0.00045566685730591416,0.004914863966405392,0.0027212179265916348
1782969999144913400,2.006913330078125,-0.000550475378986448,0.0057103498838841915,0.0020453077740967274
1782969999154839300,2.01683935546875,-0.002406698651611805,0.005770004820078611,0.0005965480813756585
1782969999164765400,2.026765380859375,-0.0010546117555350065,0.0038948729634284973,0.0010554107138887048
1782969999174692400,2.0366923828125,-0.0007195860962383449,0.008926383219659328,0.0018461032304912806
1782969999184618500,2.046618408203125,-0.0006913566030561924,0.0062887887470424175,0.003460777923464775
1782969999194544400,2.05654443359375,0.0011861718958243728,0.004256796557456255,-0.000928377965465188
1782969999204471300,2.06647119140625,-0.0010359697043895721,0.005586779210716486,0.0007752461824566126
1782969999214397400,2.0763974609375,-0.000937166390940547,0.005927663762122393,0.0006399576086550951
1782969999224323300,2.0863232421875,-0.00029880666988901794,0.0057614827528595924,0.004063717555254698
1782969999234249500,2.09624951171875,0.001633316627703607,0.004354534670710564,0.0007187871960923076
1782969999244176400,2.10617626953125,0.0013353090034797788,0.006739129312336445,0.0014434333425015211
1782969999254102500,2.1161025390625,0.001526257605291903,0.004477572627365589,0.002922020386904478
1782969999264028400,2.1260283203125,-0.001577123999595642,0.0039292280562222,0.0008439557277597487
1782969999273955300,2.135955322265625,-0.00035206988104619086,0.003966245800256729,-0.000464188982732594
1782969999283881500,2.145881591796875,0.0024405207950621843,0.007245129905641079,0.000642620783764869
1782969999293807400,2.155807373046875,0.00013395700079854578,0.006135923322290182,0.00035499935620464385
1782969999303734300,2.165734375,0.0024202808272093534,0.005031776614487171,0.0012234562309458852
1782969999313660400,2.175660400390625,-0.0001536643976578489,0.004900216590613127,0.00112438655924052
1782969999323586600,2.185586669921875,-0.0003787015157286078,0.004576376173645258,-0.0027166905347257853
1782969999333513200,2.19551318359375,0.0009390306076966226,0.006354035809636116,0.0013672668719664216
1782969999343439400,2.205439453125,-0.0011893677292391658,0.004780107643455267,0.0021108214277774096
1782969999353365500,2.215365478515625,-0.0008130630594678223,0.003418699838221073,0.000800279900431633
1782969999363292400,2.22529248046875,-0.0032533176708966494,0.007619570009410381,0.0013257216196507215
1782969999373218300,2.23521826171875,-0.0032381375785917044,0.004880242515355349,-0.0002748382103163749
1782969999383144400,2.24514453125,0.0016373114194720984,0.0043920851312577724,-0.0007552724564447999
1782969999393071000,2.255071044921875,0.0013166668359190226,0.004111920483410358,0.0006676545017398894
1782969999402997000,2.2649970703125,0.0007243797881528735,0.004521248396486044,0.0011925635626539588
1782969999412923100,2.274923095703125,-0.000535561703145504,0.004257062915712595,0.0014980280539020896
1782969999422849300,2.284849365234375,-0.001526523963548243,0.00510021997615695,0.004463990684598684
1782969999432776200,2.294776123046875,-0.0015164038632065058,0.002954510971903801,0.002432797569781542
1782969999442702000,2.3047021484375,0.0018285263795405626,0.005787048954516649,0.0012295814231038094
1782969999452628200,2.314628173828125,-0.0003097256412729621,0.003906324505805969,0.0014775217277929187
1782969999462555100,2.32455517578125,-0.0001816275907913223,0.006707703694701195,0.001743305241689086
1782969999472481000,2.33448095703125,0.0022423816844820976,0.005008607171475887,0.0005888249143026769
1782969999482407200,2.3444072265625,-0.0005171858938410878,0.003222158644348383,0.0009478190331719816
1782969999492334000,2.354333984375,-0.00148151651956141,0.005118062719702721,0.0014631407102569938
1782969999502260200,2.36426025390625,-0.0019438412273302674,0.004553472623229027,0.0019473034190014005
1782969999512186000,2.37418603515625,-0.0024833977222442627,0.006214752793312073,0.0012623383663594723
1782969999522113000,2.384113037109375,-0.0006005428149364889,0.004959871061146259,0.0017832526937127113
1782969999532039200,2.3940390625,0.0008551410282962024,0.004381432663649321,0.0011677960865199566
1782969999541965000,2.403965087890625,-0.001520398654974997,0.004344680812209845,0.003454386256635189
1782969999551892000,2.41389208984375,0.0002300971100339666,0.005146825220435858,0.003692206460982561
1782969999561818000,2.423818115234375,-0.002225337317213416,0.00443922309204936,-0.000945954816415906
1782969999571744300,2.433744140625,-0.0003153182624373585,0.005377721041440964,0.0010913633741438389
1782969999581671200,2.443671142578125,0.002546780975535512,0.005857356358319521,0.0011741877533495426
1782969999591597000,2.45359716796875,-0.001347559504210949,0.0060211410745978355,0.0016439693281427026
1782969999601523200,2.463523193359375,0.0011478224769234657,0.005815278738737106,-0.0004905542591586709
1782969999611450000,2.4734501953125,-0.0003062635369133204,0.005305549595504999,0.0035321505274623632
1782969999621376000,2.4833759765625,-0.001996571896597743,0.005140433553606272,0.0017832526937127113
1782969999631302100,2.49330224609375,0.0011715245200321078,0.004742290824651718,0.0009574064170010388
1782969999641228300,2.503228271484375,0.0000476705827168189,0.005721002817153931,0.0006580671179108322
1782969999651155200,2.5131552734375,-0.0013177321525290608,0.006120743229985237,0.004095142707228661
1782969999661081000,2.5230810546875,0.0020865867845714092,0.004387291613966227,0.002150502521544695
1782969999671007200,2.53300732421875,-0.0018253305461257696,0.0057710702531039715,0.0023241406306624413
1782969999680934100,2.54293408203125,0.0009629990672692657,0.005119660869240761,0.00446931691840291
1782969999690860000,2.552860107421875,0.0012796488590538502,0.006213687360286713,-0.0005576659459620714
1782969999700786200,2.5627861328125,0.0003683151735458523,0.00577826052904129,0.001401355373673141
1782969999710713000,2.572713134765625,0.0023435817565768957,0.0041060615330934525,0.00207726564258337
1782969999720639200,2.58263916015625,-0.0002623213513288647,0.006597981322556734,0.0014258564915508032
1782969999730565000,2.592565185546875,-0.001156877144239843,0.006076268386095762,-0.0008974852971732616
1782969999740492000,2.602491943359375,-0.003543868428096175,0.004466653801500797,0.001404018490575254
1782969999750418200,2.612418212890625,-0.0007278419216163456,0.0033188313245773315,0.0021065603941679
1782969999760344000,2.622343994140625,-0.0007784419576637447,0.00580835435539484,0.0012721919920295477
1782969999770271000,2.63227099609375,-0.0007206514128483832,0.003946272190660238,0.0032061797101050615
1782969999780197000,2.642197021484375,0.00028762139845639467,0.003737214021384716,0.0014109427575021982
1782969999790123300,2.652123291015625,-0.00005699164830730297,0.0026410568971186876,-0.00036671728594228625
1782969999800050000,2.6620498046875,-0.0017515610670670867,0.005255482159554958,0.0025984463281929493
1782969999809976000,2.67197607421875,-0.004781972151249647,0.007254450581967831,0.0012932310346513987
1782969999819902200,2.681902099609375,0.0006823018775321543,0.0057226005010306835,0.003525492735207081
1782969999829828000,2.691828125,-0.0018383801216259599,0.003236806020140648,0.001580319833010435
1782969999839755000,2.701755126953125,-0.0012681973166763783,0.0033965955954045057,0.004851480480283499
1782969999849681200,2.71168115234375,-0.00018029600323643535,0.0062701464630663395,0.0036368127912282944
1782969999859607300,2.721607177734375,-0.001466869143769145,0.004890362732112408,0.0005089300684630871
1782969999869534000,2.731533935546875,0.00033902039285749197,0.006448844447731972,0.001466869143769145
1782969999879460000,2.741460205078125,0.0009664611425250769,0.004108725115656853,0.0019166769925504923
1782969999889386200,2.75138623046875,-0.0010847054654732347,0.004631237126886845,0.003004844533279538
1782969999899313200,2.761313232421875,0.0003025351034011692,0.005636313930153847,-0.000547279603779316
1782969999909239000,2.771239013671875,0.0004237089306116104,0.005531651899218559,-0.00019734023953787982
1782969999919165200,2.781165283203125,-0.001255946815945208,0.006725813262164593,0.0030831415206193924
1782969999929092000,2.791092041015625,-0.00008735168376006186,0.00501073757186532,0.003631486324593425
1782969999939018000,2.80101806640625,-0.0019646140281111,0.005215800832957029,0.00054142065346241
1782969999948944100,2.810944091796875,-0.002490854589268565,0.006057892460376024,0.0027830032631754875
1782969999958871000,2.82087109375,-0.0010349043877795339,0.006554838269948959,0.00012357067316770554
1782969999968797200,2.830797119140625,-0.0012434299569576979,0.003628823207691312,0.0031489215325564146
1782969999978723000,2.84072314453125,-0.0018780612153932452,0.004415787290781736,0.001534779672510922
1782969999988650000,2.85064990234375,-0.0012748552253469825,0.004743089899420738,0.0028754149097949266
1782969999998576000,2.860576171875,-0.0001382180635118857,0.006252569612115622,0.0026170883793383837
1782970000008502000,2.870501953125,0.0011084076249971986,0.004589958116412163,0.0015518239233642817
1782970000018428200,2.88042822265625,-0.00044314999831840396,0.007096258923411369,0.002615224104374647
1782970000028355000,2.89035498046875,0.0030722226947546005,0.005561479367315769,0.004888232331722975
1782970000038281200,2.90028125,-0.0011222560424357653,0.004000067710876465,0.003602457931265235
1782970000048207000,2.91020703125,-0.00236249016597867,0.0052173989824950695,0.001540638622827828
1782970000058134000,2.920134033203125,0.0001675128296483308,0.00663579860702157,0.002441585995256901
1782970000068060200,2.93006005859375,-0.0005273058777675033,0.006208893842995167,0.0019342538435012102
1782970000077986000,2.939986083984375,-0.0015720640076324344,0.004275705199688673,0.004264253657311201
1782970000087913000,2.949912841796875,-0.0007424892974086106,0.005938583053648472,0.0028794098179787397
1782970000097839000,2.959839111328125,0.001291100517846644,0.0022008363157510757,0.001981391804292798
1782970000107765200,2.96976513671875,-0.0007129282457754016,0.0037446708884090185,0.002660498023033142
1782970000117692200,2.979692138671875,-0.001065264455974102,0.0065260762348771095,0.0015877765836194158
1782970000127618000,2.9896181640625,0.00148125016130507,0.005094361025840044,0.0011041465913876891
1782970000137544200,2.999544189453125,0.0007832356495782733,0.003480751533061266,0.003394465195015073
1782970000147471000,3.00947119140625,-0.00041545313433744013,0.004889830015599728,0.0011648666113615036
1782970000157397000,3.01939697265625,0.00019920444174204022,0.005828594323247671,0.003058640519157052
1782970000167323100,3.0293232421875,0.00038535939529538155,0.005690642632544041,-0.0012634035665541887
1782970000177249300,3.039249267578125,-0.0005528722540475428,0.004372910596430302,0.0011808456620201468
1782970000187176200,3.04917626953125,-0.0008516788948327303,0.006554305553436279,0.0005608617211692035
1782970000197102000,3.05910205078125,0.00023808660625945777,0.004505003336817026,0.0013672668719664216
1782970000207028200,3.0690283203125,-0.0005166532355360687,0.005608350969851017,0.0001882854849100113
1782970000216955100,3.078955078125,0.002942793071269989,0.005732986610382795,-0.0010735202813521028
1782970000226881000,3.088881103515625,0.000952080066781491,0.00589570589363575,0.00339126936160028
1782970000236807200,3.09880712890625,-0.0009259810904040933,0.006628075148910284,0.002549444092437625
1782970000246734000,3.108734130859375,-0.00012383698776829988,0.004244279582053423,0.00108284130692482
1782970000256660200,3.11866015625,0.0011677960865199566,0.004142280668020248,0.0022445120848715305
1782970000266586000,3.128586181640625,0.0008641957538202405,0.005940979812294245,0.0027856663800776005
1782970000276513000,3.138512939453125,0.0010370349045842886,0.006427539046853781,0.0007789746159687638
1782970000286439200,3.148439208984375,-0.0024735440965741873,0.0059897154569625854,0.0008106662426143885
1782970000296365000,3.158364990234375,-0.0006372944335453212,0.007531952112913132,0.0009643306257203221
1782970000306292000,3.1682919921875,-0.0001430117554264143,0.0030104373581707478,0.002633333671838045
1782970000316218000,3.178218017578125,0.0010388991795480251,0.005860019475221634,0.0010128001449629664
1782970000326144300,3.188144287109375,0.0010183927370235324,0.005042695440351963,-0.00017710021347738802
1782970000336071000,3.19807080078125,0.0020386497490108013,0.004828577395528555,0.003108974313363433
1782970000345997000,3.2079970703125,0.0004985437262803316,0.004288754425942898,0.002428004052489996
1782970000355923200,3.217923095703125,0.0010130665032193065,0.006733802612870932,0.00247594085521996
1782970000365849000,3.22784912109375,-0.0010743191232904792,0.001460743835195899,0.0014194648247212172
1782970000375776000,3.23777587890625,0.000565389113035053,0.005419799126684666,0.0019744676537811756
1782970000385702100,3.2477021484375,-0.0015313175972551107,0.003751595038920641,0.0014524880098178983
1782970000395628800,3.25762890625,0.00005193164179218002,0.005701827816665173,0.0015267902053892612
1782970000405555700,3.2675556640625,0.0021257351618260145,0.006462426856160164,0.001939313835464418
1782970000415481900,3.27748193359375,0.0005552690709009767,0.005642971955239773,0.002582201035693288
1782970000425407700,3.28740771484375,-0.0006487460341304541,0.00436039362102747,0.0022338596172630787
1782970000435334700,3.297334716796875,-0.002650377806276083,0.005252552684396505,0.001415736391209066
1782970000445260800,3.3072607421875,0.0014090784825384617,0.0073410035111010075,-0.0003296993381809443
1782970000455187000,3.31718701171875,0.0011515507940202951,0.0037289580795913935,-0.0008239820599555969
1782970000465113600,3.327113525390625,-0.0025683525018393993,0.005083175376057625,0.0003177151083946228
1782970000475039700,3.337039794921875,0.00026019083452410996,0.004344947170466185,0.000910268456209451
1782970000484966000,3.3469658203125,0.0003153182624373585,0.006164418999105692,0.000975782226305455
1782970000494892800,3.356892822265625,0.0005576659459620714,0.003824033075943589,0.0011635350529104471
1782970000504818700,3.366818603515625,0.0004474110610317439,0.00649704784154892,-0.0010458233300596476
1782970000514744800,3.376744873046875,0.0001882854849100113,0.003906857222318649,0.002549444092437625
1782970000524671700,3.386671630859375,-0.001068193931132555,0.005060272291302681,0.0016527577536180615
1782970000534597600,3.39659765625,0.0008343683439306915,0.007287473883479834,0.0032477248460054398
1782970000544523800,3.406523681640625,0.00034967303508892655,0.004148405976593494,0.0011704593198373914
1782970000554450000,3.416449951171875,-0.0013201289111748338,0.0049612028524279594,0.0005909554311074317
1782970000564376800,3.426376953125,-0.00022610237647313625,0.0060264673084020615,0.001463939668610692
1782970000574302700,3.436302734375,-0.0011560781858861446,0.0062363240867853165,-0.0022447784431278706
1782970000584228900,3.446228759765625,-0.00230789533816278,0.004139084834605455,0.0022684806026518345
1782970000594155800,3.45615576171875,-0.0014985607704147696,0.0016378440195694566,0.0032951291650533676
1782970000604081700,3.46608154296875,0.00030892668291926384,0.004566522315144539,0.0006290386663749814
1782970000614007800,3.4760078125,-0.0004543352697510272,0.004483697935938835,0.0013028184184804559
1782970000623934700,3.485934814453125,0.0025214808993041515,0.0049225869588553905,0.0018687400734052062
1782970000633860900,3.49586083984375,-0.0024112260434776545,0.004826180636882782,0.0024458470288664103
1782970000643786800,3.505786865234375,-0.0023638217244297266,0.00484189298003912,-0.00004846953015658073
1782970000653713700,3.515713623046875,0.0009811085183173418,0.005036303773522377,0.0025832662358880043
1782970000663639800,3.525639892578125,0.0013957626651972532,0.005770537536591291,0.00361737166531384
1782970000673565700,3.535565673828125,-0.00007962851668708026,0.0076294238679111,0.003201119601726532
1782970000683492600,3.54549267578125,-0.002017078222706914,0.005086371209472418,0.006021939683705568
1782970000693418800,3.555418701171875,-0.0013584784464910626,0.005072522908449173,0.0002665824140422046
1782970000703345000,3.565344970703125,0.002074069809168577,0.002828543307259679,-0.00010812433902174234
1782970000713270800,3.575270751953125,-0.0016650082543492317,0.0038956720381975174,0.0002665824140422046
1782970000723197700,3.58519775390625,0.0004415521107148379,0.005279717035591602,0.0013411679537966847
1782970000733123800,3.595123779296875,-0.0005344964447431266,0.004596349783241749,0.002139050979167223
1782970000743050000,3.605050048828125,-0.00020160128769930452,0.006442719139158726,0.0014647386269643903
1782970000752976600,3.6149765625,0.0010279801208525896,0.004114051349461079,0.002513757674023509
1782970000762902800,3.62490283203125,0.00009347695595351979,0.003920173272490501,0.0010719223646447062
1782970000772829000,3.634828857421875,0.0025502429343760014,0.004923652391880751,0.002115881536155939
1782970000782755800,3.644755859375,-0.0015757924411445856,0.00577852688729763,0.0018671422731131315
1782970000792681700,3.654681640625,-0.0005808354471810162,0.005554821342229843,0.0006657902849838138
1782970000802607900,3.66460791015625,0.0009566074586473405,0.005932457745075226,0.0023457121569663286
1782970000812534800,3.67453466796875,-0.0006016080733388662,0.006345513742417097,0.00044368262751959264
1782970000822460700,3.684460693359375,0.0021409152541309595,0.005621133837848902,0.0010791128734126687
1782970000832386800,3.69438671875,0.0002849582233466208,0.0040946099907159805,0.0023086944129318
1782970000842313700,3.704313720703125,0.00037976677413098514,0.005255482159554958,0.0022005699574947357
1782970000852240000,3.714239990234375,0.0009859022684395313,0.005850964691489935,0.0018700717482715845
1782970000862165800,3.724165771484375,-0.000037017940485384315,0.004636829718947411,0.0025622271932661533
1782970000872091600,3.734091552734375,-0.0004021373169962317,0.0026487798895686865,0.0025885924696922302
1782970000882018800,3.744018798828125,-0.00004207794336252846,0.0052027516067028046,0.001888980157673359
1782970000891944700,3.75394482421875,-0.001785116852261126,0.004993959795683622,0.0027422569692134857
1782970000901870800,3.763870849609375,0.0009763148264028132,0.006649913266301155,0.0027023095171898603
1782970000911797800,3.7737978515625,-0.0009741843095980585,0.005106611177325249,0.0028666264843195677
1782970000921724000,3.783723876953125,0.0015694007743149996,0.004354801028966904,-0.0003251719754189253
1782970000931649800,3.79364990234375,-0.0005339637864381075,0.003762780223041773,0.001121457084082067
1782970000941576700,3.80357666015625,0.0025337315164506435,0.006313023157417774,0.0002133192028850317
1782970000951502800,3.8135029296875,0.00130947632715106,0.005144162103533745,0.0027499801944941282
1782970000961428700,3.8234287109375,0.002436792477965355,0.002826412906870246,0.0017241304740309715
1782970000971355600,3.833355712890625,0.0018074874533340335,0.0016753945965319872,0.0010993528412654996
1782970000981281800,3.84328173828125,-0.001222390914335847,0.0057590859942138195,0.0012471582740545273
1782970000991208000,3.8532080078125,-0.0004599279200192541,0.002287389012053609,0.0021883193403482437
1782970001001134600,3.863134521484375,-0.0004450142150744796,0.0033430662006139755,0.0033537186682224274
1782970001011060700,3.873060791015625,0.00013848437811248004,0.006764162797480822,0.0009361011325381696
1782970001020987000,3.88298681640625,0.0001549959706608206,0.00549197057262063,0.0024852619972079992
1782970001030912500,3.89291259765625,-0.0026913906913250685,0.003765976056456566,-0.0008103998843580484
1782970001040839700,3.902839599609375,-0.0005155879771336913,0.0065508438274264336,-0.00015153386630117893
1782970001050765800,3.912765869140625,-0.0009619337506592274,0.004768123384565115,0.004267449490725994
1782970001060689700,3.922689697265625,-0.0018628811230883002,0.006996923126280308,0.001109739183448255
1782970001070615800,3.93261572265625,-0.0017182715237140656,0.003771568648517132,-0.0021784657146781683
1782970001080542700,3.942542724609375,0.0006226470577530563,0.005685849115252495,0.0006940197781659663
1782970001090468600,3.952468505859375,0.002046639332547784,0.0059633501805365086,0.0026517093647271395
1782970001100394800,3.962394775390625,-0.002543318783864379,0.004165716469287872,0.0003009371866937727
1782970001110321700,3.97232177734375,-0.002319879597052932,0.004886634182184935,0.0020096213556826115
1782970001120247800,3.982247802734375,0.0002801645314320922,0.007812383119016886,-0.000523577444255352
1782970001130173700,3.992173583984375,-0.002808569697663188,0.003325489116832614,0.0005510080372914672
1782970001140100600,4.0021005859375,-0.003591006388887763,0.006691991351544857,0.001141963410191238
1782970001150026800,4.01202685546875,-0.0014977618120610714,0.005016596522182226,0.0019417107105255127
1782970001159952600,4.02195263671875,-0.00036618465674109757,0.00552366254851222,-0.0001853560097515583
1782970001169878800,4.031878662109375,-0.0006668555433861911,0.003537476761266589,0.003555586328729987
1782970001179805700,4.0418056640625,0.0006000102148391306,0.007929296232759953,0.0034525219816714525
1782970001189731800,4.05173193359375,-0.0006404902087524533,0.003754258155822754,0.0036906085442751646
1782970001199657700,4.06165771484375,-0.0022208099253475666,0.004364122170954943,0.0004319647268857807
1782970001209584600,4.071584716796875,0.002108957152813673,0.002683134749531746,0.0013294500531628728
1782970001219510800,4.0815107421875,-0.001353152096271515,0.0067961206659674644,0.0023004384711384773
1782970001229436700,4.091436767578125,0.000663393409922719,0.0023454460315406322,0.000958205375354737
1782970001239363600,4.101363525390625,-0.0029622339643538,0.005411809775978327,0.0007440872141160071
1782970001249289700,4.111289794921875,-0.0008141283178701997,0.004298341926187277,0.00166580721270293
1782970001259216000,4.1212158203125,0.0006756439688615501,0.004495415836572647,0.0025739450938999653
1782970001269142500,4.131142578125,-0.002654372714459896,0.005466138012707233,0.0037116475868970156
1782970001279068700,4.141068603515625,-0.0033364081755280495,0.00555269094184041,0.00022024342615623027
1782970001288994800,4.150994873046875,-0.00037736992817372084,0.0054128747433424,0.0032684975303709507
1782970001298921700,4.160921630859375,0.0014769891276955605,0.0030834078788757324,0.0009084042394533753
1782970001308847600,4.17084765625,-0.0017560884589329362,0.004559864290058613,0.004797684494405985
1782970001318773800,4.180773681640625,0.0014077469240874052,0.0029286781791597605,0.0026181535795331
1782970001328700000,4.190699951171875,0.000865793670527637,0.0052264537662267685,0.001796834752894938
1782970001338626800,4.200626708984375,-0.0018796591321006417,0.004804342519491911,-0.00011345066013745964
1782970001348552700,4.210552734375,-0.00007856325100874528,0.005110339727252722,0.00038962045800872147
1782970001358478800,4.220478759765625,-0.00021358551748562604,0.005077582783997059,0.0026082999538630247
1782970001368405800,4.23040576171875,-0.0005078648100607097,0.0032503881957381964,0.0026413232553750277
1782970001378331600,4.24033154296875,0.0009203884401358664,0.004202734678983688,-0.00032890037982724607
1782970001388257800,4.2502578125,-0.0012570120161399245,0.005446164403110743,0.0012069445801898837
1782970001398184700,4.260184814453125,0.0009861685102805495,0.0036669063847512007,0.001728391507640481
1782970001408110600,4.270110595703125,-0.000179230744834058,0.0027449200861155987,0.0007595335482619703
1782970001418036700,4.28003662109375,-0.00035899411886930466,0.006173207424581051,0.004328435752540827
1782970001427963600,4.289963623046875,-0.0014990933705121279,0.003882622579112649,0.0011206581257283688
1782970001437889500,4.2998896484375,-0.0012229235144332051,0.004233360756188631,0.0005520732956938446
1782970001447815700,4.309815673828125,0.0015789881581440568,0.00444028852507472,0.0016391756944358349
1782970001457742600,4.31974267578125,0.00006285060226218775,0.0041039311327040195,0.0029228192288428545
1782970001467670800,4.3296708984375,-0.0032948628067970276,0.004780107643455267,0.0005430185701698065
1782970001477597700,4.33959765625,-0.00015925703337416053,0.005839246790856123,0.0019358517602086067
1782970001487523600,4.349523681640625,-0.00027856664382852614,0.006894657853990793,0.0034024545457214117
1782970001497449700,4.35944970703125,0.001079645473510027,0.003165433183312416,0.0013859090395271778
1782970001507375600,4.369375732421875,0.0025936525780707598,0.0028581044171005487,0.0023190807551145554
1782970001517302800,4.379302734375,-0.0007837683078832924,0.008649947121739388,0.001784850494004786
1782970001527228700,4.389228759765625,0.0026431872975081205,0.005228850524872541,0.0011779161868616939
1782970001537154600,4.399154541015625,-0.0002788329729810357,0.00625975988805294,0.0006894923863001168
1782970001547081700,4.409081787109375,-0.0017843178939074278,0.008980711922049522,0.0021318604703992605
1782970001557007600,4.419007568359375,-0.0014855111949145794,0.0028570392169058323,0.0025747441686689854
1782970001566933500,4.42893359375,0.000002663161012605997,0.004567587748169899,0.0017976337112486362
1782970001576860700,4.438860595703125,0.00029055087361484766,0.0034533210564404726,0.0020820593927055597
1782970001586786800,4.448786865234375,0.0010050770360976458,0.004312456585466862,0.0007997472421266139
1782970001596712700,4.458712646484375,-0.0001257012045243755,0.003931891173124313,0.0037015276029706
1782970001606639600,4.4686396484375,0.0020298613235354424,0.0046477485448122025,0.00016405072528868914
1782970001616565800,4.478565673828125,-0.0022128205746412277,0.00612287363037467,0.003911118488758802
1782970001626491600,4.48849169921875,-0.003495665267109871,0.005062402691692114,-0.0012980246683582664
1782970001636417500,4.49841748046875,0.0013992248568683863,0.004488491453230381,0.002627474721521139
1782970001646344700,4.5083447265625,-0.0008221178431995213,0.0038187066093087196,0.0013140037190169096
1782970001656270800,4.518270751953125,-0.0009203884401358664,0.00899748969823122,-0.002323341788724065
1782970001666196500,4.528196533203125,-0.0012522183824330568,0.006071474403142929,-0.002407231368124485
1782970001676123600,4.53812353515625,-0.002499376656487584,0.004321511369198561,0.002208026824519038
1782970001686049800,4.5480498046875,-0.0015214639715850353,0.0055004931055009365,0.0005989448982290924
1782970001695975400,4.557975341796875,-0.005046690348535776,0.004495682194828987,0.0022146848496049643
1782970001705902600,4.567902587890625,0.0013129384024068713,0.0044232443906366825,0.001457548001781106
1782970001715828700,4.577828857421875,-0.000322775129461661,0.005258944351226091,0.0037052559200674295
1782970001725754600,4.587754638671875,-0.0013052152935415506,0.00740332156419754,-0.0013217268278822303
1782970001735681800,4.597681884765625,-0.001603755634278059,0.006758570205420256,0.0012958941515535116
1782970001745607700,4.607607666015625,-0.00041092574247159064,0.007870440371334553,-0.0008511462947353721
1782970001755533600,4.617533447265625,-0.00039840888348408043,0.0068150293081998825,0.002397643867880106
1782970001765460700,4.627460693359375,-0.001151018193922937,0.006572681479156017,0.001543568097986281
1782970001775386600,4.63738671875,-0.0005699164466932416,0.0062581622041761875,-0.00003408846168895252
1782970001785312800,4.647312744140625,0.004066380672156811,0.003318032482638955,0.0018785938154906034
1782970001795239700,4.65723974609375,-0.0005850964807905257,0.0065103634260594845,-0.0013259878614917397
1782970001805165800,4.667165771484375,-0.0011124024167656898,0.005016596522182226,0.0019411781104281545
1782970001815091700,4.677091796875,-0.0004572647449094802,0.003744937013834715,0.0007241134881041944
1782970001825017600,4.687017578125,-0.002372077666223049,0.004405667539685965,0.0009592706337571144
1782970001834944800,4.69694482421875,-0.0030711572617292404,0.004826180636882782,0.0014929680619388819
1782970001844870700,4.70687060546875,-0.00015579492901451886,0.004805674310773611,0.002263953210785985
1782970001854796500,4.716796630859375,0.00035260253935121,0.005081311333924532,0.0008495483780279756
1782970001864723700,4.7267236328125,0.00012863067968282849,0.0070584421046078205,0.001820536912418902
1782970001874649900,4.73664990234375,-0.001574194524437189,0.0049532135017216206,0.0010982876410707831
1782970001884575500,4.746575439453125,0.00031425300403498113,0.0028509139083325863,0.000728907180018723
1782970001894502700,4.756502685546875,0.0001627191377338022,0.005351622123271227,0.003371029393747449
1782970001904428800,4.7664287109375,-0.000036218989407643676,0.0030447919853031635,0.0024058998096734285
1782970001914354700,4.776354736328125,-0.0019140138756483793,0.006232862360775471,0.003364637726917863
1782970001924281600,4.786281494140625,-0.0012516856659203768,0.006365753710269928,0.0011235876008868217
1782970001934207700,4.796207763671875,-0.0014002900570631027,0.00446878420189023,0.0023792681749910116
1782970001944133600,4.806133544921875,-0.000844754686113447,0.008072573691606522,0.002645584288984537
1782970001954059500,4.8160595703125,0.0014562164433300495,0.005660815164446831,0.0010583401890471578
1782970001963986700,4.825986572265625,-0.00021438446128740907,0.0038221688009798527,0.0018136126454919577
1782970001973912800,4.835912841796875,-0.0011108045000582933,0.003915912006050348,-0.0005259743193164468
1782970001983838500,4.84583837890625,-0.00017097493400797248,0.004254133440554142,0.0034823494497686625
1782970001993765600,4.855765625,-0.0017222663154825568,0.006431001238524914,0.0028269453905522823
1782970002003691800,4.86569189453125,-0.0017249294323846698,0.004456533584743738,0.0008109325426630676
1782970002013617700,4.87561767578125,0.00007456851017195731,0.005638711154460907,0.0009534116834402084
1782970002023544600,4.885544677734375,-0.002603239845484495,0.006795055698603392,0.0018527611391618848
1782970002033470700,4.895470703125,-0.0006831008358858526,0.004823517519980669,0.002668487373739481
1782970002043396600,4.905396728515625,-0.00034914040588773787,0.0038754320703446865,0.0017536915838718414
1782970002053323800,4.91532373046875,-0.002435727044939995,0.005331648513674736,0.0024517059791833162
1782970002063249700,4.925249755859375,-0.0014154701493680477,0.0060240705497562885,0.0011486213188618422
1782970002073175600,4.935175537109375,-0.0012716593919321895,0.005510879214853048,0.001270594191737473
1782970002083102700,4.945102783203125,0.0012359730899333954,0.004520716145634651,0.003596332622691989
1782970002093028600,4.955028564453125,0.00006764429417671636,0.005905293393880129,-0.0007060039788484573
1782970002102954800,4.964954833984375,-0.000290018244413659,0.005347094964236021,0.0015781891997903585
1782970002112880600,4.974880615234375,0.0013289173366501927,0.003766775131225586,0.0017153420485556126
1782970002122807800,4.984807861328125,0.0003818972909357399,0.005164668429642916,0.0006551376427523792
1782970002132733700,4.994733642578125,0.0004106594424229115,0.004455734975636005,0.0022218753583729267
1782970002142659600,5.00465966796875,-0.0012282498646527529,0.005336442030966282,-0.0003105245705228299
1782970002152586800,5.014586669921875,-0.0016913736471906304,0.006340453866869211,0.0006838997360318899
1782970002162513000,5.024512939453125,0.002572879893705249,0.0052384380251169205,-0.0007757788407616317
1782970002172438500,5.0344384765625,-0.002590989461168647,0.0049462891183793545,0.001600293442606926
1782970002182365700,5.04436572265625,-0.001020523370243609,0.006078665144741535,0.0014658038271591067
1782970002192291800,5.054291748046875,0.00022556974727194756,0.007421164773404598,0.00013901700731366873
1782970002202217500,5.064217529296875,0.0001579254458192736,0.004844556096941233,0.003683418035507202
1782970002212144600,5.07414453125,-0.0004261057765688747,0.005972671322524548,-0.000035420041967881843
1782970002222070800,5.08407080078125,0.00017363809456583112,0.004774515051394701,0.003751062322407961
1782970002231996700,5.09399658203125,0.0008175904513336718,0.005545233841985464,-0.0014972290955483913
1782970002241923600,5.103923583984375,-0.0016418388113379478,0.006465356331318617,0.002371544949710369
1782970002251849700,5.113849609375,-0.0006892260862514377,0.0009552759001962841,-0.000005326322025211994
1782970002261775600,5.123775634765625,-0.0009507485083304346,0.005397428758442402,0.0010924286907538772
1782970002271701500,5.133701416015625,-0.0034527883399277925,0.007006510626524687,0.0025297366082668304
1782970002281628700,5.143628662109375,0.0004324973560869694,0.004865062423050404,0.001999501371756196
1782970002291554800,5.153554931640625,0.00012090751260984689,0.005045624915510416,0.002433863002806902
1782970002301480700,5.163480712890625,-0.0023425165563821793,0.005587045568972826,0.002263420494273305
1782970002311407600,5.17340771484375,-0.0015480954898521304,0.003977697342634201,0.0006908240029588342
1782970002321333800,5.183333740234375,0.0015097459545359015,0.0057433731853961945,0.0024445154704153538
1782970002331259600,5.193259765625,0.0008194546680897474,0.002528405049815774,0.001439971150830388
1782970002341186800,5.203186767578125,-0.000182959163794294,0.003745203372091055,0.001966211711987853
1782970002351112700,5.21311279296875,-0.0007012102869339287,0.00689172837883234,0.0026647590566426516
1782970002361038600,5.22303857421875,-0.002058623591437936,0.006141249556094408,0.0010010822443291545
1782970002370965800,5.2329658203125,-0.000847950461320579,0.005650162696838379,0.0013145363191142678
1782970002380891600,5.2428916015625,-0.001201884588226676,0.006654706783592701,0.0022386531345546246
1782970002390817500,5.252817626953125,-0.0029859361238777637,0.004070907831192017,0.005106877535581589
1782970002400743000,5.262742919921875,-0.001181644620373845,0.006592921447008848,-0.0005075985100120306
1782970002410670000,5.272670166015625,-0.0005286374944262207,0.0025156219489872456,0.0010191916953772306
1782970002420596200,5.28259619140625,0.002629871480166912,0.005842442624270916,0.002019474981352687
1782970002430521900,5.29252197265625,-0.0015656723408028483,0.005406483076512814,0.0027739484794437885
1782970002440449000,5.302448974609375,0.001109739183448255,0.0038309572264552116,-0.0012546151410788298
1782970002450375200,5.312375244140625,-0.0026493126060813665,0.004591023549437523,-0.0010764497565105557
1782970002460300800,5.32230078125,-0.0005645901546813548,0.004098604898899794,0.002028529765084386
1782970002470228000,5.33222802734375,-0.001970472978428006,0.006871488410979509,0.0014474280178546906
1782970002480154000,5.342154052734375,-0.0008463526028208435,0.0038743666373193264,0.0016370450612157583
1782970002490080000,5.352080078125,-0.0024956483393907547,0.0037111148703843355,0.00034354778472334146
1782970002500007200,5.362007080078125,-0.0010048106778413057,0.0020999026019126177,-0.00012117382721044123
1782970002509933000,5.37193310546875,-0.0026668894570320845,0.004363323096185923,0.0018644790397956967
1782970002519859200,5.381859130859375,-0.0014029532903805375,0.004957740660756826,0.00035499935620464385
1782970002529784800,5.391784912109375,0.000928111607208848,0.0052352421917021275,0.0010189254535362124
1782970002539712000,5.4017119140625,0.0002282329078298062,0.005693039391189814,0.0019449065439403057
1782970002549638100,5.41163818359375,0.000627973407972604,0.0033044503070414066,0.0011094729416072369
1782970002559564000,5.42156396484375,0.00037390782381407917,0.004552141297608614,-0.0014319816837087274
1782970002569491200,5.4314912109375,0.000904409505892545,0.005471464246511459,0.0016370450612157583
1782970002579417000,5.4414169921875,-0.0010958907660096884,0.006439523305743933,0.0007624630234204233
1782970002589343000,5.451343017578125,0.0002918824611697346,0.00378967821598053,0.0011867046123370528
1782970002599270100,5.461270263671875,-0.0026434536557644606,0.0033539850264787674,0.002234658459201455
1782970002609196000,5.471196044921875,0.0007592672482132912,0.0052413675002753735,0.0014977618120610714
1782970002619122000,5.481121826171875,-0.0008793757879175246,0.004982774145901203,-0.0004623247659765184
1782970002629049000,5.491049072265625,-0.0013105415273457766,0.005047488957643509,0.002372077666223049
1782970002638975200,5.500975341796875,0.00021544973424170166,0.006644054315984249,0.002545981900766492
1782970002648900900,5.51090087890625,0.00044581317342817783,0.006353769451379776,0.0013044163351878524
1782970002658827000,5.520826904296875,0.0015257250051945448,0.005622199270874262,-0.001198955113068223
1782970002668754200,5.530754150390625,0.0008793757879175246,0.004356931429356337,-0.0003147856332361698
1782970002678680000,5.54068017578125,-0.0015078817959874868,0.006670153234153986,0.00048602689639665186
1782970002688606000,5.55060595703125,-0.00008388957212446257,0.005179582163691521,0.005305549595504999
1782970002698533000,5.560533203125,0.0023276028223335743,0.003370763035491109,-0.00145195540972054
1782970002708459300,5.570459228515625,-0.003406715579330921,0.0037997981999069452,-0.0003336940717417747
1782970002718385000,5.580385009765625,-0.0013464941876009107,0.005769205745309591,0.0009901633020490408
1782970002728312000,5.59031201171875,0.0010756507981568575,0.004571582190692425,0.0026133600622415543
1782970002738238200,5.60023828125,0.000055660068028373644,0.00577959232032299,0.0023731428664177656
1782970002748163800,5.610163818359375,-0.00031079089967533946,0.006479470990598202,0.001463939668610692
1782970002758091000,5.620091064453125,0.00048709215479902923,0.00637827068567276,-0.00008468852320220321
1782970002768017200,5.63001708984375,-0.0029736857395619154,0.005829127039760351,-0.0005006743012927473
1782970002777943000,5.639943115234375,0.0003406183095648885,0.00609384523704648,0.003757720347493887
1782970002787870000,5.649869873046875,-0.0022570290602743626,0.006873618811368942,0.003634682158008218
1782970002797796000,5.659796142578125,0.0016556872287765145,0.004549478180706501,0.0017755294684320688
1782970002807722000,5.669721923828125,-0.0005352954030968249,0.005520733073353767,0.0014231932582333684
1782970002817647900,5.67964794921875,0.00007350324449362233,0.0030216225422918797,0.004514590837061405
1782970002827575000,5.689574951171875,0.0005483448621816933,0.005733785685151815,0.001327053178101778
1782970002837501000,5.6995009765625,-0.000636761833447963,0.004488757811486721,0.002251968951895833
1782970002847427000,5.709427001953125,-0.0003502056933939457,0.0054821171797811985,-0.0016277240356430411
1782970002857354000,5.71935400390625,0.00023968449386302382,0.007165235001593828,0.0018407768802717328
1782970002867280100,5.729280029296875,-0.0034208304714411497,0.005400358233600855,0.0029324067290872335
1782970002877206000,5.7392060546875,-0.0002892192860599607,0.00421338714659214,0.0021888520568609238
1782970002887133200,5.74913330078125,0.0012639362830668688,0.006393983494490385,0.0026293389964848757
1782970002897059000,5.75905908203125,-0.0004450142150744796,0.005735650192946196,0.0006133259739726782
1782970002906985000,5.76898486328125,-0.00020053602929692715,0.006237655878067017,0.0011640676530078053
1782970002916912000,5.778912109375,0.0006325007416307926,0.006472013890743256,-0.0014865765115246177
1782970002926838000,5.788838134765625,-0.00216568261384964,0.006985471583902836,0.002198439557105303
1782970002936764000,5.798763916015625,0.00021598236344289035,0.00603392394259572,0.002111886627972126
1782970002946690000,5.80868994140625,-0.0013763216556981206,0.0030828751623630524,0.0030120352748781443
1782970002956617200,5.8186171875,0.00023968449386302382,0.004465854726731777,0.0037023264449089766
1782970002966542800,5.82854296875,0.00321843009442091,0.003936418332159519,0.0036184368655085564
1782970002976469000,5.838468994140625,-0.000743554555810988,0.0029912625905126333,0.002046905690804124
1782970002986396200,5.848396240234375,-0.0022269352339208126,0.00433003343641758,0.001055943313986063
1782970002996322000,5.858322021484375,0.00032890037982724607,0.004855209030210972,0.0020668793004006147
1782970003006248000,5.868248046875,0.0036125779151916504,0.0019201391842216253,0.00239151855930686
1782970003016175000,5.878175048828125,-0.0024802018888294697,0.004562527406960726,0.0009832390351220965
1782970003026101000,5.88810107421875,-0.001478587044402957,0.005847768858075142,0.0009382316493429244
1782970003036027000,5.89802685546875,-0.0024716798216104507,0.0041337586008012295,0.0026911243330687284
1782970003045954000,5.9079541015625,-0.0024804682470858097,0.004868258256465197,0.0011883024126291275
1782970003055880200,5.917880126953125,-0.0015225291717797518,0.006459763273596764,0.0006239786162041128
1782970003065806000,5.92780615234375,-0.0002511360798962414,0.001936384360305965,0.0026165556628257036
1782970003075732000,5.93773193359375,-0.0007779093575663865,0.0035489285364747047,0.0009725864510983229
1782970003085659100,5.9476591796875,-0.000672181835398078,0.0076392777264118195,0.001981658162549138
1782970003095585000,5.9575849609375,0.0007621967233717442,0.004180363845080137,0.0025955168530344963
1782970003105511000,5.967510986328125,-0.00015419702685903758,0.00401498144492507,0.0034887411165982485
1782970003115438000,5.97743798828125,-0.0010069411946460605,0.006106628105044365,0.0009084042394533753
1782970003125364000,5.987364013671875,0.000040480048483004794,0.005557750817388296,0.001972337020561099
1782970003135290000,5.9972900390625,-0.0024983114562928677,0.004976915195584297,0.003287672298029065
1782970003145217000,6.007217041015625,0.0014759238110855222,0.0029174929950386286,0.0013243899447843432
1782970003155143000,6.017142822265625,0.001118793967179954,0.0046394928358495235,0.00006764429417671636
1782970003165069000,6.027069091796875,-0.0006087986403144896,0.004965197294950485,0.0007741809240542352
1782970003174996200,6.036996337890625,0.0012088088551536202,0.005261607468128204,0.0022631543688476086
1782970003184921900,6.046921875,0.00045593318645842373,0.0029113676864653826,0.002579537918791175
1782970003194848000,6.056847900390625,-0.002266349969431758,0.005946306046098471,-0.0015283881220966578
1782970003204774100,6.066774169921875,-0.0004854942671954632,0.00523710623383522,0.001008805469609797
1782970003214701000,6.076701171875,0.0007925567333586514,0.0031244205310940742,0.0016431703697890043
1782970003224627000,6.086626953125,-0.00025007082149386406,0.005682653281837702,0.0013219931861385703
1782970003234553000,6.096552978515625,-0.0011566109023988247,0.005686647724360228,0.003721501212567091
1782970003244480300,6.106480224609375,-0.00047936898772604764,0.005863748025149107,0.001889246515929699
1782970003254406000,6.116406005859375,0.0006061354652047157,0.00455666845664382,0.002168345730751753
1782970003264332000,6.12633203125,-0.0014484933344647288,0.005967877805233002,0.002775812754407525
1782970003274259200,6.13625927734375,0.00044022052315995097,0.005322327371686697,0.0046967510133981705
1782970003284184800,6.146184814453125,-0.0004090615548193455,0.005007009021937847,0.0019478360190987587
1782970003294111000,6.156111083984375,-0.0010684601729735732,0.006355367600917816,0.0030250847339630127
1782970003304038100,6.1660380859375,-0.0031353395897895098,0.004453337751328945,0.002807770622894168
1782970003313964000,6.175964111328125,-0.0016820525052025914,0.004569984506815672,-0.00019361180602572858
1782970003323890000,6.185889892578125,-0.002338521648198366,0.004932973068207502,0.0027177559677511454
1782970003333816000,6.195816162109375,-0.001674861996434629,0.005675728898495436,0.0008652610122226179
1782970003343743000,6.205742919921875,-0.0018956380663439631,0.003960653208196163,0.0021979068405926228
1782970003353668900,6.2156689453125,-0.0010937602492049336,0.0064776064828038216,0.0026724820490926504
1782970003363595000,6.225594970703125,-0.0025001754984259605,0.003805124433711171,0.0019947076216340065
1782970003373522000,6.23552197265625,-0.001817607437260449,0.006397712044417858,0.000055926382628967986
1782970003383448000,6.245447998046875,0.0005965480813756585,0.004521514754742384,0.0022714100778102875
1782970003393374500,6.25537451171875,-0.00035739620216190815,0.006274141371250153,-0.0011283813510090113
1782970003403301400,6.26530126953125,0.0010934938909485936,0.005782255437225103,-0.001526257605291903
1782970003413227300,6.275227294921875,-0.0007190534961409867,0.006404635962098837,0.0014293185668066144
1782970003423153400,6.2851533203125,-0.0011696603614836931,0.006926615722477436,0.0020098877139389515
1782970003433080300,6.295080322265625,-0.0016892430139705539,0.00526560191065073,0.0030131004750728607
1782970003443006500,6.30500634765625,0.00029774141148664057,0.005093561951071024,0.001954493811354041
1782970003452932400,6.314932373046875,-0.0014884406700730324,0.0067961206659674644,0.0014335796004161239
1782970003462858500,6.3248583984375,0.0003153182624373585,0.005176119972020388,0.0006125270738266408
1782970003472785400,6.334785400390625,0.0012836436508223414,0.003961452282965183,0.0018809906905516982
1782970003482711300,6.344711181640625,-0.002668487373739481,0.003992078360170126,0.002492984989657998
1782970003492637400,6.354637451171875,-0.001026115962304175,0.007242999039590359,-0.0003182477375958115
1782970003502564400,6.364564453125,-0.000017310547264060006,0.0054914383217692375,0.004087419714778662
1782970003512490500,6.374490478515625,-0.0011771172285079956,0.005991579964756966,-0.0009246495319530368
1782970003522416400,6.38441650390625,-0.0024642229545861483,0.003929493948817253,0.0003981425834354013
1782970003532343300,6.39434326171875,0.0012697952333837748,0.005712214391678572,0.002861566608771682
1782970003542269400,6.40426953125,-0.0026234800461679697,0.003850398352369666,0.0023044333793222904
1782970003552195300,6.4141953125,-0.0013904364313930273,0.004633633885532618,0.003224821761250496
1782970003562122200,6.424122314453125,0.0012098740553483367,0.007894141599535942,0.0033606430515646935
1782970003572048400,6.43404833984375,-0.001398425898514688,0.007012635935097933,0.0022570290602743626
1782970003581974500,6.443974609375,0.0015662050573155284,0.004567055031657219,0.0009243832319043577
1782970003591900400,6.453900390625,-0.0007920240750536323,0.005846703890711069,0.0020216056145727634
1782970003601827300,6.463827392578125,0.0014506238512694836,0.006970025133341551,0.0029909962322562933
1782970003611753500,6.47375341796875,0.0013907026732340455,0.0036104475148022175,-0.0006993460701778531
1782970003621679400,6.483679443359375,-0.0008751147543080151,0.0049156625755131245,0.0009092031978070736
1782970003631606300,6.493606201171875,-0.00008149272616719827,0.003949734382331371,0.0035603800788521767
1782970003641532400,6.503532470703125,-0.0003246393462177366,0.002688993699848652,0.0009390306076966226
1782970003651458600,6.51345849609375,-0.0007909588166512549,0.0027081684675067663,0.0025963156949728727
1782970003661385200,6.52338525390625,0.002040780382230878,0.004021373111754656,-0.00020053602929692715
1782970003671311400,6.533311279296875,-0.0010165285784751177,0.0079159801825881,0.001845038030296564
1782970003681237500,6.543237548828125,-0.0017449031583964825,0.004747350700199604,0.001484712352976203
1782970003691164400,6.553164306640625,-0.000672181835398078,0.003973968792706728,0.0006301039247773588
1782970003701090300,6.56309033203125,-0.00018668759730644524,0.005783320404589176,0.0022280006669461727
1782970003711016400,6.573016357421875,-0.002398176584392786,0.003861317178234458,-0.0003653856983873993
1782970003720942600,6.582942626953125,-0.00013928332191426307,0.00683180708438158,0.00133903743699193
1782970003730869200,6.592869140625,0.001529187080450356,0.005476790945976973,0.0016841830220073462
1782970003740795400,6.60279541015625,-0.0012767193838953972,0.007167898118495941,0.001567802974022925
1782970003750721500,6.612721435546875,0.00042024682625196874,0.006184126250445843,0.001094559207558632
1782970003760648400,6.6226484375,-0.0016415724530816078,0.0038309572264552116,0.003269829088822007
1782970003770574300,6.63257421875,-0.000461259507574141,0.0018753979820758104,0.0021965752821415663
1782970003780500500,6.64250048828125,0.0001608549355296418,0.0030370689928531647,0.0031366711482405663
1782970003790427400,6.652427490234375,-0.0008064051507972181,0.005320463329553604,0.0025031049735844135
1782970003800353500,6.662353515625,0.0014154701493680477,0.006184925325214863,0.0036362800747156143
1782970003810279400,6.672279541015625,0.0012333098566159606,0.002211222657933831,-0.000218645524000749
1782970003820206300,6.682206298828125,0.000788561999797821,0.006178267300128937,0.0010258496040478349
1782970003830132500,6.692132568359375,0.002207494108006358,0.003750795964151621,0.0023790018167346716
1782970003840058400,6.702058349609375,-0.0014831144362688065,0.006921821739524603,0.0016231966437771916
1782970003849984500,6.711984619140625,0.0005914880894124508,0.005774265620857477,-0.0015385081060230732
1782970003859911400,6.721911376953125,0.0004183826094958931,0.00723500968888402,-0.0003235740587115288
1782970003869837600,6.731837646484375,-0.0005685848882421851,0.005910619627684355,0.0016682040877640247
1782970003879763500,6.741763427734375,-0.0014559502014890313,0.0065593658946454525,0.0030274814926087856
1782970003889690400,6.7516904296875,0.0009808422764763236,0.004038683604449034,-0.0008471515611745417
1782970003899616500,6.761616455078125,-0.0018825886072590947,0.005878928117454052,0.0020682108588516712
1782970003909542400,6.77154248046875,-0.0035718316212296486,0.001986984396353364,0.002980609890073538
1782970003919469300,6.78146923828125,0.00004500742215896025,0.005606486462056637,0.0020301276817917824
1782970003929395500,6.7913955078125,0.00016245282313320786,0.0037907434161752462,0.0006452839006669819
1782970003939321600,6.801321533203125,-0.0005970807396806777,0.002689526416361332,0.003363838652148843
1782970003949248300,6.811248291015625,-0.0032258869614452124,0.005038168281316757,0.002388855442404747
1782970003959174400,6.82117431640625,0.0010540791554376483,0.004418983124196529,-0.00023276027059182525
1782970003969100500,6.8311005859375,-0.0014048174489289522,0.00640916358679533,0.0009837717516347766
1782970003979026400,6.8410263671875,-0.0036783581599593163,0.00618306128308177,0.0010599381057545543
1782970003988953300,6.850953369140625,-0.00039228363311849535,0.006280798930674791,0.0007350324303843081
1782970003998879500,6.86087939453125,-0.0027142937760800123,0.004633633885532618,0.0004037352045997977
1782970004008805600,6.8708056640625,-0.0033009881153702736,0.005946039687842131,0.0003480751474853605
1782970004018732300,6.880732177734375,-0.0011049455497413874,0.005360943265259266,0.0006929545197635889
1782970004028658400,6.890658447265625,-0.0032352081034332514,0.00401551416143775,0.0018943065078929067
1782970004038584600,6.90058447265625,-0.003584881080314517,0.007268032990396023,0.0000857537888805382
1782970004048511500,6.910511474609375,-0.0015837819082662463,0.0049319081008434296,0.0004394215648062527
1782970004058437400,6.920437255859375,-0.0010628675809130073,0.004257329273968935,0.0017936390358954668
1782970004068363500,6.930363525390625,-0.00039601203752681613,0.005419799126684666,0.0026783409994095564
1782970004078290400,6.94029052734375,0.0011345066595822573,0.00603419030085206,0.0004111920716241002
1782970004088216300,6.95021630859375,-0.0003510046226438135,0.002746251644566655,-0.000496945867780596
1782970004098142500,6.960142578125,-0.0014950985787436366,0.005661081522703171,0.0010572749888524413
1782970004108068400,6.970068359375,0.0013246563030406833,0.0054826498962938786,-0.00020639497961383313
1782970004117995500,6.97999560546875,-0.001261273049749434,0.006111954804509878,0.003919640555977821
1782970004127921400,6.98992138671875,-0.0008391620358452201,0.006234460044652224,0.0027771443128585815
1782970004137847300,6.999847412109375,0.0008527441532351077,0.005626726895570755,0.0019739349372684956
1782970004147774500,7.0097744140625,-0.0030045784078538418,0.005172924138605595,0.0017678063595667481
1782970004157700400,7.019700439453125,-0.0014367754338309169,0.0033041839487850666,0.0010074737947434187
1782970004167626500,7.02962646484375,0.00033688987605273724,0.0034788872580975294,0.0018437063554301858
1782970004177553400,7.039553466796875,-0.0005784385721199214,0.004159324802458286,0.0003438140847720206
1782970004187479600,7.0494794921875,-0.00012357067316770554,0.005441370885819197,-0.0010037453612312675
1782970004197405400,7.059405517578125,-0.0019489012192934752,0.004846420604735613,0.0035270904190838337
1782970004207331300,7.069331298828125,-0.0013901700731366873,0.0005858954391442239,0.0013736584223806858
1782970004217258500,7.079258544921875,-0.0011430287268012762,0.004866660572588444,0.000008788431841821875
1782970004227184400,7.089184326171875,-0.00013502225920092314,0.005811017472296953,-0.00036218989407643676
1782970004237110300,7.0991103515625,-0.0012024171883240342,0.007238738238811493,0.0030085730832070112
1782970004247037400,7.109037353515625,-0.0006676545017398894,0.00555322365835309,-0.0009440905996598303
1782970004256963600,7.118963623046875,-0.0022825952619314194,0.004408597014844418,0.0013957626651972532
1782970004266889200,7.12888916015625,-0.0005060005933046341,0.0051905009895563126,0.0031521173659712076
1782970004276816400,7.13881640625,-0.0008282430935651064,0.005667206831276417,0.00041758365114219487
1782970004286742500,7.148742431640625,-0.0015502260066568851,0.00663553224876523,0.001418665866367519
1782970004296668400,7.15866845703125,-0.0024290692526847124,0.005845372099429369,0.0014583469601348042
1782970004306595300,7.16859521484375,-0.0015030881622806191,0.0037412086967378855,0.0015121428295969963
1782970004316521500,7.178521484375,-0.0016828514635562897,0.006737264804542065,0.004009122494608164
1782970004326447400,7.188447265625,-0.001683650421909988,0.004831506870687008,0.0020596887916326523
1782970004336373200,7.198373291015625,-0.0007360977469943464,0.006827812176197767,0.0013933659065514803
1782970004346300400,7.208300537109375,0.001466869143769145,0.004894091282039881,0.002609365154057741
1782970004356226600,7.2182265625,-0.0007773766992613673,0.003941478207707405,0.0020823257509618998
1782970004366152400,7.22815234375,-0.0002234392159152776,0.005635515321046114,-0.0003866909828502685
1782970004376079400,7.238079345703125,-0.0008583368035033345,0.007797735743224621,-0.00040746363811194897
1782970004386005500,7.248005615234375,0.0007938882918097079,0.004416320007294416,0.0008641957538202405
1782970004395931100,7.25793115234375,-0.0013970943400636315,0.00558145297691226,0.003123888047412038
1782970004405858300,7.2678583984375,-0.0002569950302131474,0.0037982002831995487,0.0023941819090396166
1782970004415784200,7.2777841796875,-2.6631610694494157e-7,0.004535629414021969,0.0010583401890471578
1782970004425710000,7.2877099609375,-0.00048629322554916143,0.0065681543201208115,0.0010167949367314577
1782970004435637200,7.29763720703125,-0.0022778017446398735,0.00634844321757555,0.0007659250986762345
1782970004445563100,7.307563232421875,-0.001389637473039329,0.00672208471223712,0.0029052423778921366
1782970004455489300,7.3174892578125,-0.0003102582704741508,0.0037646444980055094,0.00242134602740407
1782970004465415200,7.327415283203125,-0.0024381240364164114,0.005018726922571659,0.00030067088664509356
1782970004475342300,7.33734228515625,-0.0024138891603797674,0.004533232655376196,0.004150270018726587
1782970004485268200,7.347268310546875,0.00028628981090150774,0.006340453866869211,0.0019590212032198906
1782970004495194000,7.357194091796875,-0.0011837751371785998,0.006220079027116299,0.002171275205910206
1782970004505121300,7.367121337890625,0.0014913701452314854,0.0054581486620008945,0.0038099181838333607
1782970004515047200,7.377047119140625,0.0004647216119337827,0.007911453023552895,0.0011893677292391658
1782970004524973000,7.38697314453125,0.00011371697473805398,0.004326305352151394,0.0011859056539833546
1782970004534900200,7.396900146484375,0.000434361572843045,0.003430950455367565,0.0014495585346594453
1782970004544826400,7.406826416015625,-0.00022264027211349458,0.004605404566973448,0.0027196200098842382
1782970004554752000,7.416751953125,0.0010628675809130073,0.0027321369852870703,0.0012567456578835845
1782970004564679200,7.42667919921875,-0.000015446334145963192,0.005942577496170998,-0.00024208133982028812
1782970004574605300,7.436605224609375,0.0023302659392356873,0.005919674411416054,0.0006950850365683436
1782970004584531000,7.446531005859375,0.0010522148804739118,0.0051990230567753315,-0.00043302998528815806
1782970004594457000,7.45645703125,0.0015845808666199446,0.005399825517088175,0.003941744565963745
1782970004604384300,7.46638427734375,0.0005560680292546749,0.003284742822870612,0.002826412906870246
1782970004614310100,7.47631005859375,-0.0014077469240874052,0.003195527009665966,0.0006404902087524533
1782970004624236000,7.486236083984375,0.00019920444174204022,0.001915878034196794,0.0019707391038537025
1782970004634163200,7.4961630859375,0.00086872314568609,0.005293298978358507,0.0027569043450057507
1782970004644089300,7.50608935546875,-0.0007805725326761603,0.005878395400941372,0.0033039175905287266
1782970004654015000,7.516014892578125,0.00005699164830730297,0.006487993057817221,0.0005819007055833936
1782970004663942100,7.525942138671875,-0.0002993392990902066,0.004896488040685654,0.0013845774810761213
1782970004673868300,7.535868408203125,0.0016109461430460215,0.0035691685043275356,0.003841609926894307
1782970004683794200,7.545794189453125,-0.0024924525059759617,0.0060262009501457214,0.0021728731226176023
1782970004693720000,7.555719970703125,-0.003734284546226263,0.003777693957090378,0.0020666129421442747
1782970004703647200,7.565647216796875,-0.0013307816116139293,0.004336957819759846,-0.0011787151452153921
1782970004713573000,7.575572998046875,-0.0015419702976942062,0.007660316303372383,0.004197940696030855
1782970004723499000,7.5854990234375,-0.0012373046483844519,0.004880242515355349,0.003489806316792965
1782970004733426200,7.59542626953125,-0.0008799084462225437,0.0030189594253897667,0.0034621094819158316
1782970004743352000,7.60535205078125,0.0014817827614024282,0.004520449787378311,0.00018988338706549257
1782970004753278200,7.6152783203125,-0.0022977753542363644,0.004457865376025438,-0.0009675264009274542
1782970004763205000,7.625205078125,-0.00009187905379803851,0.004290618933737278,0.004473311826586723
1782970004773131000,7.635131103515625,-0.0028964539524167776,0.005870406050235033,0.0008647284121252596
1782970004783057200,7.64505712890625,-0.0011171960504725575,0.003881557146087289,-0.0004756405542138964
1782970004792984300,7.654984375,0.0012716593919321895,0.005856823641806841,0.0017036241479218006
1782970004802910200,7.66491015625,-0.0010266485624015331,0.00552312983199954,0.0006591323763132095
1782970004812836000,7.674836181640625,0.00004367584188003093,0.0035127094015479088,-0.00047404266661033034
1782970004822762200,7.68476220703125,0.00039521310827694833,0.004876514431089163,0.002296976512297988
1782970004832689200,7.694689208984375,-0.0012639362830668688,0.005666407756507397,0.0009060074225999415
1782970004842615000,7.704614990234375,-0.0010745854815468192,0.006726612336933613,0.0015491608064621687
1782970004852541200,7.714541259765625,-0.001151018193922937,0.007553257513791323,0.0024074974935501814
1782970004862468400,7.72446826171875,0.0005531385540962219,0.0054605454206466675,0.0005456816870719194
1782970004872394000,7.73439404296875,0.00013209278404247016,0.005585181526839733,0.0026232136879116297
1782970004882320100,7.744320068359375,-0.0009374326909892261,0.007592406123876572,0.0001323590986430645
1782970004892247300,7.754247314453125,-0.0003195793251506984,0.002776345470920205,0.0028181569650769234
1782970004902173000,7.7641728515625,0.0010237190872430801,0.004233360756188631,-0.0003981425834354013
1782970004912099000,7.77409912109375,-0.000999750685878098,0.006158826407045126,0.002469815546646714
1782970004922025200,7.784025146484375,-0.00009054747351910919,0.005037635564804077,0.002460494404658675
1782970004931952000,7.7939521484375,-0.003055711043998599,0.005191832315176725,0.002668221015483141
1782970004941878000,7.8038779296875,0.0004892227007076144,0.004856008104979992,0.0023912524338811636
1782970004951804200,7.81380419921875,-0.0025156219489872456,0.006430202629417181,0.0023515713401138783
1782970004961731000,7.82373095703125,-0.0005305017111822963,0.0046488139778375626,0.004785966593772173
1782970004971657200,7.8336572265625,-0.00000852211542223813,0.004930309951305389,0.0024019049014896154
1782970004981583000,7.8435830078125,-0.0013518205378204584,0.007089334540069103,-0.0010434264549985528
1782970004991510300,7.85351025390625,0.0008953547803685069,0.004554804414510727,0.00013688647595699877
1782970005001436200,7.863436279296875,0.0006854976527392864,0.0046967510133981705,0.0019829897210001945
1782970005011362000,7.873362060546875,0.0003403519804123789,0.004441353492438793,0.0013137373607605696
1782970005021289200,7.883289306640625,-0.0013246563030406833,0.004084756597876549,0.0021134845446795225
1782970005031215000,7.893215087890625,-0.0004290352517273277,0.0065202172845602036,0.0016607472207397223
1782970005041141200,7.903141357421875,-0.0012748552253469825,0.003114300547167659,0.003373159794136882
1782970005051067100,7.913067138671875,-0.0012394351651892066,0.005044293589890003,0.0015723302494734526
1782970005060991000,7.922990966796875,-0.0006716492353007197,0.007727960590273142,-0.0010484865633770823
1782970005070918100,7.932918212890625,-0.002825347473844886,0.00475347600877285,0.0007568703731521964
1782970005080844300,7.94284423828125,0.00036378781078383327,0.003724164329469204,0.0012719257501885295
1782970005090770200,7.952770263671875,-0.0016421051695942879,0.006904777605086565,0.0034314829390496016
1782970005100697300,7.962697265625,0.0004751079250127077,0.0064922538585960865,0.0028788771014660597
1782970005110623200,7.972623291015625,-0.0011773834703490138,0.006627276539802551,0.002272741636261344
1782970005120549000,7.982549072265625,-0.0018644790397956967,0.005366802215576172,0.002566754585132003
1782970005130476300,7.992476318359375,-0.001213868847116828,0.00267727579921484,0.003326554549857974
1782970005140402200,8.002402099609375,-0.0024437166284769773,0.004848551005125046,0.001927595934830606
1782970005150328000,8.012328125,-0.001743038883432746,0.006265086587518454,0.0011949603212997317
1782970005160254200,8.022254150390625,-0.00048709215479902923,0.0038389465771615505,-0.0011400992516428232
1782970005170181400,8.032181396484376,-0.0009653958841226995,0.004323109518736601,0.0008644621120765805
1782970005180107000,8.04210693359375,-0.0010668623726814985,0.0049558766186237335,0.001954760169610381
1782970005190033200,8.052033203125,0.0016980315558612347,0.0054613444954156876,0.0007936219917610288
1782970005199960300,8.061960205078124,0.0011012171162292361,0.004230963997542858,0.0029941920656710863
1782970005209886000,8.071885986328125,-0.00006391586794052273,0.005285043269395828,0.0020567593164741993
1782970005219812000,8.08181201171875,0.00035952674807049334,0.0049561429768800735,-0.0002918824611697346
1782970005229739300,8.0917392578125,0.0021025657188147306,0.0037297571543604136,0.0008056062506511807
1782970005239665200,8.1016650390625,-0.0005318332696333528,0.004319913685321808,0.0012506204657256603
1782970005249591000,8.111591064453124,-0.0008444883860647678,0.007709318771958351,0.002189384773373604
1782970005259517200,8.12151708984375,-0.0005494101205840707,0.0059742690064013,0.0019385149935260415
1782970005269444400,8.1314443359375,0.0013249226612970233,0.00401631323620677,0.004397411365061998
1782970005279370000,8.141369873046875,-0.003043993143364787,0.0091170659288764,0.0027262780349701643
1782970005289296100,8.151296142578126,-0.0020634171087294817,0.005862948950380087,0.0027142937760800123
1782970005299223300,8.161223388671875,0.0006897587445564568,0.00509835546836257,0.0010689928894862533
1782970005309149200,8.171149169921875,-0.002228266792371869,0.005840312223881483,0.0006657902849838138
1782970005319075000,8.181074951171874,0.0007155913626775146,0.0041247038170695305,0.0011795139871537685
1782970005329002200,8.191002197265625,-0.0029465213883668184,0.007133543025702238,0.0022418489679694176
1782970005338928000,8.20092822265625,-0.0015579492319375277,0.005402754992246628,0.0020756677258759737
1782970005348854000,8.21085400390625,-0.0009614011505618691,0.005449892953038216,0.003192064817994833
1782970005358780200,8.2207802734375,-0.00148151651956141,0.003968642558902502,0.0011084076249971986
1782970005368707000,8.23070703125,-0.00012836436508223414,0.005389438942074776,-0.000021837920940015465
1782970005378633200,8.24063330078125,0.0011065434664487839,0.006363889668136835,0.005031776614487171
1782970005388559000,8.25055908203125,-0.0008471515611745417,0.0033726270776242018,0.002886067610234022
1782970005398486000,8.260486083984375,-0.0012833772925660014,0.004053597338497639,0.001520132296718657
1782970005408412400,8.270412353515624,-0.002624545246362686,0.004263987299054861,-0.00034168356796726584
1782970005418338600,8.280338623046875,-0.0015694007743149996,0.0029883331153541803,0.00002210423735959921
1782970005428265500,8.290265380859376,-0.000313986703986302,0.004221376497298479,0.0020029633305966854
1782970005438191400,8.30019140625,-0.00045673211570829153,0.004444282967597246,0.0009097357979044318
1782970005448117500,8.310117431640625,-0.00046845004544593394,0.0034416031558066607,0.00042637207661755383
1782970005458044400,8.32004443359375,-0.001207743538543582,0.005711148958653212,-0.0006532734259963036
1782970005467971600,8.3299716796875,-0.0005997438565827906,0.005709018558263779,-0.000297475082334131
1782970005477898500,8.3398984375,-0.0013451626291498542,0.006073338910937309,0.0004767058417201042
1782970005487824400,8.349824462890625,-0.0010490191634744406,0.002743588527664542,0.0013739247806370258
1782970005497750500,8.35975048828125,0.0011022823164239526,0.0035689021460711956,0.0030162963084876537
1782970005507677400,8.369677490234375,-0.0011475561186671257,0.003751595038920641,0.0018034926615655422
1782970005517603300,8.379603271484376,-0.0005925533478148282,0.005406483076512814,0.0010514160385355353
1782970005527529500,8.389529541015625,-0.00016937704640440643,0.002862365450710058,0.0010183927370235324
1782970005537456600,8.39945654296875,0.002243979601189494,0.004743089899420738,0.0005723133217543364
1782970005547382500,8.409382568359375,-0.00199310970492661,0.006045908201485872,0.0014410364674404263
1782970005557308400,8.419308349609375,0.0017204020405188203,0.005264803301542997,0.0010452907299622893
1782970005567234600,8.429234619140624,-0.0006916229031048715,0.003266899613663554,0.0023158849216997623
1782970005577161500,8.439161376953125,0.0009890979854390025,0.0037470676470547915,0.002417883835732937
1782970005587087400,8.44908740234375,0.0004921521758660674,0.006196376867592335,-0.0004799016169272363
1782970005597013500,8.459013427734375,0.0010801780736073852,0.002895388752222061,0.002372077666223049
1782970005606940400,8.4689404296875,-0.002058889716863632,0.006296778097748756,-0.00015952334797475487
1782970005616866600,8.478866455078125,0.0008279767935164273,0.005435511935502291,0.0018258632626384497
1782970005626792400,8.48879248046875,-0.0012681973166763783,0.00640916358679533,0.0010306433541700244
1782970005636719400,8.49871923828125,-0.0019033611752092838,0.0031561122741550207,0.0011502192355692387
1782970005646645500,8.5086455078125,0.00037230990710668266,0.005876797717064619,0.00170788518153131
1782970005656571400,8.5185712890625,0.0005648564547300339,0.00387383415363729,0.0021342572290450335
1782970005666497500,8.52849755859375,-0.001770203118212521,0.007020092569291592,0.0003145193331874907
1782970005676424400,8.538424560546876,0.0015880429418757558,0.005256813485175371,0.0017683389596641064
1782970005686350600,8.5483505859375,0.00044528054422698915,0.0037502634804695845,0.0026402578223496675
1782970005696276500,8.5582763671875,-0.0014450311427935958,0.005417935084551573,0.0035451999865472317
1782970005706203400,8.568203369140624,0.0007211840129457414,0.004108458757400513,0.0026144252624362707
1782970005716129500,8.578129638671875,0.0003640541108325124,0.005768673028796911,0.0034887411165982485
1782970005726055400,8.588055419921876,-0.0004655205411836505,0.0041060615330934525,0.0017409083666279912
1782970005735982300,8.597982421875,0.00012410330236889422,0.004396879114210606,0.0013949638232588768
1782970005745908500,8.607908447265626,-0.0009065400226972997,0.006314354948699474,0.00020373181905597448
1782970005755834600,8.617834716796875,-0.002406165935099125,0.004781705792993307,0.000993625377304852
1782970005765761300,8.62776123046875,-0.000355532014509663,0.005604089703410864,0.0005701828049495816
1782970005775687400,8.6376875,0.002668221015483141,0.00375985074788332,0.002918025478720665
1782970005785613600,8.647613525390625,0.0006886934279464185,0.004682902246713638,0.0028218855150043964
1782970005795539500,8.65753955078125,-0.0026141589041799307,0.004583300091326237,0.002359294332563877
1782970005805466400,8.66746630859375,-0.001975532853975892,0.006847253534942865,0.0021377194207161665
1782970005815392500,8.677392578125,0.002983273006975651,0.0030799456872045994,0.0013036173768341541
1782970005825318700,8.687318603515624,-0.0005217132274992764,0.005684517323970795,0.0018687400734052062
1782970005835245600,8.69724560546875,-0.0009584716754034162,0.004947620443999767,0.0002790992730297148
1782970005845171500,8.70717138671875,0.0014777880860492587,0.005338306538760662,0.0034386736806482077
1782970005855097600,8.71709765625,-0.0020865867845714092,0.004987834487110376,0.001017593895085156
1782970005865024500,8.7270244140625,-0.0012405004817992449,0.005498362239450216,0.004433630499988794
1782970005874950400,8.736950439453125,-0.00013156015484128147,0.0067633637227118015,0.0014972290955483913
1782970005884876500,8.74687646484375,-0.0011925635626539588,0.0025475798174738884,-0.0003909520455636084
1782970005894802700,8.756802734375,0.00038988678716123104,0.004456001333892345,0.0011440940434113145
1782970005904729600,8.7667294921875,-0.00012410330236889422,0.0043654534965753555,0.0026815368328243494
1782970005914655500,8.776655517578124,-0.0015414375811815262,0.0076217008754611015,-0.00019627496658358723
1782970005924581600,8.78658154296875,-0.0007688545738346875,0.003032541600987315,0.0006343649583868682
1782970005934508500,8.796508544921876,0.001398425898514688,0.0033451966010034084,0.004690092988312244
1782970005944434400,8.806434326171875,-0.00047404266661033034,0.006371080409735441,0.0009118663729168475
1782970005954360600,8.816360595703125,-0.00007882956560933962,0.00436039362102747,0.0015070828376337886
1782970005964287500,8.82628759765625,-0.0005012069013901055,0.006072273477911949,0.0034011229872703552
1782970005974213600,8.836213623046875,-0.0017947042360901833,0.005566805601119995,-0.00036139096482656896
1782970005984139500,8.846139404296874,-0.0009004147723317146,0.005544701125472784,0.0007952199084684253
1782970005994065400,8.8560654296875,0.0002918824611697346,0.005642439238727093,0.002225870033726096
1782970006003992600,8.86599267578125,-0.0007669904152862728,0.004051999654620886,0.0007464840309694409
1782970006013918500,8.87591845703125,0.00037284253630787134,0.006678142584860325,0.0036709012929350138
1782970006023844600,8.8858447265625,-0.0013054815353825688,0.0043622576631605625,0.00341577036306262
1782970006033771500,8.895771484375,0.0009355684742331505,0.007859786972403526,0.001130511867813766
1782970006043697700,8.90569775390625,-0.0007773766992613673,0.005359877832233906,0.0014921691035851836
1782970006053623600,8.91562353515625,-0.003492203075438738,0.005144162103533745,0.0016538230702280998
1782970006063550500,8.925550537109375,0.0014594122767448425,0.003084739437326789,0.001336107961833477
1782970006073476600,8.9354765625,0.000949150591623038,0.0046757119707763195,0.003177683800458908
1782970006083402500,8.945402587890625,0.0009752495680004358,0.005567338317632675,0.0018274611793458462
1782970006093329400,8.955329345703126,0.001064731739461422,0.0051958272233605385,0.0037638454232364893
1782970006103255600,8.965255615234375,0.0004966795677319169,0.00526693370193243,0.0038890140131115913
1782970006113181700,8.975181640625,-0.001287904684431851,0.007669371087104082,0.0008460862445645034
1782970006123107300,8.985107421875,0.0007747135823592544,0.0015164038632065058,0.0022011026740074158
1782970006133034500,8.995034423828125,0.002033855998888612,0.004089816473424435,0.004442951641976833
1782970006142960600,9.004960693359376,0.00024980452144518495,0.0054245926439762115,-0.000143544384627603
1782970006152886300,9.01488623046875,0.0008253136184066534,0.004082892090082169,0.0030945930629968643
1782970006162813400,9.0248134765625,0.0002796319022309035,0.006674680393189192,0.0006612628931179643
1782970006172739600,9.034739501953124,0.0018322548130527139,0.003451190423220396,0.00047830372932367027
1782970006182665500,9.04466552734375,0.0015395734226331115,0.007751929108053446,-0.0003094593121204525
1782970006192592400,9.05459228515625,-0.0024200144689530134,0.0051992894150316715,0.0004063983797095716
1782970006202518500,9.0645185546875,-0.0006269080913625658,0.004244545940309763,0.00019361180602572858
1782970006212444400,9.0744443359375,-0.004671184346079826,0.006823285017162561,0.00035446672700345516
1782970006222370300,9.084370361328125,-0.0007065366371534765,0.00518757151439786,0.0026639599818736315
1782970006232297500,9.09429736328125,-0.003712712787091732,0.004680505488067865,-0.00027057717670686543
1782970006242223600,9.1042236328125,-0.000589091214351356,0.004346545320004225,0.0010570086305961013
1782970006252149500,9.1141494140625,-0.001377653214149177,0.006783337332308292,0.0002681803307496011
1782970006262076400,9.124076416015624,0.00015952334797475487,0.0040943436324596405,0.0023070964962244034
1782970006272002600,9.13400244140625,-0.0036842171102762222,0.003924700431525707,0.0020570256747305393
1782970006281928400,9.143928466796876,0.0004415521107148379,0.0072837453335523605,0.002383529208600521
1782970006291855600,9.153855712890625,0.0010604707058519125,0.0095069520175457,0.0008918926469050348
1782970006301781500,9.163781494140625,-0.002016811864450574,0.004625910893082619,0.002228533150628209
1782970006311707400,9.173707275390624,-0.0025132251903414726,0.007464041467756033,0.0012463594321161509
1782970006321633500,9.183633544921875,-0.0011704593198373914,0.0031135017052292824,0.0011235876008868217
1782970006331560700,9.193560791015624,-0.0003299656673334539,0.0019302591681480408,0.0011965582380071282
1782970006341486300,9.203486328125,0.000624777574557811,0.003465305082499981,0.0034381409641355276
1782970006351412500,9.21341259765625,0.0016554208705201745,0.0040855552069842815,0.00007962851668708026
1782970006361339600,9.223339599609375,0.001785116852261126,0.003798999357968569,0.0009233179152943194
1782970006371265500,9.233265625,0.00038242992013692856,0.004443484358489513,-0.00007084008393576369
1782970006381191400,9.24319140625,-0.0001179780374513939,0.004524976946413517,0.00152359448838979
1782970006391118600,9.25311865234375,0.0008237157016992569,0.00392736354842782,0.002490854589268565
1782970006401044500,9.26304443359375,0.0007608651067130268,0.00827018078416586,-0.00012623383372556418
1782970006410970600,9.272970703125,0.00108284130692482,0.006446447689086199,-0.00033955302205868065
1782970006420896500,9.282896484375,-0.0003153182624373585,0.004897287115454674,0.0007664577569812536
1782970006430823700,9.29282373046875,-0.0024058998096734285,0.00595562718808651,0.0017720673931762576
1782970006440749600,9.30274951171875,-0.0006378270918503404,0.00427224300801754,0.0007888282998465002
1782970006450675700,9.31267578125,-0.0008415589109063148,0.005942843854427338,0.003884486621245742
1782970006460602600,9.3226025390625,-0.0013899037148803473,0.004475442226976156,0.0033750240691006184
1782970006470528500,9.332528564453124,-0.00018642126815393567,0.005288505461066961,0.004659732803702354
1782970006480454700,9.34245458984375,0.0009946906939148903,0.004412857815623283,0.00210735946893692
1782970006490381800,9.3523818359375,0.0003121224872302264,0.003995274193584919,0.001261539408005774
1782970006500307500,9.362307373046875,-0.0023664848413318396,0.007967645302414894,0.0008010788587853312
1782970006510233600,9.372233642578125,-0.002466353354975581,0.004781972151249647,0.00207726564258337
1782970006520159700,9.38215966796875,-0.0018735338235273957,0.0062581622041761875,0.0031531827989965677
1782970006530086400,9.39208642578125,0.0023411849979311228,0.004210724029690027,0.0005787048721686006
1782970006540012500,9.402012451171874,-0.00112465291749686,0.0036751623265445232,0.005514341406524181
1782970006549938700,9.411938720703125,-0.0024594292044639587,0.004808337427675724,0.0027973842807114124
1782970006559865600,9.421865478515626,-0.001660214620642364,0.005776662845164537,0.0016588830621913075
1782970006569791500,9.43179150390625,0.00026604978484101593,0.005015531089156866,0.0028037759475409985
1782970006579717600,9.441717529296875,0.0009672601008787751,0.004475175868719816,0.0026698189321905375
1782970006589644500,9.45164453125,-0.00011132013605674729,0.005920739844441414,0.001961151836439967
1782970006599570400,9.4615703125,-0.0011592740193009377,0.004308195784687996,0.002159290947020054
1782970006609496600,9.47149658203125,0.00043595946044661105,0.005119128152728081,0.0021225393284112215
1782970006619422700,9.481422607421875,-0.0014729943359270692,0.00558145297691226,0.004451207350939512
1782970006629349600,9.491349609375,0.0008444883860647678,0.005278385244309902,0.0019286612514406443
1782970006639275500,9.501275634765625,0.00013795174891129136,0.004114584065973759,0.004003263544291258
1782970006649201700,9.51120166015625,0.002511627273634076,0.003492469433695078,0.0021696772892028093
1782970006659128600,9.521128662109374,-0.0022383867762982845,0.0076091839000582695,0.0003177151083946228
1782970006669054500,9.531054443359375,-0.000597879639826715,0.003975034225732088,-0.0014863101532682776
1782970006678980600,9.540980712890626,-0.000669518718495965,0.004790494218468666,0.0006298375665210187
1782970006688907500,9.550907470703125,-0.002671416848897934,0.006028331350535154,0.0029707562644034624
1782970006698833700,9.560833740234376,0.0018839201657101512,0.0043896883726119995,0.0016772588714957237
1782970006708759600,9.570759521484375,-0.0023257385473698378,0.006351905409246683,0.0023150858469307423
1782970006718686500,9.5806865234375,0.0015579492319375277,0.0044381581246852875,0.0011664645280689
1782970006728612600,9.590612548828124,-0.0005187837523408234,0.004287689458578825,0.0009534116834402084
1782970006738538500,9.60053857421875,-0.0009305084822699428,0.006053631659597158,0.0038163098506629467
1782970006748464600,9.610464599609376,0.000362988852430135,0.004894357640296221,0.002573146251961589
1782970006758391600,9.6203916015625,-0.0008458199445158243,0.006446181330829859,0.0017931063193827868
1782970006768317700,9.630317626953126,0.0011017497163265944,0.004333495628088713,-0.0013851100811734796
1782970006778243600,9.64024365234375,-0.0024583640042692423,0.0035459990613162518,0.000630902883131057
1782970006788170500,9.65017041015625,0.000054861116950633004,0.005943110212683678,0.0024314660113304853
1782970006798096600,9.6600966796875,-0.0012695288751274347,0.00458836043253541,0.0026644926983863115
1782970006808022800,9.670022705078125,0.000182959163794294,0.004503138829022646,0.001184307737275958
1782970006817948700,9.67994873046875,-0.00011691277177305892,0.004291683901101351,0.002721750643104315
1782970006827875600,9.68987548828125,-0.0012961605098098516,0.004525243304669857,0.0021851237397640944
1782970006837801700,9.6998017578125,-0.000007723167072981596,0.00455640209838748,0.00037683729897253215
1782970006847727600,9.7097275390625,0.000009054747351910919,0.003893807763233781,0.00020053602929692715
1782970006857654500,9.719654541015625,0.0017811221769079566,0.005793174263089895,0.002329733222723007
1782970006867580700,9.72958056640625,-0.0009153284481726587,0.005791043862700462,0.003507649526000023
1782970006877506800,9.7395068359375,-0.0008884305134415627,0.01912842132151127,0.005118329077959061
1782970006887433500,9.74943359375,-0.00012996226723771542,0.010482202284038067,0.0075607141479849815
1782970006897359600,9.759359619140625,0.00030120351584628224,0.016026103869080544,0.007994809187948704
1782970006907285800,9.76928564453125,0.0014527543680742383,0.010429471731185913,0.003528422210365534
1782970006917212700,9.779212646484375,-0.0009134642314165831,0.005911685060709715,0.004463724326342344
1782970006927138600,9.789138671875,0.0012402341235429049,0.005241101142019033,0.002269279444590211
1782970006937064700,9.799064697265624,-0.003065032185986638,0.005964681971818209,0.001320927869528532
1782970006946990800,9.808990966796875,-0.002373941708356142,0.0054182009771466255,0.003571032779291272
1782970006956917500,9.81891748046875,0.0018064221367239952,0.004817125853151083,0.00011771172285079956
1782970006966843600,9.82884375,0.0007076018955558538,0.005775331053882837,-0.0005222458858042955
1782970006976769800,9.838769775390626,0.0008998821140266955,-0.005696235224604607,-0.004369448404759169
1782970006986696700,9.84869677734375,-0.00011158645065734163,-0.006166549399495125,-0.008222510106861591
1782970006996622600,9.85862255859375,-0.0017899106023833156,-0.0007470166892744601,-0.006586263421922922
1782970007006548700,9.868548828125,-0.0009544769418425858,0.00643899105489254,0.0012072109384462237
1782970007016475600,9.8784755859375,-0.004069310147315264,0.00030413299100473523,0.001350488979369402
