time,seconds_elapsed,z,y,x
1782952273058628900,0.07362890625,-0.6512620145291089,0.2479702599570155,0.1147067400288768
1782952273068556800,0.083556884765625,-0.14880816719830034,0.21742767604663968,0.06187651912784203
1782952273078483700,0.093483642578125,0.18251871362030506,0.1596383349008858,0.06305069574005902
1782952273088410600,0.10341064453125,0.1098369237691164,0.14308759759441017,0.019767635260056704
1782952273098338600,0.113338623046875,-0.2106903306156397,0.1736173220232129,0.011299283051677048
1782952273108265700,0.123265625,-0.693767277303338,0.25815087770968675,0.1394976468110457
1782952273118192600,0.133192626953125,-1.1184656847804784,0.4384392019294202,0.30169476281665264
1782952273128120600,0.14312060546875,-1.1798188558876515,0.6669511665701866,0.3492518290877342
1782952273138047700,0.1530478515625,-0.9140537037819624,0.891857069543004,0.3546182149590924
1782952273147974700,0.162974609375,-0.6285919175595045,0.9961476112313568,0.3193346470667049
1782952273157902600,0.172902587890625,-0.3301256883352995,1.0230680591218173,0.13394205851051955
1782952273167829800,0.182829833984375,0.11886077270209788,0.9821361831441521,-0.15619086132813245
1782952273177756700,0.192756591796875,0.45927053916454313,0.8755106226369738,-0.41052119436897333
1782952273187684900,0.202684814453125,0.5877262386858463,0.771384039338678,-0.5520451228432357
1782952273197611800,0.21261181640625,0.5859428624004125,0.7249807462126017,-0.6313235344804823
1782952273207538700,0.22253857421875,0.570223899742961,0.8561670397415757,-0.5830069550789893
1782952273217466600,0.232466552734375,0.5863403372853994,1.09896881101951,-0.42309279891140755
1782952273227393500,0.2423935546875,0.5929986261308193,1.2590214258097112,-0.2734603462507948
1782952273237320700,0.25232080078125,0.54847968544662,1.3765643939115106,-0.21029888361264018
1782952273247248600,0.26224853515625,0.501103017243743,1.4435915190018713,-0.27424112136494366
1782952273257175800,0.27217578125,0.30926059496104713,1.4609006734602152,-0.37947124545834954
1782952273267102700,0.282102783203125,0.12224632348716258,1.4620660639777778,-0.5369747237550094
1782952273277030700,0.29203076171875,0.15918752239346504,1.459818577311933,-0.800861989692226
1782952273286957800,0.301957763671875,0.4583785587608814,1.4309307748712599,-1.0753343990623951
1782952273296884700,0.311884765625,0.7718933040350675,1.411572725059092,-1.275600658558309
1782952273306812700,0.321812744140625,1.0840671560943127,1.3992428203180431,-1.4538941556990146
1782952273316739800,0.33173974609375,1.2876304113090038,1.378411044691503,-1.5503715394183992
1782952273326666500,0.34166650390625,1.1723960124105215,1.3131808860205114,-1.594208196926862
1782952273336593700,0.35159375,0.6932932300508022,1.280360128045082,-1.5842961669825018
1782952273346521600,0.361521484375,-0.09108195441663265,1.341309540656954,-1.4816647906780243
1782952273356448800,0.37144873046875,-0.9488058682113886,1.4958517214626073,-1.241137540203333
1782952273366375700,0.381375732421875,-1.5034008216679096,1.7213485760658978,-1.0281257078375667
1782952273376303600,0.3913037109375,-1.540202319842577,1.914910807878524,-0.9082348614353686
1782952273386230800,0.401230712890625,-1.041163833913207,2.0186720649957657,-0.8588841897457837
1782952273396157700,0.41115771484375,-0.2918354129076004,1.963971775906533,-0.8469071900956332
1782952273406085600,0.421085693359375,0.5460749623924493,1.8871235140256584,-0.89642905363366
1782952273416012800,0.4310126953125,1.225816052430868,1.7365560820698738,-0.9597884499967098
1782952273425939700,0.440939697265625,1.6067010371446608,1.5877862010553478,-0.9686540396280586
1782952273435868000,0.450867919921875,1.6853566407084464,1.5246799026705324,-0.9908476781923323
1782952273445794800,0.460794921875,1.5335808558762072,1.5124877989649772,-1.0110469280689953
1782952273455721700,0.4707216796875,1.2977777113139628,1.5024717241242527,-1.098896038044244
1782952273465649700,0.480649658203125,0.9876631298720836,1.5150179019644856,-1.178034602819383
1782952273475576600,0.49057666015625,0.5462351213902235,1.5240386821575462,-1.2993370695851743
1782952273485503700,0.500503662109375,0.17349486468732356,1.5170013308666646,-1.540308410565555
1782952273495431700,0.510431640625,-0.018041852647066117,1.430290723402053,-1.785189180074632
1782952273505358600,0.520358642578125,-0.10458441006839275,1.3140864565581083,-1.8690834149442612
1782952273515285800,0.53028564453125,-0.12771218767762182,1.1824895364016295,-1.7808118417732417
1782952273525213700,0.540213623046875,-0.36613282126188273,1.0961891171731055,-1.5848713365219533
1782952273535140900,0.550140869140625,-0.7308610364228486,1.0904115566849708,-1.3958354960925876
1782952273545067800,0.56006787109375,-1.008531730377674,1.0970251296058295,-1.1870019723247736
1782952273554995700,0.56999560546875,-1.1761772845149039,1.0395727653294802,-0.9506905129142105
1782952273564923000,0.5799228515625,-1.166697508507967,0.9819846458442508,-0.7277638010598718
1782952273574849500,0.589849609375,-1.0052876338899135,0.9009545682340859,-0.503892940223217
1782952273584776700,0.599776611328125,-0.7706313212752341,0.7902342857591808,-0.3184420821411535
1782952273594704600,0.60970458984375,-0.5941507187753915,0.6396563324093818,-0.23503128340691326
1782952273604631600,0.619631591796875,-0.38156478367149826,0.4839138359032571,-0.2422421281011775
1782952273614558700,0.629558837890625,-0.12470774516463279,0.30568638973608614,-0.285869745968841
1782952273624486700,0.639486572265625,0.08359948970675468,0.04012684320509433,-0.3504303713478148
1782952273634413800,0.649413818359375,0.10827625032365322,-0.24208836231157183,-0.4235311903286725
1782952273644340700,0.6593408203125,-0.06944120049476624,-0.4864630819946527,-0.4707541658071801
1782952273654268700,0.6692685546875,-0.32277941722571846,-0.6444970504388213,-0.5645991917289793
1782952273664195800,0.67919580078125,-0.5559241562336683,-0.7710112605035304,-0.609328962152265
1782952273674122800,0.689122802734375,-0.6772931123644114,-0.8679450096882879,-0.5281330995211377
1782952273684050700,0.69905078125,-0.6917062531203031,-0.8969505932897329,-0.35778745611235496
1782952273693977600,0.7089775390625,-0.5779202994644641,-0.8810289476670324,-0.1692622320862487
1782952273703904500,0.718904541015625,-0.35365912413597106,-0.8451311203338205,0.011267207412980497
1782952273713832000,0.72883203125,-0.10193594138622283,-0.8581216809406876,0.18835563961286098
1782952273723758800,0.7387587890625,0.08264204285144805,-0.9268522489480674,0.3568688434300944
1782952273733685800,0.748685791015625,0.18677461749911306,-1.0112130784161388,0.42863468748014416
1782952273743613700,0.75861376953125,0.24360183561444282,-1.0742603400900959,0.43486901529245076
1782952273753540900,0.768540771484375,0.3202858468443155,-1.0909601304784418,0.44010614876095205
1782952273763467800,0.7784677734375,0.3782745099544525,-1.1446125179499387,0.4819007790477946
1782952273773395700,0.788395751953125,0.49619946311116214,-1.1678130685344337,0.4901562739567831
1782952273783323000,0.798322998046875,0.6760872437059879,-1.1869307337194681,0.43193840520065274
1782952273793249800,0.808249755859375,0.8105360461622476,-1.1846772557042538,0.4234063949052244
1782952273803177700,0.818177734375,0.7997831814795732,-1.1785580421715973,0.44709345036502923
1782952273813105000,0.82810498046875,0.8069985196858644,-1.2097696113847196,0.5228985233359038
1782952273823031800,0.83803173828125,0.8201169444561004,-1.2738665282420814,0.6416653341442347
1782952273832960000,0.8479599609375,0.7787982611179352,-1.3758704202979801,0.7665892793428153
1782952273842887000,0.857886962890625,0.7678630256056785,-1.4795584660485386,0.9431712233252822
1782952273852813800,0.867813720703125,0.8691758666574955,-1.54526471779868,1.0589382677957415
1782952273862740700,0.87774072265625,0.9501911850899457,-1.5746559397168456,1.1085529972489923
1782952273872668700,0.887668701171875,0.8024217132896184,-1.5780312613688408,1.1247639812070875
1782952273882595800,0.897595947265625,0.7026274601072072,-1.6909025843977927,1.148232900404185
1782952273892522800,0.907522705078125,0.5581096835792064,-1.8137775611773133,1.2209254308450965
1782952273902450700,0.91745068359375,0.2083539966225624,-1.811295681233704,1.356662300350517
1782952273912377900,0.9273779296875,-0.236975110951066,-1.670640425352752,1.4645407835282385
1782952273922304800,0.9373046875,-0.6874141088843345,-1.4885994122467934,1.522942119092494
1782952273932233000,0.94723291015625,-1.0597954691469669,-1.294315880422294,1.5862182210862636
1782952273942160000,0.957159912109375,-1.1086188290268182,-1.1456574969582258,1.6270003133296966
1782952273952087000,0.967087158203125,-0.8750210855543613,-1.0554789211221038,1.6741194996401667
1782952273962015000,0.977014892578125,-0.3435036408245563,-1.1083443959996104,1.7397531245455145
1782952273971942000,0.98694189453125,0.2553705993413925,-1.1955854570791125,1.7884512506105004
1782952273981868800,0.996868896484375,0.6454390074640513,-1.2607624242581426,1.780956510940939
1782952273991796700,1.006796630859375,0.7142366493582725,-1.2531668545626102,1.6642206214383244
1782952274001723600,1.0167236328125,0.5650216549247503,-1.213789660681039,1.5305604851417243
1782952274011650800,1.02665087890625,0.3699398123294115,-1.1412509325623512,1.463534821356088
1782952274021578800,1.036578857421875,0.18568331513106823,-1.0601480819769202,1.4166899219423532
1782952274031506000,1.046505859375,0.09599252281188965,-0.9770284847415983,1.3655232138067483
1782952274041432800,1.056432861328125,0.08212883263230324,-0.8693953546270727,1.296939799185097
1782952274051360000,1.066360107421875,0.06456687245666981,-0.7425545429565013,1.2734063633844255
1782952274061288000,1.076287841796875,0.016414543706178664,-0.6356210855439305,1.2715456840790806
1782952274071214800,1.08621484375,-0.028012042519450185,-0.5098603241950274,1.26922542443797
1782952274081142000,1.09614208984375,-0.04191255757808685,-0.3891474938854575,1.3685136277943848
1782952274091070000,1.106070068359375,0.011039864930510521,-0.30580826255008575,1.377523155941069
1782952274100996600,1.11599658203125,0.07738193036615848,-0.15445552543550728,1.2794377525031566
1782952274110923800,1.125923828125,0.0801870509147644,-0.004811784195899963,1.0792474808529018
1782952274120851700,1.135851806640625,-0.05216214891374111,0.11992167993187904,0.8668850523065775
1782952274130779000,1.14577880859375,-0.4069914858728647,0.14343173485696314,0.7550128963828087
1782952274140705800,1.155705810546875,-0.7494611074745655,0.17734204163476824,0.6997143491394817
1782952274150633700,1.1656337890625,-0.9851438405275345,0.3142886522561312,0.7185851268913597
1782952274160561000,1.175560791015625,-1.0488146409273147,0.46629795358330006,0.7444771085169166
1782952274170487800,1.18548779296875,-0.7544336351901292,0.5764858827471733,0.7049934585861861
1782952274180415700,1.195415771484375,-0.23124796547591686,0.5975384615175425,0.6399051926039159
1782952274190343000,1.205343017578125,0.27112404879033564,0.5014427705921233,0.5456764645941555
1782952274200269800,1.215269775390625,0.6846142490327358,0.3881067526608705,0.4027747814932838
1782952274210198000,1.225197998046875,1.0460141965538263,0.32041181131154295,0.2906906267866492
1782952274220124700,1.235124755859375,1.0627882212221622,0.2961677430234849,0.28847490523224695
1782952274230051800,1.2450517578125,0.6106038409262895,0.3258952111586928,0.2798372243389487
1782952274239979800,1.254979736328125,0.11711363677382468,0.4044019077710807,0.12663639340596272
1782952274249906700,1.26490673828125,-0.4696709371477365,0.426912868656218,-0.02217760074492544
1782952274259833900,1.274833740234375,-0.9683668932497501,0.4463397459208965,-0.10110369181316345
1782952274269760800,1.2847607421875,-1.1815531323343516,0.4914620593257248,-0.24528091127518564
1782952274279689000,1.29468896484375,-1.1783306631565094,0.5466733666770159,-0.26884656884502617
1782952274289616000,1.304615966796875,-1.0753373216718434,0.480832090370357,-0.3327957112621516
1782952274299542800,1.314542724609375,-0.8160632851511239,0.3975888667553663,-0.598743964849785
1782952274309471000,1.324470947265625,-0.34806174252033234,0.3301489230804145,-0.8377031622901558
1782952274319398000,1.33439794921875,0.039493805998563766,0.2388720306135714,-0.8622545429617166
1782952274329324800,1.34432470703125,0.29343291123211385,0.2131336321145296,-0.6092705464959144
1782952274339253000,1.3542529296875,0.4175713320761919,0.2947317188709974,-0.10829835255760699
1782952274349179600,1.3641796875,0.3448819434404373,0.5142587052844464,0.4558353405514732
1782952274359106800,1.37410693359375,0.2153425403356552,0.8827654160708188,0.7466802445843815
1782952274369034800,1.38403466796875,0.2407271569609642,1.2239308232061563,0.7197519056484103
1782952274378962000,1.3939619140625,0.3685708620637655,1.3820745356351136,0.6208686298310756
1782952274388888800,1.403888916015625,0.3594955752044916,1.4333281914018094,0.5449014616336674
1782952274398816800,1.413816650390625,0.39843525445163247,1.3366668294176458,0.28920484520830214
1782952274408744000,1.423743896484375,0.3686977033138275,1.1599148626305162,-0.017631737476214767
1782952274418670800,1.4336708984375,0.19144728548526763,1.0042195662669837,-0.27430176551099866
1782952274428598000,1.443597900390625,0.08330489067435264,0.9905854470595716,-0.4859224357793107
1782952274438526000,1.45352587890625,0.07141805352568625,1.0464128404825925,-0.6176446262832731
1782952274448452900,1.463452880859375,0.060899582120776174,1.103776503562182,-0.72179933969751
1782952274458379800,1.4733798828125,-0.03129179484248161,1.201000760126114,-0.8442518532812595
1782952274468307700,1.4833076171875,-0.17509528562128543,1.3044722405165432,-0.9936224036026745
1782952274478235000,1.49323486328125,-0.3644692719638347,1.365346688196063,-1.068964060312882
1782952274488161800,1.503161865234375,-0.6158189452260733,1.3659905390575526,-1.1082594941951334
1782952274498089700,1.51308984375,-0.9051187021762133,1.390675190719962,-1.103816616376862
1782952274508017000,1.523016845703125,-1.063345855104923,1.42274761454612,-0.9914860491611063
1782952274517943800,1.53294384765625,-1.0430231980443,1.4691215354472398,-0.7887862058427184
1782952274527871700,1.542871826171875,-0.8834691804260015,1.5395212057106196,-0.6368667016908526
1782952274537799000,1.552798828125,-0.6336112070262432,1.6341446321263908,-0.6036741877935826
1782952274547725800,1.562725830078125,-0.41763329139649863,1.6843682141929863,-0.6378868385188281
1782952274557654000,1.572654052734375,-0.09536766891181468,1.7186004464015363,-0.7147596503190696
1782952274567581000,1.582580810546875,0.3370563643813133,1.7280020426057279,-0.830432513700053
1782952274577507800,1.5925078125,0.7242547700256109,1.7085668359041213,-0.9540488103661685
1782952274587435800,1.602435791015625,0.9954863708436489,1.6631642442531882,-1.0883999246016145
1782952274597362700,1.61236279296875,1.2393062331229447,1.6242347941391169,-1.156309020158276
1782952274607289900,1.622289794921875,1.3471838395178317,1.5769687467038631,-1.0439585061330348
1782952274617216800,1.632216796875,1.2204326058268546,1.6405279034227132,-0.9247926860697567
1782952274627144700,1.642144775390625,1.0017705656796694,1.743306725373864,-0.8944812805667519
1782952274637072000,1.65207177734375,0.808142429023981,1.7777949781700968,-0.8912585191279649
1782952274646998800,1.661998779296875,0.7007926458954811,1.7399534694232046,-0.9179076027311384
1782952274656927000,1.671927001953125,0.6622843438029289,1.7101410994835198,-0.9246411487698555
1782952274666854000,1.68185400390625,0.6748217538148165,1.650582556708157,-0.9378473979540168
1782952274676781000,1.691781005859375,0.5180588282197713,1.5303424584768712,-0.953630658019334
1782952274686709000,1.701708984375,0.16617080540955065,1.440286486107111,-0.9148723266884684
1782952274696635600,1.7116357421875,-0.11807459076046943,1.3962838243819773,-0.8649231045838445
1782952274706562800,1.721562744140625,-0.2930266685187816,1.3168201193057,-0.8518287182763218
1782952274716491000,1.731490966796875,-0.3450830189704895,1.2276212021566926,-0.8050249545905739
1782952274726418000,1.74141796875,-0.34194881259799004,1.1331788313962519,-0.6593318506728857
1782952274736345000,1.751344970703125,-0.3657084583699703,1.0328595314264297,-0.5197368444345891
1782952274746273000,1.76127294921875,-0.39485973405241964,0.9158589996382593,-0.44537820741236206
1782952274756200200,1.7712001953125,-0.33786008197963235,0.830410667194426,-0.4589841234385967
1782952274766126800,1.781126953125,-0.1869610799819231,0.7884563163012266,-0.4930233172930777
1782952274776054000,1.791053955078125,-0.024793664994835853,0.6782245479956269,-0.5010702840179204
1782952274785982000,1.80098193359375,0.17773089482188223,0.5143623117893934,-0.5266106026615948
1782952274795908900,1.810908935546875,0.41355508217215536,0.34563173889443277,-0.5332241025172174
1782952274805836000,1.8208359375,0.6464069757133722,0.17304449057132004,-0.535356073044613
1782952274815764000,1.830763916015625,0.7889864776551723,-0.006858487592637539,-0.5826143755648285
1782952274825691000,1.84069091796875,0.8020780144184827,-0.16372618873640893,-0.5642196178268641
1782952274835618000,1.8506181640625,0.6404495286136865,-0.24881109469532964,-0.4715926989905536
1782952274845546000,1.8605458984375,0.44565410174429415,-0.25793489687144755,-0.3618928456045687
1782952274855473200,1.87047314453125,0.26123861459195613,-0.28374489930197594,-0.24278927712254225
1782952274865399800,1.88039990234375,0.05262509025037288,-0.3495838375210762,-0.15587226036563515
1782952274875328000,1.890327880859375,-0.3380897990822792,-0.49996232277601954,-0.14220840360708534
1782952274885255000,1.9002548828125,-0.8639660230547189,-0.5590640616945922,-0.12777283182367682
1782952274895181800,1.910181884765625,-1.2881564810097217,-0.5652447961561381,-0.10082703029625117
1782952274905109800,1.92010986328125,-1.4956114829659461,-0.5971896480798721,-0.02588277540579438
1782952274915037000,1.930036865234375,-1.5570032325178385,-0.6686122316502034,0.11441212273016571
1782952274924963800,1.9399638671875,-1.5128583858430384,-0.7463464825853705,0.256887360579893
1782952274934891000,1.94989111328125,-1.3494798415005207,-0.807030960650742,0.36791364026404916
1782952274944819000,1.95981884765625,-1.0760416705489158,-0.8383484744563698,0.45201033890321846
1782952274954746000,1.96974609375,-0.8001578600108623,-0.9066966190174222,0.5944691370747983
1782952274964673000,1.979673095703125,-0.5649813229143619,-0.9955743413880467,0.704606651225686
1782952274974601000,1.98960107421875,-0.49894087077379223,-1.021554878079891,0.7405052092112601
1782952274984528100,1.999528076171875,-0.4283206896275282,-1.0687722640678285,0.6997776236340403
1782952274994454800,2.009454833984375,-0.29057343014776704,-1.1572972274780273,0.6628109980255364
1782952275004383000,2.019383056640625,-0.14294541264474392,-1.2455612018644808,0.6551027617357671
1782952275014310000,2.029309814453125,0.05942600243687629,-1.27622346663177,0.5753191039901226
1782952275024236800,2.03923681640625,0.2546913849055767,-1.2578295856766402,0.5333730460012331
1782952275034165000,2.0491650390625,0.41297056028246876,-1.2471341502696276,0.5180230627866461
1782952275044092000,2.059091796875,0.5003349554806947,-1.2705581343464554,0.5814360890330746
1782952275054019000,2.06901904296875,0.45949207296073435,-1.3175120470926165,0.6123708871314302
1782952275063947000,2.078947021484375,0.4494780439466238,-1.3695020543098448,0.7076588053379207
1782952275073874000,2.0888740234375,0.5993950491696596,-1.4048022080108522,0.8645713685367256
1782952275083801000,2.098801025390625,0.8342197040885686,-1.380023302193731,1.0941287505771964
1782952275093728000,2.10872802734375,1.0669576158612966,-1.3775507746003568,1.2674527156770228
1782952275103656000,2.118656005859375,1.040680434310436,-1.363950703793019,1.2895757001578807
1782952275113582800,2.128582763671875,0.7379331667661666,-1.3042451537624,1.2450911001347005
1782952275123509800,2.138509765625,0.30121231306195256,-1.2738169900119305,1.2159163705114275
1782952275133438000,2.14843798828125,-0.3077870152771473,-1.3086967263437808,1.1568921538084744
1782952275143364900,2.15836474609375,-1.0914730484366417,-1.2882964740023015,1.0235040393862873
1782952275153292000,2.1682919921875,-1.612476697936654,-1.2238951673708856,0.9048441230185329
1782952275163220000,2.178219970703125,-1.7091496042281389,-1.1036265736974775,0.8247684235237538
1782952275173147000,2.18814697265625,-1.3494202202677725,-1.0408693810112775,0.7601842346061021
1782952275183074000,2.198073974609375,-0.6535287904173135,-1.0476553878895938,0.6671149788297712
1782952275193002000,2.208001953125,0.08617664671838283,-1.1298344894044101,0.6149266725614666
1782952275202929000,2.217928955078125,0.707803401440382,-1.228032705567032,0.657013709923625
1782952275212856000,2.22785595703125,0.9680974286586046,-1.2484857110090553,0.7415658241800963
1782952275222783000,2.237782958984375,0.8541320267826318,-1.157952184255421,0.8186264136373996
1782952275232711000,2.2477109375,0.5994803893655538,-0.994261651354283,0.8300247366167605
1782952275242637800,2.257637939453125,0.2548305011153221,-0.8878301521144807,0.8055108384113758
1782952275252565000,2.26756494140625,-0.16874270172417163,-0.8455839786678552,0.7104233746804297
1782952275262493000,2.277492919921875,-0.5149386503726243,-0.7540370370879769,0.6557676553852856
1782952275272419800,2.287419921875,-0.7704144636541604,-0.5155177654348313,0.7508492008320987
1782952275282347000,2.297346923828125,-0.789162418743968,-0.3691637133903801,0.7654965887352824
1782952275292275000,2.30727490234375,-0.5666285055994987,-0.2702101488158107,0.8452196023348718
1782952275302202000,2.3172021484375,-0.16984394096434116,-0.18449732021689413,0.8963925210155547
1782952275312129000,2.32712890625,0.27390345037579533,-0.15887845644429324,0.8866259639564901
1782952275322057000,2.337056884765625,0.6744447371959685,-0.05422434214055538,0.8015734258972108
1782952275331984100,2.346984130859375,0.9831541280150413,-0.16680457326844333,0.7477500657729804
1782952275341910800,2.356910888671875,1.3376765909820794,-0.3112991150513291,0.4695834415273741
1782952275351839000,2.3668388671875,1.6933417942434548,-0.2651297768115997,0.12045659052617848
1782952275361766000,2.376765869140625,1.9268238023817539,-0.4255369041278958,-0.10414945271722972
1782952275371692800,2.38669287109375,1.7714847721099853,-0.6261952316813171,-0.009169504481367767
1782952275381620000,2.396619873046875,1.205789747968316,-0.5751061188265681,0.21591040335148573
1782952275391548000,2.4065478515625,0.5535089117854833,-0.243634130448848,0.38792544127721335
1782952275401475000,2.41647509765625,-0.03564356031119823,0.0741848878905177,0.38791243566516787
1782952275411402000,2.426402099609375,-0.47531274242699145,0.18964228188991544,0.2719684637252241
1782952275421330000,2.436329833984375,-0.7980243551135062,0.09293445041552185,0.08739000456351786
1782952275431257000,2.446257080078125,-1.078540501627326,-0.0410204310439527,-0.0639667511390522
1782952275441184000,2.45618408203125,-1.2417951273292303,-0.10252689301669597,-0.15957184553593395
1782952275451112000,2.46611181640625,-1.2324860317140818,-0.16266645055040715,-0.2840545497730374
1782952275461039000,2.4760390625,-0.8587836519807577,-0.20754019602164625,-0.4028984444055706
1782952275470965800,2.4859658203125,-0.38258477436900135,-0.13494053149595855,-0.38068617420606315
1782952275480894000,2.49589404296875,0.0842038853406906,-0.04676087439209223,-0.4081508119758218
1782952275490820900,2.50582080078125,0.7330635149031877,0.03800824361592531,-0.4570365695673972
1782952275500748000,2.515748046875,1.1281056197851895,0.056671004640311,-0.31036830047462133
1782952275510675000,2.525675048828125,1.111008354511857,0.10047229857444763,0.04616944783758372
1782952275520603000,2.535602783203125,0.9166513190597295,0.3327412776611745,0.49220962629001586
1782952275530530000,2.545530029296875,0.7152659924060106,0.6759336605794728,0.8255347317211329
1782952275540457000,2.55545703125,0.2513397363901138,1.138807192672044,1.0892403209485113
1782952275550385000,2.565385009765625,-0.1048345854371786,1.4392612347126006,1.112105940490216
1782952275560312000,2.57531201171875,-0.301674085354805,1.4422415656976402,0.9326591816611588
1782952275570239000,2.585239013671875,-0.43439387206137176,1.2705579882159828,0.72383442572169
1782952275580167200,2.595167236328125,-0.4135094894647598,1.1001841781586408,0.45207697439864275
1782952275590093800,2.60509375,-0.23357027094364166,0.9137352854825556,0.05233388875145465
1782952275600021000,2.61502099609375,0.015759294667840002,0.7310483756884932,-0.36830716962628063
1782952275609949000,2.624948974609375,0.1988286279082298,0.6124376322247087,-0.7587384927771985
1782952275619875800,2.634875732421875,0.2747252881526947,0.5423934974007308,-0.9835923733018338
1782952275629803000,2.644802978515625,0.2823608975976705,0.5686084273703396,-1.0091983775928617
1782952275639731000,2.65473095703125,0.04338905987143516,0.7682843197576701,-0.8628688024025409
1782952275649657900,2.664657958984375,-0.2061404122263193,1.082917401537299,-0.7540214011274278
1782952275659585000,2.6745849609375,-0.4076794681370258,1.370636757428199,-0.7174313537463546
1782952275669512000,2.684511962890625,-0.6877355959236622,1.539696708407998,-0.6837208073243498
1782952275679440100,2.694440185546875,-1.0692717380225658,1.6033843138121067,-0.6453634580098092
1782952275689367000,2.704366943359375,-1.2576719108968972,1.658362396929413,-0.5825745184784755
1782952275699294000,2.7142939453125,-1.304769177636504,1.6872627665907143,-0.430298163712956
1782952275709222700,2.72422265625,-1.235173078840971,1.7102265858098864,-0.21051128425430504
1782952275719149600,2.734149658203125,-1.086460773232579,1.7888893497668206,-0.002606748432293534
1782952275729076700,2.74407666015625,-0.7954483671456575,1.933346336018294,0.04855199559256434
1782952275739004700,2.754004638671875,-0.4982844526916742,2.044560101098567,-0.10500135683882982
1782952275748931600,2.763931640625,-0.2252548625409603,2.0830783400632438,-0.3310393691141158
1782952275758858800,2.773858642578125,-0.02760872241556644,2.0005726369425654,-0.610009272566624
1782952275768786700,2.78378662109375,0.1307253980189562,1.9168715865574777,-0.8571017633084207
1782952275778713300,2.79371337890625,0.25000936456918715,1.8344382180206475,-0.9790462543047964
1782952275788640500,2.803640625,0.3728542384713888,1.792720160101354,-1.0471479498241096
1782952275798567400,2.8135673828125,0.39892040762007236,1.7894607199139891,-0.9594083646379411
1782952275808495600,2.82349560546875,0.3354559434473514,1.8435943150311707,-0.8603134188313036
1782952275818422500,2.833422607421875,0.19616145452558992,1.9168740707755088,-0.7834046589348465
1782952275828349700,2.843349609375,-0.05671732800006866,1.9677641539268194,-0.6888868117853999
1782952275838277600,2.853277587890625,-0.2612695942521095,1.9655159366086123,-0.5679453238191082
1782952275848204500,2.86320458984375,-0.24378712905347347,1.9178852936446666,-0.4793494871297851
1782952275858131700,2.873131591796875,-0.18958207613527775,1.8693940883286295,-0.4413603500731289
1782952275868059600,2.8830595703125,-0.13214169455766678,1.849532180647552,-0.43414665583465245
1782952275877986600,2.892986572265625,0.05629121154248714,1.8155660520292818,-0.5091201002869755
1782952275887913500,2.90291357421875,0.24431319875419139,1.6709774022221564,-0.5712728973392397
1782952275897841700,2.912841552734375,0.4346323569923639,1.4637991713806986,-0.6829817524600774
1782952275907768600,2.9227685546875,0.5662631794184446,1.2312016909919679,-0.8105490517742931
1782952275917695500,2.932695556640625,0.7090490175873041,1.023032257156074,-0.9272991889979689
1782952275927622700,2.94262255859375,0.586467763057351,0.8616903332076966,-0.9918775326967239
1782952275937550600,2.952550537109375,0.28289573512673377,0.8218412840306758,-0.981859265898913
1782952275947477500,2.9624775390625,-0.0023111995518207548,0.755799078324437,-0.9764889710374176
1782952275957404700,2.97240478515625,-0.1853320174753666,0.6406215241797268,-0.922461758904159
1782952275967332600,2.98233251953125,-0.21848609905838964,0.5027554606258869,-0.835263367922604
1782952275977259500,2.992259521484375,-0.17261457472145555,0.36317324080392716,-0.7113431929390877
1782952275987186700,3.002186767578125,-0.09102876292467117,0.24957594158798455,-0.6202119194880128
1782952275997114600,3.012114501953125,0.0020347206979990005,0.15221651433706282,-0.581382861008495
1782952276007041800,3.022041748046875,0.14268588492572307,0.004339490509033203,-0.5366038080833851
1782952276016968400,3.031968505859375,0.22712883971929548,-0.1523601605914533,-0.41234329522959884
1782952276026896400,3.041896484375,0.23481179543733596,-0.3311803119547665,-0.38700244468078016
1782952276036823600,3.051823486328125,0.14352818096876144,-0.5009846515610814,-0.4025912050873041
1782952276046750500,3.06175048828125,0.027947160589694976,-0.6187056065782904,-0.37070977378860115
1782952276056677600,3.071677734375,-0.00007072714865207672,-0.7909114543683826,-0.2963687454883009
1782952276066605600,3.08160546875,0.01980535518825054,-0.9154036570861935,-0.20182897876799105
1782952276076532500,3.091532470703125,0.01752571981847286,-0.9435524777278304,-0.0928179844290018
1782952276086459600,3.101459716796875,-0.007579495343565941,-0.9826235282696782,0.11980828268527983
1782952276096387600,3.1113876953125,-0.11058686535358428,-0.9963432799339293,0.2966470509730279
1782952276106314800,3.121314697265625,-0.23883447508215902,-1.006165293507278,0.335767347484082
1782952276116241700,3.13124169921875,-0.21181553525328634,-1.085188415209204,0.3142909172784537
1782952276126169600,3.141169677734375,-0.055882046219706535,-1.1948565582826733,0.2373463554162532
1782952276136096500,3.151096435546875,0.16236907503902911,-1.2910991103328764,0.18400135339349508
1782952276146023400,3.1610234375,0.35878713467419143,-1.3560596582822502,0.17727540613934398
1782952276155951600,3.17095166015625,0.5138438408732414,-1.4184962407119572,0.20012312469817697
1782952276165878500,3.18087841796875,0.6520306608140468,-1.4267742397136984,0.31792554745376106
1782952276175805700,3.1908056640625,0.6464098983228206,-1.4273833115227519,0.4408896638214588
1782952276185732600,3.200732666015625,0.5322808303177357,-1.37034537326619,0.4755244854815304
1782952276195660500,3.21066064453125,0.3137380326360464,-1.3540890888616441,0.39994244414418934
1782952276205587700,3.220587646484375,0.08226035005748271,-1.4022047388635575,0.3728462743606418
1782952276215514600,3.2305146484375,-0.009685527712106705,-1.3965968358539045,0.49233299694135785
1782952276225442600,3.240442626953125,0.1486976925611496,-1.212063421410322,0.7588032285764813
1782952276235369700,3.25036962890625,0.29900398936271666,-0.6621370442867278,1.204690481489524
1782952276245296400,3.26029638671875,0.24613047730922696,-0.5757691127799451,1.527865400838852
1782952276255224600,3.270224609375,0.35549803000092506,-1.402212191517651,1.2086737789720297
1782952276265151500,3.2801513671875,0.30838556569218634,-1.7627632671244442,0.9510181374333798
1782952276275078700,3.29007861328125,0.2648503753483295,-1.547028804861754,1.0534835095211863
1782952276285006600,3.300006591796875,0.0736427438378334,-1.320720780006051,1.0504149887960403
1782952276294933500,3.30993359375,-0.4413414992421865,-1.3149854512244463,0.932433994603157
1782952276304860700,3.319860595703125,-0.9300339477241039,-1.2287883462399243,0.9319489144999533
1782952276314788600,3.32978857421875,-1.1264473311841487,-1.0445791953146457,0.902894011864066
1782952276324715500,3.339715576171875,-0.9701672206699847,-0.8735495516970753,0.8569624279029667
1782952276334642700,3.349642578125,-0.581838934212923,-0.8179346319809555,0.8369076279982924
1782952276344569600,3.359569580078125,-0.012014847442507743,-0.8353628827743231,0.832048205268383
1782952276354497800,3.369497802734375,0.5352139611601829,-0.8469489834107458,0.770306838561222
1782952276364424400,3.379424560546875,0.9396773898601531,-0.8566096689425409,0.7793006576821208
1782952276374351600,3.3893515625,1.131297693824768,-0.8470340313456952,0.8565149763964116
1782952276384279600,3.399279541015625,1.0880366442471743,-0.7375754393696785,0.9546988717727363
1782952276394206500,3.40920654296875,0.92688921995759,-0.5802938967280089,0.9874696531265973
1782952276404133600,3.419133544921875,0.8075275119960308,-0.4085588813200593,0.783686617681384
1782952276414061600,3.4290615234375,0.5200339276850223,-0.09203194861784576,0.35562750159949064
1782952276423988500,3.438988525390625,-0.22065467526912688,-0.28570757767707106,0.17545071146283298
1782952276433915600,3.44891552734375,-1.01060970569551,-0.8049389568075537,0.4519428996901959
1782952276443843600,3.458843505859375,-1.4473399117499588,-1.040323729827255,0.51537587274611
1782952276453770800,3.468770751953125,-1.4500690444529056,-1.053912110196799,0.43465774716194716
1782952276463697700,3.47869775390625,-1.0385580353289843,-0.6378505981616676,0.0658171282460913
1782952276473624600,3.48862451171875,-0.49294484522938725,-0.4001832671627402,0.06617956835031509
1782952276483552800,3.498552734375,-0.010655249527096749,-0.4075011889606714,0.4864290701271966
1782952276493479400,3.5084794921875,0.3671685940504074,-0.34826106448471544,0.8102025764241814
1782952276503406600,3.518406494140625,0.716951169013977,-0.1590799703657627,0.8681220467556268
1782952276513334500,3.52833447265625,0.9318786988079547,-0.046385757469385856,0.85916154538244
1782952276523261400,3.538261474609375,1.0837702189743519,-0.04045008381009101,0.8324147004932164
1782952276533188600,3.548188720703125,1.1092296544015408,0.005360504119843244,0.8336514026813209
1782952276543116500,3.558116455078125,0.8772510365635157,0.04831643327102065,0.7912053227484226
1782952276553043700,3.568043701171875,0.43569794039726256,0.03477759113162756,0.6364129665739834
1782952276562970600,3.577970703125,0.04369593386352062,-0.028441373847424983,0.49582799945026634
1782952276572897800,3.587897705078125,-0.25352117208242414,-0.10823489539995788,0.34132509120907634
1782952276582825700,3.59782568359375,-0.47958559744060036,-0.05122311449795961,0.15312997592017052
1782952276592752600,3.607752685546875,-0.5871867249816656,-0.015555004267394541,0.0352592371687293
1782952276602679600,3.617679443359375,-0.5165267963469028,-0.13339198687970638,-0.05761471523120999
1782952276612607500,3.627607421875,-0.35557752497792244,-0.23944413141310214,-0.13509725642763076
1782952276622534400,3.637534423828125,-0.14252864853739738,-0.28099662350714205,-0.22511545407027006
1782952276632461600,3.647461669921875,0.07600538131594657,-0.17529928376078605,-0.23672771206125615
1782952276642389500,3.657389404296875,0.3124094143807888,-0.06292728855609893,-0.2528540134105831
1782952276652316700,3.667316650390625,0.593206131401658,0.07874766576141118,-0.17515907157249747
1782952276662243600,3.67724365234375,0.7630138320088387,0.13485636034384368,-0.0222340436398983
1782952276672171500,3.687171630859375,0.7964262722671032,0.16867621235921978,0.17833207558542488
1782952276682098700,3.6970986328125,0.8910638733386993,0.17351707651913165,0.26911701981686054
1782952276692025600,3.707025634765625,0.7969844906717538,0.1540329161092639,0.4501863383464515
1782952276701952800,3.716952880859375,0.3190934221893549,0.18606763827353714,0.8343967411559075
1782952276711880700,3.726880615234375,0.08055529970526695,0.46185456430837507,0.9912268137030303
1782952276721807600,3.7368076171875,-0.03391571360528469,0.8593525379098951,0.898785042175278
1782952276731734800,3.74673486328125,-0.1418874280244112,0.9536370877601206,0.9642130615059286
1782952276741662700,3.756662841796875,-0.1323322486937046,1.0107692801713943,0.811872190136835
1782952276751590000,3.76658984375,0.0284732302904129,0.8978734072230756,0.6207252027723937
1782952276761516800,3.776516845703125,0.16227321344912052,0.7710964545689523,0.37899515237919984
1782952276771444700,3.78644482421875,0.10870295130312442,0.7654330219797789,-0.15672960784733295
1782952276781371600,3.79637158203125,-0.05056406606733799,0.7052260982982814,-0.5145506739683449
1782952276791298600,3.806298583984375,-0.32955285688340663,0.6474348574563861,-0.6550657907262444
1782952276801226500,3.8162265625,-0.5600286689430475,0.642018969887495,-0.7088959459174424
1782952276811153700,3.826153564453125,-0.6379851843267679,0.7691147792324423,-0.7889364279683679
1782952276821080600,3.83608056640625,-0.5312269373506308,0.9708347446680068,-0.9077122988659888
1782952276831007700,3.8460078125,-0.30100422326922416,1.1736672013901173,-1.0049257417749613
1782952276840935700,3.855935791015625,-0.09018120618462562,1.253685910000652,-1.0966934864986688
1782952276850862800,3.86586279296875,0.04196750263571739,1.1746047745011745,-1.196326630835235
1782952276860789800,3.875789794921875,-0.04768646480441093,1.070113303413242,-1.3055384084433317
1782952276870717700,3.8857177734375,-0.3130190707117319,1.0367480632975696,-1.3437147021025417
1782952276880644900,3.895644775390625,-0.5837514898359775,1.027718953667581,-1.3087462645739316
1782952276890571500,3.905571533203125,-0.8613654851675033,1.1053272401355205,-1.1546858759358525
1782952276900499700,3.915499755859375,-1.240480537599325,1.2655348993569613,-1.0132410040471702
1782952276910426600,3.925426513671875,-1.4185235671103,1.5693845751851796,-0.8077010419320315
1782952276920353500,3.935353515625,-1.4101502910405397,1.9286722067274151,-0.6437377565041184
1782952276930281700,3.94528173828125,-1.1289391479998827,2.3394871964111923,-0.5750854413647204
1782952276940208600,3.955208740234375,-0.6101467448085546,2.4834657514959573,-0.3441454458594322
1782952276950135800,3.9651357421875,-0.14033259979784488,2.1707707981720565,0.1698476672913879
1782952276960062700,3.975062744140625,0.20398644906282423,2.1911717811658975,0.1606967579126358
1782952276969990700,3.98499072265625,0.49108314301073547,1.926101625587046,0.2730285672374069
1782952276979917800,3.994917724609375,0.7159335164040327,1.698234388590604,0.2610879540748894
1782952276989844700,4.0048447265625,0.8027186504095792,1.4267819846287368,0.14779219508878885
1782952276999772700,4.014772705078125,0.7496312033444642,1.0683275890402495,0.15846929112151265
1782952277009699800,4.024699951171875,0.759721220204234,0.9983148722678422,-0.08620572668239473
1782952277019626500,4.03462646484375,0.7810913404911756,1.2859320829585195,-0.5321924213819206
1782952277029554700,4.0445546875,0.6803735427230596,1.5095400550752878,-0.787221659939736
1782952277039481600,4.054481689453125,0.513891187146306,1.5143340113535522,-0.7526233708977699
1782952277049408800,4.06440869140625,0.3839215759307146,1.4621623639591037,-0.716079208485037
1782952277059336700,4.074336669921875,0.22038170354664324,1.4194288453869521,-0.7668853396799414
1782952277069263600,4.084263671875,0.12199030289947986,1.3137804593488573,-0.8967573357399553
1782952277079190800,4.094190673828125,0.11725859820246695,1.1138479618519543,-1.074101642397046
1782952277089117700,4.10411767578125,0.17270985178947448,0.9301907457210123,-1.161137536293268
1782952277099045600,4.114045654296875,0.1782107872933149,0.8123466027155518,-1.1418856502693147
1782952277108972800,4.123972900390625,-0.00018996961414813993,0.7789937836900352,-0.9958352573465555
1782952277118899700,4.133899658203125,-0.4191133008211851,0.7717522881291806,-0.8378311725839972
1782952277128828000,4.143827880859375,-0.8096902429878711,0.8260739531643688,-0.7964553522311151
1782952277138754600,4.153754638671875,-0.9908470206052065,0.8355871930494904,-0.7812300183095038
1782952277148681700,4.163681640625,-0.9584276830375194,0.7476873758003115,-0.762330525919795
1782952277158609700,4.173609619140625,-0.7841589113682508,0.5182226404793561,-0.7488094386328011
1782952277168536600,4.18353662109375,-0.5247580335974693,0.26351430443897844,-0.7486226838890463
1782952277178463700,4.193463623046875,-0.24953940896987914,0.02863280476629734,-0.7757645194452255
1782952277188390700,4.203390625,0.011664134308695792,-0.09136004070565104,-0.8422042000364511
1782952277198318600,4.213318603515625,0.14961422288417817,-0.06052665715515613,-0.9165523156646639
1782952277208245800,4.223245849609375,0.19746669190526006,-0.5414451106347143,-0.32778822183106093
1782952277218172700,4.233172607421875,0.09281915347278118,-0.8067550663188099,0.14862225270476193
1782952277228100900,4.243100830078125,-0.0760392835855484,-0.6011043373055756,0.11744736224021762
1782952277238027800,4.25302783203125,-0.23376608577668664,-0.4196630436584353,0.14961583031937478
1782952277247954700,4.26295458984375,-0.29128420876562594,-0.5270747861072421,0.41566531579177823
1782952277257882600,4.272882568359375,-0.2534574591964483,-0.566800501165539,0.5540490100115537
1782952277267809500,4.2828095703125,-0.13413257611393928,-0.5879707149662077,0.5007919054679573
1782952277277736700,4.29273681640625,-0.051774610900878905,-0.7594136155597865,0.3895144275017082
1782952277287664600,4.30266455078125,0.12433598924279213,-0.9159767807990312,0.32384602354392406
1782952277297591800,4.312591796875,0.3540969310313463,-0.9471920032739639,0.3840601441511884
1782952277307518700,4.322518798828125,0.5768792659789324,-1.0262303225450218,0.3863274680286646
1782952277317445600,4.332445556640625,0.6793260794967413,-1.134135401468724,0.42620713153965767
1782952277327373800,4.342373779296875,0.6927507937371731,-1.1893230356834827,0.5038801903394982
1782952277337300700,4.35230078125,0.661232204401493,-1.265027826617658,0.49331543210744855
1782952277347228000,4.362227783203125,0.5385311228841543,-1.2783964267566799,0.48578616911377753
1782952277357155800,4.37215576171875,0.30329613359868524,-1.3110659396931528,0.5581005504246801
1782952277367082500,4.38208251953125,0.14810732545256614,-1.3164175298541783,0.6936818640422076
1782952277377009700,4.392009765625,0.10893968266844749,-1.3692073091469705,0.827635649523139
1782952277386937600,4.4019375,0.24825638342201709,-1.3967546567641198,0.9263282250739634
1782952277396864800,4.41186474609375,0.4310416390240192,-1.383981099908799,1.014527098334953
1782952277406791700,4.421791748046875,0.6570774228096008,-1.423723912232369,1.051141330309212
1782952277416718800,4.43171875,0.7813321635097265,-1.4707947293564676,0.951906464575231
1782952277426646800,4.441646728515625,0.7447288182556628,-1.4974145868651567,0.848249033158645
1782952277436573700,4.45157373046875,0.48706864667236804,-1.5173267634287475,0.8314804883830249
1782952277446500900,4.4615009765625,0.017242811223864556,-1.572129928370565,0.73302201384902
1782952277456428800,4.4714287109375,-0.5994926643252373,-1.593525475359708,0.5212868503555655
1782952277466355700,4.481355712890625,-1.2055068393737076,-1.5001242842152713,0.3789709312533959
1782952277476282600,4.49128271484375,-1.401097216013074,-1.3536591730117797,0.3499444144617766
1782952277486210800,4.5012109375,-1.2188450443744658,-1.1983486381821333,0.35014735315535217
1782952277496137700,4.5111376953125,-0.8070335909992455,-1.0621017002627253,0.3676532722948119
1782952277506064600,4.521064697265625,-0.20327099426984785,-0.9419760221913457,0.4875388580000028
1782952277515992600,4.53099267578125,0.41060207758545875,-0.8634419991806149,0.7441358938638121
1782952277525919700,4.540919677734375,0.8547901984304189,-0.8686427826941013,0.9799909878090023
1782952277535846700,4.5508466796875,0.9390408455222845,-0.8517736270882189,1.160700460050255
1782952277545773800,4.56077392578125,0.8167962756007909,-0.8783718572869896,1.1676220029417426
1782952277555701800,4.57070166015625,0.5465852500021458,-0.9262257876127957,1.0073135867595673
1782952277565628700,4.580628662109375,0.2240747128456831,-1.0258626582764088,0.7041071042057127
1782952277575555800,4.590555908203125,-0.10112754761278629,-1.1090860081471503,0.3712753717821091
1782952277585483800,4.60048388671875,-0.4532902957111597,-1.0316432875044643,0.18723302879109976
1782952277595411000,4.610410888671875,-0.7158487607300281,-0.9145023243322968,0.07952149967812001
1782952277605337600,4.620337646484375,-1.0227741907417773,-0.5864692243620753,-0.12005754473861306
1782952277615265500,4.630265625,-1.2989549383997916,0.04107362253591418,-0.5359441385982557
1782952277625192700,4.640192626953125,-1.3700713786303995,-0.25754721272811293,-0.07101473342180252
1782952277635119600,4.65011962890625,-1.2501590510487555,-0.47660307449847455,0.3567742604818195
1782952277645046800,4.660046875,-0.8799164563804864,-0.5202195133849978,0.513690513475053
1782952277654974700,4.669974609375,-0.3306260390728712,-0.5282898609854281,0.7582920641839503
1782952277664901600,4.679901611328125,0.2991594721853733,-0.26672932096272706,0.7549263140778988
1782952277674828800,4.689828857421875,0.6334346814155578,-0.06169716223925352,0.813724978396669
1782952277684756700,4.6997568359375,0.81321724807024,0.036451515693217515,0.8806637676164507
1782952277694684000,4.709683837890625,0.9379483741104603,0.12318828051239251,0.9070908790320158
1782952277704610800,4.71961083984375,0.9766431386858224,0.2011285754136741,0.8941969106674194
1782952277714538000,4.7295380859375,0.9477987369954586,0.4095258266560733,0.760378661199659
1782952277724465000,4.73946484375,0.8710679640144109,0.5484570352233946,0.5670076411101966
1782952277734391800,4.749391845703125,0.7781529489517212,0.3132053870640695,0.6654252721771597
1782952277744318700,4.759318603515625,0.6575836187660694,0.19515227748304603,0.5860039814705029
1782952277754247000,4.769246826171875,0.49817047092318534,0.20378318157568573,0.31646756719779223
1782952277764173800,4.779173828125,0.21967735466957092,0.31665202038660645,-0.05336166089661419
1782952277774100700,4.789100830078125,-0.1895879213541746,0.3589453939758241,-0.33900771764479576
1782952277784028700,4.799028564453125,-0.5564513949781656,0.3412978013433516,-0.4783043985236436
1782952277793955800,4.808955810546875,-0.7242734747260808,0.3418858303643763,-0.5225862425163388
1782952277803882800,4.8188828125,-0.676372490388155,0.4040798362098634,-0.5592572461791336
1782952277813811000,4.82881103515625,-0.5266320107758045,0.4423119517095387,-0.49061925182603294
1782952277823737900,4.83873779296875,-0.36674890733361243,0.5048081553719937,-0.30698190943934023
1782952277833664800,4.848664794921875,-0.36783670257031914,0.49264016319438814,-0.16537826679237186
1782952277843593000,4.858593017578125,-0.03333528336882591,0.4688970301657915,-0.020967457770183683
1782952277853520000,4.868519775390625,0.13445289410948752,0.4311921534106135,0.24934585915915666
1782952277863446800,4.87844677734375,0.09270341813862323,0.4720484799340367,0.542906488424167
1782952277873373700,4.888373779296875,0.07963409320712089,0.6311956703171133,0.5743617302000522
1782952277883301600,4.898301513671875,0.10391513250470161,0.716775081794709,0.4567936276569962
1782952277893228800,4.908228759765625,-0.005102291575074196,0.7174905365876854,0.4048076755603775
1782952277903155700,4.91815576171875,-0.12115034494400023,0.6922825917035341,0.32084501509703695
1782952277913084000,4.928083984375,-0.16175181992352008,0.6850567321032285,0.2509651309240609
1782952277923010800,4.9380107421875,-0.11877367894053459,0.727713239916414,0.21023849519491195
1782952277932938000,4.94793798828125,0.09881284092962742,0.7070625199452042,0.10902195412442088
1782952277942866000,4.957865966796875,0.3378156583160162,0.6606948826543987,-0.011289674973115324
1782952277952792800,4.967792724609375,0.561933625781536,0.6408202616222203,-0.12438070516735314
1782952277962720000,4.977719970703125,0.626619740703702,0.5949876079909503,-0.24799824394248424
1782952277972646700,4.987646728515625,0.5435153410375118,0.6126346161015331,-0.32141974624507125
1782952277982574800,4.997574951171875,0.38184476965665815,0.6878096840731799,-0.3751789550919086
1782952277992501800,5.007501708984375,0.1617600032299757,0.7819206309221685,-0.36813919264823197
1782952278002428700,5.0174287109375,-0.10551146178543568,0.8680550459340214,-0.4394985747892409
1782952278012356900,5.02735693359375,-0.3336749052494764,0.9310144831940531,-0.5572144883051514
1782952278022283800,5.03728369140625,-0.4706412434846163,0.9999667311280965,-0.670689110989496
1782952278032211000,5.0472109375,-0.6048503919661045,1.0494422713063656,-0.7889398620344698
1782952278042139000,5.057138916015625,-0.7250310150951147,1.0741768995903431,-0.8563184309110045
1782952278052065800,5.067065673828125,-0.8806114529073238,1.1041440217003227,-0.7938701580435037
1782952278061993000,5.076992919921875,-0.9916577524662017,1.1704381563410162,-0.6777084151670336
1782952278071921000,5.0869208984375,-0.9895248320907354,1.2686870797775684,-0.5415517858795821
1782952278081847800,5.096847900390625,-0.8150298504501581,1.416174812027067,-0.3520907057754695
1782952278091775000,5.10677490234375,-0.4941933839857578,1.5534889407865702,-0.2127131051475182
1782952278101701600,5.11670166015625,-0.16706453937888144,1.6939067346498369,-0.11668072524927556
1782952278111629800,5.1266298828125,0.10856909579038619,1.8180286427505312,-0.09488317333050071
1782952278121556700,5.136556640625,0.3897960209220648,1.8553094488747417,-0.13421473797205835
1782952278131484000,5.14648388671875,0.6622627164930105,1.8636859398148953,-0.4062527598021552
1782952278141411800,5.156411865234375,0.9034949003666639,1.7776261974744498,-0.7098030508249997
1782952278151338800,5.1663388671875,1.0225456426829098,1.6079586359903215,-0.9487277614738792
1782952278161266000,5.176265869140625,0.9925181686878204,1.3860492844849823,-1.1331725477859378
1782952278171193900,5.18619384765625,0.7816805385559796,1.1740467022269963,-1.2592023353345692
1782952278181120800,5.196120849609375,0.46233168030083177,1.0966270701989531,-1.299042032161355
1782952278191048000,5.2060478515625,0.034147768795490266,1.10622331219241,-1.3347834998890757
1782952278200974800,5.215974853515625,-0.47945057288408277,1.1969846563525497,-1.3335874219723045
1782952278210903000,5.225903076171875,-0.9665092826843261,1.3695058537021279,-1.3161677928768099
1782952278220829700,5.23582958984375,-1.2668459819555282,1.4798457585573195,-1.2760700296357272
1782952278230756900,5.2457568359375,-1.2907143487989903,1.4751824429214,-1.210821604655683
1782952278240684800,5.255684814453125,-1.1226064378470182,1.3988354085609316,-1.1576303318899124
1782952278250611700,5.26561181640625,-0.7909703449487686,1.2691232792377471,-1.061780651614815
1782952278260539000,5.275538818359375,-0.4656055874049663,1.1740683295369148,-0.9091689274150878
1782952278270466800,5.285466796875,-0.16754793898165224,1.1802809204414486,-0.7908429191768169
1782952278280393700,5.295393798828125,0.15358721816837786,1.2203209621459246,-0.7180304886832833
1782952278290321000,5.30532080078125,0.4572743969112634,1.2360631595484912,-0.6738650376118719
1782952278300247800,5.315247802734375,0.6888198840290307,1.1813188851870595,-0.6573306669183075
1782952278310176000,5.325176025390625,0.8124941944926977,1.0746690670214594,-0.6724538556396961
1782952278320103000,5.33510302734375,0.9121230279803275,0.9765576523594558,-0.586666683162935
1782952278330029800,5.34502978515625,0.99915833735466,0.9014742081940174,-0.48322592670433223
1782952278339957800,5.354957763671875,0.9924036023974419,0.8476083241023122,-0.3365057447612285
1782952278349884700,5.364884765625,0.869083512198925,0.8329412085853517,-0.14125404375800862
1782952278359811800,5.374811767578125,0.662865943083167,0.6785659087792039,-0.015026486881263554
1782952278369739800,5.38473974609375,0.4713508530586958,0.4345597301475703,-0.02775068816952407
1782952278379666700,5.394666748046875,0.27223814751207825,0.1073924532264471,-0.1206535561366938
1782952278389593900,5.40459375,-0.012219430103898048,-0.3118377519726753,-0.3643183191858232
1782952278399520800,5.414520751953125,-0.25317279703617096,-0.5443099985465407,-0.6352649655826389
1782952278409449000,5.424448974609375,-0.36947044125199313,-0.6529737868830561,-0.749658822003752
1782952278419375900,5.4343759765625,-0.3377145360291004,-0.7132150512255728,-0.6932387964498251
1782952278429303000,5.444302978515625,-0.23374562751054762,-0.7130727201454341,-0.5013820533808321
1782952278439231000,5.45423095703125,-0.07424538590610028,-0.7283966921359301,-0.346430305393599
1782952278449157600,5.46415771484375,0.07362345461547375,-0.744914257825166,-0.2539801313636824
1782952278459084800,5.474084716796875,0.1498907017379999,-0.81937650135234,-0.1607238285826519
1782952278469012700,5.4840126953125,0.20404314768612383,-0.8692685133770107,0.012809687614627181
1782952278478939600,5.493939697265625,0.12334639368355274,-0.8720084597349166,0.22380232564508915
1782952278488866800,5.50386669921875,0.030392800176143646,-0.8407552433371543,0.3810641406729817
1782952278498793700,5.513793701171875,-0.09836159003078937,-0.7999819189220666,0.48076885240841655
1782952278508722000,5.523721923828125,-0.30893852339982986,-0.8201783192545175,0.5497693964635954
1782952278518648800,5.53364892578125,-0.49859132668375966,-0.8713935427069663,0.617788783994317
1782952278528576000,5.543575927734375,-0.5635065741866827,-0.9208626531444489,0.6282855550240725
1782952278538504000,5.55350390625,-0.5331728107213973,-0.9962965181827544,0.6459176578264683
1782952278548430800,5.563430908203125,-0.3121872960627079,-1.040097081464529,0.7366209151238202
1782952278558357800,5.573357666015625,-0.04538870925605297,-1.0672264959305524,0.8041186534006148
1782952278568286000,5.583285888671875,0.30490006166398526,-1.1341153815940022,0.8873007944781333
1782952278578212900,5.593212890625,0.5965063419908285,-1.216191022734344,0.8477385994184762
1782952278588139800,5.603139892578125,0.7815671413093804,-1.3312800218127667,0.8193360232114791
1782952278598066700,5.613066650390625,0.934783772599697,-1.5135085203148424,0.8139314607542008
1782952278607995000,5.622994873046875,1.0392033474951983,-1.7314616815403103,0.9574002396859228
1782952278617921800,5.632921875,1.061035240074992,-1.8562557898141443,0.9776034350853413
1782952278627849000,5.642848876953125,0.7985428260296583,-1.8822651142090558,0.8747960446268319
1782952278637777000,5.65277685546875,0.24832009630799293,-1.861545712915808,0.7454244723696262
1782952278647703800,5.662703857421875,-0.4944587569236755,-1.824969694060087,0.648135626136884
1782952278657631000,5.672630859375,-1.2934002268821,-1.741063038100302,0.7235690527837723
1782952278667559000,5.682558837890625,-1.7989309974402188,-1.5286320012971757,0.768199710214138
1782952278677485800,5.69248583984375,-1.886997987949848,-1.2880517054609955,0.833828220552951
1782952278687412700,5.702412841796875,-1.650890307483077,-1.1144611253142356,0.9364917455613613
1782952278697340700,5.712340576171875,-1.1184826359152793,-1.0381726892732084,1.047050334668532
1782952278707267800,5.722267822265625,-0.4427671481311321,-1.0232685501299799,1.125098985315114
1782952278717195800,5.73219580078125,0.16819325114786624,-1.0351000038295983,1.211513020985946
1782952278727122700,5.742122802734375,0.6802735894799232,-1.0936603293478488,1.2930574047937988
1782952278737051000,5.75205078125,1.007310079628229,-1.114770045132935,1.3537595646463334
1782952278746977800,5.761977783203125,1.100277117139101,-1.0990407072119415,1.3453244753867386
1782952278756905000,5.771905029296875,1.061352635461092,-1.0762608662575484,1.2703526749022305
1782952278766833000,5.7818330078125,0.9738087920427322,-1.0382441470742225,1.1217169416613877
1782952278776759800,5.791759765625,0.8069348067998886,-1.068855266176164,0.9751789844173937
1782952278786686700,5.801686767578125,0.7149351530164479,-1.0715345683880149,0.8417344636328518
1782952278796613600,5.811613525390625,0.591035217103362,-1.0064711445860564,0.7345622290283441
1782952278806541600,5.82154150390625,0.34325463449954985,-0.9069364191226661,0.5203940662343055
1782952278816468700,5.83146875,0.17954758885502814,-0.7646791348725557,0.2988327609816566
1782952278826395600,5.841395751953125,0.12114449972510337,-0.6996124962002038,0.24539244535826146
1782952278836323800,5.85132373046875,0.09949614701867103,-0.6541336244426668,0.33629155402127653
1782952278846250800,5.861250732421875,0.1633183385878801,-0.5624100111216306,0.49590318357832724
1782952278856178000,5.871177978515625,0.39895957058668136,-0.4600831707216799,0.7046186339244246
1782952278866105900,5.88110595703125,0.7342740597367287,-0.3709443131968379,0.8740506330870091
1782952278876032800,5.89103271484375,1.0193342794209719,-0.22948402454331515,1.011557581004873
1782952278885960000,5.9009599609375,1.1830670440286397,-0.13616115933209658,1.0589403136223554
1782952278895886600,5.910886474609375,1.1918459782898425,-0.11261734826788306,1.0521919353406877
1782952278905814500,5.920814453125,1.064336619707942,-0.15109379391744732,0.8793506391912699
1782952278915741700,5.93074169921875,0.8224053476542234,-0.23411972151994703,0.6553291178375482
1782952278925668600,5.940668701171875,0.4163631253302097,-0.29619828429222106,0.4264718468904495
1782952278935596800,5.9505966796875,-0.1114706624507904,-0.32151202763840553,0.1811080796374008
1782952278945523700,5.960523681640625,-0.5779220530301332,-0.27387977723926304,-0.16563790410924703
1782952278955451000,5.970450927734375,-1.120025773704052,-0.13312705233320593,-0.3278286999719217
1782952278965378800,5.98037890625,-1.476012464004755,-0.1597065778315067,-0.11708888592505827
1782952278975305700,5.9903056640625,-1.5363497360676526,-0.06699103086367249,-0.1303686387368478
1782952278985233000,6.00023291015625,-1.4968547610253096,0.06890782427042723,-0.13207443800773472
1782952278995159800,6.010159912109375,-1.293577337014675,0.0412567240178585,-0.1409508595603518
1782952279005087700,6.020087646484375,-1.0354875418424605,0.0012666589349508285,0.041729949286486955
1782952279015014700,6.0300146484375,-0.7904606418609619,-0.02726487741395831,0.408598994134739
1782952279024941600,6.039941650390625,-0.5818851114422082,0.1155279750175774,0.7693580134037882
1782952279034869800,6.049869873046875,-0.471094832471013,0.344940395629406,0.9848781022634356
1782952279044796700,6.059796630859375,-0.4497907631576061,0.5264271358534693,1.031305287721753
1782952279054723800,6.069723876953125,-0.525308653217554,0.6195677763655781,0.94636928871423
1782952279064651800,6.07965185546875,-0.6250906314402819,0.6882816854991018,0.7964942229367792
1782952279074578700,6.08957861328125,-0.6109264970093965,0.6696205319099128,0.6456377449065447
1782952279084505900,6.099505859375,-0.5542699592858552,0.6361829572103918,0.548782285122387
1782952279094432800,6.109432861328125,-0.42901451711058614,0.5797258875817061,0.3149335990961641
1782952279104360700,6.119360595703125,-0.03297521788477897,0.481828115670383,0.035931035483069716
1782952279114287900,6.129287841796875,0.0976630863726139,0.42929830248802897,-0.12578432488758115
1782952279124214500,6.139214599609375,0.15384090066850184,0.3566971766576171,-0.2903743273790926
1782952279134142700,6.149142822265625,-0.04179799128770828,0.40206688895225523,-0.41983785223606973
1782952279144069600,6.159069580078125,-0.24020225630402564,0.47041780999228355,-0.4854989496702328
1782952279153996800,6.168996826171875,-0.28908348385095595,0.7403441734306514,-0.4313190311932936
1782952279163924700,6.1789248046875,-0.2397369768798351,1.0585523372180758,-0.29935514088794585
1782952279173851600,6.1888515625,-0.13120412144660948,1.291984514865279,-0.09130407273471355
1782952279183778800,6.19877880859375,-0.05732756885290145,1.43641841250211,0.032097339071705935
1782952279193705700,6.208705810546875,0.023364508974552153,1.5599579906702041,0.05903780683688819
1782952279203633700,6.218633544921875,0.11413900487720965,1.5957516269765792,-0.01843607612904161
1782952279213560800,6.228560791015625,0.17383856355845928,1.561823200020194,-0.19196838674992323
1782952279223487700,6.23848779296875,0.09540858544409274,1.46172645675987,-0.431288672587648
1782952279233416000,6.248416015625,-0.1462485458433628,1.3241745737217365,-0.654196460545808
1782952279243342600,6.258342529296875,-0.4629086034059524,1.2446335656255483,-0.8452512395821511
1782952279253269800,6.268269775390625,-0.716345019814372,1.2636094842523335,-0.9984491661719977
1782952279263197700,6.27819775390625,-0.7335054134517908,1.3506779652439056,-1.0521006768606602
1782952279273124600,6.28812451171875,-0.4671539858907461,1.5143223209157586,-0.9276682415060699
1782952279283051800,6.2980517578125,-0.1479004047036171,1.7162394163586199,-0.6966069577086716
1782952279292978700,6.307978759765625,0.13697159893214703,1.9039738188005983,-0.4761304520180449
1782952279302906600,6.31790673828125,0.4301192634820938,2.0517792386971414,-0.3090089948201552
1782952279312833800,6.327833740234375,0.6916735198944807,2.1168897165112197,-0.23371822804696857
1782952279322760700,6.3377607421875,0.9333803355425596,2.093424962032586,-0.22335973297674208
1782952279332689000,6.34768896484375,1.0692618011504411,1.9847183574676512,-0.3561803497092798
1782952279342615800,6.35761572265625,0.9259557384997605,1.7576690127253531,-0.553074173630029
1782952279352542700,6.367542724609375,0.545212208083272,1.5151630095236002,-0.7500352541007101
1782952279362471000,6.377470947265625,0.15862170520424843,1.325019938504696,-0.8634908067584037
1782952279372397600,6.3873974609375,-0.12755436676740645,1.2482529251664876,-0.9878053148217498
1782952279382324700,6.39732470703125,-0.2897422400206327,1.2742045280247927,-1.1188263347864151
1782952279392251600,6.407251708984375,-0.2774503292024135,1.3609769486792385,-1.1245029191181064
1782952279402179800,6.417179931640625,-0.20854045910537242,1.378469935271889,-1.0477655702657998
1782952279412106800,6.427106689453125,-0.168508892968297,1.3232231182157992,-0.9115598411396145
1782952279422033700,6.43703369140625,-0.10872224052548408,1.2466614181913436,-0.7940938837967813
1782952279431961900,6.4469619140625,-0.05320025978982448,1.1781645128093658,-0.7028855995867401
1782952279441888800,6.456888671875,-0.029034371304512023,1.1504383014939725,-0.6749871735095977
1782952279451816000,6.46681591796875,0.0013584288716316222,1.0972978090673684,-0.6964606080405413
1782952279461743900,6.476743896484375,0.0715033937215805,1.0398980517610907,-0.7416958072353154
1782952279471670800,6.4866708984375,0.22848902215659617,0.9938077701069414,-0.7454678000546991
1782952279481597700,6.49659765625,0.33705870246887204,0.9371034477189183,-0.7039415383804589
1782952279491524600,6.506524658203125,0.3529021682888269,0.9041403586633503,-0.6087715109325945
1782952279501452800,6.516452880859375,0.34375966141223907,0.9232233909264206,-0.5436052112780511
1782952279511379700,6.526379638671875,0.20399463236927984,0.9138438604235648,-0.5324691559640691
1782952279521307000,6.536306884765625,0.037137598261237144,0.8732043915212154,-0.5403094942009076
1782952279531234800,6.54623486328125,-0.05413432576954364,0.7893187783494591,-0.536027396434918
1782952279541161700,6.55616162109375,-0.11909165884852409,0.6606555735573172,-0.5058889728786423
1782952279551089000,6.5660888671875,-0.22634090421199798,0.5263835889726877,-0.48066623228415845
1782952279561016800,6.576016845703125,-0.40973464710116386,0.47376492846310136,-0.3957120400328189
1782952279570943700,6.58594384765625,-0.6062877312928437,0.4601210185140371,-0.32672786259055137
1782952279580871000,6.595870849609375,-0.6920078664153814,0.43839360922202464,-0.2100719795215875
1782952279590797600,6.605797607421875,-0.6681903529763221,0.4268943100862205,-0.08959664776232093
1782952279600725800,6.615725830078125,-0.5632359405517577,0.41267917612046,-0.05339622075334191
1782952279610652700,6.625652587890625,-0.3876531636744737,0.3500567157298326,-0.0840904150288552
1782952279620579800,6.635579833984375,-0.2003150670737028,0.2319618128336966,-0.18336265363115817
1782952279630507800,6.6455078125,-0.05167641122341156,0.047464784877747294,-0.30664515176564455
1782952279640434700,6.6554345703125,-0.032200141859054565,-0.1961672997444868,-0.30975214133765544
1782952279650361900,6.66536181640625,-0.05956687221229076,-0.3769000067308545,-0.2663030583746731
1782952279660289800,6.675289794921875,-0.17259294741153716,-0.5040237269960344,-0.1800712474029511
1782952279670216700,6.685216796875,-0.2643114461660385,-0.5716315745837987,-0.13156287175640463
1782952279680144000,6.695143798828125,-0.23941081366539,-0.5483928839460015,-0.0061820496357977385
1782952279690070500,6.705070556640625,-0.23039047186374664,-0.5537824680298566,0.1020518593834713
1782952279699999000,6.7149990234375,-0.2047948428362608,-0.5658779794931411,0.21518132189195602
1782952279709926700,6.7249267578125,-0.08407587504684924,-0.5554533238515258,0.3773204606326297
1782952279719853600,6.734853515625,0.04284896164536476,-0.5241230966947973,0.5767516210112721
1782952279729781500,6.744781494140625,0.12427110731303691,-0.5281080746777356,0.751274586637318
1782952279739708700,6.754708740234375,0.21774024912714957,-0.5620505301594734,0.8572695210907608
1782952279749635600,6.764635498046875,0.350693844589591,-0.6340874462358653,0.8558208566524088
1782952279759563800,6.774563720703125,0.4688906004250049,-0.7710401943370699,0.757899265474081
1782952279769490400,6.784490478515625,0.6317723011612891,-0.9456741460569202,0.629240882987529
1782952279779417600,6.79441748046875,0.846145704203844,-1.1640616070464254,0.4818689591374248
1782952279789344500,6.804344482421875,1.0446838247328996,-1.355871442233771,0.4658968985017389
1782952279799272400,6.8142724609375,1.2115239077061415,-1.4879014931105077,0.5870099436426535
1782952279809199600,6.82419970703125,1.2590420302063225,-1.5307600993670523,0.7243285659141838
1782952279819126500,6.83412646484375,1.2074842769265175,-1.5162382375396788,0.8598229319006204
1782952279829054700,6.8440546875,1.0219564446181058,-1.4691487157151102,0.8968990092329681
1782952279838981600,6.853981689453125,0.6668985596001148,-1.416457282230258,0.8852102519396692
1782952279848908500,6.863908447265625,0.12747954796552657,-1.3852734778068958,0.871380244833976
1782952279858836700,6.873836669921875,-0.5189443788826466,-1.3554951562672852,0.8479226507484913
1782952279868763600,6.883763671875,-0.9823170926690101,-1.3413634628012776,0.9080681996315717
1782952279878690600,6.893690673828125,-1.0997229903876782,-1.3316067695491016,0.9933093921307474
1782952279888617500,6.903617431640625,-0.8660013282746076,-1.3586921987429261,1.0897495856449007
1782952279898545400,6.91354541015625,-0.42972880285978315,-1.440349906732142,1.0900049486454575
1782952279908472600,6.92347265625,0.007529810982942581,-1.490504369085282,0.9356243150770663
1782952279918399500,6.9333994140625,0.2992471504688263,-1.5868313845485449,0.7211142069775611
1782952279928327700,6.94332763671875,0.475897264316678,-1.7009337106771767,0.5164651292875408
1782952279938254600,6.953254638671875,0.4092617688924074,-1.7511928024485706,0.38723818966541435
1782952279948181500,6.963181396484375,0.07218903789818286,-1.7261891479648648,0.3792808374527842
1782952279958109700,6.973109619140625,-0.42229894511997695,-1.6635393611758946,0.45802853974681346
1782952279968036600,6.98303662109375,-0.8242775712668895,-1.4012623434469103,0.6073161975577474
1782952279977963800,6.9929638671875,-1.0297978057682513,-1.0340700762599706,0.7732726295642555
1782952279987890400,7.002890380859375,-1.101804472836852,-0.6803519154131412,0.9181449186183511
1782952279997818400,7.012818359375,-1.0320733494848013,-0.39786666078343985,1.0226445730127394
1782952280007745500,7.02274560546875,-0.882416456502676,-0.20763357339352367,1.0896952251091598
1782952280017672400,7.03267236328125,-0.613676672500372,-0.11448621087968348,1.1184811746105552
1782952280027600600,7.0426005859375,-0.25674130317270755,-0.11148878262937069,1.108208056268841
1782952280037527600,7.052527587890625,0.08388824352025985,-0.13242489541321992,1.0667343284994364
1782952280047454700,7.062454833984375,0.338925665384531,-0.16708032146990298,0.9933609761875122
1782952280057382700,7.072382568359375,0.5854167926996946,-0.1857771308943629,0.8692073577743024
1782952280067309600,7.0823095703125,0.8264876485317945,-0.15271949542313815,0.7840944678299129
1782952280077236700,7.09223681640625,0.9581798457562923,-0.10037935959398746,0.7275795305341481
1782952280087163600,7.10216357421875,0.9696960960268973,-0.036755320945382114,0.6583968348450958
1782952280097091600,7.112091552734375,0.889617181661725,0.052271308376640076,0.5115211700793355
1782952280107018500,7.1220185546875,0.7633586999237537,0.1477140883512795,0.3140274805692956
1782952280116945400,7.1319453125,0.5394540829479694,0.2052734201334417,0.08542268654592335
1782952280126873600,7.14187353515625,0.21672610364854333,0.16180837241634727,-0.11206373297311364
1782952280136800500,7.151800537109375,-0.17637188142836094,0.10301818366497754,-0.2505376262269914
1782952280146727700,7.161727783203125,-0.7080944933414459,0.028117694851011035,-0.39910665090717373
1782952280156654600,7.171654541015625,-1.3370511525601148,-0.00715776280015707,-0.5409656200220808
1782952280166582500,7.18158251953125,-1.8101672617256641,0.03269493963867426,-0.5903117981996386
1782952280176509700,7.191509765625,-1.923742202979326,0.10405176449641584,-0.5130589010406286
1782952280186436600,7.2014365234375,-1.7113737100183963,0.20632351370826363,-0.38479499776437875
1782952280196364500,7.211364501953125,-1.2937199603557585,0.30937136185914277,-0.20629085354767737
1782952280206291700,7.221291748046875,-0.7941361155033111,0.34306773362532256,-0.02161960153598338
1782952280216218400,7.23121826171875,-0.2833002242743969,0.3747819916635752,0.18382248969525097
1782952280226146800,7.241146728515625,0.22346271842718124,0.35356209350228307,0.30718316763248293
1782952280236073500,7.251073486328125,0.4963187055766582,0.38372400753200053,0.41418285868167876
1782952280246000600,7.261000732421875,0.6815829185128212,0.4044719042673707,0.4207837182514369
1782952280255927600,7.270927490234375,0.7846200991392135,0.4255329586051404,0.3361399801887572
1782952280265855500,7.28085546875,0.716425099313259,0.37995398747399445,0.29989531217925247
1782952280275782700,7.29078271484375,0.5972498538345098,0.3555835163272917,0.2141821182541549
1782952280285709600,7.30070947265625,0.47005321446359155,0.3074497461467981,0.08984101444482803
1782952280295637500,7.310637451171875,0.3361602923244238,0.26542963654100893,0.06794416687004268
1782952280305564700,7.320564697265625,0.30008944651186464,0.29214594016149636,0.054316112077236176
1782952280315491600,7.33049169921875,0.3212725197941065,0.33024770727977154,0.03537029632776975
1782952280325419800,7.340419677734375,0.31975276288092136,0.35791166701391336,0.06405841147787869
1782952280335346700,7.3503466796875,0.26184710187911986,0.4027067942909896,0.17086020533479748
1782952280345273600,7.360273681640625,0.19956687905490397,0.5035593243546783,0.17432934275008738
1782952280355200500,7.370200439453125,0.2644908943861723,0.6268915433824062,0.0914367592036724
1782952280365128400,7.38012841796875,0.3079109339177608,0.7169669511049985,-0.1422209708277136
1782952280375055600,7.3900556640625,0.22724282148778438,0.7346525376603007,-0.37128720835037526
1782952280384982500,7.399982421875,0.13235738313496112,0.7271180505022407,-0.5364313010606915
1782952280394910500,7.409910400390625,0.03920739027261734,0.7080982927337288,-0.6570295650798827
1782952280404837600,7.419837646484375,-0.21655250064730644,0.7353031105235218,-0.7319114953238517
1782952280414764500,7.4297646484375,-0.5396200871646404,0.7645023170009255,-0.8264530886750667
1782952280424692700,7.439692626953125,-0.8371499123215674,0.8456658117324113,-0.8078930573727935
1782952280434619600,7.44961962890625,-1.0377180773735046,0.9711816584095359,-0.72397653760612
1782952280444546800,7.459546875,-0.9884399594634771,1.1001140355318784,-0.5028044873993843
1782952280454473500,7.469473388671875,-0.7285287940829992,1.2689704267635942,-0.21048143710531292
1782952280464401400,7.4794013671875,-0.3429600354671478,1.4815908486589788,-0.002172667863965034
1782952280474328600,7.48932861328125,0.16362930423319338,1.6910712189629673,0.09083090226501225
1782952280484255500,7.49925537109375,0.5538011727303266,1.821525106564164,-0.00008453647829592227
1782952280494183400,7.509183349609375,0.8087018164724111,1.8354767672881482,-0.16396357768885791
1782952280504110600,7.519110595703125,0.9033844257295132,1.7867770337879656,-0.4072698644228279
1782952280514037500,7.52903759765625,0.8647399300366639,1.6938979668214915,-0.6954656787190586
1782952280523965700,7.538965576171875,0.7320633979499339,1.5786445709615944,-0.971675579406321
1782952280533892600,7.548892578125,0.6075374390929937,1.4549685069322584,-1.1522463738292454
1782952280543819800,7.55881982421875,0.541661237603426,1.3561156262531875,-1.2354210622526705
1782952280553746700,7.56874658203125,0.4625444462686777,1.3127695287406445,-1.3088935640901327
1782952280563674600,7.578674560546875,0.37930093039274215,1.3037903957322239,-1.354997728139162
1782952280573601500,7.5886015625,0.27776830911040307,1.321656891812384,-1.3411949743665754
1782952280583528400,7.598528564453125,-0.007022445982694626,1.3393214355796574,-1.2721221687927842
1782952280593456400,7.608456298828125,-0.3213151898920536,1.4148390333786607,-1.1709366073824465
1782952280603383600,7.618383544921875,-0.54864744322896,1.4676388956740498,-1.0687572856944054
1782952280613310500,7.628310546875,-0.6250368554264306,1.484378725811839,-0.9812138076022267
1782952280623237600,7.638237548828125,-0.5457891311883926,1.4936021889701485,-0.8913327534079551
1782952280633165600,7.64816552734375,-0.3231505886256695,1.5006369099125265,-0.8157128642782568
1782952280643092700,7.6580927734375,-0.09158405871987342,1.4689914793267844,-0.8047109202053397
1782952280653019600,7.66801953125,0.04190963496863842,1.3592495403647422,-0.8318455223031341
1782952280662947600,7.677947509765625,0.21078151603043077,1.1936156183108686,-0.8761104882262647
1782952280672874800,7.687874755859375,0.3664315119475126,1.0260448829755187,-0.9129366093855351
1782952280682801400,7.697801513671875,0.35195173569619653,0.843807032123208,-1.008292587859556
1782952280692729600,7.7077294921875,0.2694435483574867,0.6624775282874703,-1.0233259063404052
1782952280702656500,7.717656494140625,0.1970698015421629,0.5548071349024772,-0.9864758197836577
1782952280712583400,7.72758349609375,0.106176647695899,0.4878752868801355,-0.9543919247154146
1782952280722510300,7.73751025390625,0.004820552024245262,0.403576124471426,-0.8645346897881477
1782952280732438500,7.7474384765625,-0.13750351385176182,0.35660394541621204,-0.7412344002686441
1782952280742365400,7.757365478515625,-0.39673721836209297,0.342431919939816,-0.6207011643096805
1782952280752292400,7.767292236328125,-0.5788052656054496,0.35612259164005516,-0.48087110720649356
1782952280762220300,7.77722021484375,-0.5800824459344148,0.35774873153716324,-0.318398937119171
1782952280772147500,7.7871474609375,-0.4302601332575082,0.3223635299012065,-0.15238732259301468
1782952280782074400,7.797074462890625,-0.2626508194774389,0.2240235671803355,0.05360244738254696
1782952280792002600,7.80700244140625,-0.05858136830627918,0.14910802692770958,0.2814151594464667
1782952280801929500,7.816929443359375,0.103985275131464,0.054664487123489376,0.43905642051231114
1782952280811856400,7.8268564453125,0.16088263587355614,-0.032028730814903976,0.5069590497955679
1782952280821783600,7.836783447265625,0.19929449185431003,-0.15366466731876133,0.5403130013322457
1782952280831711500,7.84671142578125,0.16643500930368899,-0.2810612131759524,0.4913378118915483
1782952280841638700,7.856638671875,0.09573825578987598,-0.42844533892050385,0.4925768156345933
1782952280851565300,7.8665654296875,0.11364508388042449,-0.5004347625933587,0.562829113316536
1782952280861493200,7.8764931640625,0.15077449883520602,-0.49699412062019105,0.6569985123544931
1782952280871420400,7.88642041015625,0.17540040604770182,-0.5204894163675606,0.7237521542657166
1782952280881347300,7.896347412109375,0.10025018025636673,-0.6005220073729753,0.7512075858157128
1782952280891274500,7.9062744140625,0.042084991535544396,-0.6928989700362086,0.7437779472716152
1782952280901202400,7.916202392578125,0.08768295962810516,-0.788629773171991,0.8034299404840916
1782952280911129600,7.926129638671875,0.1926595838844776,-0.9113533587820828,0.8579876062322408
1782952280921056500,7.936056396484375,0.25276246266961094,-0.9659998718574643,0.9285097338315099
1782952280930984400,7.945984375,0.3403033834785223,-1.059898783390969,0.9788787887834012
1782952280940911600,7.95591162109375,0.4294394645243883,-1.1706387934796512,0.9912414998155087
1782952280950838500,7.965838623046875,0.5756599533170461,-1.2637947776913643,1.0242984776996076
1782952280960766500,7.975766357421875,0.7433546072930097,-1.3952103499315678,1.0574633729375897
1782952280970693400,7.985693359375,0.8268050439178943,-1.544620428545773,1.0111259115893394
1782952280980620300,7.995620361328125,0.8105079891115426,-1.693548422731459,0.8756338106252253
1782952280990547500,8.00554736328125,0.6783867528200149,-1.7655922069400547,0.7020355586286634
1782952281000475400,8.015475341796876,0.3855991537541151,-1.7858926521688698,0.5954379821069539
1782952281010402600,8.025402587890625,-0.03548398583531379,-1.814763503474742,0.6091422074085101
1782952281020329500,8.03532958984375,-0.6260556770801544,-1.7243303683556614,0.7144637361124158
1782952281030257400,8.04525732421875,-1.229197511562705,-1.5175724087528883,0.85795406928882
1782952281040184600,8.0551845703125,-1.66013510569036,-1.2976257356226444,1.0073122715853153
1782952281050111500,8.065111572265625,-1.567147609913349,-1.1280603193387388,1.15701950651519
1782952281060039400,8.075039306640624,-1.0556237364202736,-1.0133173572190106,1.2221235545884817
1782952281069966600,8.084966552734375,-0.34205344201624394,-1.0401891436621546,1.187907031405717
1782952281079893200,8.094893310546874,0.38870354951024055,-1.1539328656114638,1.103693647584319
1782952281089820400,8.1048203125,0.9214671949088573,-1.3122317686021328,0.9924349473837762
1782952281099748400,8.114748291015625,1.1346370673805475,-1.4543255328536033,0.8683478914007544
1782952281109675500,8.124675537109376,0.9745300920546054,-1.4843566601105034,0.7187365911260247
1782952281119602400,8.1346025390625,0.5094400529563426,-1.409061472890526,0.5555841836895793
1782952281129530400,8.1445302734375,-0.0702045860826969,-1.2324997679784893,0.43011586594861
1782952281139457500,8.15445751953125,-0.5186714071601629,-1.0585115668162703,0.4049146430661902
1782952281149384400,8.164384521484376,-0.8523089030086993,-0.9075986824236809,0.44666598220057785
1782952281159311600,8.1743115234375,-0.9861170694738626,-0.7436699568524956,0.5133857583748176
1782952281169239600,8.184239501953124,-0.8987982669830322,-0.5687010740898549,0.605604717464745
1782952281179166500,8.19416650390625,-0.6046721127897501,-0.44823301232159135,0.7702516743078828
1782952281189093400,8.20409326171875,-0.18194997382164,-0.31505159945264455,0.9621695729795843
1782952281199021300,8.214021240234375,0.1643915207773447,-0.20524916247501968,1.0818462651744485
1782952281208948500,8.223948486328124,0.3730371938228607,-0.10201119857951998,1.065372538626939
1782952281218875400,8.23387548828125,0.4644038103997707,-0.026642946123331783,1.0204515199478714
1782952281228803300,8.24380322265625,0.5668371799141169,-0.005427139615267515,1.0015590418208389
1782952281238730500,8.25373046875,0.6152051972419024,-0.005152414327114821,0.9427283018633723
1782952281248657400,8.263657470703125,0.526235704934597,-0.014887626399844884,0.8156636183090508
1782952281258584600,8.27358447265625,0.3276934927523136,0.02349208087697625,0.6124630223942921
1782952281268512500,8.283512451171875,0.11782149278223514,0.08639321207851171,0.4111282934166491
1782952281278439400,8.293439453125,-0.06085691202282905,0.10251330288276075,0.2131902942052111
1782952281288366600,8.30336669921875,-0.1908475660264492,0.12587547376975416,0.06193371094148606
1782952281298294500,8.31329443359375,-0.33696751705408096,0.12558905804380774,-0.04038834368549287
1782952281308221400,8.323221435546875,-0.38587154095470905,0.1772586011350155,-0.07890143155101687
1782952281318148400,8.3331484375,-0.4215606939733028,0.25507600030899047,-0.12697481331378221
1782952281328076300,8.343076171875,-0.43167642979621884,0.34872020642906426,-0.18914755717553197
1782952281338003500,8.35300341796875,-0.3830839560627937,0.3875058641582727,-0.2836583169970661
1782952281347930400,8.362930419921875,-0.38974341395199297,0.38109205159321424,-0.3125973747009411
1782952281357857500,8.372857421875,-0.48105391642749307,0.3316489523798227,-0.22106880902796983
1782952281367785500,8.382785400390626,-0.558351091119647,0.3538100769139826,-0.09817717337459325
1782952281377712400,8.39271240234375,-0.5244231025546788,0.4293720983766019,0.017157215299643574
1782952281387639600,8.4026396484375,-0.3976847283452749,0.4385667738318443,-0.010906374743953347
1782952281397567500,8.4125673828125,-0.48749885478317734,0.39949440811574455,0.037663119972683484
1782952281407494700,8.42249462890625,-0.29069559522271154,0.35649653951898214,0.02558485190514475
1782952281417421300,8.43242138671875,-0.002923193970322609,0.357609323066473,0.09955664503425359
1782952281427348500,8.442348388671874,0.14565350255966186,0.46288040022477506,0.1792474733972922
1782952281437276400,8.4522763671875,0.22548808677494525,0.622976269634813,0.20727007384337484
1782952281447203300,8.462203369140624,0.34005671524107456,0.7298417763777076,0.196422443549335
1782952281457130500,8.472130615234375,0.4413414992421865,0.7617652932524681,0.13438099791705607
1782952281467058400,8.482058349609375,0.525855181184411,0.7548081675909459,0.025919454154372214
1782952281476985300,8.4919853515625,0.5923626663148402,0.6717055214904248,-0.16084756456017493
1782952281486912500,8.50191259765625,0.6740420016139745,0.6188590435743332,-0.3165520306108519
1782952281496840400,8.51184033203125,0.6957663421660661,0.609122077935934,-0.4978616972349584
1782952281506767600,8.521767578125,0.7988122906208038,0.6707824152961372,-0.630482992003113
1782952281516694500,8.531694580078126,0.8739403045803308,0.8676526026129722,-0.7078320430129766
1782952281526621400,8.541621337890625,0.7450888837397098,1.0625627419032155,-0.8068934518761932
1782952281536549600,8.551549560546874,0.5036234756320714,1.1942843113526702,-0.8241711882829665
1782952281546476300,8.561476318359375,0.17523089469969272,1.255285015760362,-0.7588627767439932
1782952281556403500,8.571403564453124,-0.27633038526177406,1.2564413461886346,-0.6671334643345326
1782952281566331400,8.581331298828125,-0.7341478030085563,1.251411389197409,-0.6295750833779573
1782952281576258300,8.59125830078125,-1.0235650488585233,1.3120267475493252,-0.575409339556843
1782952281586185500,8.601185546875,-1.0373001442223786,1.427395148091018,-0.48674007230512795
1782952281596112400,8.6111123046875,-0.7695628152608871,1.5096642659768462,-0.40128209525011477
1782952281606040600,8.62104052734375,-0.340490430483222,1.515726780886203,-0.37847156689651307
1782952281615967500,8.630967529296875,0.16697393848598002,1.4568813548162578,-0.3462901297379285
1782952281625894700,8.640894775390626,0.5517687901198863,1.359402977360785,-0.2798316348483786
1782952281635822600,8.650822509765625,0.7138356673419475,1.3474908596403896,-0.20715682272724806
1782952281645749500,8.66074951171875,0.6872369987517595,1.3266419867485761,-0.1473449262453243
1782952281655676400,8.670676513671875,0.4883417353481054,1.3171562193922697,-0.21909772815071046
1782952281665604400,8.680604248046874,0.09348609294891357,1.27515116122514,-0.3783431912764907
1782952281675531300,8.69053125,-0.3338058381527662,1.2233557997971773,-0.5371234480433166
1782952281685458400,8.70045849609375,-0.6168553025364876,1.1756202351540326,-0.6211698777999729
1782952281695385300,8.71038525390625,-0.7107102287977933,1.1710225321002303,-0.7035884871590882
1782952281705313500,8.7203134765625,-0.5725573111265897,1.1893345799908042,-0.7803842151351272
1782952281715240000,8.730239990234375,-0.3111246352672577,1.2054603698834776,-0.8126574222303926
1782952281725167000,8.7401669921875,-0.08734802858531475,1.1748156407728791,-0.7888590518832206
1782952281735095000,8.750094970703126,0.05979951192438602,1.1647818841449915,-0.7386980867240578
1782952281745022000,8.76002197265625,0.14464695586562157,1.1853086854755879,-0.7256212360732257
1782952281754948900,8.769948974609376,0.14653379252552987,1.2427696714498102,-0.7095486376725136
1782952281764876800,8.779876708984375,0.11249357575774192,1.2389713020801543,-0.6893735723890364
1782952281774804000,8.789803955078124,0.04910685299634933,1.185100449552387,-0.7076926345422864
1782952281784731000,8.79973095703125,0.025122166296839714,1.0475694631718098,-0.7216287323709577
1782952281794658000,8.809657958984374,-0.022616320955753326,0.9065317838445305,-0.7158600127764045
1782952281804586000,8.8195859375,-0.028060557836294173,0.778448863158375,-0.6830952227719128
1782952281814513000,8.829512939453124,-0.049776715081930156,0.7152135315664112,-0.6679714495286345
1782952281824440000,8.839440185546875,-0.05240004932284355,0.6837189076282083,-0.6238353706821799
1782952281834368000,8.849367919921875,-0.07567278836071491,0.5836833930358291,-0.5735372620746493
1782952281844295000,8.859294921875,-0.11189911699593066,0.4505944807559252,-0.5307171977302059
1782952281854222000,8.86922216796875,-0.16503449485599994,0.3212840641014278,-0.4458876182392239
1782952281864148700,8.879148681640626,-0.21748305949568747,0.21078443863987922,-0.2951139596542343
1782952281874077000,8.889076904296875,-0.2999164280325174,0.08442132748365402,-0.15908446387778966
1782952281884003800,8.89900390625,-0.3336433410674333,-0.03584799684211611,-0.07193875293154268
1782952281893931000,8.908930908203125,-0.36667876470685,-0.16866919809654354,-0.07556647844202816
1782952281903859000,8.91885888671875,-0.387661931502819,-0.2844235292159021,-0.08305467877294868
1782952281913785900,8.928785888671875,-0.3266811008393764,-0.3659085109867155,-0.02380984158925712
1782952281923713000,8.938713134765624,-0.2458160045325756,-0.43869463799521324,0.05634093243572861
1782952281933641000,8.948640869140625,-0.13623743943870067,-0.5026661749072373,0.13854812753386794
1782952281943568000,8.95856787109375,-0.09121697897315025,-0.5897720652997493,0.19862967127002776
1782952281953495000,8.9684951171875,-0.044649873587489126,-0.6647013418167829,0.2838937331881374
1782952281963422000,8.978421875,0.032090251743793485,-0.6995848775409161,0.35056678414382036
1782952281973350100,8.98835009765625,0.11701543709635734,-0.7265034257352352,0.3755965594494715
1782952281983276800,8.99827685546875,0.12808511264324188,-0.7429252759650349,0.39370340362414713
1782952281993204000,9.008203857421876,0.13162497720718383,-0.7742762536488473,0.39510614656154064
1782952282003132000,9.0181318359375,0.16807810033559797,-0.8560751236744224,0.40443244903981684
1782952282013058800,9.028058837890624,0.2727653862565756,-0.9496806052193045,0.3840281415777281
1782952282022986000,9.037986083984375,0.40910102537274357,-1.0073962966069578,0.28459742447808384
1782952282032913000,9.047912841796874,0.48300271240770815,-1.0731244679279626,0.23249412961211055
1782952282042840800,9.0578408203125,0.5341740967184305,-1.1782729416199027,0.2417576142535545
1782952282052768000,9.06776806640625,0.5819798039883375,-1.2605777153410016,0.24725305159837005
1782952282062695000,9.07769482421875,0.6158896723747254,-1.2510934092894195,0.25514811569713053
1782952282072623000,9.087623046875,0.6736895349144936,-1.23319315707013,0.3068290569651872
1782952282082550000,9.097550048828126,0.7059826157540082,-1.1728316273488104,0.3113671387862414
1782952282092477000,9.107476806640625,0.7106190433830022,-1.121625902377069,0.26080919193243607
1782952282102405000,9.117405029296876,0.5503711982816457,-1.1070835822835563,0.20734743166221303
1782952282112331800,9.127331787109375,0.08620704185664653,-1.106760780069977,0.1892766634479165
1782952282122259000,9.137259033203126,-0.5399988573491573,-1.1001885620728133,0.16375247395513579
1782952282132185900,9.147185791015625,-1.1862994500786066,-1.0774899696610867,0.22324587907241655
1782952282142114000,9.157114013671874,-1.7532377522796392,-1.0331719583764671,0.41063166900612413
1782952282152041000,9.167041015625,-2.144925870558619,-0.8841647614747286,0.5659738410830497
1782952282161967900,9.1769677734375,-2.050419202390313,-0.6900229762084782,0.6100592857208103
1782952282171896000,9.18689599609375,-1.4061188435673713,-0.5943012331619858,0.5491906101949513
1782952282181823000,9.196822998046875,-0.5445791708767413,-0.5861510983236133,0.47546975961960847
1782952282191750100,9.206750244140625,0.2940653639167547,-0.6556072041265666,0.4150193095058203
1782952282201676800,9.2166767578125,0.8865893582731484,-0.8198394426889717,0.3395919472735375
1782952282211605000,9.22660498046875,1.146795707207918,-0.9766250185072421,0.24995405418537556
1782952282221532000,9.236531982421875,0.9786574011176824,-1.078600853512436,0.14815006861574948
1782952282231458800,9.246458740234376,0.5723036286264658,-1.029096233370155,0.0756372969222255
1782952282241387000,9.256386962890625,0.07326105104386806,-0.8513979256436228,0.1596659535601735
1782952282251314000,9.26631396484375,-0.3870101895958185,-0.686733287013322,0.2879627361927181
1782952282261240800,9.27624072265625,-0.6225204886913299,-0.5663159325189888,0.3558438112312928
1782952282271169000,9.2861689453125,-0.630504473182559,-0.46290611918792124,0.3278825855836272
1782952282281096000,9.296095947265625,-0.3385322821527719,-0.41633097662627694,0.30762671014890075
1782952282291023000,9.306023193359374,0.10048340449035167,-0.41699937740713355,0.4182594604708254
1782952282300950000,9.315949951171875,0.4474105900228023,-0.3472261684790253,0.6330489700336009
1782952282310877000,9.325876953125,0.5551677849084139,-0.2115666750587523,0.8015903039667754
1782952282320803800,9.335803955078125,0.4156996929854154,-0.08733151584193109,0.8345505434781313
1782952282330731000,9.34573095703125,0.2913958524465561,-0.01809811287894845,0.8698729090109467
1782952282340659000,9.355658935546876,0.38852117868065833,0.038063042543083424,0.8402388913128525
1782952282350585900,9.3655859375,0.5610843154758215,0.03170169081762433,0.8321514464471489
1782952282360513000,9.375512939453126,0.6260416485548019,-0.044833705721795555,0.7453659471154213
1782952282370441000,9.38544091796875,0.6196551623880863,-0.09035466305539011,0.5811883613497019
1782952282380368000,9.395367919921876,0.5695820947080851,-0.10878799923807382,0.42432738220766186
1782952282390295000,9.405294921875,0.4779717325031757,-0.12274185191914438,0.30228502032738175
1782952282400222000,9.415221923828126,0.3656266253054142,-0.13214549394994973,0.15680581488870082
1782952282410150100,9.425150146484375,0.26918402063846586,-0.13551438586115835,0.06547408696208148
1782952282420076800,9.435076904296874,0.22088146976232528,-0.09646408584639429,0.053172947091213424
1782952282430004000,9.44500390625,-0.07505670228898524,0.01331511638611555,0.0992515976730734
1782952282439932000,9.454931884765625,-0.14721008435189722,0.03280746010243892,0.05215673295310698
1782952282449858800,9.46485888671875,-0.21579788288772106,0.02508914081007242,0.09865283719548024
1782952282459786000,9.474785888671875,-0.4026028955250978,0.048219694898277515,0.16737292947461826
1782952282469713000,9.484712890625,-0.4469733676493168,0.07528028191179037,0.1487598345445469
1782952282479641000,9.49464111328125,-0.4122065901726484,0.09435469247698783,0.2092745272672735
1782952282489568000,9.504568115234376,-0.41404783412516116,0.14605448457598685,0.2996080014041625
1782952282499495000,9.514494873046875,-0.3393015129595995,0.24225451265871523,0.3623188524642959
1782952282509423000,9.524423095703124,-0.20388298868834973,0.2639630711197853,0.5044215672072023
1782952282519350000,9.53435009765625,-0.02857435257732868,0.2241241049453616,0.5638274401715025
1782952282529277000,9.54427685546875,0.14085691593289373,0.2427154081687331,0.5390518588226288
1782952282539205000,9.554205078125,0.20858663633465765,0.31019129993990063,0.5332061284691095
1782952282549131800,9.5641318359375,0.1584960329979658,0.4442585557326674,0.5838678096920251
1782952282559059000,9.574058837890625,-0.03874327989220619,0.5921249120362103,0.6300681275919079
1782952282568985900,9.58398583984375,-0.22923954826295376,0.7207029227629304,0.6092693409195169
1782952282578914000,9.5939140625,-0.2626747848749161,0.8425225452706218,0.4570372636871412
1782952282588841000,9.603841064453125,-0.08142389923334122,0.8732083370439707,0.27380704079661516
1782952282598767900,9.613767822265626,0.1655196480244398,0.8390136603668331,0.0446922514244914
1782952282608696000,9.623696044921875,0.35263095013201234,0.8512481419093907,-0.20116930928286164
1782952282618623000,9.633623046875,0.4936532857596874,0.9308679143302142,-0.4409721910057589
1782952282628550100,9.643550048828125,0.5916267532557249,1.0264433807738125,-0.611221607498452
1782952282638476800,9.653476806640626,0.5837514898359775,1.1040754865087568,-0.7833452568978071
1782952282648405000,9.663405029296875,0.30385785913467406,1.1336818124823271,-0.8935972642738371
1782952282658332000,9.673331787109374,-0.35939153030812737,1.1885957443222404,-0.8713271994724869
1782952282668258800,9.6832587890625,-1.1549176388651132,1.2426622655525803,-0.6953343804895877
1782952282678187000,9.69318701171875,-1.789602028080821,1.3721800413474439,-0.4683839660771191
1782952282688114000,9.703114013671875,-1.9685937366187571,1.5926446008719504,-0.22228001144863663
1782952282698041000,9.713041015625,-1.5691612878233194,1.8030790570303796,-0.027123569247126576
1782952282707969000,9.722968994140626,-0.6526075839191675,1.89038879943192,0.0018044190734624861
1782952282717897500,9.7328974609375,0.3639256666064262,1.8364101026155053,-0.13415617618523537
1782952282727824400,9.742824462890624,1.2293524098634718,1.7417304159678517,-0.3389640246335417
1782952282737751600,9.75275146484375,1.7610738527327774,1.6683413546301424,-0.48897546667437997
1782952282747679500,9.762679443359374,1.9804238751441239,1.6052277497217058,-0.5041447230271995
1782952282757606400,9.7726064453125,1.9626438883036375,1.542514396177232,-0.4382591326547786
1782952282767533600,9.782533447265624,1.7472890730082988,1.5083109516717492,-0.4286819241553545
1782952282777460500,9.79246044921875,1.2920640098422764,1.437810597512871,-0.5421709406912326
1782952282787388700,9.802388671875,0.617259207162261,1.311414607000351,-0.7176280453622341
1782952282797315600,9.812315673828126,-0.08049977012574672,1.1647197786942123,-0.872236642467603
1782952282807242500,9.822242431640625,-0.5894698674827814,1.0742068563371896,-0.9640931614533066
1782952282817170400,9.83217041015625,-0.9324269803404808,1.040128937907517,-0.9945296546407043
1782952282827097300,9.842097412109375,-1.0469348185300826,1.0175596709638834,-1.0510729412481188
1782952282837024500,9.8520244140625,-0.9556693242400884,0.9846788533642887,-1.0725208029463886
1782952282846952400,9.861952392578125,-0.6941314344406128,0.9574497779160738,-1.0694352580212056
1782952282856879400,9.87187939453125,-0.4841401920050382,0.9597608313374221,-1.0870043785899877
1782952282866806500,9.881806640625,-0.3810802150249481,0.9690236035928129,-1.1120209656205027
1782952282876733400,9.8917333984375,-0.3643056058347225,0.9628878773167728,-1.0453555134493857
1782952282886661600,9.90166162109375,-0.3562707679390907,0.9811791746802627,-0.9247474586885422
1782952282896588500,9.911588623046875,-0.30988895599246025,0.999805403086543,-0.822013571857661
1782952282906515700,9.921515625,-0.2524292851924896,1.0283911538407207,-0.7401044463906437
1782952282916443600,9.931443603515625,-0.08889993420243263,1.0170277560442686,-0.6868352860830724
1782952282926370300,9.941370361328126,0.10498188495337962,0.9567167874664068,-0.6090340343263
1782952282936297500,9.95129736328125,0.2250193002194166,0.8916631544061004,-0.5479607761390507
1782952282946225400,9.961225341796874,0.3226473152786493,0.8621585352413356,-0.5231990406524389
1782952282956152300,9.97115234375,0.4130225827306509,0.7865732790336012,-0.5338833701435476
1782952282966079500,9.98107958984375,0.48471477702260013,0.6512528083093464,-0.5520796096347272
1782952282976006400,9.99100634765625,0.4540127647668123,0.4881035426780581,-0.5950512478116899
1782952282985934600,10.0009345703125,0.3430956445455551,0.34529636946022507,-0.5911851835006847
1782952282995861500,10.010861572265625,0.15191431652009485,0.22673224161714314,-0.5267794198898599
1782952283005788700,10.02078857421875,-0.09549567920565605,0.1704781472146511,-0.44823710397481914
1782952283015716600,10.030716552734376,-0.32842589868009087,0.13554945717453956,-0.3604159779850393
1782952283025643500,10.0406435546875,-0.5855664303034543,-0.0046498716324567795,-0.2555418094561435
1782952283035570400,10.0505703125,-0.8329559677630662,-0.17401655047386883,-0.11981199074601753
1782952283045497300,10.060497314453125,-1.0076789129406214,-0.26285350244268774,0.037877274180017406
1782952283055425300,10.07042529296875,-0.9656400986343622,-0.34215251847654576,0.12455153168961405
1782952283065352400,10.0803525390625,-0.7736860326707362,-0.4377500506214797,0.23076398135125636
1782952283075279400,10.090279296875,-0.5013900174915791,-0.5415658144049346,0.36350875636860724
1782952283085207600,10.10020751953125,-0.24503274520039556,-0.6612893414162099,0.5400633739527314
1782952283095134500,10.110134521484374,-0.14049977305829525,-0.7470017316237092,0.6317323344770819
1782952283105061600,10.1200615234375,-0.19690087471604345,-0.8449538640707731,0.6474660563122481
1782952283114988500,10.129988525390624,-0.3388637060642242,-0.9675462245166301,0.652297933448106
1782952283124916500,10.13991650390625,-0.49535482898056504,-1.0606725442424416,0.6367362802442162
1782952283134843600,10.14984375,-0.5511825146645307,-1.1005167711138724,0.570518864101544
1782952283144770300,10.159770263671875,-0.5471908146798611,-1.149640282984078,0.5037209081245586
1782952283154698500,10.169698486328125,-0.4494108239293098,-1.1861012971580027,0.48519905340820546
1782952283164625400,10.17962548828125,-0.20013503433167934,-1.2472341035127639,0.5035263354005292
1782952283174552300,10.18955224609375,0.029758009403944012,-1.263555854368955,0.4663660503834486
1782952283184480500,10.19948046875,0.22544074050188062,-1.2724861797995866,0.4494271174769848
1782952283194407400,10.209407470703125,0.38401042325794693,-1.2908011502996086,0.5098339476447552
1782952283204334600,10.21933447265625,0.47076750021278857,-1.2598466245874762,0.6426556603558361
1782952283214261500,10.229261474609375,0.5782195746719837,-1.1976267536483705,0.7646038776792585
1782952283224189400,10.239189453125,0.78544719761312,-1.1515943396613002,0.8038152134746313
1782952283234116600,10.24911669921875,0.9806897837281227,-1.182480768573284,0.7811967005617916
1782952283244043500,10.25904345703125,1.1183616398841143,-1.2358020243942738,0.7212181788086891
1782952283253971500,10.268971435546876,1.1202110671430825,-1.2407485408857464,0.6315517172131687
1782952283263898600,10.278898681640625,0.8840946188479661,-1.2272313260562717,0.5448538961648941
1782952283273825300,10.2888251953125,0.4358744660079479,-1.1978263678736984,0.5054078748308122
1782952283283752400,10.29875244140625,-0.12136018830239773,-1.1663922419510782,0.5538005882084369
1782952283293680400,10.308680419921876,-0.6717062521427869,-1.122019285608828,0.6107802934717387
1782952283303607600,10.318607666015625,-1.0475818842619657,-1.112424066528678,0.6863788475524634
1782952283313534500,10.328534423828126,-1.139923483350873,-1.0312870214127003,0.7707841737493872
1782952283323462400,10.33846240234375,-0.9280226079016923,-0.9035457537710666,0.892942892018333
1782952283333389600,10.3483896484375,-0.44507016437649727,-0.7883600163199007,0.9688599374637007
1782952283343316500,10.35831640625,0.08510814070403576,-0.757896488995105,0.9970205946736037
1782952283353244400,10.368244384765624,0.5045423440426587,-0.7772726589858532,0.9321694984480738
1782952283363171600,10.378171630859375,0.738130150642991,-0.8386788754545151,0.8089548413854092
1782952283373098500,10.388098388671875,0.7444570155769586,-0.91432389902547,0.7532284971840679
1782952283383025400,10.398025390625,0.5811141270697117,-0.8795807946853339,0.6893503376439213
1782952283392953300,10.407953369140625,0.3766121297001839,-0.7687577824883163,0.5521171651661396
1782952283402880500,10.417880615234376,0.1865899085819721,-0.6638143298491835,0.4543921194732189
1782952283412807400,10.427807373046875,0.15058277565538883,-0.5595451232098043,0.43548685492984945
1782952283422735400,10.4377353515625,0.3109019324272871,-0.45136049669235945,0.4957507694955915
1782952283432662500,10.44766259765625,0.5660100814402103,-0.34191052641421554,0.5809315370444208
1782952283442589400,10.45758935546875,0.7677619033187627,-0.2146627413779497,0.6423427219491452
1782952283452516600,10.4675166015625,0.901855316466093,-0.12263576119616627,0.7020027523376047
1782952283462444500,10.477444580078124,0.9282897344052791,-0.09502689265012741,0.7596498354684561
1782952283472371500,10.487371337890625,0.7697720740973949,-0.046993514104187485,0.752297646074742
1782952283482298600,10.497298583984374,0.48615270087122914,0.023881518585979936,0.6748099903117865
1782952283492226600,10.5072265625,0.22792437401115892,0.09483210073038935,0.5413040947288275
1782952283502153500,10.517153564453125,0.02753039648234844,0.16516732745543122,0.35208431256730105
1782952283512080400,10.527080322265626,-0.0692810414969921,0.18208251416012644,0.13936180027062073
1782952283522007600,10.537007568359375,-0.16305121208429335,0.14034662832319736,-0.058384256565291434
1782952283531935500,10.546935546875,-0.34567981581985946,0.06068637776151299,-0.23362547172959894
1782952283541862400,10.5568623046875,-0.582396568095684,0.00025017536878585813,-0.3710747711760923
1782952283551789600,10.56678955078125,-0.8523387136250734,0.010047639022767544,-0.41450398039482533
1782952283561717500,10.576717529296875,-1.0601900214225053,0.026807489035278558,-0.14494593881219625
1782952283571644700,10.586644775390624,-1.1979776129126547,0.1446959095738828,0.19381788707412778
1782952283581571600,10.596571533203125,-1.3260019352793693,0.4039036028601229,0.4428467527059838
1782952283591499500,10.60649951171875,-1.030050319224596,0.5714857363723218,0.5350294714387506
1782952283601426700,10.6164267578125,-0.6960141794472933,0.6507423745691776,0.6524312044389545
1782952283611353300,10.626353271484374,-0.3694248485445976,0.6320582784958183,0.6100895347286015
1782952283621280500,10.636280517578125,-0.0558311928153038,0.5707723274059593,0.46933761354014275
1782952283631208400,10.64620849609375,0.1257353346467018,0.5117736104704439,0.39851321505866943
1782952283641135400,10.65613525390625,0.15191899269521236,0.4809786592341959,0.3164242395127192
1782952283651062500,10.6660625,0.13956219994723795,0.45376200487613677,0.2732014761188999
1782952283660990500,10.675990478515626,0.08752747680544852,0.4674091296955943,0.35028836906123906
1782952283670917600,10.685917724609375,-0.006610358050465583,0.5775555578052998,0.41699784303717313
1782952283680844500,10.695844482421874,-0.09459726906120776,0.6804882551439106,0.5123574747730046
1782952283690771500,10.705771484375,-0.1741162114560604,0.7750273642770945,0.5691819529419765
1782952283700699600,10.71569970703125,-0.16772388007044792,0.8048506940022111,0.5033363657863811
1782952283710626600,10.72562646484375,-0.10649755021333694,0.7445686592578887,0.3610318083284422
1782952283720553700,10.7355537109375,-0.06115794079601764,0.630133301782608,0.16142985796015707
1782952283730481700,10.745481689453126,0.007560206121206283,0.4480950651556253,-0.18962189668901264
1782952283740408600,10.75540869140625,0.20439970603883265,0.37095132745951415,-0.5468155150940641
1782952283750335700,10.765335693359376,0.2913198646008968,0.33306407987475395,-0.49128352442104367
1782952283760263700,10.775263671875,0.29368484016656876,0.22707097205221652,-0.34397107567321505
1782952283770190600,10.785190673828126,0.4293412648469209,0.3313748116135597,-0.36722368523851034
1782952283780117500,10.795117431640625,0.5544973383009434,0.386628789062798,-0.42195305429175495
1782952283790044700,10.805044677734376,0.5507108054995536,0.42024201259016986,-0.44213564529456195
1782952283799972600,10.81497265625,0.4945861826956272,0.5338903113409876,-0.5929989183917641
1782952283809899500,10.8248994140625,0.2812631654888391,0.698862554615736,-0.7671453788556158
1782952283819826700,10.83482666015625,0.004674421551823616,0.8678744286701082,-0.9361117332678288
1782952283829753600,10.844753662109374,-0.22032208231389522,1.0423211872547864,-0.8743580185357481
1782952283839681500,10.854681640625,-0.4043289886653423,1.1627312352254986,-0.670328972440213
1782952283849608700,10.864608642578125,-0.6995826855838299,1.223078444160521,-0.3790041394032538
1782952283859535600,10.87453564453125,-0.9877490545898675,1.2180407422542572,-0.3240705530147999
1782952283869463800,10.8844638671875,-0.9555103342860937,1.2387459688916802,-0.48429019493497905
1782952283879390700,10.894390625,-0.519476878324151,1.2599648441396654,-0.5836406498726457
1782952283889317600,10.904317626953125,0.007051672077178954,1.190066839788109,-0.5502235334392637
1782952283899245800,10.914245849609374,0.5205816246956586,1.1266745640687643,-0.5229608479823917
1782952283909172500,10.92417236328125,0.9247978006362915,1.099035008123517,-0.5059021611537784
1782952283919099600,10.934099609375,1.1138070453196762,1.0573512908652425,-0.47221156154125926
1782952283929026600,10.944026611328125,1.1345990734577178,0.9513453235611319,-0.3924786110695451
1782952283938954500,10.95395458984375,1.0175199234753847,0.8608693722136318,-0.34006555613465606
1782952283948881700,10.963881591796875,0.7869096713811159,0.7730572332479059,-0.37998211758993566
1782952283958808600,10.97380859375,0.4299661187469959,0.6746449359431862,-0.530012300863862
1782952283968736800,10.98373681640625,0.11503390789031982,0.5922746957704424,-0.7751419305674732
1782952283978663700,10.99366357421875,-0.07251695467829704,0.5435955666668713,-0.949963221552968
1782952283988590600,11.003590576171876,-0.22721359539330005,0.45811567004099485,-0.983268767370656
1782952283998517500,11.013517578125,-0.30856033773720265,0.38343598437085746,-0.9569414630677551
1782952284008445700,11.02344580078125,-0.3485580016046762,0.36139702491164205,-0.9509698413122445
1782952284018372600,11.03337255859375,-0.17278817772269248,0.30117431913912296,-1.033330583004281
1782952284028299500,11.043299560546876,0.05375321749746799,0.21009587185382841,-1.03771025939323
1782952284038227500,11.0532275390625,0.40383506766855715,0.149626643974334,-1.0294232733674347
1782952284048154600,11.063154541015624,0.7631476875215768,0.1512557064808905,-0.9784503342382609
1782952284058081500,11.07308154296875,0.8120569721192121,0.09249956612959503,-0.9410067387677729
1782952284068008700,11.0830087890625,0.6314104821115731,-0.09985212084949016,-1.0047099801324306
1782952284077936600,11.0929365234375,0.23894085806608198,0.26550050982013346,-0.8592145176786928
1782952284087863800,11.10286376953125,-0.16173545331060885,0.6891701587714254,-0.7900166244205087
1782952284097790700,11.112790771484375,-0.5211942036360502,0.9223933698430656,-0.8570612121023237
1782952284107718700,11.12271875,-0.7048159100621938,0.9300969299577176,-0.77949793381989
1782952284117645800,11.132645751953126,-0.6526297957509756,0.8424816287383436,-0.5201534624114632
1782952284127572500,11.142572509765625,-0.4213298078268766,0.7586344478808343,-0.2692549669828266
1782952284137499600,11.152499755859376,-0.2916214778959751,0.6825405114986002,-0.061723611854761835
1782952284147427600,11.162427490234375,-0.23335165975689887,0.5378989624604582,0.046013197829946874
1782952284157354500,11.1723544921875,-0.2323310845375061,0.3483141098462045,0.08151618062667548
1782952284167281700,11.18228173828125,-0.1845475890994072,0.1535442558094859,0.15676270639933645
1782952284177209600,11.192209716796874,-0.23474749802947042,-0.049647097352892154,0.227665503879264
1782952284187136800,11.20213671875,-0.2095785699814558,-0.21503449729979038,0.255109098860994
1782952284197063700,11.212063720703124,-0.05465513477325439,-0.29729587027058,0.2446826896537095
1782952284206991600,11.22199169921875,0.023220132067799566,-0.4180966711245477,0.28529417457059025
1782952284216918800,11.231918701171875,-0.1091916116029024,-0.5933491931341588,0.34621019636951383
1782952284226845700,11.241845703125,-0.27366496544480323,-0.671066492934525,0.32104024540819226
1782952284236772600,11.251772705078125,-0.4201894056200981,-0.6298015856102108,0.3345153015963733
1782952284246700500,11.261700439453126,-0.4575421079367399,-0.5547201872713864,0.42877683589719234
1782952284256627500,11.27162744140625,-0.49940556567609307,-0.5536662943042815,0.4794377864677459
1782952284266554600,11.2815546875,-0.35963702950179577,-0.5261401356056332,0.5635290782794355
1782952284276482600,11.291482666015625,-0.13136778757572173,-0.5108180633112788,0.6767538178559392
1782952284286409700,11.30140966796875,-0.1178536414861679,-0.5837399455286562,0.7540565455060452
1782952284296336600,11.311336669921875,-0.2689011120438576,-0.7145240879975259,0.6809905055776238
1782952284306263800,11.321263916015624,-0.32290625847578047,-0.7672162521347403,0.5593538384214043
1782952284316191700,11.331191650390625,-0.16721709959208964,-0.7628546959243714,0.5053819366719573
1782952284326118700,11.34111865234375,0.1389496210068464,-0.7964702575393021,0.5020980926956982
1782952284336045800,11.3510458984375,0.46326925341188907,-0.7929849727068096,0.591442774990946
1782952284345973800,11.360973876953125,0.74119070725739,-0.7619498560391366,0.6772296917393803
1782952284355900400,11.370900390625,0.8938479510992765,-0.687325188491866,0.6922367798004299
1782952284365827600,11.38082763671875,0.9167372437775134,-0.5876799153260887,0.6175380971688776
1782952284375754500,11.39075439453125,0.8669026610285043,-0.4393944568276405,0.5482493838220834
1782952284385682700,11.4006826171875,0.670415627810359,-0.34002712382040917,0.5482320673611015
1782952284395609600,11.410609619140626,0.33690321964621545,-0.24445662581287322,0.6315044440053403
1782952284405536800,11.420536865234375,-0.014300328031182289,-0.20577968915514647,0.6784241622209548
1782952284415464700,11.430464599609374,-0.49465690984427924,-0.1868071315292269,0.7086968431487679
1782952284425391600,11.4403916015625,-0.7271949151307344,-0.2646870014801621,0.7959509829055518
1782952284435318800,11.45031884765625,-0.7718687541157007,-0.4612905006848275,0.8978517799131571
1782952284445246700,11.460246826171876,-0.6400356871157884,-0.44081667165048416,0.695112992823869
1782952284455173600,11.470173583984375,-0.2275023492068052,-0.183799620276317,0.3660560662312433
1782952284465100500,11.4801005859375,0.17581015589237212,-0.13099449728392062,0.26034404037240894
1782952284475027500,11.49002734375,0.29787469307184217,-0.4108610207825899,0.3277528582567349
1782952284484955600,11.49995556640625,0.3057598933637142,-0.6326967955950648,0.2588870464971289
