time,seconds_elapsed,z,y,x
1782952273048701700,0.06370166015625,0.8082001209259033,-0.016401343047618866,0.339813768863678
1782952273058628900,0.07362890625,0.7658447027206421,0.0595562718808651,0.28752338886260986
1782952273068556800,0.083556884765625,0.7360228896141052,0.09690603613853455,0.16479001939296722
1782952273078483700,0.093483642578125,0.7079033851623535,0.10922156274318695,0.024516262114048004
1782952273088410600,0.10341064453125,0.6621827483177185,0.0921054258942604,-0.07545214891433716
1782952273098338600,0.113338623046875,0.6068963408470154,0.04369474947452545,-0.09673959016799927
1782952273108265700,0.123265625,0.5621943473815918,-0.008832107298076153,-0.02377856709063053
1782952273118192600,0.133192626953125,0.54258793592453,-0.03849412873387337,0.10610779374837875
1782952273128120600,0.14312060546875,0.54461270570755,-0.06423570960760117,0.22214651107788086
1782952273138047700,0.1530478515625,0.5672405362129211,-0.08041734248399734,0.31180477142333984
1782952273147974700,0.162974609375,0.6005281805992126,-0.06305672973394394,0.37336453795433044
1782952273157902600,0.172902587890625,0.611490786075592,0.006898119580000639,0.38780632615089417
1782952273167829800,0.182829833984375,0.5957464575767517,0.06380107998847961,0.34814706444740295
1782952273177756700,0.192756591796875,0.5488463640213013,0.08073931932449341,0.29148805141448975
1782952273187684900,0.202684814453125,0.46941888332366943,0.08787259459495544,0.24394261837005615
1782952273197611800,0.21261181640625,0.3800024688243866,0.06800728291273117,0.21572163701057434
1782952273207538700,0.22253857421875,0.3220544755458832,0.017913486808538437,0.20843416452407837
1782952273217466600,0.232466552734375,0.2953301668167114,-0.03410577401518822,0.1965727061033249
1782952273227393500,0.2423935546875,0.30250900983810425,-0.07604309916496277,0.19346800446510315
1782952273237320700,0.25232080078125,0.32078415155410767,-0.09668393433094025,0.19667577743530273
1782952273247248600,0.26224853515625,0.3263743817806244,-0.13698501884937286,0.21863088011741638
1782952273257175800,0.27217578125,0.32106244564056396,-0.15554484724998474,0.28270652890205383
1782952273267102700,0.282102783203125,0.3028743863105774,-0.13610510528087616,0.36426424980163574
1782952273277030700,0.29203076171875,0.27045464515686035,-0.11674419045448303,0.41096410155296326
1782952273286957800,0.301957763671875,0.21648436784744263,-0.12934067845344543,0.4012656807899475
1782952273296884700,0.311884765625,0.15215757489204407,-0.17363224923610687,0.3330376148223877
1782952273306812700,0.321812744140625,0.06664960086345673,-0.25344318151474,0.20636355876922607
1782952273316739800,0.33173974609375,-0.030364297330379486,-0.376873254776001,0.03236193582415581
1782952273326666500,0.34166650390625,-0.1321638971567154,-0.4829147160053253,-0.14584748446941376
1782952273336593700,0.35159375,-0.2318449467420578,-0.5053401589393616,-0.27334630489349365
1782952273346521600,0.361521484375,-0.3086254894733429,-0.43556079268455505,-0.30555832386016846
1782952273356448800,0.37144873046875,-0.35403770208358765,-0.26542767882347107,-0.23419998586177826
1782952273366375700,0.381375732421875,-0.37079909443855286,-0.034506577998399734,-0.08185119181871414
1782952273376303600,0.3913037109375,-0.3545924425125122,0.16682973504066467,0.07870333641767502
1782952273386230800,0.401230712890625,-0.31889036297798157,0.2935972511768341,0.21332798898220062
1782952273396157700,0.41115771484375,-0.2839084267616272,0.3130878806114197,0.30466428399086
1782952273406085600,0.421085693359375,-0.26597973704338074,0.2170974314212799,0.3278798758983612
1782952273416012800,0.4310126953125,-0.27223044633865356,0.048172321170568466,0.295356810092926
1782952273425939700,0.440939697265625,-0.2810681462287903,-0.13835442066192627,0.24141022562980652
1782952273435868000,0.450867919921875,-0.2856959402561188,-0.3078790009021759,0.18945647776126862
1782952273445794800,0.460794921875,-0.2946249842643738,-0.41836637258529663,0.1442282795906067
1782952273455721700,0.4707216796875,-0.31596168875694275,-0.47672581672668457,0.10716240853071213
1782952273465649700,0.480649658203125,-0.32989296317100525,-0.4813416004180908,0.10012766718864441
1782952273475576600,0.49057666015625,-0.355989009141922,-0.42173632979393005,0.11105994135141373
1782952273485503700,0.500503662109375,-0.40787217020988464,-0.3173995316028595,0.10975951701402664
1782952273495431700,0.510431640625,-0.4747803807258606,-0.19853998720645905,0.07730250805616379
1782952273505358600,0.520358642578125,-0.542739987373352,-0.10941331088542938,0.005075452383607626
1782952273515285800,0.53028564453125,-0.593628466129303,-0.04308568686246872,-0.07748307287693024
1782952273525213700,0.540213623046875,-0.6153044700622559,0.02839462272822857,-0.13182860612869263
1782952273535140900,0.550140869140625,-0.6208611130714417,0.1078907772898674,-0.13982075452804565
1782952273545067800,0.56006787109375,-0.6107949018478394,0.1790110319852829,-0.11209165304899216
1782952273554995700,0.56999560546875,-0.5790290236473083,0.25843316316604614,-0.06169106066226959
1782952273564923000,0.5799228515625,-0.5327118635177612,0.3340642750263214,-0.00177899154368788
1782952273574849500,0.589849609375,-0.4709017276763916,0.38854482769966125,0.04784981533885002
1782952273584776700,0.599776611328125,-0.4117087125778198,0.40623247623443604,0.09380505234003067
1782952273594704600,0.60970458984375,-0.34718725085258484,0.3803180456161499,0.12162869423627853
1782952273604631600,0.619631591796875,-0.29887670278549194,0.32210054993629456,0.12409238517284393
1782952273614558700,0.629558837890625,-0.267111599445343,0.22970908880233765,0.09042363613843918
1782952273624486700,0.639486572265625,-0.26131975650787354,0.12341674417257309,0.023972976952791214
1782952273634413800,0.649413818359375,-0.2712394893169403,0.0587296262383461,-0.046970970928668976
1782952273644340700,0.6593408203125,-0.3001941740512848,0.050580885261297226,-0.10648889094591141
1782952273654268700,0.6692685546875,-0.34367507696151733,0.058224156498909,-0.1403704285621643
1782952273664195800,0.67919580078125,-0.39569327235221863,0.09832337498664856,-0.1536143273115158
1782952273674122800,0.689122802734375,-0.4396263659000397,0.15042145550251007,-0.1450520008802414
1782952273684050700,0.69905078125,-0.46918025612831116,0.19609467685222626,-0.11867205798625946
1782952273693977600,0.7089775390625,-0.48378318548202515,0.2399396300315857,-0.09209983050823212
1782952273703904500,0.718904541015625,-0.4820457398891449,0.26311206817626953,-0.07780105620622635
1782952273713832000,0.72883203125,-0.460860013961792,0.2618870139122009,-0.0782732367515564
1782952273723758800,0.7387587890625,-0.42763814330101013,0.23494486510753632,-0.07522870600223541
1782952273733685800,0.748685791015625,-0.4002342224121094,0.20368042588233948,-0.06478991359472275
1782952273743613700,0.75861376953125,-0.374074250459671,0.15456241369247437,-0.04170004278421402
1782952273753540900,0.768540771484375,-0.3470754027366638,0.10793977975845337,-0.008823585696518421
1782952273763467800,0.7784677734375,-0.3157467842102051,0.09313473850488663,0.021513281390070915
1782952273773395700,0.788395751953125,-0.29342469573020935,0.09890101104974747,0.025344504043459892
1782952273783323000,0.798322998046875,-0.2695885896682739,0.1240077018737793,0.004042678512632847
1782952273793249800,0.808249755859375,-0.2425556480884552,0.16615702211856842,-0.02232075110077858
1782952273803177700,0.818177734375,-0.2069270759820938,0.21840450167655945,-0.050756122916936874
1782952273813105000,0.82810498046875,-0.17939825356006622,0.26489290595054626,-0.07084860652685165
1782952273823031800,0.83803173828125,-0.15354321897029877,0.28351080417633057,-0.07943756878376007
1782952273832960000,0.8479599609375,-0.1280788779258728,0.2813001275062561,-0.06979160010814667
1782952273842887000,0.857886962890625,-0.10335355252027512,0.26416561007499695,-0.06367218494415283
1782952273852813800,0.867813720703125,-0.07216393947601318,0.21173621714115143,-0.08837540447711945
1782952273862740700,0.87774072265625,-0.03774338215589523,0.11481340229511261,-0.11908777803182602
1782952273872668700,0.887668701171875,-0.019124425947666168,0.0032871398143470287,-0.1559789478778839
1782952273882595800,0.897595947265625,-0.009957293048501015,-0.11533325165510178,-0.21435490250587463
1782952273892522800,0.907522705078125,0.006160424090921879,-0.21803885698318481,-0.2747969329357147
1782952273902450700,0.91745068359375,0.034329745918512344,-0.26229846477508545,-0.3086981773376465
1782952273912377900,0.9273779296875,0.07723353803157806,-0.2492244690656662,-0.294872909784317
1782952273922304800,0.9373046875,0.12931165099143982,-0.14866723120212555,-0.22919030487537384
1782952273932233000,0.94723291015625,0.19076302647590637,0.015142467804253101,-0.139892116189003
1782952273942160000,0.957159912109375,0.2581721544265747,0.17425142228603363,-0.042440399527549744
1782952273952087000,0.967087158203125,0.332339346408844,0.29791557788848877,0.03075498342514038
1782952273962015000,0.977014892578125,0.405305415391922,0.32485532760620117,0.059302471578121185
1782952273971942000,0.98694189453125,0.4727102816104889,0.2510729730129242,0.04237169027328491
1782952273981868800,0.996868896484375,0.544836699962616,0.14493295550346375,-0.0009110674145631492
1782952273991796700,1.006796630859375,0.5989707708358765,0.05968277156352997,-0.03618330508470535
1782952274001723600,1.0167236328125,0.6326613426208496,0.015912920236587524,-0.05880472809076309
1782952274011650800,1.02665087890625,0.6628594398498535,-0.006678941659629345,-0.05974668636918068
1782952274021578800,1.036578857421875,0.697260856628418,0.0054363105446100235,-0.0416497103869915
1782952274031506000,1.046505859375,0.7185685038566589,0.02630564011633396,-0.030553115531802177
1782952274041432800,1.056432861328125,0.7539060115814209,0.03904886543750763,-0.014200241304934025
1782952274051360000,1.066360107421875,0.7913662791252136,0.051598746329545975,0.0016221314435824752
1782952274061288000,1.076287841796875,0.8386126160621643,0.05398893356323242,0.010033992119133472
1782952274071214800,1.08621484375,0.8886787295341492,0.01954733580350876,0.018605908378958702
1782952274081142000,1.09614208984375,0.9396894574165344,-0.03279869258403778,0.027890220284461975
1782952274091070000,1.106070068359375,0.9916373491287231,-0.05824200063943863,0.02539004571735859
1782952274100996600,1.11599658203125,1.0434041023254395,-0.07361270487308502,0.019661584869027138
1782952274110923800,1.125923828125,1.0771533250808716,-0.03928295895457268,0.016498815268278122
1782952274120851700,1.135851806640625,1.100884199142456,-0.001776328426785767,0.042932022362947464
1782952274130779000,1.14577880859375,1.1126878261566162,0.07778693735599518,0.11398649215698242
1782952274140705800,1.155705810546875,1.1096571683883667,0.15838751196861267,0.21700581908226013
1782952274150633700,1.1656337890625,1.1107631921768188,0.22503231465816498,0.3441440463066101
1782952274160561000,1.175560791015625,1.1275091171264648,0.2660399377346039,0.46588248014450073
1782952274170487800,1.18548779296875,1.1367958784103394,0.24311970174312592,0.5372482538223267
1782952274180415700,1.195415771484375,1.1367844343185425,0.1708551049232483,0.5409950613975525
1782952274190343000,1.205343017578125,1.1159089803695679,0.08597695827484131,0.47908324003219604
1782952274200269800,1.215269775390625,1.078155517578125,-0.003451190423220396,0.3506712019443512
1782952274210198000,1.225197998046875,1.0341131687164307,-0.0948716476559639,0.16321581602096558
1782952274220124700,1.235124755859375,1.0088435411453247,-0.14809945225715637,0.02509043924510479
1782952274230051800,1.2450517578125,0.9738959074020386,-0.2304593026638031,-0.0942910835146904
1782952274239979800,1.254979736328125,0.9306626915931702,-0.256577730178833,-0.16600175201892853
1782952274249906700,1.26490673828125,0.8874930739402771,-0.2248333841562271,-0.18649131059646606
1782952274259833900,1.274833740234375,0.8238618969917297,-0.1615002155303955,-0.17663761973381042
1782952274269760800,1.2847607421875,0.7796012759208679,-0.10385129600763321,-0.13155296444892883
1782952274279689000,1.29468896484375,0.7415475845336914,-0.03700941801071167,-0.07317408174276352
1782952274289616000,1.304615966796875,0.6902175545692444,0.03117949143052101,-0.0019976370967924595
1782952274299542800,1.314542724609375,0.6074185967445374,0.09116532653570175,0.02822498045861721
1782952274309471000,1.324470947265625,0.509942352771759,0.12015916407108307,0.01877608522772789
1782952274319398000,1.33439794921875,0.4146411418914795,0.14621366560459137,-0.011343201622366905
1782952274329324800,1.34432470703125,0.3267171382904053,0.14619262516498566,-0.04590597376227379
1782952274339253000,1.3542529296875,0.28847599029541016,0.10707452148199081,-0.07151173055171967
1782952274349179600,1.3641796875,0.3214917480945587,0.08430076390504837,-0.06812339276075363
1782952274359106800,1.37410693359375,0.39706239104270935,0.08011667430400848,-0.05410557985305786
1782952274369034800,1.38403466796875,0.4685395061969757,0.08488453179597855,-0.05549122020602226
1782952274378962000,1.3939619140625,0.5719319581985474,0.042335204780101776,-0.024106135591864586
1782952274388888800,1.403888916015625,0.6427904367446899,-0.02995789796113968,0.025915220379829407
1782952274398816800,1.413816650390625,0.6733112931251526,-0.12420530617237091,0.07311149686574936
1782952274408744000,1.423743896484375,0.6512936353683472,-0.2201150506734848,0.12436749041080475
1782952274418670800,1.4336708984375,0.6114386320114136,-0.2644875943660736,0.1574988067150116
1782952274428598000,1.443597900390625,0.5587874054908752,-0.2614270746707916,0.14805631339550018
1782952274438526000,1.45352587890625,0.4971922039985657,-0.22285518050193787,0.0969206839799881
1782952274448452900,1.463452880859375,0.43603137135505676,-0.17138239741325378,0.018865566700696945
1782952274458379800,1.4733798828125,0.3680984079837799,-0.12748977541923523,-0.06468845158815384
1782952274468307700,1.4833076171875,0.2966148853302002,-0.09594836831092834,-0.13619272410869598
1782952274478235000,1.49323486328125,0.2284824401140213,-0.07190960645675659,-0.18871478736400604
1782952274488161800,1.503161865234375,0.15987089276313782,-0.04207847639918327,-0.20700670778751373
1782952274498089700,1.51308984375,0.09181966632604599,-0.006101035512983799,-0.17575664818286896
1782952274508017000,1.523016845703125,0.03391801938414574,0.026812706142663956,-0.11486879736185074
1782952274517943800,1.53294384765625,-0.0016431703697890043,0.07550088316202164,-0.047326769679784775
1782952274527871700,1.542871826171875,-0.01738245226442814,0.11841399222612381,0.017610419541597366
1782952274537799000,1.552798828125,-0.029875872656702995,0.13414715230464935,0.08347172290086746
1782952274547725800,1.562725830078125,-0.04393070563673973,0.14258964359760284,0.15225930511951447
1782952274557654000,1.572654052734375,-0.06794070452451706,0.10686279833316803,0.20209024846553802
1782952274567581000,1.582580810546875,-0.09606102108955383,0.027281422168016434,0.21028053760528564
1782952274577507800,1.5925078125,-0.14150679111480713,-0.0262430552393198,0.19471409916877747
1782952274587435800,1.602435791015625,-0.2064588963985443,-0.06737398356199265,0.14696601033210754
1782952274597362700,1.61236279296875,-0.2742970585823059,-0.10027068108320236,0.06893406063318253
1782952274607289900,1.622289794921875,-0.33297157287597656,-0.1132139042019844,-0.0149840097874403
1782952274617216800,1.632216796875,-0.3714313507080078,-0.09335950762033463,-0.07265875488519669
1782952274627144700,1.642144775390625,-0.40137192606925964,-0.07690410315990448,-0.10297511518001556
1782952274637072000,1.65207177734375,-0.4307388663291931,-0.06874524056911469,-0.10256339609622955
1782952274646998800,1.661998779296875,-0.46370959281921387,-0.08887900412082672,-0.08561024069786072
1782952274656927000,1.671927001953125,-0.4950805902481079,-0.1392953097820282,-0.06825602054595947
1782952274666854000,1.68185400390625,-0.5262171626091003,-0.22525309026241302,-0.05717913433909416
1782952274676781000,1.691781005859375,-0.5487427115440369,-0.32372400164604187,-0.032340630888938904
1782952274686709000,1.701708984375,-0.566518247127533,-0.3971116840839386,0.022791065275669098
1782952274696635600,1.7116357421875,-0.5894760489463806,-0.44713568687438965,0.09059567749500275
1782952274706562800,1.721562744140625,-0.6083014011383057,-0.4546271562576294,0.1446290910243988
1782952274716491000,1.731490966796875,-0.6265315413475037,-0.43038174510002136,0.17597715556621552
1782952274726418000,1.74141796875,-0.6366784572601318,-0.3804759681224823,0.19270873069763184
1782952274736345000,1.751344970703125,-0.6378603577613831,-0.3082292079925537,0.20782829821109772
1782952274746273000,1.76127294921875,-0.6386688947677612,-0.206049844622612,0.21667265892028809
1782952274756200200,1.7712001953125,-0.6457635760307312,-0.0696650967001915,0.20305031538009644
1782952274766126800,1.781126953125,-0.6502951979637146,0.05493542179465294,0.1835663616657257
1782952274776054000,1.791053955078125,-0.6637459993362427,0.15265612304210663,0.1638946533203125
1782952274785982000,1.80098193359375,-0.6854270696640015,0.20080287754535675,0.14310921728610992
1782952274795908900,1.810908935546875,-0.7115063667297363,0.17922328412532806,0.11627041548490524
1782952274805836000,1.8208359375,-0.7491708993911743,0.07465479522943497,0.06589166820049286
1782952274815764000,1.830763916015625,-0.7836806774139404,-0.07659730315208435,-0.0009563411585986614
1782952274825691000,1.84069091796875,-0.8159254193305969,-0.24122726917266846,-0.07707188278436661
1782952274835618000,1.8506181640625,-0.8336122632026672,-0.3492128551006317,-0.15380527079105377
1782952274845546000,1.8605458984375,-0.8403724431991577,-0.4074071943759918,-0.24736878275871277
1782952274855473200,1.87047314453125,-0.8308228850364685,-0.4132213890552521,-0.35943061113357544
1782952274865399800,1.88039990234375,-0.8237130641937256,-0.3604862689971924,-0.4804787337779999
1782952274875328000,1.890327880859375,-0.8240835070610046,-0.26578372716903687,-0.5685835480690002
1782952274885255000,1.9002548828125,-0.822791576385498,-0.13960449397563934,-0.6043967008590698
1782952274895181800,1.910181884765625,-0.8177942037582397,-0.030761640518903732,-0.5729580521583557
1782952274905109800,1.92010986328125,-0.8084925413131714,0.03641952574253082,-0.5161754488945007
1782952274915037000,1.930036865234375,-0.7903265953063965,0.07747694849967957,-0.44391247630119324
1782952274924963800,1.9399638671875,-0.764508843421936,0.11573752015829086,-0.37644848227500916
1782952274934891000,1.94989111328125,-0.7321903109550476,0.14883768558502197,-0.3221769630908966
1782952274944819000,1.95981884765625,-0.6938937902450562,0.15184998512268066,-0.2902675271034241
1782952274954746000,1.96974609375,-0.6497295498847961,0.13766013085842133,-0.26527586579322815
1782952274964673000,1.979673095703125,-0.5902004241943359,0.12114586681127548,-0.24164031445980072
1782952274974601000,1.98960107421875,-0.5316684246063232,0.09492624551057816,-0.2015959620475769
1782952274984528100,1.999528076171875,-0.48700985312461853,0.05932830274105072,-0.16116918623447418
1782952274994454800,2.009454833984375,-0.44324028491973877,0.038596928119659424,-0.11867525428533554
1782952275004383000,2.019383056640625,-0.41218382120132446,0.03760064020752907,-0.08758657425642014
1782952275014310000,2.029309814453125,-0.3843916058540344,0.06440668553113937,-0.07586946338415146
1782952275024236800,2.03923681640625,-0.359541118144989,0.1155119463801384,-0.09067291021347046
1782952275034165000,2.0491650390625,-0.33177900314331055,0.16454820334911346,-0.09753561019897461
1782952275044092000,2.059091796875,-0.30239394307136536,0.20035387575626373,-0.08774849772453308
1782952275054019000,2.06901904296875,-0.28107747435569763,0.2188418060541153,-0.06027719005942345
1782952275063947000,2.078947021484375,-0.24855095148086548,0.22551913559436798,-0.023060845211148262
1782952275073874000,2.0888740234375,-0.19949765503406525,0.2043541967868805,-0.015398130752146244
1782952275083801000,2.098801025390625,-0.12514619529247284,0.14811143279075623,-0.05718179792165756
1782952275093728000,2.10872802734375,-0.045103561133146286,0.06962035596370697,-0.14149826765060425
1782952275103656000,2.118656005859375,0.033903904259204865,-0.021090904250741005,-0.21655094623565674
1782952275113582800,2.128582763671875,0.11332389712333679,-0.11975276470184326,-0.2760656774044037
1782952275123509800,2.138509765625,0.18856830894947052,-0.21861356496810913,-0.2950036823749542
1782952275133438000,2.14843798828125,0.2579077184200287,-0.2715718448162079,-0.24538232386112213
1782952275143364900,2.15836474609375,0.30529865622520447,-0.2509656548500061,-0.12071443349123001
1782952275153292000,2.1682919921875,0.3487931489944458,-0.14735323190689087,0.04524444416165352
1782952275163220000,2.178219970703125,0.37995532155036926,0.01786448433995247,0.20585036277770996
1782952275173147000,2.18814697265625,0.40646442770957947,0.16524994373321533,0.313515305519104
1782952275183074000,2.198073974609375,0.42607566714286804,0.2434273064136505,0.3581392467021942
1782952275193002000,2.208001953125,0.43955713510513306,0.2530863285064697,0.34394165873527527
1782952275202929000,2.217928955078125,0.4360271096229553,0.16428694128990173,0.29195836186408997
1782952275212856000,2.22785595703125,0.44567254185676575,0.04454243555665016,0.22627361118793488
1782952275222783000,2.237782958984375,0.4694353938102722,-0.050083938986063004,0.16483022272586823
1782952275232711000,2.2477109375,0.49017369747161865,-0.1086987853050232,0.10879892110824585
1782952275242637800,2.257637939453125,0.5067388415336609,-0.10128746926784515,0.07080652564764023
1782952275252565000,2.26756494140625,0.4953596889972687,0.009965814650058746,0.03809385746717453
1782952275262493000,2.277492919921875,0.5283450484275818,0.14795297384262085,0.07301295548677444
1782952275272419800,2.287419921875,0.5609208345413208,0.2869707942008972,0.1355152130126953
1782952275282347000,2.297346923828125,0.600129246711731,0.3876907527446747,0.2080884873867035
1782952275292275000,2.30727490234375,0.649821937084198,0.4417928457260132,0.28279122710227966
1782952275302202000,2.3172021484375,0.6985793709754944,0.4327157437801361,0.33687177300453186
1782952275312129000,2.32712890625,0.7491884827613831,0.38035905361175537,0.3621979057788849
1782952275322057000,2.337056884765625,0.7911356687545776,0.3207138478755951,0.3708694279193878
1782952275331984100,2.346984130859375,0.8159768581390381,0.3094814121723175,0.3527950644493103
1782952275341910800,2.356910888671875,0.823599100112915,0.2662668526172638,0.3011188209056854
1782952275351839000,2.3668388671875,0.7937501072883606,0.16836637258529663,0.2144625037908554
1782952275361766000,2.376765869140625,0.7079781889915466,0.012554673478007317,0.09274085611104965
1782952275371692800,2.38669287109375,0.6172395348548889,-0.14345702528953552,-0.020675450563430786
1782952275381620000,2.396619873046875,0.5771679878234863,-0.23969301581382751,-0.08542435616254807
1782952275391548000,2.4065478515625,0.5810964107513428,-0.30060696601867676,-0.10948068648576736
1782952275401475000,2.41647509765625,0.6091001033782959,-0.3466130793094635,-0.1106460839509964
1782952275411402000,2.426402099609375,0.6146115064620972,-0.32112687826156616,-0.11477558314800262
1782952275421330000,2.436329833984375,0.5915951132774353,-0.28973355889320374,-0.11639052629470825
1782952275431257000,2.446257080078125,0.5430830121040344,-0.25669997930526733,-0.09317122399806976
1782952275441184000,2.45618408203125,0.4743175208568573,-0.17848452925682068,-0.06184259429574013
1782952275451112000,2.46611181640625,0.38757649064064026,-0.06117680296301842,-0.04303428530693054
1782952275461039000,2.4760390625,0.29302307963371277,0.08096995204687119,-0.0767911821603775
1782952275470965800,2.4859658203125,0.21201452612876892,0.239434152841568,-0.11017337441444397
1782952275480894000,2.49589404296875,0.1206664964556694,0.3477955162525177,-0.1927923560142517
1782952275490820900,2.50582080078125,0.03326527774333954,0.45011311769485474,-0.31616541743278503
1782952275500748000,2.515748046875,-0.051412858068943024,0.5017065405845642,-0.4186862111091614
1782952275510675000,2.525675048828125,-0.120500847697258,0.4565662145614624,-0.47350019216537476
1782952275520603000,2.535602783203125,-0.14038561284542084,0.3794865906238556,-0.5106246471405029
1782952275530530000,2.545530029296875,-0.07152531296014786,0.2870144546031952,-0.4840409755706787
1782952275540457000,2.55545703125,0.06908053159713745,0.13691604137420654,-0.36577320098876953
1782952275550385000,2.565385009765625,0.20106066763401031,-0.05453727766871452,-0.20268839597702026
1782952275560312000,2.57531201171875,0.30707845091819763,-0.24774295091629028,-0.01333071943372488
1782952275570239000,2.585239013671875,0.3662802577018738,-0.42479071021080017,0.17480190098285675
1782952275580167200,2.595167236328125,0.37969139218330383,-0.5387945175170898,0.31722936034202576
1782952275590093800,2.60509375,0.3407064378261566,-0.5627797245979309,0.35794907808303833
1782952275600021000,2.61502099609375,0.25607332587242126,-0.4923335313796997,0.30667391419410706
1782952275609949000,2.624948974609375,0.12901391088962555,-0.3412465453147888,0.17421174049377441
1782952275619875800,2.634875732421875,-0.028991438448429108,-0.13538631796836853,-0.020790765061974525
1782952275629803000,2.644802978515625,-0.15626123547554016,0.09784906357526779,-0.21188774704933167
1782952275639731000,2.65473095703125,-0.2421921342611313,0.29861465096473694,-0.34961551427841187
1782952275649657900,2.664657958984375,-0.29395759105682373,0.4129422903060913,-0.42081141471862793
1782952275659585000,2.6745849609375,-0.3201841413974762,0.42910236120224,-0.4326947033405304
1782952275669512000,2.684511962890625,-0.3263131380081177,0.3460492789745331,-0.36616069078445435
1782952275679440100,2.694440185546875,-0.33657827973365784,0.22249005734920502,-0.23330968618392944
1782952275689367000,2.704366943359375,-0.3406611680984497,0.06145324185490608,-0.07443615049123764
1782952275699294000,2.7142939453125,-0.3372983932495117,-0.07236314564943314,0.07717441022396088
1782952275709222700,2.72422265625,-0.3146250545978546,-0.1431821882724762,0.18740850687026978
1782952275719149600,2.734149658203125,-0.2732589542865753,-0.1381075382232666,0.2397627979516983
1782952275729076700,2.74407666015625,-0.22015847265720367,-0.06969865411520004,0.24552586674690247
1782952275739004700,2.754004638671875,-0.1799149066209793,0.017298029735684395,0.22795140743255615
1782952275748931600,2.763931640625,-0.16172099113464355,0.07647719979286194,0.20468176901340485
1782952275758858800,2.773858642578125,-0.1706305891275406,0.09484048932790756,0.18910866975784302
1782952275768786700,2.78378662109375,-0.20148198306560516,0.052147891372442245,0.1915356069803238
1782952275778713300,2.79371337890625,-0.24742098152637482,-0.014933941885828972,0.18529050052165985
1782952275788640500,2.803640625,-0.3044235408306122,-0.10894858837127686,0.17555397748947144
1782952275798567400,2.8135673828125,-0.34284496307373047,-0.1926613301038742,0.16047729551792145
1782952275808495600,2.82349560546875,-0.3661774694919586,-0.25638118386268616,0.13034681975841522
1782952275818422500,2.833422607421875,-0.3762354254722595,-0.2551329731941223,0.09941340237855911
1782952275828349700,2.843349609375,-0.3558124303817749,-0.2399313747882843,0.1401483118534088
1782952275838277600,2.853277587890625,-0.3321153521537781,-0.24596743285655975,0.21165312826633453
1782952275848204500,2.86320458984375,-0.30788564682006836,-0.23229262232780457,0.2557462751865387
1782952275858131700,2.873131591796875,-0.27963271737098694,-0.19089458882808685,0.29830944538116455
1782952275868059600,2.8830595703125,-0.24340572953224182,-0.14898335933685303,0.31824827194213867
1782952275877986600,2.892986572265625,-0.20041805505752563,-0.12712626159191132,0.3321033716201782
1782952275887913500,2.90291357421875,-0.17506662011146545,-0.11409328132867813,0.31365352869033813
1782952275897841700,2.912841552734375,-0.16209037601947784,-0.12614381313323975,0.27455753087997437
1782952275907768600,2.9227685546875,-0.18249498307704926,-0.1350257247686386,0.20004068315029144
1782952275917695500,2.932695556640625,-0.21708384156227112,-0.1410444676876068,0.10323237627744675
1782952275927622700,2.94262255859375,-0.2477666586637497,-0.17178906500339508,0.05499321222305298
1782952275937550600,2.952550537109375,-0.2794913053512573,-0.20030540227890015,0.04336904361844063
1782952275947477500,2.9624775390625,-0.31027185916900635,-0.20725411176681519,0.04181056469678879
1782952275957404700,2.97240478515625,-0.3385849893093109,-0.2006406933069229,0.04701411351561546
1782952275967332600,2.98233251953125,-0.35987588763237,-0.18797630071640015,0.03990267589688301
1782952275977259500,2.992259521484375,-0.3750103712081909,-0.16725477576255798,0.014732340350747108
1782952275987186700,3.002186767578125,-0.38520947098731995,-0.10603189468383789,-0.03447355329990387
1782952275997114600,3.012114501953125,-0.40001586079597473,-0.018029334023594856,-0.11432763934135437
1782952276007041800,3.022041748046875,-0.4231768250465393,0.03723258897662163,-0.19825689494609833
1782952276016968400,3.031968505859375,-0.4416903257369995,0.05013853311538696,-0.26627588272094727
1782952276026896400,3.041896484375,-0.4701496660709381,0.023079752922058105,-0.3009635806083679
1782952276036823600,3.051823486328125,-0.5036634206771851,-0.03972211107611656,-0.29567959904670715
1782952276046750500,3.06175048828125,-0.5350751280784607,-0.08860816061496735,-0.27164003252983093
1782952276056677600,3.071677734375,-0.5519225597381592,-0.1245935931801796,-0.2441716492176056
1782952276066605600,3.08160546875,-0.5708059668540955,-0.14923661947250366,-0.23943735659122467
1782952276076532500,3.091532470703125,-0.5862163305282593,-0.1586032211780548,-0.24185310304164886
1782952276086459600,3.101459716796875,-0.5844677090644836,-0.168190598487854,-0.24307842552661896
1782952276096387600,3.1113876953125,-0.5575974583625793,-0.14875219762325287,-0.21489845216274261
1782952276106314800,3.121314697265625,-0.5222663879394531,-0.10596531629562378,-0.16721348464488983
1782952276116241700,3.13124169921875,-0.4916011691093445,-0.08973947167396545,-0.11145541816949844
1782952276126169600,3.141169677734375,-0.46976563334465027,-0.07279537618160248,-0.06658834964036942
1782952276136096500,3.151096435546875,-0.46279001235961914,-0.05812269076704979,-0.042203910648822784
1782952276146023400,3.1610234375,-0.45581308007240295,-0.044500622898340225,-0.04218287393450737
1782952276155951600,3.17095166015625,-0.45004385709762573,-0.03152090683579445,-0.06247163191437721
1782952276165878500,3.18087841796875,-0.4419262707233429,-0.01655740477144718,-0.10017480701208115
1782952276175805700,3.1908056640625,-0.41757434606552124,-0.01744077540934086,-0.12899845838546753
1782952276185732600,3.200732666015625,-0.3872116208076477,-0.009353553876280785,-0.14646027982234955
1782952276195660500,3.21066064453125,-0.367606520652771,0.0255703404545784,-0.1394985020160675
1782952276205587700,3.220587646484375,-0.3509785234928131,0.11552393436431885,-0.11601075530052185
1782952276215514600,3.2305146484375,-0.3227601945400238,0.24984684586524963,-0.12209847569465637
1782952276225442600,3.240442626953125,-0.23098181188106537,0.3799406588077545,-0.1542377769947052
1782952276235369700,3.25036962890625,-0.07315544039011002,0.3569945991039276,-0.10569633543491364
1782952276245296400,3.26029638671875,0.03452521935105324,0.37421301007270813,-0.1333436816930771
1782952276255224600,3.270224609375,0.05228264629840851,0.33161893486976624,-0.20303140580654144
1782952276265151500,3.2801513671875,0.050396062433719635,0.24825774133205414,-0.22542300820350647
1782952276275078700,3.29007861328125,0.09830473363399506,0.052327919751405716,-0.22065328061580658
1782952276285006600,3.300006591796875,0.13576768338680267,-0.12804611027240753,-0.1966499388217926
1782952276294933500,3.30993359375,0.16899462044239044,-0.14384105801582336,-0.14029452204704285
1782952276304860700,3.319860595703125,0.21011435985565186,-0.07132185250520706,-0.052737779915332794
1782952276314788600,3.32978857421875,0.2534698247909546,0.06144232302904129,0.037873610854148865
1782952276324715500,3.339715576171875,0.30025967955589294,0.23262205719947815,0.11315931379795074
1782952276334642700,3.349642578125,0.34384018182754517,0.3585922420024872,0.1568540632724762
1782952276344569600,3.359569580078125,0.3778591454029083,0.39540165662765503,0.16657593846321106
1782952276354497800,3.369497802734375,0.4081107974052429,0.3510435223579407,0.1421925574541092
1782952276364424400,3.379424560546875,0.43229469656944275,0.2519374191761017,0.10392320156097412
1782952276374351600,3.3893515625,0.46712324023246765,0.11550848931074142,0.05350397154688835
1782952276384279600,3.399279541015625,0.5160601735115051,-0.017486048862338066,0.0033012544736266136
1782952276394206500,3.40920654296875,0.545658528804779,-0.12863387167453766,-0.0603935681283474
1782952276404133600,3.419133544921875,0.5120843052864075,-0.18888282775878906,-0.13322649896144867
1782952276414061600,3.4290615234375,0.44217821955680847,-0.19054117798805237,-0.16836051642894745
1782952276423988500,3.438988525390625,0.47386395931243896,-0.13461346924304962,-0.14624269306659698
1782952276433915600,3.44891552734375,0.5530032515525818,-0.026607908308506012,-0.053049635142087936
1782952276443843600,3.458843505859375,0.6314839720726013,0.08761027455329895,0.08590452373027802
1782952276453770800,3.468770751953125,0.6174176931381226,0.15236423909664154,0.2235366851091385
1782952276463697700,3.47869775390625,0.5376474857330322,0.16452530026435852,0.3110737204551697
1782952276473624600,3.48862451171875,0.5054565072059631,0.1881355494260788,0.3447006642818451
1782952276483552800,3.498552734375,0.5261276960372925,0.22651436924934387,0.3204869329929352
1782952276493479400,3.5084794921875,0.5694517493247986,0.24966096878051758,0.2668426036834717
1782952276503406600,3.518406494140625,0.6158972978591919,0.23276560008525848,0.20010779798030853
1782952276513334500,3.52833447265625,0.6740530133247375,0.19478945434093475,0.13434608280658722
1782952276523261400,3.538261474609375,0.7257617115974426,0.13578100502490997,0.060921408236026764
1782952276533188600,3.548188720703125,0.7753218412399292,0.02629072591662407,-0.006734068971127272
1782952276543116500,3.558116455078125,0.8125056624412537,-0.09213978052139282,-0.036431778222322464
1782952276553043700,3.568043701171875,0.8358967304229736,-0.19514764845371246,-0.036557212471961975
1782952276562970600,3.577970703125,0.8561306595802307,-0.286506325006485,-0.01641892082989216
1782952276572897800,3.587897705078125,0.8587863445281982,-0.3548576831817627,0.02544570527970791
1782952276582825700,3.59782568359375,0.8346295952796936,-0.39441362023353577,0.07045206427574158
1782952276592752600,3.607752685546875,0.7835373878479004,-0.4009024202823639,0.10857175290584564
1782952276602679600,3.617679443359375,0.7052149176597595,-0.3676384687423706,0.12123028934001923
1782952276612607500,3.627607421875,0.6053575277328491,-0.2800348401069641,0.0891977846622467
1782952276622534400,3.637534423828125,0.4920264780521393,-0.19829924404621124,0.04147633537650108
1782952276632461600,3.647461669921875,0.3912327289581299,-0.14686694741249084,0.012989035807549953
1782952276642389500,3.657389404296875,0.3099123239517212,-0.08140324801206589,-0.022275477647781372
1782952276652316700,3.667316650390625,0.23054079711437225,-0.006116481963545084,-0.0810069665312767
1782952276662243600,3.67724365234375,0.1678859442472458,0.07331495732069016,-0.14176751673221588
1782952276672171500,3.687171630859375,0.12310249358415604,0.14777109026908875,-0.20109395682811737
1782952276682098700,3.6970986328125,0.08267943561077118,0.18972492218017578,-0.28567221760749817
1782952276692025600,3.707025634765625,0.06836573779582977,0.18391869962215424,-0.2824000120162964
1782952276701952800,3.716952880859375,0.07144781947135925,0.1302376240491867,-0.22577400505542755
1782952276711880700,3.726880615234375,0.07475946098566055,0.028504345566034317,-0.12298637628555298
1782952276721807600,3.7368076171875,0.13977068662643433,-0.1060662493109703,0.011327222920954227
1782952276731734800,3.74673486328125,0.25310415029525757,-0.18706655502319336,0.15476109087467194
1782952276741662700,3.756662841796875,0.35874298214912415,-0.2834876477718353,0.2515563368797302
1782952276751590000,3.76658984375,0.44039735198020935,-0.376498281955719,0.27591121196746826
1782952276761516800,3.776516845703125,0.45687246322631836,-0.403847336769104,0.2418067753314972
1782952276771444700,3.78644482421875,0.4072655141353607,-0.4014020264148712,0.17461015284061432
1782952276781371600,3.79637158203125,0.33115315437316895,-0.34518641233444214,0.10656186193227768
1782952276791298600,3.806298583984375,0.24482093751430511,-0.22838923335075378,0.05601400136947632
1782952276801226500,3.8162265625,0.15244679152965546,-0.09214217960834503,0.007986553944647312
1782952276811153700,3.826153564453125,0.07215435802936554,0.04764235392212868,-0.03946778178215027
1782952276821080600,3.83608056640625,0.0010697918478399515,0.1389608085155487,-0.09376218169927597
1782952276831007700,3.8460078125,-0.06802325695753098,0.16085971891880035,-0.16629444062709808
1782952276840935700,3.855935791015625,-0.13934777677059174,0.1145542785525322,-0.2605575621128082
1782952276850862800,3.86586279296875,-0.23066170513629913,0.015173626132309437,-0.37149152159690857
1782952276860789800,3.875789794921875,-0.33376172184944153,-0.0879351794719696,-0.4676673412322998
1782952276870717700,3.8857177734375,-0.4398367702960968,-0.13256843388080597,-0.526458203792572
1782952276880644900,3.895644775390625,-0.5373305678367615,-0.13727903366088867,-0.5462601184844971
1782952276890571500,3.905571533203125,-0.615301787853241,-0.08345574140548706,-0.5072551965713501
1782952276900499700,3.915499755859375,-0.6580231785774231,0.06767065823078156,-0.40464308857917786
1782952276910426600,3.925426513671875,-0.6576862931251526,0.24483159184455872,-0.2438286393880844
1782952276920353500,3.935353515625,-0.632773756980896,0.422077476978302,-0.0515793040394783
1782952276930281700,3.94528173828125,-0.6070204377174377,0.4923151433467865,0.12670014798641205
1782952276940208600,3.955208740234375,-0.5121903419494629,0.45594969391822815,0.2415737360715866
1782952276950135800,3.9651357421875,-0.427679181098938,0.36911171674728394,0.32524439692497253
1782952276960062700,3.975062744140625,-0.36011263728141785,0.234670028090477,0.376912921667099
1782952276969990700,3.98499072265625,-0.2694575786590576,0.11006738245487213,0.3909933269023895
1782952276979917800,3.994917724609375,-0.19488932192325592,0.0015137407463043928,0.3722721040248871
1782952276989844700,4.0048447265625,-0.11538545042276382,-0.0822964683175087,0.3186855614185333
1782952276999772700,4.014772705078125,-0.05185121297836304,-0.11240456998348236,0.24837732315063477
1782952277009699800,4.024699951171875,-0.05281367897987366,-0.1066388264298439,0.1799873411655426
1782952277019626500,4.03462646484375,-0.09420160204172134,-0.10072208195924759,0.11422963440418243
1782952277029554700,4.0445546875,-0.1277100294828415,-0.07751849293708801,0.06415528059005737
1782952277039481600,4.054481689453125,-0.1327551156282425,-0.03659529611468315,0.030657777562737465
1782952277049408800,4.06440869140625,-0.13336019217967987,-0.020312728360295296,0.005811283830553293
1782952277059336700,4.074336669921875,-0.14824698865413666,-0.02443290501832962,0.00045300371129997075
1782952277069263600,4.084263671875,-0.19204986095428467,-0.029080919921398163,-0.003974767867475748
1782952277079190800,4.094190673828125,-0.2586674988269806,-0.02984311617910862,-0.02130049467086792
1782952277089117700,4.10411767578125,-0.32746148109436035,-0.033010680228471756,-0.056839313358068466
1782952277099045600,4.114045654296875,-0.3998139798641205,-0.03792261332273483,-0.11095288395881653
1782952277108972800,4.123972900390625,-0.4466158449649811,-0.04722130671143532,-0.1491817682981491
1782952277118899700,4.133899658203125,-0.4603066146373749,-0.04050667956471443,-0.14320722222328186
1782952277128828000,4.143827880859375,-0.46021366119384766,-0.005503954831510782,-0.10566118359565735
1782952277138754600,4.153754638671875,-0.45421305298805237,0.03328472003340721,-0.07155407965183258
1782952277148681700,4.163681640625,-0.4513013958930969,0.08599693328142166,-0.05353992432355881
1782952277158609700,4.173609619140625,-0.46398550271987915,0.14714497327804565,-0.05633198097348213
1782952277168536600,4.18353662109375,-0.4841797351837158,0.20209982991218567,-0.09052696824073792
1782952277178463700,4.193463623046875,-0.5306050181388855,0.24555623531341553,-0.14256247878074646
1782952277188390700,4.203390625,-0.6162924766540527,0.2984902858734131,-0.18689239025115967
1782952277198318600,4.213318603515625,-0.6673359870910645,0.2793099284172058,-0.2453940510749817
1782952277208245800,4.223245849609375,-0.6210454106330872,0.2609511613845825,-0.3023207187652588
1782952277218172700,4.233172607421875,-0.5813587307929993,0.228225976228714,-0.3145318329334259
1782952277228100900,4.243100830078125,-0.5747120380401611,0.15360873937606812,-0.2797669470310211
1782952277238027800,4.25302783203125,-0.5493632555007935,0.05843987315893173,-0.2091798484325409
1782952277247954700,4.26295458984375,-0.4950723350048065,-0.006681871134787798,-0.14121678471565247
1782952277257882600,4.272882568359375,-0.43925753235816956,-0.039869386702775955,-0.09709671884775162
1782952277267809500,4.2828095703125,-0.38170209527015686,-0.10029491037130356,-0.035356659442186356
1782952277277736700,4.29273681640625,-0.35744255781173706,-0.12495791167020798,0.005000085104256868
1782952277287664600,4.30266455078125,-0.34609454870224,-0.10399377346038818,0.013502226211130619
1782952277297591800,4.312591796875,-0.3260987401008606,-0.10036628693342209,0.0044381581246852875
1782952277307518700,4.322518798828125,-0.3198842704296112,-0.09649431705474854,-0.025891784578561783
1782952277317445600,4.332445556640625,-0.3042309880256653,-0.07316529005765915,-0.0648232027888298
1782952277327373800,4.342373779296875,-0.2865007519721985,-0.03195766732096672,-0.10411442071199417
1782952277337300700,4.35230078125,-0.26798751950263977,0.026433471590280533,-0.14218057692050934
1782952277347228000,4.362227783203125,-0.2544333338737488,0.1007513776421547,-0.15260206162929535
1782952277357155800,4.37215576171875,-0.2377220094203949,0.17293556034564972,-0.13368801772594452
1782952277367082500,4.38208251953125,-0.20908184349536896,0.2404373735189438,-0.09502025693655014
1782952277377009700,4.392009765625,-0.17166629433631897,0.29418715834617615,-0.0567634142935276
1782952277386937600,4.4019375,-0.12350250035524368,0.2989262342453003,-0.04008696600794792
1782952277396864800,4.41186474609375,-0.07623058557510376,0.24867798388004303,-0.05469254031777382
1782952277406791700,4.421791748046875,-0.02731044963002205,0.16351889073848724,-0.08589200675487518
1782952277416718800,4.43171875,0.0015297196805477142,0.05017555132508278,-0.1434812694787979
1782952277426646800,4.441646728515625,0.026488864794373512,-0.09845120459794998,-0.21137243509292603
1782952277436573700,4.45157373046875,0.05643930658698082,-0.22998233139514923,-0.277127742767334
1782952277446500900,4.4615009765625,0.06432945281267166,-0.30901670455932617,-0.29990121722221375
1782952277456428800,4.4714287109375,0.06222928687930107,-0.28462880849838257,-0.23130299150943756
1782952277466355700,4.481355712890625,0.05367308109998703,-0.1819639354944229,-0.1037660762667656
1782952277476282600,4.49128271484375,0.05479853227734566,-0.031320638954639435,0.029882265254855156
1782952277486210800,4.5012109375,0.0626591220498085,0.14502111077308655,0.1622600108385086
1782952277496137700,4.5111376953125,0.08033665269613266,0.25645068287849426,0.2549225687980652
1782952277506064600,4.521064697265625,0.13157187402248383,0.28065377473831177,0.30414310097694397
1782952277515992600,4.53099267578125,0.19585765898227692,0.19928088784217834,0.29554349184036255
1782952277525919700,4.540919677734375,0.274288535118103,0.06412332504987717,0.24952514469623566
1782952277535846700,4.5508466796875,0.3553658127784729,-0.08875250816345215,0.1994049847126007
1782952277545773800,4.56077392578125,0.4252690076828003,-0.22248713672161102,0.1470850557088852
1782952277555701800,4.57070166015625,0.4710436761379242,-0.3200080990791321,0.12085797637701035
1782952277565628700,4.580628662109375,0.4822678565979004,-0.3520781397819519,0.10119079798460007
1782952277575555800,4.590555908203125,0.45843440294265747,-0.32361507415771484,0.09340211749076843
1782952277585483800,4.60048388671875,0.4283806383609772,-0.2676205337047577,0.10079718381166458
1782952277595411000,4.610410888671875,0.37932413816452026,-0.1894277185201645,0.13551920652389526
1782952277605337600,4.620337646484375,0.24161715805530548,-0.030892934650182724,0.22303947806358337
1782952277615265500,4.630265625,0.1623484343290329,0.05416709929704666,0.3145398199558258
1782952277625192700,4.640192626953125,0.15822292864322662,0.16319212317466736,0.38917413353919983
1782952277635119600,4.65011962890625,0.22398622334003448,0.22065860033035278,0.4745497405529022
1782952277645046800,4.660046875,0.31174802780151367,0.24376872181892395,0.5156934261322021
1782952277654974700,4.669974609375,0.3708305358886719,0.24923965334892273,0.49471306800842285
1782952277664901600,4.679901611328125,0.4052737355232239,0.24886201322078705,0.45384207367897034
1782952277674828800,4.689828857421875,0.44025754928588867,0.28649941086769104,0.4084213078022003
1782952277684756700,4.6997568359375,0.4804784655570984,0.31456246972084045,0.3616364896297455
1782952277694684000,4.709683837890625,0.5179795026779175,0.3142887055873871,0.3155989646911621
1782952277704610800,4.71961083984375,0.5430816411972046,0.2907511293888092,0.27749285101890564
1782952277714538000,4.7295380859375,0.5509137511253357,0.22937726974487305,0.2717587947845459
1782952277724465000,4.73946484375,0.5937440395355225,0.07517464458942413,0.2475685179233551
1782952277734391800,4.749391845703125,0.6536476016044617,-0.05752960592508316,0.21690727770328522
1782952277744318700,4.759318603515625,0.6992539763450623,-0.17670366168022156,0.18471792340278625
1782952277754247000,4.769246826171875,0.6978771090507507,-0.27797916531562805,0.14842702448368073
1782952277764173800,4.779173828125,0.6397961974143982,-0.3383199870586395,0.1262977570295334
1782952277774100700,4.789100830078125,0.5621078014373779,-0.3231618106365204,0.1178363561630249
1782952277784028700,4.799028564453125,0.4889545142650604,-0.24643827974796295,0.11644592136144638
1782952277793955800,4.808955810546875,0.4183698296546936,-0.149342343211174,0.11945609003305435
1782952277803882800,4.8188828125,0.34433501958847046,-0.04893558472394943,0.10842474550008774
1782952277813811000,4.82881103515625,0.27576154470443726,0.05928569287061691,0.060619939118623734
1782952277823737900,4.83873779296875,0.2404882311820984,0.16405817866325378,0.07832569628953934
1782952277833664800,4.848664794921875,0.18878749012947083,0.20208358764648438,0.04411739483475685
1782952277843593000,4.858593017578125,0.14181412756443024,0.2392037957906723,-0.011432151310145855
1782952277853520000,4.868519775390625,0.14599822461605072,0.27138543128967285,-0.04838164895772934
1782952277863446800,4.87844677734375,0.17837773263454437,0.24673974514007568,-0.05825771391391754
1782952277873373700,4.888373779296875,0.2131255865097046,0.16588696837425232,-0.05182031914591789
1782952277883301600,4.898301513671875,0.23547537624835968,0.08425549417734146,-0.025069400668144226
1782952277893228800,4.908228759765625,0.2594355642795563,0.018147312104701996,0.03135259449481964
1782952277903155700,4.91815576171875,0.2804769277572632,-0.033494576811790466,0.10513734072446823
1782952277913084000,4.928083984375,0.29349711537361145,-0.06166709214448929,0.18342867493629456
1782952277923010800,4.9380107421875,0.29670968651771545,-0.08053585141897202,0.2511376738548279
1782952277932938000,4.94793798828125,0.29146406054496765,-0.09790445864200592,0.28673481941223145
1782952277942866000,4.957865966796875,0.2711031436920166,-0.11286237090826035,0.27330076694488525
1782952277952792800,4.967792724609375,0.23496511578559875,-0.1062348261475563,0.2148534506559372
1782952277962720000,4.977719970703125,0.18720558285713196,-0.09977852553129196,0.14000025391578674
1782952277972646700,4.987646728515625,0.14097709953784943,-0.09393954277038574,0.0690336599946022
1782952277982574800,4.997574951171875,0.09752096235752106,-0.09484821557998657,0.014084127731621265
1782952277992501800,5.007501708984375,0.05806276947259903,-0.10531070828437805,-0.017309747636318207
1782952278002428700,5.0174287109375,0.017491642385721207,-0.10459192097187042,-0.03816123306751251
1782952278012356900,5.02735693359375,-0.03629808500409126,-0.08260086923837662,-0.06244713068008423
1782952278022283800,5.03728369140625,-0.10006934404373169,-0.04240791127085686,-0.09569217264652252
1782952278032211000,5.0472109375,-0.17017146944999695,0.026871828362345695,-0.1395304650068283
1782952278042139000,5.057138916015625,-0.23398879170417786,0.11553645133972168,-0.17771805822849274
1782952278052065800,5.067065673828125,-0.28317177295684814,0.2020425796508789,-0.1870950609445572
1782952278061993000,5.076992919921875,-0.3148871064186096,0.2834647297859192,-0.1606658399105072
1782952278071921000,5.0869208984375,-0.32185447216033936,0.3480045795440674,-0.10171064734458923
1782952278081847800,5.096847900390625,-0.3062576651573181,0.3774239718914032,-0.02322409674525261
1782952278091775000,5.10677490234375,-0.2692927122116089,0.3528294265270233,0.059834305197000504
1782952278101701600,5.11670166015625,-0.21264462172985077,0.26376959681510925,0.14590926468372345
1782952278111629800,5.1266298828125,-0.14979295432567596,0.15564285218715668,0.2293383777141571
1782952278121556700,5.136556640625,-0.09209290891885757,0.04585297405719757,0.28953754901885986
1782952278131484000,5.14648388671875,-0.06184925138950348,-0.057467021048069,0.3095623850822449
1782952278141411800,5.156411865234375,-0.06186496466398239,-0.14269429445266724,0.27309200167655945
1782952278151338800,5.1663388671875,-0.08686325699090958,-0.20721736550331116,0.194170281291008
1782952278161266000,5.176265869140625,-0.14111371338367462,-0.2452550232410431,0.09671162813901901
1782952278171193900,5.18619384765625,-0.21618369221687317,-0.26138126850128174,0.0049100699834525585
1782952278181120800,5.196120849609375,-0.290726900100708,-0.2565692067146301,-0.06746639311313629
1782952278191048000,5.2060478515625,-0.35341691970825195,-0.22204264998435974,-0.10477595031261444
1782952278200974800,5.215974853515625,-0.4093816578388214,-0.15215277671813965,-0.09738141298294067
1782952278210903000,5.225903076171875,-0.4440229833126068,-0.06752551347017288,-0.04264945909380913
1782952278220829700,5.23582958984375,-0.4685016870498657,0.00885021686553955,0.044547226279973984
1782952278230756900,5.2457568359375,-0.4893033802509308,0.08807846158742905,0.1371501386165619
1782952278240684800,5.255684814453125,-0.5042548775672913,0.16410905122756958,0.2013663947582245
1782952278250611700,5.26561181640625,-0.533930778503418,0.21946445107460022,0.2459341436624527
1782952278260539000,5.275538818359375,-0.5522450804710388,0.26233628392219543,0.2686951160430908
1782952278270466800,5.285466796875,-0.5546725392341614,0.2705260217189789,0.2865438759326935
1782952278280393700,5.295393798828125,-0.545147180557251,0.2474803626537323,0.28782379627227783
1782952278290321000,5.30532080078125,-0.5316745638847351,0.19900764524936676,0.26605725288391113
1782952278300247800,5.315247802734375,-0.5205430388450623,0.15762370824813843,0.22587360441684723
1782952278310176000,5.325176025390625,-0.5029084086418152,0.11846832185983658,0.16642679274082184
1782952278320103000,5.33510302734375,-0.4831637442111969,0.09362316131591797,0.08679322153329849
1782952278330029800,5.34502978515625,-0.4423976540565491,0.08549066632986069,-0.012782374396920204
1782952278339957800,5.354957763671875,-0.3913904130458832,0.1077435091137886,-0.1391831934452057
1782952278349884700,5.364884765625,-0.33317530155181885,0.15353310108184814,-0.2624902129173279
1782952278359811800,5.374811767578125,-0.2793608009815216,0.1943359225988388,-0.3580699861049652
1782952278369739800,5.38473974609375,-0.24540044367313385,0.231529101729393,-0.42464450001716614
1782952278379666700,5.394666748046875,-0.2515859007835388,0.27562305331230164,-0.4492608904838562
1782952278389593900,5.40459375,-0.30926117300987244,0.3288780152797699,-0.4465671181678772
1782952278399520800,5.414520751953125,-0.3975068926811218,0.34551212191581726,-0.4020334482192993
1782952278409449000,5.424448974609375,-0.4998668134212494,0.2903314232826233,-0.34049898386001587
1782952278419375900,5.4343759765625,-0.575395941734314,0.18263372778892517,-0.27369412779808044
1782952278429303000,5.444302978515625,-0.6255408525466919,0.06491322070360184,-0.22558411955833435
1782952278439231000,5.45423095703125,-0.6543397307395935,-0.04270032420754433,-0.21336154639720917
1782952278449157600,5.46415771484375,-0.685302734375,-0.10931424051523209,-0.2349797487258911
1782952278459084800,5.474084716796875,-0.7135300636291504,-0.127731591463089,-0.2806905210018158
1782952278469012700,5.4840126953125,-0.7247028350830078,-0.09786024689674377,-0.34076982736587524
1782952278478939600,5.493939697265625,-0.7180566787719727,-0.05225042253732681,-0.38986653089523315
1782952278488866800,5.50386669921875,-0.6997636556625366,0.0049095372669398785,-0.4183216094970703
1782952278498793700,5.513793701171875,-0.6722905039787292,0.05950327590107918,-0.41912081837654114
1782952278508722000,5.523721923828125,-0.6380172371864319,0.10132608562707901,-0.3772277235984802
1782952278518648800,5.53364892578125,-0.6069061756134033,0.12690681219100952,-0.2909945547580719
1782952278528576000,5.543575927734375,-0.5757985711097717,0.10661885142326355,-0.1757204234600067
1782952278538504000,5.55350390625,-0.5409830808639526,0.07108163088560104,-0.059357866644859314
1782952278548430800,5.563430908203125,-0.48934707045555115,0.043290216475725174,0.02070208266377449
1782952278558357800,5.573357666015625,-0.4299934506416321,0.02923618257045746,0.07014047354459763
1782952278568286000,5.583285888671875,-0.3711727559566498,0.037518881261348724,0.07273998111486435
1782952278578212900,5.593212890625,-0.3192797303199768,0.05949821323156357,0.03686746954917908
1782952278588139800,5.603139892578125,-0.27560946345329285,0.0828421488404274,-0.03116218000650406
1782952278598066700,5.613066650390625,-0.23464126884937286,0.0962117537856102,-0.13494423031806946
1782952278607995000,5.622994873046875,-0.18456505239009857,0.07712434232234955,-0.2642313838005066
1782952278617921800,5.632921875,-0.14554867148399353,0.029045499861240387,-0.39886990189552307
1782952278627849000,5.642848876953125,-0.1175902783870697,-0.03271932899951935,-0.5117522478103638
1782952278637777000,5.65277685546875,-0.1116410419344902,-0.07443349063396454,-0.5723276734352112
1782952278647703800,5.662703857421875,-0.10303264111280441,-0.09677155315876007,-0.5394323468208313
1782952278657631000,5.672630859375,-0.07811637222766876,-0.06305832415819168,-0.4187631607055664
1782952278667559000,5.682558837890625,-0.05255402252078056,0.03178109973669052,-0.25447914004325867
1782952278677485800,5.69248583984375,-0.012807673774659634,0.18107178807258606,-0.07390884310007095
1782952278687412700,5.702412841796875,0.04622555151581764,0.3196254074573517,0.08208421617746353
1782952278697340700,5.712340576171875,0.11833357065916061,0.4131721258163452,0.185990110039711
1782952278707267800,5.722267822265625,0.19194573163986206,0.42543038725852966,0.2388051152229309
1782952278717195800,5.73219580078125,0.27528509497642517,0.362231969833374,0.24659699201583862
1782952278727122700,5.742122802734375,0.35770541429519653,0.25361868739128113,0.21538715064525604
1782952278737051000,5.75205078125,0.4415470361709595,0.1454773098230362,0.1631505787372589
1782952278746977800,5.761977783203125,0.5183030962944031,0.04987648129463196,0.102754607796669
1782952278756905000,5.771905029296875,0.5819728374481201,-0.008584699593484402,0.041916556656360626
1782952278766833000,5.7818330078125,0.6242539882659912,-0.03888321667909622,-0.0054429685696959496
1782952278776759800,5.791759765625,0.6467577219009399,-0.034152645617723465,-0.039252862334251404
1782952278786686700,5.801686767578125,0.6599177122116089,0.00845713447779417,-0.06265406310558319
1782952278796613600,5.811613525390625,0.6784466505050659,0.08070097118616104,-0.07681088894605637
1782952278806541600,5.82154150390625,0.6806501746177673,0.17468366026878357,-0.05691814422607422
1782952278816468700,5.83146875,0.6645910739898682,0.2551630437374115,-0.02381904609501362
1782952278826395600,5.841395751953125,0.658705472946167,0.2763088345527649,0.03786402568221092
1782952278836323800,5.85132373046875,0.6655029058456421,0.25550952553749084,0.11938871443271637
1782952278846250800,5.861250732421875,0.6850020289421082,0.20445619523525238,0.2050170600414276
1782952278856178000,5.871177978515625,0.7225603461265564,0.11980922520160675,0.26145875453948975
1782952278866105900,5.88110595703125,0.7836889624595642,0.013411679305136204,0.27054521441459656
1782952278876032800,5.89103271484375,0.8510165810585022,-0.09057197719812393,0.24176043272018433
1782952278885960000,5.9009599609375,0.9215599894523621,-0.21391601860523224,0.1867954432964325
1782952278895886600,5.910886474609375,0.9788057208061218,-0.3216131925582886,0.11239338666200638
1782952278905814500,5.920814453125,1.0056540966033936,-0.41153988242149353,0.027122164145112038
1782952278915741700,5.93074169921875,1.0022341012954712,-0.48741307854652405,-0.0655025765299797
1782952278925668600,5.940668701171875,0.9739505052566528,-0.5448774099349976,-0.13210317492485046
1782952278935596800,5.9505966796875,0.9200345277786255,-0.5570406317710876,-0.17092327773571014
1782952278945523700,5.960523681640625,0.8148540258407593,-0.5657477974891663,-0.17979159951210022
1782952278955451000,5.970450927734375,0.7297471165657043,-0.4463452696800232,-0.14033260941505432
1782952278965378800,5.98037890625,0.6746860146522522,-0.3235301375389099,-0.09064122289419174
1782952278975305700,5.9903056640625,0.6071485280990601,-0.21634721755981445,-0.030171483755111694
1782952278985233000,6.00023291015625,0.5345776677131653,-0.120920829474926,0.02539563737809658
1782952278995159800,6.010159912109375,0.46258655190467834,-0.04882000386714935,0.06244500353932381
1782952279005087700,6.020087646484375,0.40503937005996704,-0.01594114862382412,0.07431258261203766
1782952279015014700,6.0300146484375,0.3837258219718933,-0.02877225913107395,0.06971516460180283
1782952279024941600,6.039941650390625,0.40294158458709717,-0.08327464759349823,0.05350849777460098
1782952279034869800,6.049869873046875,0.45026305317878723,-0.1690976768732071,0.0558486171066761
1782952279044796700,6.059796630859375,0.5087399482727051,-0.25542110204696655,0.07515919953584671
1782952279054723800,6.069723876953125,0.5553114414215088,-0.31654226779937744,0.11811518669128418
1782952279064651800,6.07965185546875,0.5896944403648376,-0.3336552083492279,0.17951036989688873
1782952279074578700,6.08957861328125,0.6116937398910522,-0.30805957317352295,0.22589118778705597
1782952279084505900,6.099505859375,0.6140546202659607,-0.26215678453445435,0.3086822032928467
1782952279094432800,6.109432861328125,0.5772737264633179,-0.2294507622718811,0.31613054871559143
1782952279104360700,6.119360595703125,0.5204250812530518,-0.15625405311584473,0.289113312959671
1782952279114287900,6.129287841796875,0.44783157110214233,-0.08705420792102814,0.24259214103221893
1782952279124214500,6.139214599609375,0.3542904257774353,-0.0005608617211692035,0.1999000608921051
1782952279134142700,6.149142822265625,0.24702709913253784,0.11748668551445007,0.1849176585674286
1782952279144069600,6.159069580078125,0.15487612783908844,0.236630380153656,0.16671495139598846
1782952279153996800,6.168996826171875,0.10035057365894318,0.30894479155540466,0.168805792927742
1782952279163924700,6.1789248046875,0.0856722965836525,0.3360949158668518,0.18057723343372345
1782952279173851600,6.1888515625,0.09784001111984253,0.2887130379676819,0.20158691704273224
1782952279183778800,6.19877880859375,0.12854012846946716,0.18501140177249908,0.21824152767658234
1782952279193705700,6.208705810546875,0.1582796573638916,0.033483657985925674,0.22872798144817352
1782952279203633700,6.218633544921875,0.17223088443279266,-0.13976483047008514,0.21985699236392975
1782952279213560800,6.228560791015625,0.15702050924301147,-0.2924659550189972,0.1869238168001175
1782952279223487700,6.23848779296875,0.11330605298280716,-0.37649402022361755,0.1255454123020172
1782952279233416000,6.248416015625,0.03657665476202965,-0.35832086205482483,0.06931222975254059
1782952279243342600,6.258342529296875,-0.06602748483419418,-0.2345200926065445,0.029019134119153023
1782952279253269800,6.268269775390625,-0.1720319539308548,-0.02912912331521511,0.019120164215564728
1782952279263197700,6.27819775390625,-0.26760801672935486,0.17571589350700378,0.03272785246372223
1782952279273124600,6.28812451171875,-0.3277134299278259,0.2920350432395935,0.07181959599256516
1782952279283051800,6.2980517578125,-0.3470498323440552,0.31926748156547546,0.12723438441753387
1782952279292978700,6.307978759765625,-0.32851743698120117,0.2888627052307129,0.1849227100610733
1782952279302906600,6.31790673828125,-0.2965267300605774,0.20934337377548218,0.22162507474422455
1782952279312833800,6.327833740234375,-0.2513667047023773,0.08806727081537247,0.22731225192546844
1782952279322760700,6.3377607421875,-0.2110310196876526,-0.0634428858757019,0.19497455656528473
1782952279332689000,6.34768896484375,-0.195028617978096,-0.2235231101512909,0.12982484698295593
1782952279342615800,6.35761572265625,-0.21453146636486053,-0.3170709013938904,0.06496834754943848
1782952279352542700,6.367542724609375,-0.2601916491985321,-0.323596715927124,0.00301762786693871
1782952279362471000,6.377470947265625,-0.3300383687019348,-0.26821282505989075,-0.03768186643719673
1782952279372397600,6.3873974609375,-0.4027162790298462,-0.16747474670410156,-0.07432616502046585
1782952279382324700,6.39732470703125,-0.467622309923172,-0.04933825507760048,-0.09809035062789917
1782952279392251600,6.407251708984375,-0.5158026218414307,0.02694852650165558,-0.121854268014431
1782952279402179800,6.417179931640625,-0.5453234910964966,0.0557149276137352,-0.12054692208766937
1782952279412106800,6.427106689453125,-0.56178879737854,0.03627198562026024,-0.0985337644815445
1782952279422033700,6.43703369140625,-0.5690152645111084,-0.002447711303830147,-0.06963500380516052
1782952279431961900,6.4469619140625,-0.5717878937721252,-0.04005607217550278,-0.039450470358133316
1782952279441888800,6.456888671875,-0.5760465264320374,-0.07656721025705338,-0.003942809998989105
1782952279451816000,6.46681591796875,-0.5810463428497314,-0.09021085500717163,0.024480309337377548
1782952279461743900,6.476743896484375,-0.5985869765281677,-0.09287507832050323,0.03430258110165596
1782952279471670800,6.4866708984375,-0.6201514005661011,-0.09882404655218124,0.020897025242447853
1782952279481597700,6.49659765625,-0.6400952935218811,-0.1048571765422821,-0.015310512855648994
1782952279491524600,6.506524658203125,-0.6540206670761108,-0.11209698021411896,-0.05384485423564911
1782952279501452800,6.516452880859375,-0.6612037420272827,-0.12287852168083191,-0.09921659529209137
1782952279511379700,6.526379638671875,-0.6647217869758606,-0.12650947272777557,-0.1395869255065918
1782952279521307000,6.536306884765625,-0.6692987084388733,-0.12485431879758835,-0.17482800781726837
1782952279531234800,6.54623486328125,-0.6813353896141052,-0.13190823793411255,-0.209340438246727
1782952279541161700,6.55616162109375,-0.6972683072090149,-0.144094318151474,-0.23783333599567413
1782952279551089000,6.5660888671875,-0.7177261710166931,-0.15821972489356995,-0.25798067450523376
1782952279561016800,6.576016845703125,-0.7351208925247192,-0.16812695562839508,-0.25245141983032227
1782952279570943700,6.58594384765625,-0.7344337701797485,-0.1677147001028061,-0.22401578724384308
1782952279580871000,6.595870849609375,-0.7197163701057434,-0.1663929671049118,-0.18075379729270935
1782952279590797600,6.605797607421875,-0.6904279589653015,-0.16190500557422638,-0.1380460262298584
1782952279600725800,6.615725830078125,-0.6567538976669312,-0.14857083559036255,-0.11345306038856506
1782952279610652700,6.625652587890625,-0.6283091902732849,-0.13409867882728577,-0.11660783737897873
1782952279620579800,6.635579833984375,-0.6162397861480713,-0.11839375644922256,-0.1450301557779312
1782952279630507800,6.6455078125,-0.6271672248840332,-0.09868822991847992,-0.18908444046974182
1782952279640434700,6.6554345703125,-0.6523274779319763,-0.0638791173696518,-0.23594968020915985
1782952279650361900,6.66536181640625,-0.6795678734779358,-0.02726783975958824,-0.2675957679748535
1782952279660289800,6.675289794921875,-0.698232114315033,0.00794607400894165,-0.2801850438117981
1782952279670216700,6.685216796875,-0.7121921181678772,0.044862546026706696,-0.280261754989624
1782952279680144000,6.695143798828125,-0.7136291861534119,0.054540738463401794,-0.27043387293815613
1782952279690070500,6.705070556640625,-0.7052410244941711,0.07103502750396729,-0.2505970597267151
1782952279699999000,6.7149990234375,-0.6831860542297363,0.08816821128129959,-0.21639356017112732
1782952279709925600,6.724925537109375,-0.6471060514450073,0.08444484323263168,-0.18116553127765656
1782952279719853600,6.734853515625,-0.5962647199630737,0.06017119437456131,-0.13868677616119385
1782952279729781500,6.744781494140625,-0.5312218070030212,0.04710359498858452,-0.09017090499401093
1782952279739708700,6.754708740234375,-0.4536660313606262,0.04031333327293396,-0.05800391361117363
1782952279749635600,6.764635498046875,-0.38400837779045105,0.04796433076262474,-0.03587118163704872
1782952279759563800,6.774563720703125,-0.32827427983283997,0.06360054761171341,-0.02961115539073944
1782952279769490400,6.784490478515625,-0.2997579574584961,0.08711439371109009,-0.04218260571360588
1782952279779417600,6.79441748046875,-0.2895854711532593,0.11467331647872925,-0.08069351315498352
1782952279789344500,6.804344482421875,-0.28842592239379883,0.12547403573989868,-0.13740099966526031
1782952279799272400,6.8142724609375,-0.2833808362483978,0.1040092259645462,-0.20562931895256042
1782952279809199600,6.82419970703125,-0.2643301784992218,0.05017155781388283,-0.28032541275024414
1782952279819126500,6.83412646484375,-0.23405857384204865,-0.030528347939252853,-0.345007985830307
1782952279829054700,6.8440546875,-0.19400036334991455,-0.11619691550731659,-0.38995736837387085
1782952279838981600,6.853981689453125,-0.1460685282945633,-0.21019159257411957,-0.39773377776145935
1782952279848908500,6.863908447265625,-0.09899982064962387,-0.2606092095375061,-0.3532150387763977
1782952279858836700,6.873836669921875,-0.049427736550569534,-0.23668017983436584,-0.24106214940547943
1782952279868763600,6.883763671875,0.007002249360084534,-0.15139511227607727,-0.09183111786842346
1782952279878690600,6.893690673828125,0.06948772817850113,-0.03693697974085808,0.03262585401535034
1782952279888617500,6.903617431640625,0.13110396265983582,0.08525311201810837,0.10616371780633926
1782952279898545400,6.91354541015625,0.17836761474609375,0.14428873360157013,0.12673823535442352
1782952279908472600,6.92347265625,0.2039821594953537,0.13947640359401703,0.1038326546549797
1782952279918399500,6.9333994140625,0.20846399664878845,0.09975828230381012,0.05699937045574188
1782952279928327700,6.94332763671875,0.19419318437576294,0.005075452383607626,-0.009355684742331505
1782952279938254600,6.953254638671875,0.16026264429092407,-0.0916454941034317,-0.06713749468326569
1782952279948181500,6.963181396484375,0.12519679963588715,-0.12447561323642731,-0.08645925670862198
1782952279958109700,6.973109619140625,0.09815718978643417,-0.08900550752878189,-0.07120627164840698
1782952279968036600,6.98303662109375,0.1020941436290741,-0.007273092865943909,-0.029832197353243828
1782952279977963800,6.9929638671875,0.14118535816669464,0.08181683719158173,0.035540152341127396
1782952279987890400,7.002890380859375,0.21272212266921997,0.16685183346271515,0.10794617235660553
1782952279997818400,7.012818359375,0.3148990869522095,0.21532030403614044,0.1842997968196869
1782952280007745500,7.02274560546875,0.42486873269081116,0.25300508737564087,0.26220232248306274
1782952280017672400,7.03267236328125,0.5246496796607971,0.26893720030784607,0.32796403765678406
1782952280027600600,7.0426005859375,0.6087554693222046,0.2595066726207733,0.36535319685935974
1782952280037527600,7.052527587890625,0.6858832836151123,0.2229105830192566,0.3971098065376282
1782952280047454700,7.062454833984375,0.7412192225456238,0.17455369234085083,0.422936350107193
1782952280057382700,7.072382568359375,0.7748512625694275,0.11819375306367874,0.4502513110637665
1782952280067309600,7.0823095703125,0.805755078792572,0.040878456085920334,0.46184512972831726
1782952280077236700,7.09223681640625,0.8366280794143677,-0.049615491181612015,0.455965131521225
1782952280087163600,7.10216357421875,0.861119270324707,-0.13897812366485596,0.43667373061180115
1782952280097091600,7.112091552734375,0.8754841089248657,-0.21582657098770142,0.40156713128089905
1782952280107018500,7.1220185546875,0.8795124292373657,-0.2889612317085266,0.3435957133769989
1782952280116945400,7.1319453125,0.8678421378135681,-0.3456876277923584,0.2730131447315216
1782952280126873600,7.14187353515625,0.8295254111289978,-0.3689117133617401,0.19661079347133636
1782952280136800500,7.151800537109375,0.7775586247444153,-0.3836275637149811,0.12923361361026764
1782952280146727700,7.161727783203125,0.7112230062484741,-0.36460113525390625,0.09627780318260193
1782952280156654600,7.171654541015625,0.6374214887619019,-0.2955743968486786,0.1123150885105133
1782952280166582500,7.18158251953125,0.5664991140365601,-0.1720724254846573,0.16296468675136566
1782952280176509700,7.191509765625,0.5060794353485107,-0.031152859330177307,0.22069428861141205
1782952280186436600,7.2014365234375,0.4566868543624878,0.0935848131775856,0.26503005623817444
1782952280196364500,7.211364501953125,0.429217666387558,0.1858108788728714,0.28559818863868713
1782952280206291700,7.221291748046875,0.41392552852630615,0.23542769253253937,0.29195091128349304
1782952280216218400,7.23121826171875,0.4113049805164337,0.22966594994068146,0.28679394721984863
1782952280226146800,7.241146728515625,0.42039889097213745,0.18592911958694458,0.2673531472682953
1782952280236073500,7.251073486328125,0.433395653963089,0.11405227333307266,0.25275421142578125
1782952280246000600,7.261000732421875,0.43694165349006653,0.02387950010597706,0.2218082994222641
1782952280255927600,7.270927490234375,0.44967713952064514,-0.026498185470700264,0.18752647936344147
1782952280265855500,7.28085546875,0.4487285315990448,-0.05915066972374916,0.17326365411281586
1782952280275782700,7.29078271484375,0.43020862340927124,-0.09157625585794449,0.17426741123199463
1782952280285709600,7.30070947265625,0.4029804766178131,-0.0905408188700676,0.17787785828113556
1782952280295637500,7.310637451171875,0.379751056432724,-0.057265155017375946,0.18853209912776947
1782952280305564700,7.320564697265625,0.35484543442726135,-0.01507189404219389,0.18722155690193176
1782952280315491600,7.33049169921875,0.3360712230205536,0.013365873135626316,0.19002853333950043
1782952280325419800,7.340419677734375,0.3194698691368103,0.01859845221042633,0.1930336356163025
1782952280335346700,7.3503466796875,0.31921979784965515,0.002654372714459896,0.20718353986740112
1782952280345273600,7.360273681640625,0.3258713185787201,-0.034279145300388336,0.22732023894786835
1782952280355200500,7.370200439453125,0.3261943459510803,-0.0839308500289917,0.2267836183309555
1782952280365128400,7.38012841796875,0.30823639035224915,-0.13608859479427338,0.21039025485515594
1782952280375055600,7.3900556640625,0.2643488347530365,-0.1750759482383728,0.1807953417301178
1782952280384982500,7.399982421875,0.204725980758667,-0.19758950173854828,0.12759311497211456
1782952280394910500,7.409910400390625,0.13678820431232452,-0.20396165549755096,0.061768826097249985
1782952280404837600,7.419837646484375,0.06181489676237106,-0.16304431855678558,-0.014874553307890892
1782952280414764500,7.4297646484375,-0.01653982885181904,-0.06238321587443352,-0.061580006033182144
1782952280424692700,7.439692626953125,-0.08586616814136505,0.07341376692056656,-0.07179589569568634
1782952280434619600,7.44961962890625,-0.13777969777584076,0.199418306350708,-0.033013876527547836
1782952280444546800,7.459546875,-0.16349944472312927,0.2821778953075409,0.0456756092607975
1782952280454473500,7.469473388671875,-0.15249685943126678,0.3145632743835449,0.1344829797744751
1782952280464401400,7.4794013671875,-0.11648000776767731,0.2859521210193634,0.209468275308609
1782952280474328600,7.48932861328125,-0.06487780064344406,0.21297778189182281,0.25581181049346924
1782952280484255500,7.49925537109375,-0.015295333229005337,0.11196541786193848,0.28218427300453186
1782952280494183400,7.509183349609375,0.008135158568620682,0.011026019230484962,0.2878997027873993
1782952280504110600,7.519110595703125,0.004561728797852993,-0.07220974564552307,0.28132888674736023
1782952280514037500,7.52903759765625,-0.02773522399365902,-0.1210947334766388,0.2674972116947174
1782952280523965700,7.538965576171875,-0.09070140868425369,-0.1274634152650833,0.24309280514717102
1782952280533892600,7.548892578125,-0.16837383806705475,-0.09501146525144577,0.20415472984313965
1782952280543819800,7.55881982421875,-0.2515030801296234,-0.034151844680309296,0.1385893076658249
1782952280553746700,7.56874658203125,-0.3343833088874817,0.05492556467652321,0.05054386705160141
1782952280563674600,7.578674560546875,-0.4089222550392151,0.14402508735656738,-0.04952920228242874
1782952280573601500,7.5886015625,-0.47116219997406006,0.20197732746601105,-0.1320677548646927
1782952280583528400,7.598528564453125,-0.5186929702758789,0.25078853964805603,-0.16685263812541962
1782952280593456400,7.608456298828125,-0.5485576391220093,0.26989513635635376,-0.13851873576641083
1782952280603383600,7.618383544921875,-0.5557356476783752,0.24621270596981049,-0.07316369563341141
1782952280613310500,7.628310546875,-0.5605708956718445,0.19793705642223358,0.012191684916615486
1782952280623237600,7.638237548828125,-0.5591729879379272,0.1514212191104889,0.07890653610229492
1782952280633165600,7.64816552734375,-0.5508754253387451,0.09758088737726212,0.12024997919797897
1782952280643092700,7.6580927734375,-0.5432931184768677,0.048777926713228226,0.1332312971353531
1782952280653019600,7.66801953125,-0.5515398383140564,0.02845853939652443,0.12033866345882416
1782952280662947600,7.677947509765625,-0.5670524835586548,-0.010721886530518532,0.08402859419584274
1782952280672874800,7.687874755859375,-0.5971145629882812,-0.06232516095042229,0.02177986316382885
1782952280682801400,7.697801513671875,-0.6354552507400513,-0.08264028280973434,-0.04307423159480095
1782952280692729600,7.7077294921875,-0.6811535358428955,-0.0912923589348793,-0.11733008921146393
1782952280702656500,7.717656494140625,-0.732674777507782,-0.09380532056093216,-0.1896658092737198
1782952280712583400,7.72758349609375,-0.769131064414978,-0.0976775586605072,-0.25701475143432617
1782952280722510300,7.73751025390625,-0.7999938726425171,-0.10521696507930756,-0.31579098105430603
1782952280732438500,7.7474384765625,-0.8255554437637329,-0.12624342739582062,-0.3445643186569214
1782952280742365400,7.757365478515625,-0.8378341794013977,-0.12994255125522614,-0.3338131308555603
1782952280752292400,7.767292236328125,-0.8384379148483276,-0.1258532702922821,-0.30295056104660034
1782952280762220300,7.77722021484375,-0.8238635063171387,-0.11562326550483704,-0.2732371389865875
1782952280772147500,7.7871474609375,-0.8068518042564392,-0.10092155635356903,-0.2651240825653076
1782952280782074400,7.797074462890625,-0.7809435129165649,-0.08398997783660889,-0.27075186371803284
1782952280792002600,7.80700244140625,-0.7376692295074463,-0.08549599349498749,-0.28887173533439636
1782952280801929500,7.816929443359375,-0.6850345134735107,-0.09377682209014893,-0.32171010971069336
1782952280811856400,7.8268564453125,-0.6344035863876343,-0.08729548752307892,-0.3528675138950348
1782952280821783600,7.836783447265625,-0.5983502268791199,-0.0984373539686203,-0.3832691013813019
1782952280831711500,7.84671142578125,-0.5674583911895752,-0.11962439864873886,-0.38949236273765564
1782952280841638700,7.856638671875,-0.547301173210144,-0.12830950319766998,-0.37469637393951416
1782952280851565300,7.8665654296875,-0.5170700550079346,-0.14259523153305054,-0.3535008132457733
1782952280861493200,7.8764931640625,-0.4750956892967224,-0.15084171295166016,-0.32947295904159546
1782952280871420400,7.88642041015625,-0.4278794229030609,-0.1571965515613556,-0.30246612429618835
1782952280881347300,7.896347412109375,-0.3861818015575409,-0.14256753027439117,-0.2735383212566376
1782952280891274500,7.9062744140625,-0.3459709882736206,-0.11364027857780457,-0.24173539876937866
1782952280901202400,7.916202392578125,-0.3071785867214203,-0.08017606288194656,-0.22473403811454773
1782952280911129600,7.926129638671875,-0.2662372887134552,-0.040586840361356735,-0.20333154499530792
1782952280921056500,7.936056396484375,-0.218247652053833,-0.028839902952313423,-0.182125061750412
1782952280930984400,7.945984375,-0.17076800763607025,0.0031198931392282248,-0.16168716549873352
1782952280940911600,7.95591162109375,-0.11873730272054672,0.04472485929727554,-0.15900909900665283
1782952280950838500,7.965838623046875,-0.07419193536043167,0.07443109154701233,-0.18040865659713745
1782952280960766500,7.975766357421875,-0.03317606449127197,0.06716305762529373,-0.22078751027584076
1782952280970693400,7.985693359375,-0.0024506407789885998,0.030161364004015923,-0.2809714674949646
1782952280980620300,7.995620361328125,0.009002016857266426,-0.032765403389930725,-0.34821975231170654
1782952280990547500,8.00554736328125,0.004737497307360172,-0.09278080612421036,-0.41080403327941895
1782952281000475400,8.015475341796876,-0.00490181427448988,-0.13980929553508759,-0.4599798619747162
1782952281010402600,8.025402587890625,-0.008136755786836147,-0.13576342165470123,-0.47331055998802185
1782952281020329500,8.03532958984375,0.00820839498192072,-0.06599899381399155,-0.42478272318840027
1782952281030257400,8.04525732421875,0.056238505989313126,0.048102546483278275,-0.2859113812446594
1782952281040184600,8.0551845703125,0.12656007707118988,0.1793987900018692,-0.09768261760473251
1782952281050111500,8.065111572265625,0.2159687876701355,0.28688371181488037,0.09129715710878372
1782952281060039400,8.075039306640624,0.31029555201530457,0.31882244348526,0.23348332941532135
1782952281069966600,8.084966552734375,0.39508500695228577,0.2743793725967407,0.30611705780029297
1782952281079893200,8.094893310546874,0.4578935205936432,0.1711999773979187,0.3027670681476593
1782952281089820400,8.1048203125,0.48622530698776245,0.04770307242870331,0.24038384854793549
1782952281099748400,8.114748291015625,0.4978691637516022,-0.056535448879003525,0.14305782318115234
1782952281109675500,8.124675537109376,0.49412503838539124,-0.10094525665044785,0.04396452754735947
1782952281119602400,8.1346025390625,0.4842311143875122,-0.0836179330945015,-0.028133632615208626
1782952281129530400,8.1445302734375,0.4687131643295288,-0.03025777079164982,-0.05192738026380539
1782952281139457500,8.15445751953125,0.4633343517780304,0.05800284817814827,-0.03449299558997154
1782952281149384400,8.164384521484376,0.46552082896232605,0.16976746916770935,0.018574750050902367
1782952281159311600,8.1743115234375,0.47555482387542725,0.26632755994796753,0.08521183580160141
1782952281169239600,8.184239501953124,0.4927692115306854,0.3292519152164459,0.1610189825296402
1782952281179166500,8.19416650390625,0.5409899950027466,0.3210435211658478,0.2249377816915512
1782952281189093400,8.20409326171875,0.604239284992218,0.26652541756629944,0.2635626792907715
1782952281199021300,8.214021240234375,0.6741653680801392,0.19979646801948547,0.2845726013183594
1782952281208948500,8.223948486328124,0.7418328523635864,0.1434706151485443,0.29075247049331665
1782952281218875400,8.23387548828125,0.8002775311470032,0.08826488256454468,0.2914888262748718
1782952281228803300,8.24380322265625,0.8486812710762024,0.03292226418852806,0.2769482433795929
1782952281238730500,8.25373046875,0.8904843330383301,-0.014210627414286137,0.24724601209163666
1782952281248657400,8.263657470703125,0.9137071371078491,-0.03705042973160744,0.22031931579113007
1782952281258584600,8.27358447265625,0.9258064031600952,-0.05354418605566025,0.19708935916423798
1782952281268512500,8.283512451171875,0.9173141121864319,-0.04879923164844513,0.19226664304733276
1782952281278439400,8.293439453125,0.8910939693450928,-0.055989500135183334,0.1872231513261795
1782952281288366600,8.30336669921875,0.852150022983551,-0.06315233558416367,0.18456105887889862
1782952281298294500,8.31329443359375,0.8109397292137146,-0.06416434049606323,0.1797170341014862
1782952281308221400,8.323221435546875,0.7694088220596313,-0.07154156267642975,0.16800259053707123
1782952281318148400,8.3331484375,0.7316179871559143,-0.07870466262102127,0.15309926867485046
1782952281328076300,8.343076171875,0.7001567482948303,-0.08423658460378647,0.13538525998592377
1782952281338003500,8.35300341796875,0.6590428948402405,-0.08038831502199173,0.10888227820396423
1782952281347930400,8.362930419921875,0.6132274866104126,-0.07294424623250961,0.0815688967704773
1782952281357857500,8.372857421875,0.57241290807724,-0.04349501430988312,0.07269124686717987
1782952281367785500,8.382785400390626,0.548499345779419,0.00042290997225791216,0.07218284904956818
1782952281377712400,8.39271240234375,0.523464560508728,0.04063717648386955,0.06063991039991379
1782952281387639600,8.4026396484375,0.5069540143013,0.10111436992883682,0.08328423649072647
1782952281397567500,8.4125673828125,0.47151294350624084,0.13661989569664001,0.1135111153125763
1782952281407494700,8.42249462890625,0.43639275431632996,0.15370699763298035,0.12656725943088531
1782952281417421300,8.43242138671875,0.4146256744861603,0.16771523654460907,0.1404082477092743
1782952281427348500,8.442348388671874,0.41283178329467773,0.14890292286872864,0.16382594406604767
1782952281437276400,8.4522763671875,0.42130008339881897,0.12920992076396942,0.18309418857097626
1782952281447203300,8.462203369140624,0.43803539872169495,0.11717961728572845,0.19469864666461945
1782952281457130500,8.472130615234375,0.4542527198791504,0.10081742703914642,0.20996734499931335
1782952281467058400,8.482058349609375,0.4490100145339966,0.07360897213220596,0.22370445728302002
1782952281476985300,8.4919853515625,0.42729300260543823,0.04788150638341904,0.23469533026218414
1782952281486912500,8.50191259765625,0.38264936208724976,0.01696912944316864,0.23894387483596802
1782952281496840400,8.51184033203125,0.31803175806999207,-0.017600830644369125,0.22195503115653992
1782952281506767600,8.521767578125,0.25065645575523376,-0.061982411891222,0.1724623143672943
1782952281516694500,8.531694580078126,0.1904596984386444,-0.1308072805404663,0.09277281165122986
1782952281526621400,8.541621337890625,0.1302536129951477,-0.19098487496376038,0.003165433183312416
1782952281536549600,8.551549560546874,0.07521645724773407,-0.24035294353961945,-0.0788671150803566
1782952281546476300,8.561476318359375,0.024160197004675865,-0.2591226398944855,-0.1411273032426834
1782952281556403500,8.571403564453124,-0.021631792187690735,-0.21815283596515656,-0.16525126993656158
1782952281566331400,8.581331298828125,-0.06633561104536057,-0.11385652422904968,-0.1456669270992279
1782952281576258300,8.59125830078125,-0.09728740155696869,0.01900991052389145,-0.09000498801469803
1782952281586185500,8.601185546875,-0.1143803745508194,0.12868741154670715,-0.010725081898272038
1782952281596112400,8.6111123046875,-0.1187112033367157,0.1965242475271225,0.054979097098112106
1782952281606040600,8.62104052734375,-0.12318078428506851,0.2020401805639267,0.09119835495948792
1782952281615967500,8.630967529296875,-0.13716824352741241,0.15851427614688873,0.07463669031858444
1782952281625894700,8.640894775390626,-0.14027908444404602,0.07292214035987854,0.026880882680416107
1782952281635822600,8.650822509765625,-0.13176655769348145,-0.038665637373924255,-0.03111264482140541
1782952281645749500,8.66074951171875,-0.1162824034690857,-0.14366476237773895,-0.09302341938018799
1782952281655676400,8.670676513671875,-0.11622807383537292,-0.1961391568183899,-0.14501045644283295
1782952281665604400,8.680604248046874,-0.1361117660999298,-0.18972119688987732,-0.17355979979038239
1782952281675531300,8.69053125,-0.17446768283843994,-0.1236652135848999,-0.16189409792423248
1782952281685458400,8.70045849609375,-0.21323823928833008,-0.055335428565740585,-0.12252724915742874
1782952281695385300,8.71038525390625,-0.253442645072937,0.010676879435777664,-0.06765814125537872
1782952281705313500,8.7203134765625,-0.29578983783721924,0.05691467970609665,-0.03473880514502525
1782952281715240000,8.730239990234375,-0.33551621437072754,0.07201560586690903,-0.02556954137980938
1782952281725167000,8.7401669921875,-0.37463006377220154,0.052627258002758026,-0.038910914212465286
1782952281735095000,8.750094970703126,-0.3966093957424164,0.015806393697857857,-0.06455635279417038
1782952281745022000,8.76002197265625,-0.4171423614025116,-0.023191871121525764,-0.090305395424366
1782952281754948900,8.769948974609376,-0.4271659851074219,-0.05639936029911041,-0.1060665175318718
1782952281764876800,8.779876708984375,-0.4322339594364166,-0.08117394894361496,-0.11792051047086716
1782952281774804000,8.789803955078124,-0.4496510326862335,-0.0821894109249115,-0.12681519985198975
1782952281784731000,8.79973095703125,-0.46918267011642456,-0.08178514242172241,-0.13833124935626984
1782952281794658000,8.809657958984374,-0.48929885029792786,-0.07624123990535736,-0.15446653962135315
1782952281804586000,8.8195859375,-0.5124595761299133,-0.06337977200746536,-0.1698702573776245
1782952281814513000,8.829512939453124,-0.530264139175415,-0.05124481022357941,-0.19416548311710358
1782952281824440000,8.839440185546875,-0.5419809818267822,-0.05373113974928856,-0.21589741110801697
1782952281834368000,8.849367919921875,-0.5480210185050964,-0.060265470296144485,-0.24055029451847076
1782952281844295000,8.859294921875,-0.5575865507125854,-0.0662061870098114,-0.2586834728717804
1782952281854222000,8.86922216796875,-0.5670629143714905,-0.07095300406217575,-0.27168744802474976
1782952281864148700,8.879148681640626,-0.5646799206733704,-0.0646895170211792,-0.27390825748443604
1782952281874077000,8.889076904296875,-0.5565551519393921,-0.04235251620411873,-0.2771887183189392
1782952281884003800,8.89900390625,-0.5515829920768738,-0.012015650048851967,-0.27519482374191284
1782952281893931000,8.908930908203125,-0.5433809757232666,0.039383891969919205,-0.27043601870536804
1782952281903859000,8.91885888671875,-0.5466210246086121,0.09288813173770905,-0.2606438398361206
1782952281913785900,8.928785888671875,-0.5460984706878662,0.12213656306266785,-0.24488964676856995
1782952281923713000,8.938713134765624,-0.5284295082092285,0.12642957270145416,-0.22671890258789062
1782952281933641000,8.948640869140625,-0.5106257200241089,0.11754287779331207,-0.20650683343410492
1782952281943568000,8.95856787109375,-0.49006664752960205,0.09530521184206009,-0.18854621052742004
1782952281953495000,8.9684951171875,-0.46206456422805786,0.067254938185215,-0.16739271581172943
1782952281963422000,8.978421875,-0.4274378716945648,0.04138605669140816,-0.15275412797927856
1782952281973350100,8.98835009765625,-0.37793612480163574,0.020731110125780106,-0.13965536653995514
1782952281983276800,8.99827685546875,-0.33220216631889343,0.01750762015581131,-0.11756338179111481
1782952281993204000,9.008203857421876,-0.2883162200450897,0.02171941101551056,-0.08894877880811691
1782952282003132000,9.0181318359375,-0.24956455826759338,0.05290955305099487,-0.06331079453229904
1782952282013058800,9.028058837890624,-0.22007857263088226,0.0944996103644371,-0.04813077673316002
1782952282022986000,9.037986083984375,-0.19335800409317017,0.13083843886852264,-0.04240737855434418
1782952282032913000,9.047912841796874,-0.17860782146453857,0.15934491157531738,-0.036129243671894073
1782952282042840800,9.0578408203125,-0.16192898154258728,0.1821700781583786,-0.038779351860284805
1782952282052768000,9.06776806640625,-0.14702513813972473,0.20301756262779236,-0.04265505075454712
1782952282062695000,9.07769482421875,-0.1286458671092987,0.20253153145313263,-0.056953828781843185
1782952282072623000,9.087623046875,-0.10312212258577347,0.17095203697681427,-0.07927777618169785
1782952282082550000,9.097550048828126,-0.0805014967918396,0.11486107110977173,-0.12906397879123688
1782952282092477000,9.107476806640625,-0.06290332973003387,0.03951678425073624,-0.19308637082576752
1782952282102405000,9.117405029296876,-0.04463484510779381,-0.03580007702112198,-0.26497095823287964
1782952282112331800,9.127331787109375,-0.03003779426217079,-0.08812613040208817,-0.31142446398735046
1782952282122259000,9.137259033203126,-0.008375109173357487,-0.07423135638237,-0.3134540617465973
1782952282132185900,9.147185791015625,0.0131522873416543,-0.0190205629914999,-0.256503164768219
1782952282142114000,9.157114013671874,0.058237474411726,0.0967358648777008,-0.1316365897655487
1782952282152041000,9.167041015625,0.11995809525251389,0.26123371720314026,0.05036330595612526
1782952282161967900,9.1769677734375,0.19265040755271912,0.3917131721973419,0.23334909975528717
1782952282171896000,9.18689599609375,0.2568400502204895,0.4298690855503082,0.35797226428985596
1782952282181823000,9.196822998046875,0.3142836391925812,0.3992331326007843,0.41015076637268066
1782952282191750100,9.206750244140625,0.3552188277244568,0.2896469831466675,0.3901893198490143
1782952282201676800,9.2166767578125,0.3663952946662903,0.14036722481250763,0.31229186058044434
1782952282211605000,9.22660498046875,0.35885563492774963,0.01218742411583662,0.2106565684080124
1782952282221532000,9.236531982421875,0.33502405881881714,-0.02821832150220871,0.10240280628204346
1782952282231458800,9.246458740234376,0.31021803617477417,-0.01781628094613552,0.025241972878575325
1782952282241387000,9.256386962890625,0.2950771749019623,0.047559529542922974,0.002498843939974904
1782952282251314000,9.26631396484375,0.29953745007514954,0.14459766447544098,0.02852431870996952
1782952282261240800,9.27624072265625,0.31275925040245056,0.23419572412967682,0.08207809180021286
1782952282271169000,9.2861689453125,0.32183822989463806,0.33221736550331116,0.12640880048274994
1782952282281096000,9.296095947265625,0.3246806263923645,0.40461114048957825,0.1307028830051422
1782952282291023000,9.306023193359374,0.34499892592430115,0.4109814167022705,0.09191234409809113
1782952282300950000,9.315949951171875,0.3973793089389801,0.36974263191223145,0.0640689954161644
1782952282310877000,9.325876953125,0.4472329020500183,0.2839081585407257,0.06028730794787407
1782952282320803800,9.335803955078125,0.5095362067222595,0.2512871026992798,0.09699605405330658
1782952282330731000,9.34573095703125,0.5731817483901978,0.23493288457393646,0.13844256103038788
1782952282340659000,9.355658935546876,0.642122209072113,0.19511623680591583,0.1580740511417389
1782952282350585900,9.3655859375,0.7013716697692871,0.1375754326581955,0.17155231535434723
1782952282360513000,9.375512939453126,0.7334979176521301,0.10139879584312439,0.17657876014709473
1782952282370441000,9.38544091796875,0.7515222430229187,0.05931658670306206,0.17142607271671295
1782952282380368000,9.395367919921876,0.7549289464950562,0.017532920464873314,0.15957288444042206
1782952282390295000,9.405294921875,0.7399710416793823,-0.027526965364813805,0.15193253755569458
1782952282400222000,9.415221923828126,0.7138352990150452,-0.08709841966629028,0.13694719970226288
1782952282410150100,9.425150146484375,0.6709411144256592,-0.13871952891349792,0.09384473413228989
1782952282420076800,9.435076904296874,0.6492802500724792,-0.1754503846168518,0.09342236071825027
1782952282430004000,9.44500390625,0.6063762307167053,-0.2112877368927002,0.07000784575939178
1782952282439932000,9.454931884765625,0.5595013499259949,-0.20470814406871796,0.03370922803878784
1782952282449858800,9.46485888671875,0.5288180112838745,-0.181600421667099,0.01444258913397789
1782952282459786000,9.474785888671875,0.4843461811542511,-0.15222229063510895,0.014696388505399227
1782952282469713000,9.484712890625,0.43866685032844543,-0.121527761220932,0.0161811001598835
1782952282479641000,9.49464111328125,0.4046851694583893,-0.07411390542984009,0.022373216226696968
1782952282489568000,9.504568115234376,0.38530081510543823,-0.04053730517625809,0.04739920794963837
1782952282499495000,9.514494873046875,0.37500691413879395,-0.039800409227609634,0.0809696838259697
1782952282509423000,9.524423095703124,0.3741658627986908,-0.07039427012205124,0.11956314742565155
1782952282519350000,9.53435009765625,0.36555081605911255,-0.10782287269830704,0.14381496608257294
1782952282529277000,9.54427685546875,0.3517947793006897,-0.13508644700050354,0.14434413611888885
1782952282539205000,9.554205078125,0.3433009088039398,-0.13763189315795898,0.1323644369840622
1782952282549131800,9.5641318359375,0.3503012955188751,-0.12256160378456116,0.13459695875644684
1782952282559059000,9.574058837890625,0.3727368116378784,-0.08540917187929153,0.1584881842136383
1782952282568985900,9.58398583984375,0.4000028073787689,-0.040759146213531494,0.208572655916214
1782952282578914000,9.5939140625,0.4222857356071472,-0.018094316124916077,0.25637611746788025
1782952282588841000,9.603841064453125,0.4246024191379547,-0.02214578166604042,0.27782735228538513
1782952282598767900,9.613767822265626,0.39957135915756226,-0.052433911710977554,0.27199557423591614
1782952282608696000,9.623696044921875,0.3529908061027527,-0.08445176482200623,0.233827143907547
1782952282618623000,9.633623046875,0.28951916098594666,-0.11525388807058334,0.17496594786643982
1782952282628550100,9.643550048828125,0.21409311890602112,-0.1673128306865692,0.07409659773111343
1782952282638476800,9.653476806640626,0.12568283081054688,-0.23906265199184418,-0.04926368594169617
1782952282648405000,9.663405029296875,0.03122423216700554,-0.29724180698394775,-0.14846697449684143
1782952282658332000,9.673331787109374,-0.05552104860544205,-0.29501965641975403,-0.18178364634513855
1782952282668258800,9.6832587890625,-0.12331634014844894,-0.1975191980600357,-0.1415102630853653
1782952282678187000,9.69318701171875,-0.14794445037841797,-0.014300642535090446,-0.042396724224090576
1782952282688114000,9.703114013671875,-0.13289199769496918,0.21451576054096222,0.08892374485731125
1782952282698041000,9.713041015625,-0.09636275470256805,0.39583760499954224,0.1937689334154129
1782952282707969000,9.722968994140626,-0.05752667412161827,0.5019733905792236,0.24088984727859497
1782952282717897500,9.7328974609375,-0.04627162590622902,0.5225161910057068,0.22625550627708435
1782952282727824400,9.742824462890624,-0.05733519420027733,0.4405611455440521,0.16842016577720642
1782952282737751600,9.75275146484375,-0.07122837007045746,0.29345211386680603,0.09773828089237213
1782952282747679500,9.762679443359374,-0.08615432679653168,0.09673932939767838,0.02798369713127613
1782952282757606400,9.7726064453125,-0.09388121962547302,-0.11374813318252563,-0.044860683381557465
1782952282767533600,9.782533447265624,-0.10139719396829605,-0.28400883078575134,-0.11766351759433746
1782952282777460500,9.79246044921875,-0.1279347985982895,-0.37802159786224365,-0.17933407425880432
1782952282787388700,9.802388671875,-0.1720774918794632,-0.3840413987636566,-0.21462814509868622
1782952282797315600,9.812315673828126,-0.22759267687797546,-0.32934805750846863,-0.2097228616476059
1782952282807242500,9.822242431640625,-0.2850514352321625,-0.2481919676065445,-0.18267127871513367
1782952282817170400,9.83217041015625,-0.3410593271255493,-0.14599183201789856,-0.13455940783023834
1782952282827097300,9.842097412109375,-0.39319175481796265,-0.04940616339445114,-0.08218648284673691
1782952282837024500,9.8520244140625,-0.44708696007728577,0.011901666410267353,-0.04529264569282532
1782952282846952400,9.861952392578125,-0.49725425243377686,0.026207635179162025,-0.02436952106654644
1782952282856879400,9.87187939453125,-0.5431748628616333,0.0015273229219019413,-0.014545919373631477
1782952282866806500,9.881806640625,-0.5886808633804321,-0.026732545346021652,0.0003507383225951344
1782952282876733400,9.8917333984375,-0.6238324046134949,-0.04837525635957718,0.02466406673192978
1782952282886661600,9.90166162109375,-0.6470296382904053,-0.055958341807127,0.05452742427587509
1782952282896588500,9.911588623046875,-0.6597816348075867,-0.03736947476863861,0.08725687116384506
1782952282906515700,9.921515625,-0.6656121015548706,-0.003680488560348749,0.11172253638505936
1782952282916443600,9.931443603515625,-0.6762160062789917,0.019718578085303307,0.12408759444952011
1782952282926370300,9.941370361328126,-0.6782107353210449,0.026549585163593292,0.11672954261302948
1782952282936297500,9.95129736328125,-0.6815993189811707,0.015780027955770493,0.09353794157505035
1782952282946225400,9.961225341796874,-0.6855056285858154,-0.008176171220839024,0.054714642465114594
1782952282956152300,9.97115234375,-0.6939462423324585,-0.038052309304475784,0.0004980111261829734
1782952282966079500,9.98107958984375,-0.7110956907272339,-0.06847919523715973,-0.06437525898218155
1782952282976006400,9.99100634765625,-0.7344172596931458,-0.09543038159608841,-0.12752173840999603
1782952282985934600,10.0009345703125,-0.7668066024780273,-0.09794999659061432,-0.1805274337530136
1782952282995861500,10.010861572265625,-0.7872394919395447,-0.07996034622192383,-0.22807098925113678
1782952283005788700,10.02078857421875,-0.801123321056366,-0.029321670532226562,-0.2553254961967468
1782952283015716600,10.030716552734376,-0.8101950883865356,0.01667245291173458,-0.2559353709220886
1782952283025643500,10.0406435546875,-0.8196157813072205,0.06864217668771744,-0.23126091063022614
1782952283035570400,10.0505703125,-0.8377013206481934,0.12207051366567612,-0.18991507589817047
1782952283045497300,10.060497314453125,-0.844749391078949,0.1879296898841858,-0.14758706092834473
1782952283055425300,10.07042529296875,-0.8403423428535461,0.24780526757240295,-0.13288961350917816
1782952283065352400,10.0803525390625,-0.8299278020858765,0.2826322317123413,-0.1505461037158966
1782952283075279400,10.090279296875,-0.7988154292106628,0.2749985456466675,-0.18496586382389069
1782952283085207600,10.10020751953125,-0.7423819899559021,0.21492162346839905,-0.2302348017692566
1782952283095134500,10.110134521484374,-0.6834675073623657,0.13359081745147705,-0.2585844099521637
1782952283105061600,10.1200615234375,-0.6197628378868103,0.04970044270157814,-0.2537134885787964
1782952283114988500,10.129988525390624,-0.5622335076332092,-0.018547052517533302,-0.2172124832868576
1782952283124916500,10.13991650390625,-0.5074033141136169,-0.04590224474668503,-0.16662387549877167
1782952283134843600,10.14984375,-0.46971556544303894,-0.0309256911277771,-0.11710691452026367
1782952283144770300,10.159770263671875,-0.4373975694179535,0.01967144012451172,-0.06830182671546936
1782952283154698500,10.169698486328125,-0.40576401352882385,0.07164675742387772,-0.03199921175837517
1782952283164625400,10.17962548828125,-0.3758348822593689,0.10372213274240494,-0.009110940620303154
1782952283174552300,10.18955224609375,-0.35030820965766907,0.12865757942199707,0.012556804344058037
1782952283184480500,10.19948046875,-0.31931859254837036,0.140579491853714,0.02787104621529579
1782952283194407400,10.209407470703125,-0.28558433055877686,0.1409781575202942,0.041795384138822556
1782952283204334600,10.21933447265625,-0.2342684268951416,0.1381770521402359,0.06560617685317993
1782952283214261500,10.229261474609375,-0.16982312500476837,0.14887496829032898,0.07611287385225296
1782952283224189400,10.239189453125,-0.10584467649459839,0.14579714834690094,0.06272570043802261
1782952283234116600,10.24911669921875,-0.04759468138217926,0.12253310531377792,0.022041918709874153
1782952283244043500,10.25904345703125,-0.004628307651728392,0.07290589809417725,-0.0373135507106781
1782952283253971500,10.268971435546876,0.02509709820151329,0.0030887341126799583,-0.10838239639997482
1782952283263898600,10.278898681640625,0.04962081462144852,-0.05973710119724274,-0.16908036172389984
1782952283273825300,10.2888251953125,0.06891701370477676,-0.0894494578242302,-0.19251379370689392
1782952283283752400,10.29875244140625,0.09701736271381378,-0.10188428312540054,-0.17551323771476746
1782952283293680400,10.308680419921876,0.1276056319475174,-0.05862363055348396,-0.11173052340745926
1782952283303607600,10.318607666015625,0.16196413338184357,0.043229762464761734,-0.018724685534834862
1782952283313534500,10.328534423828126,0.21175245940685272,0.1704910397529602,0.07233251631259918
1782952283323462400,10.33846240234375,0.2732533812522888,0.26361751556396484,0.1396535038948059
1782952283333389600,10.3483896484375,0.3473704755306244,0.293118953704834,0.17622216045856476
1782952283343316500,10.35831640625,0.41737592220306396,0.25408419966697693,0.1837621033191681
1782952283353244400,10.368244384765624,0.4738687574863434,0.1796531230211258,0.1755417287349701
1782952283363171600,10.378171630859375,0.5113783478736877,0.07647879421710968,0.1515442579984665
1782952283373098500,10.388098388671875,0.5419202446937561,-0.012318984605371952,0.13134390115737915
1782952283383025400,10.398025390625,0.5565905570983887,-0.04147101193666458,0.1179540678858757
1782952283392953300,10.407953369140625,0.5648428797721863,-0.02761431783437729,0.1218249723315239
1782952283402880500,10.417880615234376,0.5617938041687012,0.030549386516213417,0.13700658082962036
1782952283412807400,10.427807373046875,0.5608025789260864,0.09602293372154236,0.1552678793668747
1782952283422735400,10.4377353515625,0.5631107687950134,0.14073927700519562,0.1581677943468094
1782952283432662500,10.44766259765625,0.581520140171051,0.1523999273777008,0.15151548385620117
1782952283442589400,10.45758935546875,0.6047543287277222,0.12421862035989761,0.1456882208585739
1782952283452516600,10.4675166015625,0.6331995725631714,0.053704239428043365,0.13510695099830627
1782952283462444500,10.477444580078124,0.6612634062767029,-0.055931974202394485,0.1308640092611313
1782952283472371500,10.487371337890625,0.6965372562408447,-0.1768306940793991,0.14510206878185272
1782952283482298600,10.497298583984374,0.7210103869438171,-0.2868591845035553,0.17078985273838043
1782952283492226600,10.5072265625,0.7408463954925537,-0.3550824522972107,0.1881459355354309
1782952283502153500,10.517153564453125,0.7438176870346069,-0.38174790143966675,0.17820462584495544
1782952283512080400,10.527080322265626,0.7225244045257568,-0.3914545774459839,0.13941621780395508
1782952283522007600,10.537007568359375,0.6735349893569946,-0.38827982544898987,0.0805630162358284
1782952283531935500,10.546935546875,0.5997606515884399,-0.3656570613384247,0.018811771646142006
1782952283541862400,10.5568623046875,0.50799161195755,-0.3205796182155609,-0.018931079655885696
1782952283551789600,10.56678955078125,0.4099089503288269,-0.2549886107444763,-0.02316044643521309
1782952283561717500,10.576717529296875,0.3340680003166199,-0.18660902976989746,-0.029385052621364594
1782952283571644700,10.586644775390624,0.31684693694114685,-0.1161218136548996,0.041010018438100815
1782952283581571600,10.596571533203125,0.30265653133392334,-0.06485569477081299,0.08233188837766647
1782952283591499500,10.60649951171875,0.3248177766799927,-0.011004447937011719,0.11918764561414719
1782952283601426700,10.6164267578125,0.35394662618637085,0.012082229368388653,0.13468724489212036
1782952283611353300,10.626353271484374,0.3574846386909485,-0.0049039446748793125,0.12853986024856567
1782952283621280500,10.636280517578125,0.34207770228385925,-0.057817492634058,0.11415320634841919
1782952283631208400,10.64620849609375,0.3228006958961487,-0.12303084880113602,0.10495970398187637
1782952283641135400,10.65613525390625,0.29830998182296753,-0.19609494507312775,0.1157258003950119
1782952283651062500,10.6660625,0.2716924846172333,-0.26015621423721313,0.12303803861141205
1782952283660990500,10.675990478515626,0.2561036944389343,-0.2794220447540283,0.13642734289169312
1782952283670917600,10.685917724609375,0.25437796115875244,-0.2679899036884308,0.13690458238124847
1782952283680844500,10.695844482421874,0.2664833664894104,-0.23081457614898682,0.13867932558059692
1782952283690771500,10.705771484375,0.29531073570251465,-0.17360347509384155,0.13864150643348694
1782952283700699600,10.71569970703125,0.31311264634132385,-0.11777403950691223,0.14316222071647644
1782952283710626600,10.72562646484375,0.3200853168964386,-0.08254148066043854,0.1465822458267212
1782952283720553700,10.7355537109375,0.29259005188941956,-0.023335682228207588,0.14762860536575317
1782952283730481700,10.745481689453126,0.22624805569648743,0.054002515971660614,0.12079885601997375
1782952283740408600,10.75540869140625,0.12365110218524933,0.012153868563473225,0.08495856821537018
1782952283750335700,10.765335693359376,0.055746085941791534,-0.07714884728193283,0.092033252120018
1782952283760263700,10.775263671875,-0.021101024001836777,-0.1694910228252411,0.10524120181798935
1782952283770190600,10.785190673828126,-0.12309742718935013,-0.3474109470844269,0.10014551132917404
1782952283780117500,10.795117431640625,-0.1947425901889801,-0.5239055752754211,0.07636268436908722
1782952283790044700,10.805044677734376,-0.2532080411911011,-0.6377634406089783,0.034924693405628204
1782952283799972600,10.81497265625,-0.31470707058906555,-0.6948142051696777,-0.02599804475903511
1782952283809899500,10.8248994140625,-0.38865187764167786,-0.6505002379417419,-0.11975862830877304
1782952283819826700,10.83482666015625,-0.44605231285095215,-0.5763189792633057,-0.21369284391403198
1782952283829753600,10.844753662109374,-0.4643751382827759,-0.5020937323570251,-0.2990082800388336
1782952283839681500,10.854681640625,-0.4560551345348358,-0.4348156452178955,-0.35023897886276245
1782952283849608700,10.864608642578125,-0.43530672788619995,-0.305410772562027,-0.33800920844078064
1782952283859535600,10.87453564453125,-0.42171236872673035,-0.0628812313079834,-0.27084293961524963
1782952283869463800,10.8844638671875,-0.41437506675720215,0.16996720433235168,-0.1884697824716568
1782952283879390700,10.894390625,-0.4169868528842926,0.27361583709716797,-0.12608523666858673
1782952283889317600,10.904317626953125,-0.43802714347839355,0.29388540983200073,-0.08981963247060776
1782952283899245800,10.914245849609374,-0.4555049240589142,0.24440787732601166,-0.09802962839603424
1782952283909172500,10.92417236328125,-0.47082558274269104,0.1143803745508194,-0.13830327987670898
1782952283919099600,10.934099609375,-0.46968600153923035,-0.018061025068163872,-0.2036772221326828
1782952283929026600,10.944026611328125,-0.4668785035610199,-0.14925312995910645,-0.2762366533279419
1782952283938954500,10.95395458984375,-0.4686492383480072,-0.2701188325881958,-0.34725624322891235
1782952283948881700,10.963881591796875,-0.4790448844432831,-0.35589125752449036,-0.40930256247520447
1782952283958808600,10.97380859375,-0.5077268481254578,-0.3500770628452301,-0.454506516456604
1782952283968736800,10.98373681640625,-0.554996907711029,-0.3082374632358551,-0.48864397406578064
1782952283978663700,10.99366357421875,-0.6157547831535339,-0.28586477041244507,-0.5110683441162109
1782952283988590600,11.003590576171876,-0.678514838218689,-0.27701136469841003,-0.5220253467559814
1782952283998517500,11.013517578125,-0.7448187470436096,-0.23242951929569244,-0.5085388422012329
1782952284008445700,11.02344580078125,-0.8073215484619141,-0.19489678740501404,-0.4830438792705536
1782952284018372600,11.03337255859375,-0.8724984526634216,-0.20554544031620026,-0.4619857370853424
1782952284028299500,11.043299560546876,-0.9378073811531067,-0.20638486742973328,-0.4387821555137634
1782952284038227500,11.0532275390625,-0.9989359974861145,-0.19800016283988953,-0.43147310614585876
1782952284048154600,11.063154541015624,-1.0538501739501953,-0.26112106442451477,-0.4397329092025757
1782952284058081500,11.07308154296875,-1.1583338975906372,-0.3678022623062134,-0.43684977293014526
1782952284068008700,11.0830087890625,-1.251674771308899,-0.46731898188591003,-0.40616294741630554
1782952284077936600,11.0929365234375,-1.3161704540252686,-0.4926624298095703,-0.3568183183670044
1782952284087863800,11.10286376953125,-1.3341845273971558,-0.4893324077129364,-0.27820977568626404
1782952284097790700,11.112790771484375,-1.2840359210968018,-0.4161657989025116,-0.19550611078739166
1782952284107718700,11.12271875,-1.1937617063522339,-0.26916754245758057,-0.15049868822097778
1782952284117645800,11.132645751953126,-1.0974010229110718,-0.1424628645181656,-0.1576215773820877
1782952284127572500,11.142572509765625,-0.997024416923523,-0.08274521678686142,-0.19947582483291626
1782952284137499600,11.152499755859376,-0.8891703486442566,-0.05841483920812607,-0.25332093238830566
1782952284147427600,11.162427490234375,-0.7893081903457642,-0.02093164622783661,-0.299091100692749
1782952284157354500,11.1723544921875,-0.7082772850990295,0.00768854608759284,-0.3354794681072235
1782952284167281700,11.18228173828125,-0.6524454355239868,-0.015220231376588345,-0.3830150365829468
1782952284177209600,11.192209716796874,-0.6242108941078186,-0.04041799530386925,-0.4157133102416992
1782952284187136800,11.20213671875,-0.5976421236991882,-0.04987461492419243,-0.42748716473579407
1782952284197063700,11.212063720703124,-0.573748767375946,-0.08538520336151123,-0.4284461438655853
1782952284206991600,11.22199169921875,-0.555002748966217,-0.12162843346595764,-0.4393504559993744
1782952284216918800,11.231918701171875,-0.5464561581611633,-0.09877478331327438,-0.457345187664032
1782952284226845700,11.241845703125,-0.5422307848930359,-0.020661601796746254,-0.4882194697856903
1782952284236772600,11.251772705078125,-0.5247263312339783,0.057068876922130585,-0.5080392360687256
1782952284246700500,11.261700439453126,-0.49872270226478577,0.13586701452732086,-0.49284592270851135
1782952284256627500,11.27162744140625,-0.45213791728019714,0.2164635956287384,-0.4637974798679352
1782952284266554600,11.2815546875,-0.4009855091571808,0.23680801689624786,-0.43088027834892273
1782952284276482600,11.291482666015625,-0.34564101696014404,0.1884346306324005,-0.3895765244960785
1782952284286409700,11.30140966796875,-0.2912595272064209,0.13282489776611328,-0.330062597990036
1782952284296336600,11.311336669921875,-0.24899090826511383,0.1266745924949646,-0.24011112749576569
1782952284306263800,11.321263916015624,-0.22360113263130188,0.1535504162311554,-0.14094513654708862
1782952284316191700,11.331191650390625,-0.21040649712085724,0.16864201426506042,-0.057009488344192505
1782952284326118700,11.34111865234375,-0.19549785554409027,0.1748216152191162,0.004661597311496735
1782952284336045800,11.3510458984375,-0.16292287409305573,0.1633596271276474,0.028486767783761024
1782952284345973800,11.360973876953125,-0.11201787739992142,0.15662263333797455,0.01793026365339756
1782952284355900400,11.370900390625,-0.05558949336409569,0.14905047416687012,-0.03140825778245926
1782952284365827600,11.38082763671875,0.0002426139690214768,0.13342197239398956,-0.09245216846466064
1782952284375754500,11.39075439453125,0.05023574084043503,0.10745402425527573,-0.15975797176361084
1782952284385682700,11.4006826171875,0.10340441763401031,0.0675465539097786,-0.21368858218193054
1782952284395609600,11.410609619140626,0.17117814719676971,0.05392421782016754,-0.2589447498321533
1782952284405536800,11.420536865234375,0.2444978952407837,0.14101038873195648,-0.21262039244174957
1782952284415464700,11.430464599609374,0.2717271149158478,0.1680997908115387,-0.09576354175806046
1782952284425391600,11.4403916015625,0.27443021535873413,0.06817053258419037,-0.033779535442590714
1782952284435318800,11.45031884765625,0.30683451890945435,0.14270202815532684,0.012232963927090168
1782952284445246700,11.460246826171876,0.3639654219150543,0.27497485280036926,0.05204429104924202
1782952284455173600,11.470173583984375,0.41057127714157104,0.3345603942871094,0.053402505815029144
1782952284465100500,11.4801005859375,0.42100289463996887,0.3632863163948059,0.07122331112623215
1782952284475027500,11.49002734375,0.3894401788711548,0.3345348536968231,0.10873207449913025
1782952284484955600,11.49995556640625,0.3338826298713684,0.20742934942245483,0.1522478610277176
