time,seconds_elapsed,z,y,x
1782969973223999200,0.077999267578125,0.000483050593174994,-0.0008249632082879543,-0.0003906167112290859
1782969973233925000,0.087925048828125,-0.0032823928631842136,-0.0002555791288614273,0.0032850783318281174
1782969973243852000,0.09785205078125,-0.00022706459276378155,-0.00031798798590898514,0.0008181175217032433
1782969973253778200,0.107778076171875,-0.00015755608910694718,-0.0005472861230373383,-0.0013611471513286233
1782969973263704300,0.117704345703125,-0.0002006918512051925,-0.0022560337092727423,0.001954822801053524
1782969973273631000,0.127630859375,0.0011894782073795795,-0.0017132814973592758,-0.0018028973136097193
1782969973283557000,0.13755712890625,0.0015975384740158916,-0.0017734954599291086,0.0024099373258650303
1782969973293483300,0.147483154296875,0.0007684964220970869,0.0007940581999719143,-0.001164291170425713
1782969973303410200,0.15741015625,-0.002408828819170594,0.0013808985240757465,-0.0003087407676503062
1782969973313336000,0.167336181640625,0.0008641960448585451,-0.00015414739027619362,-0.003005457576364279
1782969973323263200,0.17726318359375,0.0007914288435131311,0.0018160445615649223,-0.0004338354920037091
1782969973333189400,0.187189453125,-0.0008144573075696826,-0.0005637560971081257,-0.0027585087809711695
1782969973343115000,0.197114990234375,-0.0004659799742512405,0.00030166609212756157,-0.0002782783703878522
1782969973353042200,0.207042236328125,0.0013412411790341139,0.001495561096817255,-0.001119570923037827
1782969973362968300,0.21696826171875,0.0022617068607360125,-0.000284719280898571,-0.00011124380398541689
1782969973372894000,0.22689404296875,0.0021317447535693645,-0.0016194959171116352,0.00089676259085536
1782969973382821000,0.236821044921875,0.0014577304245904088,-0.0011341562494635582,0.002994235372170806
1782969973392747300,0.246747314453125,-0.001823550439439714,-0.0001629013568162918,-0.0013752131490036845
1782969973402674000,0.256673828125,0.002700203564018011,0.0012490577064454556,0.0010772912064567208
1782969973412600000,0.26660009765625,0.00030655425507575274,0.0006471830420196056,0.00038593460340052843
1782969973422526200,0.276526123046875,0.0007580267265439034,0.0005408050492405891,0.0021436959505081177
1782969973432453000,0.286453125,0.00007465960516128689,0.00039832573384046555,0.0008936078520491719
1782969973442379000,0.29637890625,0.0014115461381152272,-0.0013409012462943792,-0.0004865381633862853
1782969973452305200,0.30630517578125,0.0008288464741781354,0.00034701032564044,0.0005478336242958903
1782969973462232000,0.316232177734375,0.002128278836607933,-0.0006919666193425655,0.001337036956101656
1782969973472158000,0.326157958984375,-0.0011846936540678144,0.0018841088749468327,0.00013595132622867823
1782969973482084900,0.3360849609375,0.0009663813398219645,-0.0020078271627426147,0.0011591402580961585
1782969973492011000,0.346010986328125,-0.0004118045326322317,0.0009767776355147362,0.0008374302415177226
1782969973501937200,0.355937255859375,-0.002465036464855075,-0.001404663547873497,-0.0015947498613968492
1782969973511864000,0.365864013671875,-0.0020469201263040304,0.0017330730333924294,-0.0008168405620381236
1782969973521790000,0.3757900390625,-0.0011475133942440152,0.0018928442150354385,0.000328797847032547
1782969973531716000,0.385716064453125,-0.0013352662790566683,0.00029761064797639847,-0.00151863694190979
1782969973541643300,0.395643310546875,-0.002544459654018283,0.0006282469257712364,0.0009697597706690431
1782969973551569000,0.40556884765625,0.0027730739675462246,0.0015022964216768742,0.0008965228917077184
1782969973561496000,0.41549609375,-0.0015895224642008543,0.0011816169135272503,0.0011099247494712472
1782969973571422200,0.425422119140625,-0.0013801981694996357,-0.0007704799063503742,0.00102923100348562
1782969973581348000,0.43534814453125,0.0015354517381638288,0.00025988928973674774,0.00031668960582464933
1782969973591275000,0.44527490234375,0.00005153843085281551,0.0005246074870228767,0.0032855814788490534
1782969973601201200,0.455201171875,-0.001555750030092895,0.001247879583388567,0.0007322394521906972
1782969973611127000,0.465126953125,-0.0023903846740722656,0.0009229741990566254,0.0028358702547848225
1782969973621054200,0.47505419921875,-0.00035488532739691436,0.0004146960563957691,0.003205186454579234
1782969973630980000,0.48497998046875,0.0007319507421925664,-0.0003429735079407692,-0.0010332342935726047
1782969973640907000,0.494906982421875,-0.0012437993427738547,0.0005644857883453369,0.001183771644718945
1782969973650833200,0.504833251953125,0.0006755407666787505,0.00001054815948009491,-0.0005001450190320611
1782969973660759000,0.514759033203125,-0.00001046377292368561,0.0019071311689913273,-0.00028905330691486597
1782969973670686000,0.52468603515625,-0.0004743864119518548,0.0005886005237698555,-0.00008292461279779673
1782969973680612000,0.534612060546875,-0.0004957421915605664,0.0002527758479118347,-0.00017669028602540493
1782969973690538200,0.544538330078125,0.00045953370863571763,-0.0001741289161145687,0.0010121449595317245
1782969973700465000,0.55446484375,0.000493512605316937,-0.0006081033498048782,0.0015339787350967526
1782969973710391000,0.56439111328125,0.0027196488808840513,-0.0016491329297423363,0.0021827248856425285
1782969973720318000,0.57431787109375,-0.0010136294877156615,-0.0004872460849583149,0.0007444907678291202
1782969973730244000,0.584244140625,0.0007459210464730859,0.0006057149730622768,-0.0008243772899731994
1782969973740170000,0.594169921875,0.0014246765058487654,0.0006326395086944103,-0.0018393166828900576
1782969973750097200,0.60409716796875,-0.0001846716768341139,0.000952218659222126,0.000694148475304246
1782969973760023000,0.61402294921875,-0.003331610467284918,0.0011947727762162685,-0.000944586587138474
1782969973769949000,0.623948974609375,0.001343568554148078,0.002157771959900856,0.00007540406659245491
1782969973779876000,0.6338759765625,0.0005958862602710724,0.000292167067527771,0.0005360153736546636
1782969973789802000,0.643802001953125,-0.00020519258396234363,0.001612828578799963,-0.0016240745317190886
1782969973799729200,0.653729248046875,0.0006560030742548406,0.002584954258054495,-0.00017674616537988186
1782969973809655000,0.663655029296875,0.0027234151493757963,-0.0015551960095763206,0.001587331760674715
1782969973819581000,0.673580810546875,0.0013459492474794388,0.001839540433138609,0.002184635028243065
1782969973829508000,0.683508056640625,0.00009452984522795305,0.001562571618705988,-0.0010737425182014704
1782969973839434200,0.693434326171875,-0.000885705288965255,-0.002352378563955426,-0.0008263674681074917
1782969973849360000,0.70335986328125,0.002265080576762557,0.0005203732289373875,-0.0004886786337010562
1782969973859287000,0.713287109375,-0.0005464680143631995,-0.0018351695034652948,0.000754079082980752
1782969973869213200,0.723213134765625,-0.0012311667669564486,-0.0003395383246243,-0.0004382182378321886
1782969973879140000,0.73314013671875,0.0011554332450032234,0.00030011776834726334,0.0033315946348011494
1782969973889066000,0.74306591796875,0.00005022143159294501,0.0016277036629617214,-0.0024842163547873497
1782969973898992000,0.7529921875,-0.0023756136652082205,0.0010315836407244205,-0.002665149513632059
1782969973908919000,0.7629189453125,0.0017078111413866282,-0.0004403451457619667,-0.0008818968781270087
1782969973918845200,0.77284521484375,0.0004690102650783956,0.0010811332613229752,-0.0007276851101778448
1782969973928771000,0.78277099609375,-0.00030304008396342397,0.0005623498000204563,0.001579677569679916
1782969973938698000,0.792697998046875,-0.0016998965293169022,-0.00019685691222548485,0.0018573722336441278
1782969973948624100,0.8026240234375,-0.001690042787231505,0.0014375252649188042,0.0013114241883158684
1782969973958551300,0.81255126953125,0.002575814491137862,-0.001048566773533821,0.001076240441761911
1782969973968477000,0.822476806640625,-0.003410439006984234,0.00022815261036157608,-0.0008934334618970752
1782969973978403000,0.832403076171875,0.0005091411876492202,0.0014535943046212196,-0.0008087580790743232
1782969973988330200,0.842330322265625,0.00006812172796344385,-0.0005570920184254646,0.001479696249589324
1782969973998255900,0.852255859375,0.0016041473718360066,-0.00012187100946903229,0.002293976955115795
1782969974008182000,0.86218212890625,0.000632626237347722,-0.00022573396563529968,0.0002958071418106556
1782969974018109200,0.872109130859375,0.0032490980811417103,0.00031778402626514435,0.0018546548672020435
1782969974028035000,0.88203515625,0.001695409882813692,0.0027404618449509144,0.0038190025370568037
1782969974037962000,0.8919619140625,0.0007352455286309123,0.00006388034671545029,-0.0013290727511048317
1782969974047888100,0.90188818359375,-0.0007484015077352524,0.00031075533479452133,0.00024379021488130093
1782969974057814000,0.91181396484375,-0.00026267184875905514,0.0012908456847071648,0.0006412024376913905
1782969974067741200,0.9217412109375,-0.0022355415858328342,-0.0003765593282878399,-0.0030661839991807938
1782969974077667000,0.9316669921875,-0.0008567736949771643,-0.0007304353639483452,-0.0008475570939481258
1782969974087593000,0.941593017578125,0.0009688232094049454,0.001875733956694603,-0.0005098682595416903
1782969974097520000,0.95152001953125,-0.00014962130808271468,-0.00005884328857064247,-0.0007221384439617395
1782969974107446000,0.961446044921875,-0.0009336558869108558,-0.0007185079157352448,0.001784961437806487
1782969974117373000,0.971373046875,0.0010201846016570926,-0.0006935033015906811,-0.0004803463234566152
1782969974127299000,0.981299072265625,-0.0019558980129659176,-0.00048337969928979874,-0.0006071127718314528
1782969974137225200,0.99122509765625,-0.0018137485021725297,-0.00007172813639044762,0.00009679782669991255
1782969974147152000,1.00115185546875,-0.0015061533777043223,0.00019751768559217453,-0.0014065565774217248
1782969974157078000,1.011078125,0.0007588510634377599,0.0006601833738386631,-0.0008058291859924793
1782969974167004200,1.021004150390625,0.0005681687616743147,0.002041298896074295,0.0005401325179263949
1782969974176931000,1.03093115234375,0.00004447721585165709,-0.000850252341479063,0.0012796572409570217
1782969974186857000,1.04085693359375,0.00046126192319206893,0.0013772151432931423,0.00011585594620555639
1782969974196784000,1.0507841796875,-0.0011902276892215014,0.0013813283294439316,0.0005502719432115555
1782969974206710000,1.0607099609375,0.0011216625571250916,0.0005158009007573128,-0.004098009318113327
1782969974216636200,1.07063623046875,0.0007948628626763821,0.0006614355370402336,-0.0014042130205780268
1782969974226563000,1.08056298828125,0.0026468250434845686,0.0001003076322376728,-0.0007493417360819876
1782969974236489000,1.090489013671875,-0.0015111221000552177,0.0009759310632944107,-0.000410198699682951
1782969974246415000,1.1004150390625,-0.0019244446884840727,-0.001908804988488555,0.0007006058003753424
1782969974256342300,1.11034228515625,-0.001639812020584941,0.0010324064642190933,-0.0005789842107333243
1782969974266268000,1.120267822265625,0.000671279092784971,0.001918173860758543,0.0011400862131267786
1782969974276195000,1.130195068359375,-0.0009562631603330374,-0.0020356669556349516,-0.001904063392430544
1782969974286121200,1.140121337890625,0.0016903862124308944,-0.002289998810738325,-0.0009429285419173539
1782969974296046800,1.150046875,-0.0013666949234902859,0.0003375159576535225,-0.0028299414552748203
1782969974305974000,1.15997412109375,-0.001209834823384881,-0.0018606570083647966,0.001120059285312891
1782969974315900200,1.169900146484375,-0.0010895626619458199,-0.0004914691671729088,0.000030436203815042973
1782969974325826000,1.179825927734375,-0.002238183980807662,-0.0016725810710340738,-0.0017464249394834042
1782969974335753000,1.1897529296875,0.0023510404862463474,0.0008912808261811733,-0.0009881907608360052
1782969974345679000,1.19967919921875,0.0019190756138414145,-0.001560691511258483,-0.001571156783029437
1782969974355606000,1.20960595703125,0.0003478878061287105,0.0008246460929512978,-0.00003248825669288635
1782969974365532700,1.21953271484375,-0.0009344242280349135,0.0027588997036218643,0.0008277128217741847
1782969974375458600,1.22945849609375,0.0016394255217164755,0.0005301143974065781,-0.002236700151115656
1782969974385385500,1.239385498046875,0.001736098201945424,0.001325866673141718,0.002879764884710312
1782969974395311600,1.2493115234375,-0.00004252544022165239,-0.0010608031880110502,-0.00027827639132738113
1782969974405237800,1.25923779296875,-0.0008169726934283972,0.0005059344694018364,-0.0006559125613421202
1782969974415164400,1.269164306640625,-0.000794437131844461,-0.0024685149546712637,0.0007089305436238647
1782969974425090600,1.279090576171875,0.0005885424325242639,0.00002340506762266159,0.001028776285238564
1782969974435016700,1.2890166015625,-0.0004435104492586106,0.0029808124527335167,-0.0009296843782067299
1782969974444943600,1.298943603515625,0.002437230898067355,-0.0018991639371961355,0.0021449350751936436
1782969974454869500,1.308869384765625,0.0005976317333988845,0.0009660539217293262,0.0005361932562664151
1782969974464796400,1.31879638671875,-0.00337047828361392,0.0024779303930699825,-0.00033359520602971315
1782969974474722600,1.32872265625,0.0017074281349778175,-0.001814825925976038,0.00039586483035236597
1782969974484648400,1.3386484375,-0.001376778818666935,0.0018065404146909714,0.00037349434569478035
1782969974494575600,1.34857568359375,0.0009945877827703953,0.0002237013541162014,-0.0017825120594352484
1782969974504501500,1.35850146484375,-0.0013226285809651017,0.0005307639949023724,0.001354425447061658
1782969974514427600,1.368427734375,0.00018704039393924177,-0.002126704901456833,0.0018045486649498343
1782969974524354600,1.3783544921875,0.000897305435501039,0.0019860146567225456,-0.0010748610366135836
1782969974534280400,1.388280517578125,-0.0018194072181358933,0.0012570042163133621,-0.0003711930476129055
1782969974544207600,1.39820751953125,0.000458927039289847,0.00005405396223068237,0.0008219031151384115
1782969974554133800,1.4081337890625,-0.0008085566805675626,-0.00001708976924419403,-0.0010232834611088037
1782969974564059400,1.418059326171875,-0.0025539924390614033,-0.0010999308433383703,-0.0017463316908106208
1782969974573986600,1.427986572265625,0.0002668892848305404,0.0013966886326670647,0.0006739309756085277
1782969974583912700,1.43791259765625,-0.002443942241370678,0.0009689847938716412,-0.0028912427369505167
1782969974593838300,1.44783837890625,-0.0007413130369968712,0.0017459276132285595,0.0014440155355259776
1782969974603765500,1.457765625,0.0009439353016205132,-0.0010171020403504372,-0.0002705275546759367
1782969974613691600,1.467691650390625,-0.0008423499530181289,0.00021137762814760208,0.0017773665022104979
1782969974623618600,1.47761865234375,-0.0010854966240003705,0.00041351141408085823,-0.000986195751465857
1782969974633544400,1.48754443359375,0.0006918510771356523,-0.0002979086712002754,0.000048889778554439545
1782969974643470600,1.497470703125,-0.0004429218824952841,0.0020286287181079388,0.00033731013536453247
1782969974653397500,1.5073974609375,0.0023132669739425182,-0.0013091547880321741,0.00001667090691626072
1782969974663323600,1.51732373046875,0.00031056979787535965,-0.002073748270049691,0.0021786249708384275
1782969974673249500,1.52724951171875,0.0013257679529488087,0.0004201056435704231,0.0005863059777766466
1782969974683176400,1.537176513671875,-0.0005645437631756067,0.0019072149880230427,-0.0013069352135062218
1782969974693102600,1.5471025390625,-0.0002688189269974828,0.0015765042044222355,-0.0014355515595525503
1782969974703029800,1.55702978515625,0.0001415742008248344,-0.00013484293594956398,0.001182868261821568
1782969974712955400,1.566955322265625,0.00198181951418519,-0.001511021051555872,0.00007355224806815386
1782969974722881500,1.576881591796875,-0.0004565709095913917,-0.0009088802617043257,-0.0009967721998691559
1782969974732808700,1.58680859375,-0.0013502370566129684,-0.00034890929237008095,-0.0016684402944520116
1782969974742734600,1.596734619140625,0.0016849676612764597,-0.0009888671338558197,0.0000876481644809246
1782969974752660500,1.606660400390625,-0.0019822765607386827,0.0016062725335359573,-0.0012949287192896008
1782969974762587600,1.616587646484375,0.0017232458340004086,0.0007050586864352226,0.0007296063704416156
1782969974772513500,1.626513427734375,0.0013790240045636892,0.001642218790948391,0.0016481404891237617
1782969974782440700,1.636440673828125,0.0005310734850354493,-0.0017005810514092445,0.002896097954362631
1782969974792366600,1.64636669921875,-0.0018189498223364353,-0.0023775205481797457,0.0005090289050713181
1782969974802292500,1.65629248046875,-0.00004848040407523513,0.00030614668503403664,-0.0014957987004891038
1782969974812219600,1.6662197265625,0.00015547077055089176,0.0013162316754460335,0.002338940743356943
1782969974822145500,1.6761455078125,-0.0004658446996472776,0.0013053123839199543,0.0004715322284027934
1782969974832071400,1.686071533203125,-0.0003487046924419701,0.000037789810448884964,-0.0005549013148993254
1782969974841998600,1.69599853515625,-0.0019980003125965595,0.002236495725810528,0.000543918926268816
1782969974851924700,1.7059248046875,0.001164549496024847,-0.0017116775270551443,-0.0014184329193085432
1782969974861851400,1.715851318359375,0.000007938651833683252,0.00017011212185025215,0.0001637510722503066
1782969974871777500,1.725777587890625,0.0007359895971603692,-0.0008589997887611389,0.002089856192469597
1782969974881703700,1.73570361328125,-0.0008121059508994222,-0.0005258382298052311,-0.0015642669750377536
1782969974891630600,1.745630615234375,-0.0008062100969254971,0.0018097953870892525,0.00010259321425110102
1782969974901556500,1.755556396484375,0.0020273933187127113,0.0009685028344392776,0.0018251256551593542
1782969974911482600,1.765482666015625,0.001510153990238905,0.0017153299413621426,0.0001691281795501709
1782969974921409500,1.775409423828125,-0.00034313983633182943,0.002132380846887827,0.001205097883939743
1782969974931335400,1.78533544921875,-0.0009202060755342245,0.0020168330520391464,-0.0010766295017674565
1782969974941261600,1.795261474609375,-0.004410544876009226,-0.0006732260808348656,0.0007297926349565387
1782969974951188500,1.8051884765625,0.0014507565647363663,0.00122841726988554,-0.0002815658808685839
1782969974961114600,1.815114501953125,0.0011759182671085,-0.0003335266374051571,0.0020156768150627613
1782969974971041800,1.825041748046875,-0.0008607234340161085,0.0022537116892635822,0.0006592600839212537
1782969974980967400,1.834967529296875,-0.0003190365096088499,0.00179005553945899,0.00041930924635380507
1782969974990893600,1.8448935546875,0.0017137806862592697,0.00007618637755513191,-0.0016171460738405585
1782969975000820700,1.85482080078125,0.0005190865485928953,0.001141450833529234,-0.0003366982564330101
1782969975010746400,1.864746337890625,-0.000767073011957109,0.0013940413482487202,0.0023433968890458345
1782969975020672500,1.874672607421875,-0.001195575692690909,-0.0001950669102370739,0.0019508469849824905
1782969975030599700,1.884599609375,-0.0003506462089717388,-0.0009579979814589024,0.0022538360208272934
1782969975040525600,1.894525634765625,0.0016025161603465676,-0.00106425816193223,-0.0004790998646058142
1782969975050452500,1.904452392578125,-0.0006304151611402631,-0.00021022558212280273,0.0004439160693436861
1782969975060378600,1.914378662109375,-0.0004961919039487839,-0.0016557893250137568,0.0006583005888387561
1782969975070304500,1.924304443359375,-0.0017560989363119006,0.0006860615685582161,-0.0002552373334765434
1782969975080231700,1.934231689453125,0.0014524775324389338,0.000751841813325882,0.00012319779489189386
1782969975090157600,1.944157470703125,-0.000982185360044241,-0.00012680841609835625,-0.0005383468233048916
1782969975100083700,1.954083740234375,-5.442561814561486e-7,-0.00020057754591107368,0.0005311786662787199
1782969975110010600,1.9640107421875,0.0011733603896573186,0.0019946424290537834,0.0013343304162845016
1782969975119936500,1.9739365234375,0.0005475175566971302,0.0014039534144103527,-0.002543764654546976
1782969975129863400,1.983863525390625,0.00009663969103712589,0.0003093085251748562,0.0012906219344586134
1782969975139789600,1.99378955078125,0.0005475129000842571,-0.0010963079985231161,0.001369185047224164
1782969975149715700,2.0037158203125,-0.0008657872676849365,-0.0007359916344285011,0.0002366729313507676
1782969975159642400,2.013642333984375,-0.0010905580129474401,-0.0004931115545332432,0.0005128426710143685
1782969975169568500,2.023568603515625,-0.0012246803380548954,0.0014547575265169144,-0.0026316267903894186
1782969975179494700,2.03349462890625,-0.0014353364240378141,0.0011333143338561058,0.0012928073992952704
1782969975189421600,2.043421630859375,-0.002411044668406248,-0.0001724683679640293,-0.0006533786072395742
1782969975199347500,2.053347412109375,-0.001547914114780724,-0.00018738210201263428,0.0008185504702851176
1782969975209273600,2.063273681640625,-0.0003471521777100861,0.0008980720303952694,0.0001833393471315503
1782969975219200500,2.073200439453125,-0.0020590322092175484,0.00075133191421628,-0.0026630472857505083
1782969975229126400,2.08312646484375,0.0020025041885674,-0.0020034867338836193,-0.0010403733467683196
1782969975239053600,2.093053466796875,0.0009220596984960139,-0.00017709098756313324,0.000806262600235641
1782969975248979500,2.1029794921875,0.0005859116790816188,-0.0025260387919843197,0.0009457360720261931
1782969975258905600,2.112905517578125,-0.0004585800925269723,0.00027134548872709274,-0.0014015741180628538
1782969975268832500,2.12283251953125,-0.0021569582168012857,-0.0010269605554640293,-0.00007180275861173868
1782969975278758400,2.13275830078125,0.0006841020658612251,-0.000342528335750103,0.00048586318735033274
1782969975288684500,2.1426845703125,-0.0005871617468073964,0.0019427784718573093,-0.0001664877636358142
1782969975298611700,2.15261181640625,0.002523144008591771,0.0003262395039200783,0.0013057076139375567
1782969975308537600,2.16253759765625,-0.0014038104563951492,-0.0005178512074053288,-0.00001700397115200758
1782969975318464500,2.172464599609375,0.0009490923257544637,0.0008717863820493221,0.0012863470474258065
1782969975328390700,2.182390625,0.002494052518159151,0.0035593113861978054,-0.0000614760210737586
1782969975338316800,2.19231689453125,-0.0005193142569623888,-0.001044761622324586,0.002478380687534809
1782969975348243500,2.202243408203125,0.002463412471115589,-0.0004070051945745945,-0.0008286767406389117
1782969975358169600,2.212169677734375,-0.0013499680208042264,-0.0004171249456703663,0.0016419378807768226
1782969975368095700,2.222095703125,0.0008627219358459115,0.0001640678383409977,-0.0008598144631832838
1782969975378022700,2.232022705078125,-0.0006299798260442913,-0.0015970803797245026,-0.0000110650435090065
1782969975387948800,2.24194873046875,-0.00031959006446413696,0.0009445329196751118,0.0013320123543962836
1782969975397875700,2.251875732421875,-0.00041439858614467084,0.0012904773466289043,0.0003517029108479619
1782969975407801600,2.261801513671875,0.0008129471680149436,-0.0006262138485908508,-0.0010878860484808683
1782969975417727700,2.271727783203125,-0.0009844201849773526,0.002355195116251707,-0.002360877115279436
1782969975427654700,2.281654541015625,-0.0008433632319793105,-0.002226397627964616,0.0017495807260274887
1782969975437580500,2.29158056640625,-0.0022364628966897726,-0.0008354284800589085,0.00025261787232011557
1782969975447506700,2.301506591796875,-0.0011556580429896712,-0.0010866743978112936,-0.0024328925646841526
1782969975457433600,2.31143359375,-0.0010741653386503458,0.0017543858848512173,0.0016843543853610754
1782969975467359700,2.32135986328125,-0.0012554579880088568,-0.001127119641751051,-0.0017978119431063533
1782969975477286700,2.33128662109375,-0.0022959548514336348,-0.00046612322330474854,-0.0009258930222131312
1782969975487212500,2.341212646484375,-0.0002857899235095829,0.0012433151714503765,-0.000524697476066649
1782969975497138700,2.351138671875,-0.0009574391297064722,0.000623864121735096,0.0003482867032289505
1782969975507065900,2.36106591796875,-0.0021079285070300102,0.002635206561535597,0.0009745120769366622
1782969975516991500,2.370991455078125,-0.00034385055187158287,-0.0007283659651875496,0.0011835702462121844
1782969975526917600,2.380917724609375,-0.001038962509483099,0.0022916276939213276,-0.0026521249674260616
1782969975536844800,2.3908447265625,-0.0008663897751830518,0.0008396725170314312,-0.00019136432092636824
1782969975546770700,2.400770751953125,-0.0008252800325863063,-0.0016491988208144903,0.001205489388667047
1782969975556696600,2.410696533203125,-0.0012133026029914618,-0.00021322257816791534,0.0023679593577980995
1782969975566623700,2.420623779296875,-0.0010508906561881304,0.0009848647750914097,-0.0013562102103605866
1782969975576550000,2.4305498046875,0.001954752719029784,-0.0020119904074817896,-0.0003623185330070555
1782969975586476800,2.440476806640625,0.0007900948985479772,0.0009021987207233906,-0.0016501222271472216
1782969975596402700,2.450402587890625,-0.0023508372250944376,0.0014265752397477627,-0.00022985844407230616
1782969975606328800,2.460328857421875,0.0016064626397565007,0.0008893022313714027,-0.00046501460019499063
1782969975616255700,2.470255859375,-0.0014111652271822095,-0.00045878998935222626,-0.0007590276072733104
1782969975626181600,2.480181640625,0.001523372484371066,-0.0021252676378935575,-0.00034819997381418943
1782969975636107800,2.490107666015625,0.0027625414077192545,0.0003634565509855747,-0.0011751115089282393
1782969975646034700,2.50003466796875,-0.0004897322505712509,0.001602437812834978,0.0014150767819955945
1782969975655960800,2.5099609375,-0.000981085584498942,0.0010748659260571003,-0.0029636926483362913
1782969975665887500,2.519887451171875,-0.0009701784583739936,-0.0022418908774852753,0.0012076797429472208
1782969975675813600,2.529813720703125,-0.002235712483525276,0.0002095489762723446,-0.0024347256403416395
1782969975685739800,2.53973974609375,-0.00020555710943881422,-0.0003074980340898037,-0.0005813220632262528
1782969975695666700,2.549666748046875,-0.0028340970166027546,-0.0006798082031309605,-0.0011230090167373419
1782969975705592600,2.559592529296875,-0.0004311719676479697,-0.0022080091293901205,-0.0015939198201522231
1782969975715518700,2.569518798828125,0.0010916234459728003,-0.0025763241574168205,0.0009864169405773282
1782969975725445600,2.579445556640625,0.0012812925269827247,0.0026815650053322315,-0.0017998076509684324
1782969975735371500,2.58937158203125,-0.0018492533126845956,-0.0004833359271287918,0.0005421761889010668
1782969975745298700,2.599298583984375,0.0010019945912063122,-0.0009857350960373878,0.0007754132384434342
1782969975755224800,2.609224853515625,0.0004605739959515631,-0.0010496508330106735,-0.0004009049152955413
1782969975765150700,2.619150634765625,0.00013808379299007356,-0.0006413115188479424,-0.00195673736743629
1782969975775077600,2.62907763671875,-0.0007673909422010183,-0.0007489034906029701,0.0002494251821190119
1782969975785003800,2.639003662109375,0.0006472510285675526,0.0006560198962688446,-0.0016478614415973425
1782969975794929700,2.6489296875,0.0015364805003628135,-0.00027022743597626686,0.0012102429755032063
1782969975804856800,2.65885693359375,0.0006806761375628412,-0.0007620509713888168,0.0007109862053766847
1782969975814782700,2.66878271484375,-0.0005254695424810052,0.0005141356959939003,0.0022212648764252663
1782969975824709600,2.678709716796875,-0.0007941472576931119,0.00005766097456216812,0.00022412242833524942
1782969975834635800,2.6886357421875,-0.00039014569483697414,0.0015471670776605606,0.0003559489268809557
1782969975844561700,2.698561767578125,-0.00033225491642951965,-0.004195613320916891,0.001063537667505443
1782969975854488600,2.708488525390625,-0.00226784055121243,0.0018372456543147564,0.0007271805079653859
1782969975864414700,2.718414794921875,0.0010097322519868612,0.002399149816483259,-0.0012804438592866063
1782969975874340900,2.7283408203125,-0.0026095036882907152,0.0005328068509697914,-0.00004154129419475794
1782969975884267800,2.738267822265625,-0.0008727837703190744,0.0007766592316329479,0.0008993215160444379
1782969975894193700,2.748193603515625,-0.000794220541138202,0.000055208802223205566,-0.00038698536809533834
1782969975904119800,2.758119873046875,-0.0010084861423820257,-0.00025765737518668175,-0.0006180028431117535
1782969975914046700,2.768046630859375,-0.00040022021858021617,0.0005820374935865402,0.0006872124504297972
1782969975923972600,2.77797265625,0.0015308179426938295,0.0009770216420292854,-0.0007377059082500637
1782969975933899500,2.7878994140625,-0.00032167695462703705,-0.0006014341488480568,0.0033702203072607517
1782969975943825700,2.79782568359375,0.00026236934354528785,0.0007145218551158905,0.00000319525133818388
1782969975953751800,2.807751708984375,-0.0010681458516046405,-0.002363826148211956,-0.00305358087643981
1782969975963678700,2.8176787109375,0.0010209789033979177,-0.000055231619626283646,0.0010532602900639176
1782969975973604600,2.8276044921875,-0.001271736342459917,0.0008502430282533169,-0.0015888619236648083
1782969975983530800,2.83753076171875,-0.0015322989784181118,-0.0009756535291671753,-0.0009811649797484279
1782969975993458000,2.8474580078125,0.002754857763648033,0.0029929890297353268,-0.00047915917821228504
1782969976003383600,2.857383544921875,0.0009931338718160987,0.0016761384904384613,-0.0009506036876700819
1782969976013310700,2.867310791015625,0.00009351811604574323,-0.0012253753375262022,-0.0010294332168996334
1782969976023236900,2.87723681640625,0.00029575807275250554,-0.002298141596838832,-0.0038201441057026386
1782969976033162500,2.88716259765625,-0.0010794983245432377,0.00010349694639444351,-0.00266939215362072
1782969976043089700,2.897089599609375,-0.0019419544842094183,0.0019436455331742764,0.00019319902639836073
1782969976053015800,2.907015869140625,-0.0003680263471323997,0.0021404530853033066,0.0031586287077516317
1782969976062941700,2.916941650390625,-0.0009417834808118641,0.0001697600819170475,-0.0010780813172459602
1782969976072868600,2.92686865234375,-0.0014222178142517805,0.00021316949278116226,-0.0011300130281597376
1782969976082794800,2.936794677734375,0.0015346331056207418,0.00018155528232455254,0.000637079356238246
1782969976092721700,2.9467216796875,-0.0013759356224909425,0.0004835580475628376,-0.0008790582651272416
1782969976102647800,2.956647705078125,-0.0017030651215463877,0.0007329434156417847,-0.0005266601219773293
1782969976112573700,2.96657373046875,0.0017201622249558568,0.0008935318328440189,-0.002498464658856392
1782969976122500600,2.97650048828125,-0.002259123371914029,0.0008139451965689659,-0.0011759784538298845
1782969976132426800,2.9864267578125,-0.0015595108270645142,0.0011420468799769878,-0.0015115367714315653
1782969976142352600,2.9963525390625,-0.0005598650895990431,0.00046477047726511955,0.0029522611293941736
1782969976152279600,3.006279541015625,-0.0007175242062658072,-0.00014429446309804916,-0.0016150601441040635
1782969976162205700,3.016205810546875,0.0007396104047074914,-0.0020765054505318403,0.0013277535326778889
1782969976172132600,3.026132568359375,0.0001949939178302884,0.001939274836331606,-0.0003894526744261384
1782969976182058500,3.03605859375,-0.0041350326500833035,0.0008167414925992489,0.0027024608571082354
1782969976191984600,3.045984619140625,-0.0011461674002930522,0.0009562913328409195,0.0010736712720245123
1782969976201911800,3.055911865234375,-0.001244591549038887,0.001083957962691784,-0.000797494372818619
1782969976211837700,3.065837646484375,-0.0011364672100171447,0.00054972805082798,0.00036364386323839426
1782969976221763600,3.075763671875,0.0005989056080579758,0.0024397107772529125,0.0007326264167204499
1782969976231690800,3.085690673828125,-0.0012264249380677938,-0.00018270406872034073,-0.0019971136935055256
1782969976241616600,3.09561669921875,-0.0006463074823841453,-0.003293560817837715,-0.0003838206175714731
1782969976251542800,3.105542724609375,-0.001666298252530396,-0.00004237378016114235,0.00011525582522153854
1782969976261469700,3.1154697265625,-0.0009024586761370301,0.001881435513496399,-0.002155478810891509
1782969976271395600,3.1253955078125,0.002432884182780981,-0.0007785297930240631,-0.0009035268449224532
1782969976281322800,3.13532275390625,0.0009854953968897462,0.0007770275697112083,0.0005043557612225413
1782969976291249000,3.145248779296875,-0.0013556894846260548,0.000021488405764102936,-0.0013524001697078347
1782969976301174500,3.155174560546875,0.00042562311864458025,0.0015103057958185673,-0.001790821785107255
1782969976311101700,3.165101806640625,0.0015726465499028563,-0.000013288576155900955,-0.0014587255427613854
1782969976321027800,3.17502783203125,-0.0025982283987104893,-0.002019335748627782,-0.0027134367264807224
1782969976330953500,3.184953369140625,-0.0005241585895419121,0.002374080941081047,-0.0011014253832399845
1782969976340880600,3.194880615234375,0.0009814318036660552,-0.0006845504976809025,-0.0010221737902611494
1782969976350806800,3.204806884765625,-0.001964024268090725,0.0009652776643633842,0.0006966304499655962
1782969976360733700,3.214733642578125,-0.0010247791651636362,0.0008188025094568729,-0.0005977868568152189
1782969976370659300,3.224659423828125,-0.00000771795748732984,-0.0009287637658417225,0.0006437787087634206
1782969976380585500,3.23458544921875,-0.001232207752764225,0.0005706185474991798,-0.000945547129958868
1782969976390512400,3.244512451171875,-0.0008090315386652946,-0.0003114202991127968,0.002242256887257099
1782969976400438500,3.2544384765625,-0.0001919338246807456,-0.00015111546963453293,0.0008553424850106239
1782969976410364400,3.264364501953125,0.0005905028665438294,-0.0017205162439495325,-0.0009116647997871041
1782969976420291300,3.274291259765625,0.001244311686605215,0.00028354255482554436,-0.001482599414885044
1782969976430217500,3.284217529296875,0.00038597488310188055,-0.0009247339330613613,0.0025310504715889692
1782969976440144600,3.29414453125,-0.000351501046679914,-0.00025066547095775604,0.00222395290620625
1782969976450070300,3.3040703125,-0.0002670788671821356,-0.000508992001414299,-0.000911652809008956
1782969976459996400,3.313996337890625,-0.0009029703214764595,0.0008006682619452477,-0.0000016549602150917053
1782969976469923600,3.323923583984375,0.000006765490979887545,0.0015809745527803898,0.0005842404207214713
1782969976479849200,3.33384912109375,-0.0013625845313072205,0.000258580781519413,-0.0008869142038747668
1782969976489775400,3.343775390625,0.0017921961843967438,0.0006727022118866444,0.0015562697080895305
1782969976499702500,3.35370263671875,0.0017122495919466019,0.0012065060436725616,0.001910862047225237
1782969976509628400,3.36362841796875,0.002206265926361084,-0.0007615699432790279,-0.00008997076656669378
1782969976519554300,3.37355419921875,0.0009711101884022355,-0.00196163565851748,0.0020465771667659283
1782969976529481500,3.3834814453125,0.00032103259582072496,0.0014988756738603115,-0.00015772134065628052
1782969976539407600,3.39340771484375,0.0004269667260814458,0.0008677085861563683,0.00017966947052627802
1782969976549334500,3.40333447265625,-0.000004199042450636625,0.0018117991276085377,-0.0010650920448824763
1782969976559260400,3.413260498046875,0.0006360132247209549,0.0003383699804544449,-0.0001145761925727129
1782969976569186600,3.4231865234375,-0.00043271336471661925,-0.00027602165937423706,0.00035627069883048534
1782969976579113500,3.433113525390625,0.0017997168470174074,-0.002065240405499935,0.0014988010516390204
1782969976589039400,3.443039306640625,-0.0004397352458909154,-0.0011062361299991608,-0.0008245406788773835
1782969976598965500,3.452965576171875,-0.0012151069240644574,-0.00015862751752138138,0.0005728119285777211
1782969976608892400,3.462892333984375,-0.0001117592619266361,0.0013710921630263329,0.003308410756289959
1782969976618818600,3.472818603515625,-0.0013236587401479483,-0.0006255009211599827,0.0002706844825297594
1782969976628745500,3.482745361328125,0.0001567924045957625,-0.0004819566383957863,0.0004323383327573538
1782969976638671400,3.49267138671875,0.002210935577750206,0.0016087787225842476,0.0013957420596852899
1782969976648597500,3.502597412109375,-0.001873288187198341,-0.0008969898335635662,0.00029053015168756247
1782969976658524400,3.5125244140625,-0.002270457800477743,0.0002518310211598873,-0.0018208837136626244
1782969976668450300,3.5224501953125,-0.00135512906126678,0.0017924695275723934,0.0006444044411182404
1782969976678376400,3.53237646484375,-0.0009657908231019974,-0.00003270665183663368,0.0002866446739062667
1782969976688303400,3.542303466796875,-0.001220389036461711,0.0008141784928739071,-0.0013922121142968535
1782969976698229500,3.5522294921875,-0.001172875054180622,-0.0006439019925892353,0.00031164230313152075
1782969976708156400,3.562156494140625,0.00004179275128990412,-0.0012154162395745516,0.00003946723882108927
1782969976718082300,3.572082275390625,0.0017615857068449259,-0.00008193263784050941,0.0012814238434657454
1782969976728008400,3.582008544921875,-0.0014288811944425106,0.001644594594836235,0.0020489469170570374
1782969976737935600,3.591935546875,-0.000009499985026195645,-0.0010428251698613167,-0.0008585837204009295
1782969976747861500,3.601861572265625,-0.0007930019637569785,0.0003715795464813709,0.0006056221900507808
1782969976757787400,3.611787353515625,-0.0013186796568334103,0.0010318178683519363,0.000775908469222486
1782969976767714600,3.621714599609375,-0.002187669277191162,-0.00018418114632368088,-0.001824402017518878
1782969976777640400,3.631640380859375,0.0009757215157151222,-0.00028180424124002457,-0.0001982907997444272
1782969976787566300,3.64156640625,0.0011642733588814735,-0.0016301628202199936,0.0018520769663155079
1782969976797493500,3.651493408203125,-0.0020363053772598505,-0.0012526074424386024,-0.000055159092880785465
1782969976807419600,3.661419677734375,0.0014580284478142858,0.000458473339676857,-0.000539055559784174
1782969976817346300,3.67134619140625,-0.000005368652637116611,-0.00026346463710069656,-0.0007096969638951123
1782969976827272400,3.6812724609375,-0.0009497256251052022,0.0010113907046616077,-0.00043539132457226515
1782969976837198600,3.691198486328125,-0.001605005469173193,-0.0006701215170323849,-0.0004746135091409087
1782969976847125500,3.70112548828125,-0.0012348261661827564,0.002570413053035736,-0.001427492476068437
1782969976857051400,3.711051513671875,0.0025598665233701468,-0.0014484829735010862,-0.00009507371578365564
1782969976866977500,3.7209775390625,0.0016884802607819438,-0.0013052048161625862,0.0007233157521113753
1782969976876904400,3.730904541015625,-0.0022377371788024902,-0.0021913128439337015,0.0017177697736769915
1782969976886830300,3.740830322265625,0.00048800825607031584,-0.0007707825861871243,0.0013486556708812714
1782969976896757200,3.75075732421875,-0.0024571933317929506,0.001598795410245657,-0.0012852528598159552
1782969976906683400,3.760683349609375,-0.001967171672731638,-0.00004544015973806381,-0.0025768859777599573
1782969976916609500,3.770609619140625,-0.0007025254890322685,0.0001837187446653843,0.0011964748846367002
1782969976926536400,3.780536376953125,0.0004658032557927072,-0.0022983471862971783,-0.0012171481503173709
1782969976936462300,3.79046240234375,-0.0011234940029680729,0.000806703232228756,-0.0023682338651269674
1782969976946388500,3.800388427734375,0.0036560811568051577,-0.00020716199651360512,-0.002833487931638956
1782969976956315400,3.8103154296875,0.00016573964967392385,-0.00011503743007779121,0.002539450768381357
1782969976966241300,3.8202412109375,-0.0011690366081893444,0.000056203920394182205,-0.002235064283013344
1782969976976168400,3.83016845703125,0.0007030267152003944,0.0013926085084676743,0.00022735854145139456
1782969976986094600,3.840094482421875,-0.0008783582597970963,0.0011177700944244862,-0.0010653398931026459
1782969976996020500,3.8500205078125,0.0003571058332454413,-0.0015747372526675463,-0.00041691982187330723
1782969977005947400,3.859947509765625,-0.0013726173201575875,-0.0002242480404675007,0.001064862939529121
1782969977015873500,3.86987353515625,-0.0005135665414854884,0.0015920819714665413,0.0009947490179911256
1782969977025799400,3.87979931640625,0.00037246718420647085,-0.0003096815198659897,0.0015659969067201018
1782969977035726600,3.8897265625,-0.0010822437470778823,0.00002021901309490204,-0.0003461870364844799
1782969977045652500,3.899652587890625,-0.0006939547602087259,0.0008631092496216297,-0.0019456816371530294
1782969977055579400,3.909579345703125,-0.00015343162522185594,0.0006742305122315884,-0.0019668161403387785
1782969977065505500,3.919505615234375,-0.0005145562463440001,-0.0009529609233140945,-0.001849104417487979
1782969977075431400,3.929431396484375,0.0013127506244927645,-0.0007569375447928905,-0.0003233143361285329
1782969977085358300,3.9393583984375,-0.001967198681086302,0.0007991474121809006,0.000001325039193034172
1782969977095284500,3.949284423828125,-0.0005053215427324176,0.00016186106950044632,-0.0025195786729454994
1782969977105210600,3.959210693359375,-0.00015884428285062313,0.0010801185853779316,-0.0007544356631115079
1782969977115137300,3.96913720703125,-0.0020429862197488546,0.0001533105969429016,0.0004393047420307994
1782969977125063400,3.9790634765625,-0.00043869815999642015,-0.00030235620215535164,0.001431065727956593
1782969977134989600,3.988989501953125,0.0011769573902711272,0.0010878369212150574,0.00006073783151805401
1782969977144913400,3.998913330078125,0.0020906878635287285,0.001970674842596054,-0.002375255571678281
1782969977154840600,4.008840576171875,0.0008178657735697925,-0.0010491837747395039,0.0005017947405576706
1782969977164766500,4.018766357421875,0.0016120204236358404,-0.001531748566776514,-0.00007105118129402399
1782969977174693400,4.028693359375,0.000616876408457756,-0.00007970817387104034,-0.001737709972076118
1782969977184619500,4.03861962890625,0.00012871899525634944,-0.00033244211226701736,-0.0003834925591945648
1782969977194545400,4.04854541015625,0.0010670962510630488,0.0006169117987155914,0.0007327798521146178
1782969977204472600,4.05847265625,0.002049802802503109,-0.0001980154775083065,-0.0018550136592239141
1782969977214398500,4.0683984375,-0.0006553452694788575,-0.0002490617334842682,0.0019801859743893147
1782969977224324400,4.078324462890625,-0.0007637359667569399,0.0006745224818587303,-0.001983929192647338
1782969977234251500,4.08825146484375,0.0025339974090456963,-0.0029180848505347967,0.0011620934819802642
1782969977244177400,4.098177490234375,0.001215466414578259,-0.0015220558270812035,0.0020523881539702415
1782969977254104300,4.108104248046875,0.002943342551589012,0.0002812952734529972,-0.0020694821141660213
1782969977264030500,4.118030517578125,0.001166747766546905,-0.0007227165624499321,-0.0003232473973184824
1782969977273956600,4.12795654296875,0.00011266876390436664,0.0014493288472294807,-0.0014440093655139208
1782969977283883300,4.13788330078125,-0.000721965916454792,-0.001928358105942607,0.0003770602634176612
1782969977293809400,4.147809326171875,0.00051161739975214,-0.0007302430458366871,-0.0006617916515097022
1782969977303735600,4.157735595703125,0.0014866006094962358,-0.0009065442718565464,0.00012277555651962757
1782969977313662500,4.167662353515625,0.002809766214340925,-0.0016276028472930193,0.0005071664927527308
1782969977323588400,4.17758837890625,-0.0016523600788787007,0.0006225015968084335,-0.002000465989112854
1782969977333515500,4.187515625,0.0002516599197406322,-0.000519260298460722,0.0019399645971134305
1782969977343441400,4.19744140625,-0.000019183571566827595,-0.00017304951325058937,-0.000203880132175982
1782969977353367300,4.2073671875,-0.0009748166194185615,0.0018330179154872894,-0.001265759114176035
1782969977363294500,4.21729443359375,-0.0009780124528333545,-0.0011720932088792324,0.0001513089518994093
1782969977373219800,4.2272197265625,-0.00028937053866684437,-0.0005582054145634174,-0.00027550780214369297
1782969977383146000,4.23714599609375,-0.000028913374990224838,-0.00010813120752573013,-0.0012078805593773723
1782969977393073200,4.2470732421875,-0.00035495025804266334,0.0015473742969334126,-0.002873531077057123
1782969977402999000,4.2569990234375,0.0018349670572206378,-0.000041999854147434235,-0.0009078519069589674
1782969977412925000,4.266925048828125,-0.0014072175836190581,-0.0021968968212604523,0.0002567676128819585
1782969977422852000,4.27685205078125,0.0004452772263903171,-0.00122138112783432,0.00036702246870845556
1782969977432778200,4.2867783203125,-0.0014232740504667163,-0.00020265579223632812,0.0009271898306906223
1782969977442705200,4.296705078125,-0.0021535127889364958,0.0004924293607473373,0.0003894976107403636
1782969977452631000,4.306631103515625,0.00017555714293848723,-0.000952946487814188,-0.0029964325949549675
1782969977462557200,4.31655712890625,-0.0002255149302072823,-0.000706337857991457,-0.0011378126218914986
1782969977472484000,4.326484130859375,-0.0012634792365133762,-0.0012184251099824905,-0.00017518026288598776
1782969977482410000,4.336409912109375,-0.0013471025740727782,-0.00020429352298378944,0.0005270952824503183
1782969977492336000,4.346336181640625,-0.0007857733871787786,0.001475626602768898,0.0008268994279205799
1782969977502263000,4.356262939453125,-0.0024782123509794474,0.0010354062542319298,0.001071644015610218
1782969977512189200,4.366189208984375,0.0018041612347587943,0.00015869783237576485,-0.001891912193968892
1782969977522115800,4.37611572265625,0.0015895104734227061,0.002459402661770582,0.0015012213261798024
1782969977532042000,4.3860419921875,-0.0028806899208575487,-0.00032725417986512184,-0.003865735372528434
1782969977541968100,4.395968017578125,-0.0005898389499634504,-0.0002351086586713791,-0.0008552981307730079
1782969977551897000,4.40589697265625,0.002655001124367118,-0.0016159436199814081,0.001821857294999063
1782969977561823200,4.4158232421875,0.000042440209654159844,-0.0011893052142113447,-0.0007217277307063341
1782969977571750100,4.425750244140625,0.00015526358038187027,0.0008203350007534027,-0.00007738417480140924
1782969977581676000,4.435676025390625,-0.0002463411074131727,-0.0002539842389523983,0.002172986976802349
1782969977591603000,4.44560302734375,0.002621003892272711,-0.0018342218827456236,0.0013568155700340867
1782969977601529000,4.455529052734375,0.0007863522623665631,-0.0033301194198429585,-0.0005295013543218374
1782969977611455000,4.465455078125,-0.00042269250843673944,-0.0028982830699533224,-0.0032581021077930927
1782969977621382000,4.4753818359375,-0.0005185662885196507,0.00038752518594264984,-0.000838087813463062
1782969977631308000,4.48530810546875,0.001076582120731473,-0.00019096443429589272,-0.0005219444865360856
1782969977641234200,4.495234130859375,0.0007791070966050029,0.0005672373808920383,-0.0009682903182692826
1782969977651160800,4.505160888671875,0.0017057096119970083,0.0016381042078137398,0.00017719180323183537
1782969977661087000,4.5150869140625,-0.0035060965456068516,0.0006471420638263226,0.00042646366637200117
1782969977671013000,4.52501318359375,0.0025296148378401995,0.001399500761181116,0.0006748962914571166
1782969977680940000,4.53493994140625,-0.00019240210531279445,0.00008230144158005714,-0.0011317922035232186
1782969977690866000,4.544865966796875,-0.0010545956902205944,0.00048141181468963623,-0.0009959901217371225
1782969977700793000,4.55479296875,0.0011779321357607841,-0.0032118598464876413,-0.0015752277104184031
1782969977710719200,4.56471923828125,0.000002724496880546212,-0.0012531985994428396,-0.001914459397085011
1782969977720644900,4.574644775390625,-0.0015743995318189263,0.0007636132650077343,-0.0021746503189206123
1782969977730572000,4.584572021484375,0.000793689105194062,0.001143024768680334,-0.0009263367974199355
1782969977740498200,4.594498291015625,0.00007330399239435792,-0.0010729911737143993,0.0007370737148448825
1782969977750424000,4.604424072265625,-0.0021981990430504084,0.0024332422763109207,-0.0004543659742921591
1782969977760351200,4.614351318359375,-0.0004988359287381172,-0.0001827809028327465,-0.0008338663610629737
1782969977770277000,4.624277099609375,-0.0008760939817875624,-0.0004565184935927391,-0.0020103154238313437
1782969977780204000,4.6342041015625,0.0005942372372373939,-0.0022624079138040543,0.0008824102114886045
1782969977790130200,4.644130126953125,-0.0013760662404820323,0.00007988931611180305,-0.00044313143007457256
1782969977800056000,4.65405615234375,-0.0010141426464542747,-0.0004934892058372498,-0.0017299707978963852
1782969977809983000,4.66398291015625,-0.0007551644230261445,0.0004608742892742157,-0.002456097397953272
1782969977819909000,4.6739091796875,0.000582008739002049,-0.0008757663890719414,0.00024860899429768324
1782969977829835300,4.683835205078125,0.0014263867633417249,0.00016568927094340324,-0.0009062011376954615
1782969977839762000,4.693761962890625,0.0025568983983248472,-0.0006111548282206059,-0.00070539879379794
1782969977849688000,4.70368798828125,0.0012065500486642122,0.0003259149380028248,0.0011638946598395705
1782969977859615000,4.713614990234375,-0.0008350291172973812,-0.0005691731348633766,-0.0006486527272500098
1782969977869541000,4.723541015625,0.00023632112424820662,-0.0006501139141619205,-0.0008634967380203307
1782969977879467000,4.733467041015625,0.0006824005977250636,-0.0029889019206166267,0.0002257361775264144
1782969977889394000,4.743393798828125,-0.0022516371682286263,0.0011665336787700653,-0.000737118418328464
1782969977899320000,4.753320068359375,0.0003002036828547716,-0.002314750337973237,-0.0006540277972817421
1782969977909246000,4.763245849609375,-0.0004388504312373698,-0.001509541179984808,0.001925138640217483
1782969977919173000,4.773173095703125,0.001999273430556059,0.00118531147018075,0.001943248207680881
1782969977929099000,4.78309912109375,0.0006927634822204709,-0.0021385180298238993,-0.0016643712297081947
1782969977939025200,4.793025146484375,0.0001963502581929788,-0.0013829793315380812,-0.0008017733925953507
1782969977948952000,4.8029521484375,-0.0010794649133458734,-0.0008573289960622787,-0.0022652612533420324
1782969977958878000,4.8128779296875,0.0013626537984237075,-0.0013191213365644217,-0.0013483349466696382
1782969977968805000,4.82280517578125,-0.0010368379298597574,0.00012507103383541107,0.003310456871986389
1782969977978731300,4.832731201171875,0.0027523075696080923,0.0016515948809683323,0.0006331808399409056
1782969977988657000,4.842656982421875,-0.0012834570370614529,-0.0012274438049644232,0.0007304046303033829
1782969977998584000,4.852583984375,-0.0012099537998437881,0.0007976237684488297,-0.0007673571235500276
1782969978008510200,4.86251025390625,0.0019566863775253296,-0.0011425148695707321,-0.00042914156801998615
1782969978018435800,4.872435791015625,-0.00023136682284530252,-0.0000823107548058033,-0.0006232860032469034
1782969978028363000,4.882363037109375,0.0008430418674834073,-0.0017006404232233763,-0.0008399604121223092
1782969978038289200,4.8922890625,-0.000615571450907737,-0.0009746626019477844,-0.004056792706251144
1782969978048216000,4.902216064453125,0.001956017455086112,0.0005008717998862267,-0.0006263506948016584
1782969978058142000,4.912141845703125,-0.0019939830526709557,-0.0005902252160012722,-0.00046363152796402574
1782969978068068000,4.922068115234375,0.00040615646867081523,-0.0013135201297700405,-0.0025949408300220966
1782969978077995000,4.9319951171875,-0.001960328547284007,-0.0012512020766735077,0.0011915413197129965
1782969978087921200,4.941921142578125,0.0018425291636958718,-0.0016305611934512854,0.0007006546948105097
1782969978097847000,4.951846923828125,-0.00006242995732463896,-0.0011479966342449188,0.0013488680124282837
1782969978107774000,4.96177392578125,-0.0002453038759995252,0.0010498631745576859,-0.0010038893669843674
1782969978117700000,4.9717001953125,0.000708906736690551,0.0011231000535190105,0.0005415431223809719
1782969978127627000,4.981626953125,-0.0004899764899164438,-0.0006520943716168404,-0.0011850193841382861
1782969978137553000,4.991552978515625,-0.000568007118999958,-0.0014686195645481348,-0.00042229006066918373
1782969978147479000,5.00147900390625,-0.0007679687114432454,-0.0008817478083074093,-0.0019159393850713968
1782969978157406200,5.01140625,-0.001132555422373116,0.00004955986514687538,0.0010699968552216887
1782969978167332000,5.02133203125,0.000704615144059062,0.0005102292634546757,-0.00001775065902620554
1782969978177258000,5.031258056640625,0.0001235134113812819,-0.00025569554418325424,0.0003132802667096257
1782969978187185200,5.04118505859375,0.002647555898874998,0.002393159084022045,-0.0026210565119981766
1782969978197111000,5.051111083984375,0.0037815298419445753,0.0026237890124320984,0.00012199929915368557
1782969978207038200,5.0610380859375,-0.0004915473982691765,0.0011434969492256641,-0.0013032782590016723
1782969978216964000,5.070964111328125,0.0006083381013013422,-0.0013971587177366018,-0.00021111592650413513
1782969978226890000,5.080889892578125,0.0013636690564453602,0.002892634365707636,0.00027391803450882435
1782969978236817200,5.090817138671875,-0.0006827040342614055,0.0003149607218801975,-0.0005750976852141321
1782969978246743000,5.100742919921875,0.0016951353754848242,-0.0009976178407669067,0.0008638568688184023
1782969978256669000,5.1106689453125,0.000445313926320523,-0.002952644368633628,-0.0014075532089918852
1782969978266596000,5.12059619140625,-0.0001415717415511608,0.0012534740380942822,-0.0008233675034716725
1782969978276522200,5.130522216796875,-0.001495256437920034,-0.0015670801512897015,0.0002576095284894109
1782969978286448000,5.1404482421875,0.0010262714931741357,-0.0001245364546775818,0.0025005419738590717
1782969978296375000,5.150375,-0.0024896336253732443,0.0007183542475104332,0.0010629674652591348
1782969978306301200,5.16030126953125,-0.0010650036856532097,0.0002511921338737011,-0.0017098089447245002
1782969978316228000,5.17022802734375,-0.000881511892657727,0.0008607897907495499,0.00006465532351285219
1782969978326154000,5.180154052734375,-0.00021585743525065482,-0.0009716106578707695,-0.0010023772483691573
1782969978336080100,5.190080078125,0.001591097330674529,-0.002016368554905057,0.0001254713861271739
1782969978346007000,5.200007080078125,0.0028165271505713463,-0.0011155018582940102,0.0017070698086172342
1782969978355933000,5.209932861328125,-0.0011779479682445526,-0.0005945875309407711,-0.0017534417565912008
1782969978365859000,5.219859130859375,0.0010527290869504213,-0.0008073309436440468,0.0007652088534086943
1782969978375786200,5.2297861328125,0.00097736157476902,0.000015319790691137314,0.0017071689944714308
1782969978385712400,5.23971240234375,0.001811779453419149,0.00014416268095374107,-0.00029969809111207724
1782969978395639300,5.249639404296875,0.0027169878594577312,0.00004935404285788536,-0.002131686545908451
1782969978405565200,5.259565185546875,0.0015072233509272337,0.0027744672261178493,-0.00009409955237060785
1782969978415491300,5.2694912109375,0.0022880621254444122,-0.0003701932728290558,0.002112595597282052
1782969978425418500,5.27941845703125,0.0005774216842837632,-0.0023712911643087864,-0.0009165371302515268
1782969978435344100,5.28934423828125,-0.0010297959670424461,0.00037309620529413223,-0.0002898953389376402
1782969978445270300,5.299270263671875,-0.0008092215284705162,0.0020556114614009857,0.00019360228907316923
1782969978455197400,5.309197509765625,0.0006291518220677972,0.00025797775015234947,-0.00006046320777386427
1782969978465123300,5.319123291015625,-0.0008474191999994218,0.0017872895114123821,-0.001813689712435007
1782969978475050200,5.32905029296875,-0.0009009487112052739,0.0008285515941679478,-0.0008275212021544576
1782969978484976400,5.338976318359375,-0.0017559616826474667,0.0002657114528119564,-0.001779485261067748
1782969978494902300,5.34890234375,-0.0010582134127616882,-0.0014570874627679586,0.0026754504069685936
1782969978504829400,5.358829345703125,0.0038866796530783176,-0.000571755226701498,0.0008612312376499176
1782969978514755300,5.36875537109375,0.002028325805440545,-0.0009214282035827637,0.0006577656604349613
1782969978524681200,5.37868115234375,-0.00015850990894250572,-0.0009507592767477036,-0.0013252469943836331
1782969978534608400,5.3886083984375,0.002233807696029544,-0.000826655887067318,0.002005035988986492
1782969978544534300,5.3985341796875,0.0010355371050536633,0.0008418536745011806,0.000015023048035800457
1782969978554460200,5.408460205078125,0.0009023791062645614,0.0001286589540541172,0.00007281359285116196
1782969978564387300,5.41838720703125,-0.0027465205639600754,0.00041915662586688995,0.0005281526828184724
1782969978574313500,5.4283134765625,-0.0021768701262772083,0.0004926598630845547,-0.00004229636397212744
1782969978584240000,5.438240234375,0.00015527644427493215,-0.0008940631523728371,-0.0007635834626853466
1782969978594166300,5.448166259765625,-0.0008447404834441841,-0.0014314891304820776,-0.0026794616132974625
1782969978604092400,5.458092529296875,0.0014584987657144666,0.0008608773350715637,0.0022460876498371363
1782969978614019300,5.468019287109375,0.001584998914040625,-0.000009177252650260925,-0.0010666183661669493
1782969978623945200,5.4779453125,-0.0012275360058993101,0.0005391919985413551,-0.00005726609379053116
1782969978633871400,5.487871337890625,-0.0008405786938965321,0.001908056903630495,0.002227459568530321
1782969978643798300,5.49779833984375,-0.000001435866579413414,-0.0020573085639625788,0.0031717047095298767
1782969978653724400,5.507724365234375,-0.001229153131134808,-0.0016282731667160988,0.00025634223129600286
1782969978663651300,5.5176513671875,0.0017839197535067797,-0.0030318789649754763,0.002497680950909853
1782969978673577200,5.5275771484375,0.0026611650828272104,-0.002758106216788292,0.0018095200648531318
1782969978683503400,5.53750341796875,0.002233568811789155,0.0005680550821125507,0.0007843259954825044
1782969978693430500,5.547430419921875,-0.0014373324811458588,-0.00018402142450213432,-0.0013219680404290557
1782969978703356200,5.557356201171875,-0.0021211006678640842,-0.0019863774068653584,0.0037892088294029236
1782969978713282300,5.5672822265625,-0.002150395419448614,-0.0009661205112934113,0.001164131099358201
1782969978723209500,5.57720947265625,-0.002941534388810396,0.000008466187864542007,-0.002893144730478525
1782969978733135000,5.587135009765625,0.0003991347912233323,-0.0002868780866265297,-0.0018060423899441957
1782969978743062300,5.597062255859375,0.001342375879175961,-0.00017735781148076057,0.0013198882807046175
1782969978752988400,5.606988525390625,-0.0024395789951086044,-0.00020558713003993034,0.002487950725480914
1782969978762914300,5.616914306640625,0.0013954667374491692,-0.00023175310343503952,0.0012904297327622771
1782969978772841200,5.62684130859375,-0.0008192179957404733,-0.0001806207001209259,0.00034846970811486244
1782969978782767400,5.636767333984375,-0.0008882125839591026,0.000024782028049230576,-0.002453605877235532
1782969978792693500,5.646693603515625,-0.00028500656480900943,-0.0000737551599740982,0.00021008774638175964
1782969978802620400,5.656620361328125,0.00032784853829070926,-0.0009770328179001808,0.0012388083850964904
1782969978812546300,5.66654638671875,-0.00047216503298841417,-0.0013509404379874468,-0.0028161206282675266
1782969978822472400,5.676472412109375,-0.0022622980177402496,-0.001166751841083169,-0.0016466251108795404
1782969978832399400,5.6863994140625,-0.0001421554188709706,-0.0017055091448128223,0.0012029573554173112
1782969978842325200,5.6963251953125,-0.0016122526722028852,0.0010871728882193565,0.0003580296179279685
1782969978852252200,5.706252197265625,0.001018417882733047,-0.0002611852250993252,0.0005851972382515669
1782969978862178300,5.71617822265625,-0.0017453262116760015,-0.0009724600240588188,-0.00015406368765980005
1782969978872104400,5.7261044921875,-0.002807128708809614,-0.0008305138908326626,-0.0010568753350526094
1782969978882031000,5.736031005859375,-0.00013766915071755648,0.0014187083579599857,0.00012305844575166702
1782969978891957200,5.745957275390625,-0.0012399515835568309,0.00041283247992396355,0.0006759307580068707
1782969978901883400,5.75588330078125,0.0009136275039054453,-0.0004667057655751705,0.001957794651389122
1782969978911810300,5.765810302734375,0.0016153703909367323,-0.0019042801577597857,0.0011862767860293388
1782969978921736200,5.775736083984375,0.0004203268908895552,0.0004142182879149914,0.0011556270765140653
1782969978931663400,5.785663330078125,0.00247868406586349,0.00021314946934580803,0.0008674730779603124
1782969978941589200,5.79558935546875,0.00209775660187006,0.00028191693127155304,0.0023859618231654167
1782969978951515100,5.80551513671875,0.0005840158555656672,-0.000555913895368576,0.00017047813162207603
1782969978961442300,5.8154423828125,-0.00029121831175871193,0.0005277171730995178,-0.000683847873006016
1782969978971368200,5.8253681640625,0.0010028115939348936,0.0003663296811282635,-0.0013507034163922071
1782969978981294300,5.83529443359375,0.0016469002002850175,0.0016603916883468628,0.001033904729411006
1782969978991221500,5.845221435546875,-0.000829573255032301,0.00044918619096279144,-0.0008750490960665047
1782969979001147400,5.8551474609375,-0.002560064196586609,0.0004585767164826393,0.0008019582601264119
1782969979011073300,5.8650732421875,0.002695684088394046,0.00037548597902059555,-0.0007386804791167378
1782969979021000400,5.87500048828125,-0.000007708673365414143,0.0003661448135972023,-0.0006392138311639428
1782969979030926300,5.88492626953125,-0.002496432512998581,-0.0009832791984081268,-0.002177988179028034
1782969979040853200,5.894853271484375,-0.002128387801349163,-0.001910277409479022,-0.0006755091599188745
1782969979050779400,5.904779296875,0.0002167916391044855,0.0006815111264586449,0.0015349145978689194
1782969979060705500,5.91470556640625,-0.0009328904561698437,0.0027072150260210037,0.0008725652005523443
1782969979070632200,5.924632080078125,0.0005643386975862086,-0.00005022203549742699,-0.0028816931881010532
1782969979080558300,5.934558349609375,0.0026630754582583904,0.001621232833713293,-0.001573627581819892
1782969979090484500,5.944484375,-0.001363357761874795,-0.001151916803792119,0.0025920888874679804
1782969979100411400,5.954411376953125,-0.0021285205148160458,-0.0007410813122987747,-0.0009676739573478699
1782969979110337300,5.964337158203125,0.0007381059695035219,0.001982533372938633,-0.0016329315258190036
1782969979120264200,5.97426416015625,-0.0014803274534642696,0.00039146561175584793,0.00287311477586627
1782969979130190300,5.9841904296875,-0.00021479325369000435,-0.0010386519134044647,0.0012754842173308134
1782969979140116200,5.9941162109375,0.0013068737462162971,-0.002308678114786744,-0.0003082113107666373
1782969979150043100,6.004043212890625,-0.0008606731425970793,-0.001662595197558403,0.0011003344552591443
1782969979159969300,6.01396923828125,-0.00022226560395210981,-0.0007898062467575073,0.0019325183238834143
1782969979169895400,6.0238955078125,0.001565248123370111,-0.00019831815734505653,0.0028880606405436993
1782969979179822000,6.033822021484375,-0.0007310832152143121,-0.00024833017960190773,0.00014017161447554827
1782969979189748200,6.043748291015625,0.0019480567425489426,0.0006323768757283688,-0.00005929917097091675
1782969979199675400,6.05367529296875,0.0013719280250370502,-0.0005468032322824001,-0.001626691548153758
1782969979209601300,6.063601318359375,-0.000901079794857651,0.0014020982198417187,0.00036189076490700245
1782969979219527200,6.073527099609375,-0.0003677241620607674,0.0029495605267584324,0.003242100588977337
1782969979229454300,6.083454345703125,0.0008812983869574964,-0.0005245329812169075,-0.00022267200984060764
1782969979239380500,6.09338037109375,-0.00040586109389550984,-0.00010613631457090378,-0.0000792844220995903
1782969979249306000,6.10330615234375,0.0012527556391432881,0.0016520828939974308,0.00045601092278957367
1782969979259233300,6.1132333984375,-0.002299991436302662,-0.0002445210702717304,0.001268761116079986
1782969979269159400,6.123159423828125,-0.0005660072201862931,0.0010519055649638176,0.0000631482107564807
1782969979279085300,6.133085205078125,0.0016308488557115197,-0.00024442654103040695,0.0011139338603243232
1782969979289012500,6.143012451171875,-0.001554558053612709,0.0015180534683167934,0.0008268450619652867
1782969979298938400,6.1529384765625,0.0017452617175877094,-0.00044771749526262283,0.0002487099263817072
1782969979308865300,6.162865234375,-0.0011959332041442394,0.0008436492644250393,-0.001964643131941557
1782969979318791400,6.17279150390625,0.0017691156826913357,-0.0003599608317017555,-0.0011161036090925336
1782969979328717300,6.18271728515625,-0.0012090974487364292,0.0012174295261502266,0.0006663501262664795
1782969979338644200,6.192644287109375,0.0016944736707955599,-0.0019213065970689058,0.00031813071109354496
1782969979348570400,6.2025703125,0.0013602470280602574,-0.0013069151900708675,-0.0011655163252726197
1782969979358496500,6.21249658203125,0.001430424745194614,-0.0008751437999308109,0.0004187846789136529
1782969979368423200,6.222423095703125,0.0004469193809200078,-0.000300699844956398,0.003107245545834303
1782969979378348500,6.2323486328125,0.0019168774597346783,0.001518181525170803,0.0004930195864289999
1782969979388275700,6.242275634765625,-0.0009092690306715667,-0.0004943693056702614,0.0001534665934741497
1782969979398201300,6.252201416015625,0.0009119126480072737,0.00037663569673895836,-0.0029672812670469284
1782969979408127500,6.26212744140625,-0.0017981199780479074,0.0014336439780890942,-0.00030252221040427685
1782969979418054700,6.2720546875,0.0009877834236249328,0.00001239171251654625,0.0023518477100878954
1782969979427980500,6.28198046875,-0.0009664441458880901,-0.00017056753858923912,0.0005717909662052989
1782969979437906400,6.291906494140625,0.001670708181336522,-0.0008381153456866741,0.0020686578936874866
1782969979447833600,6.30183349609375,0.002399082761257887,-0.004421931225806475,-0.0004099460784345865
1782969979457759700,6.311759765625,0.0004050231946166605,0.0009753350168466568,-0.001370696583762765
1782969979467686700,6.321686767578125,-0.0019175196066498756,0.00143153453245759,0.0003260032972320914
1782969979477612500,6.331612548828125,-0.0001778703590389341,0.0010713785886764526,0.0012351830955594778
1782969979487538700,6.34153857421875,-0.0009344745194539428,0.00044100871309638023,0.00224185804836452
1782969979497465600,6.351465576171875,0.0015323219122365117,-0.0023256682325154543,0.0019109059358015656
1782969979507391500,6.3613916015625,0.0006814418593421578,0.0005161911249160767,0.0015947887441143394
1782969979517317600,6.371317626953125,-0.001232619397342205,0.0005565350875258446,0.0013195163337513804
1782969979527244500,6.38124462890625,-0.0008754895534366369,-0.0005518728867173195,0.0009967413498088717
1782969979537170700,6.391170654296875,-0.0006745340069755912,-0.0032610883936285973,-0.0015219190390780568
1782969979547096600,6.4010966796875,-0.0026617846451699734,0.0004795873537659645,-0.00013041740749031305
1782969979557023500,6.4110234375,-0.0017550502670928836,0.0007721949368715286,-0.00023798842448741198
1782969979566949600,6.42094970703125,0.0017904160777106881,0.001459556631743908,0.0005918525857850909
1782969979576876500,6.43087646484375,-0.0010922595392912626,-0.001217229524627328,-0.0009986902587115765
1782969979586802400,6.440802490234375,0.0013618433149531484,-0.0009442553855478764,0.001939575420692563
1782969979596728600,6.450728515625,-0.0006381499115377665,0.0009056469425559044,0.0003374135121703148
1782969979606655500,6.460655517578125,0.0006414989475160837,-0.0009082318283617496,-0.0012791252229362726
1782969979616581600,6.47058154296875,-0.0005371926818042994,0.0013074935413897038,-0.0002780138747766614
1782969979626507500,6.480507568359375,-0.00045170527300797403,-0.00030105607584118843,0.0008053600322455168
1782969979636434400,6.490434326171875,0.00003793550422415137,0.002802767790853977,-0.0005364534445106983
1782969979646360600,6.500360595703125,0.0003117084561381489,-0.0012758634984493256,-0.0022379469592124224
1782969979656287700,6.510287841796875,0.0015763705596327782,0.0013100747019052505,0.0003760744584724307
1782969979666213600,6.520213623046875,0.0018072666134685278,-0.0008492167107760906,-0.0028340998105704784
1782969979676139500,6.530139404296875,-0.0003215824253857136,0.0018263552337884903,-0.0005018048686906695
1782969979686066700,6.540066650390625,-0.0008406324777752161,-0.000010692980140447617,0.000713928253389895
1782969979695992600,6.54999267578125,0.00033098028507083654,0.0008190544322133064,0.0003206083783879876
1782969979705918500,6.55991845703125,-0.0010496024042367935,-0.0018137465231120586,-0.0008168276981450617
1782969979715845600,6.569845703125,-0.0008418887155130506,0.0000722026452422142,-0.0010565980337560177
1782969979725771800,6.579771728515625,-0.0009540077298879623,0.0017984635196626186,-0.0006936091813258827
1782969979735698400,6.589698486328125,0.0017789005069062114,-0.0027840491384267807,-0.0012818648247048259
1782969979745624600,6.59962451171875,0.0007586434949189425,-0.0007762918248772621,-0.0017796095926314592
1782969979755550700,6.60955078125,-0.0012755978386849165,-0.0009315777570009232,0.00032157800160348415
1782969979765477600,6.6194775390625,-0.0011925072176381946,0.001190429087728262,-0.00028775318060070276
1782969979775403500,6.629403564453125,0.0015411055646836758,-0.002235814929008484,-0.0017056557117030025
1782969979785329700,6.63932958984375,0.0008721195044927299,-0.0006730719469487667,0.0006387250032275915
1782969979795256600,6.649256591796875,0.002224140567705035,-0.0001652045175433159,-0.0007472519646398723
1782969979805182500,6.659182373046875,0.0018528959481045604,-0.0008195429109036922,0.0023409496061503887
1782969979815108600,6.669108642578125,0.0008273873245343566,0.0019133775494992733,0.0009847595356404781
1782969979825035500,6.679035400390625,-0.0009505389607511461,-0.0011588449124246836,0.0006081884494051337
1782969979834961700,6.688961669921875,-0.00006581333582289517,-0.0005921437405049801,0.0012080376036465168
1782969979844888600,6.698888671875,-0.0019787619821727276,0.00005154218524694443,-0.0004007779061794281
1782969979854814500,6.708814453125,-0.0011128209298476577,0.0013248561881482601,0.002388262189924717
1782969979864740600,6.71874072265625,0.0018976163119077682,0.0006558699533343315,0.0008460256503894925
1782969979874667500,6.72866748046875,0.000631690607406199,0.001820663921535015,-0.0005467561422847211
1782969979884593400,6.738593505859375,0.0009294319897890091,-0.0008816458284854889,-0.001697241677902639
1782969979894519600,6.74851953125,-0.002830806653946638,0.0022478699684143066,-0.0016337833367288113
1782969979904446700,6.75844677734375,0.0003077286237385124,-0.00014790985733270645,-0.0009530793759040534
1782969979914372600,6.76837255859375,-0.0004418788303155452,0.0010888194665312767,-0.0014869022415950894
1782969979924299500,6.778299560546875,0.0008492217166349292,-0.00272589223459363,0.001828733249567449
1782969979934225700,6.7882255859375,-0.0011090240441262722,0.0013893605209887028,0.00044027273543179035
1782969979944151600,6.798151611328125,0.00046117568854242563,0.0026077567599713802,-0.0029717693105340004
1782969979954078700,6.80807861328125,-0.00011816056212410331,0.00006524426862597466,0.0028542797081172466
1782969979964004600,6.818004638671875,0.00006613018922507763,0.0015278523787856102,-0.0014959941618144512
1782969979973930500,6.827930419921875,-0.0003700164961628616,0.001382316928356886,0.0017109154723584652
1782969979983857700,6.837857666015625,0.0008952512871474028,-0.0008957511745393276,0.000850714510306716
1782969979993783600,6.847783447265625,0.001096474239602685,0.0016742176376283169,-0.0014066662406548858
1782969980003710500,6.85771044921875,-0.003202400403097272,0.0006302585825324059,0.0006527563091367483
1782969980013636600,6.86763671875,-0.00209586089476943,0.0038501559756696224,-0.0006224672542884946
1782969980023562800,6.877562744140625,0.00008739852637518197,0.00005834689363837242,-0.0011716110166162252
1782969980033489400,6.887489501953125,-0.0006364233558997512,0.0006131371483206749,-0.0012286959681659937
1782969980043415600,6.89741552734375,0.0007830415852367878,-0.0012385586742311716,0.0010693457443267107
1782969980053341700,6.907341796875,-0.0008540564449504018,0.002388876862823963,0.0023318373132497072
1782969980063268600,6.9172685546875,0.0006024263566359878,0.00107647106051445,0.003009345382452011
1782969980073194500,6.927194580078125,0.003759377636015415,-0.000389056745916605,0.0010329140350222588
1782969980083120600,6.93712060546875,0.0008474772330373526,0.000602970365434885,-0.0006986733060330153
1782969980093047600,6.947047607421875,0.0013171650934964418,-0.0003069336526095867,-0.0013379245065152645
1782969980102973400,6.956973388671875,0.000198104782612063,0.002676872070878744,-0.0011935812653973699
1782969980112900600,6.966900634765625,0.000038326747016981244,0.0007312274537980556,-0.0003592539578676224
1782969980122826500,6.976826416015625,0.0017398203490301967,-0.0016680143307894468,-0.0004684435552917421
1782969980132752600,6.986752685546875,-0.0002849515585694462,0.0011301031336188316,-0.0025297559332102537
1782969980142679600,6.996679443359375,0.0027939288411289454,0.0022933720611035824,0.001473774085752666
1782969980152605400,7.00660546875,0.00010988609574269503,0.002707206644117832,0.0018970598466694355
1782969980162531600,7.016531494140625,0.0004933812888339162,0.0010677645914256573,-0.0006254863692447543
1782969980172458800,7.026458740234375,-0.0008539339760318398,0.002216753549873829,0.0018227245891466737
1782969980182384400,7.03638427734375,0.0008318470208905637,-0.0003641159273684025,0.0012546723010018468
1782969980192311600,7.0463115234375,-0.0011731457198038697,0.001041843555867672,0.002046805340796709
1782969980202237700,7.05623779296875,-0.004140173085033894,0.0011321245692670345,0.0008039077511057258
1782969980212163300,7.066163330078125,0.0018238055054098368,-0.0009898939169943333,0.0014776031021028757
1782969980222090500,7.076090576171875,-0.00016690735355950892,-0.00024234456941485405,0.00011539633851498365
1782969980232016600,7.0860166015625,0.0007791442913003266,0.001770178321748972,0.0011976194800809026
1782969980241942500,7.095942626953125,-0.0011913286289200187,-0.002783827017992735,-0.0016815238632261753
1782969980251869700,7.10586962890625,0.0016028627287596464,0.00017238548025488853,-0.0017769670812413096
1782969980261795600,7.115795654296875,-0.0015849410556256771,-0.0004582507535815239,-0.00018998945597559214
1782969980271721700,7.1257216796875,0.001541005214676261,-0.00018448429182171822,-0.0018355092033743858
1782969980281648600,7.135648681640625,0.0005404555704444647,0.00015107402577996254,0.0004950230941176414
1782969980291574500,7.145574462890625,-0.0019368692301213741,-0.001328993123024702,-0.0008214379195123911
1782969980301501400,7.15550146484375,0.0007278897101059556,-0.001212080242112279,0.0011860528029501438
1782969980311427600,7.165427490234375,0.0004493804881349206,0.0012063016183674335,-0.0011400145012885332
1782969980321353700,7.175353759765625,-0.0012462541926652193,-0.0003987858071923256,0.002417169976979494
1782969980331280400,7.1852802734375,0.0011919273529201746,-0.00009062699973583221,-0.00016869348473846912
1782969980341206500,7.19520654296875,0.0013423959026113153,-0.0022427274379879236,-0.0019162597600370646
1782969980351132700,7.205132568359375,0.0008904326823540032,-0.0007401015609502792,-0.0004142805119045079
1782969980361059600,7.2150595703125,-0.001725324080325663,-0.0010929703712463379,0.0013679068069905043
1782969980370986000,7.224986083984375,0.000597143080085516,0.00035432400181889534,0.0005776730831712484
1782969980380913000,7.234912841796875,0.0000072528928285464644,-0.0005508842878043652,-0.0007552391034550965
1782969980390839000,7.244839111328125,-0.0012239167699590325,0.0010683122090995312,-0.0006757501396350563
1782969980400765000,7.254764892578125,0.001237642951309681,0.0018347697332501411,0.0010845994111150503
1782969980410692000,7.264692138671875,-0.0005750806303694844,0.0011298381723463535,0.000014207558706402779
1782969980420618000,7.274617919921875,-0.0016406114445999265,-0.001395371276885271,-0.000738135480787605
1782969980430544000,7.2845439453125,-0.0013789315707981586,0.0007333126850426197,-0.0009976413566619158
1782969980440471000,7.294470947265625,0.00036011263728141785,-0.00066351518034935,0.0013547289418056607
1782969980450397000,7.30439697265625,-0.0002959203557111323,-0.00041214702650904655,0.002886081114411354
1782969980460324000,7.314323974609375,0.0013669574400410056,-0.0010398542508482933,0.0007502263179048896
1782969980470250000,7.32425,-0.000430573767516762,0.0014008297584950924,-0.0030153838451951742
1782969980480175900,7.33417578125,-0.0005647970829159021,0.0006655310280621052,-0.0024710337165743113
1782969980490103000,7.34410302734375,0.0015707683051005006,-0.0020406474359333515,0.0006686450215056539
1782969980500029200,7.354029296875,-0.0011629664804786444,0.002349307294934988,0.0012327024014666677
1782969980509954800,7.363954833984375,0.00010150747402803972,0.0002219323068857193,-0.0011293250136077404
1782969980519882000,7.373882080078125,-0.0011461835820227861,0.0005247336812317371,-0.0005602074670605361
1782969980529808100,7.38380810546875,-0.0018172662239521742,-0.0007858891040086746,-0.0035454966127872467
1782969980539733800,7.393733642578125,-0.000036144061596132815,0.0014839228242635727,-0.0005798005149699748
1782969980549661000,7.403660888671875,0.0019505422096699476,0.000829353928565979,0.0021721392404288054
1782969980559587000,7.413587158203125,0.000758777663577348,0.000009899027645587921,-0.0011056793155148625
1782969980569514000,7.423513916015625,0.0014687716029584408,0.0010849088430404663,-0.000473741558380425
1782969980579439900,7.43343994140625,0.0006232179584912956,-0.0007995436899363995,0.0003728773444890976
1782969980589366000,7.443365966796875,0.0006674446631222963,-0.0002737077884376049,0.0011592218652367592
1782969980599293000,7.45329296875,0.00012549138045869768,-0.0017922422848641872,-0.00041710317600518465
1782969980609219000,7.463218994140625,-0.0031108728144317865,-0.0008476194925606251,0.0023774905130267143
1782969980619145000,7.47314501953125,-0.001601126859895885,0.0008687879890203476,-0.0005799498758278787
1782969980629072000,7.48307177734375,-0.0006428253254853189,-0.0020926196593791246,0.0001468186965212226
1782969980638998000,7.492998046875,-0.002307034796103835,-0.0007016505114734173,-0.000827898271381855
1782969980648925200,7.50292529296875,0.00025687675224617124,0.000023782718926668167,-0.00030457088723778725
1782969980658850800,7.512850830078125,0.001291248481720686,-0.0006883465684950352,0.0013676279922947288
1782969980668777000,7.52277685546875,-0.0008290945552289486,-0.0006885784678161144,0.0007684493903070688
1782969980678704000,7.5327041015625,0.0011693414999172091,0.000054177362471818924,-0.0002984129823744297
1782969980688629800,7.542629638671875,0.0012029301142320037,0.000395952258259058,-0.0018773487536236644
1782969980698556000,7.552555908203125,0.0014290325343608856,0.0003677224740386009,0.0012015317333862185
1782969980708483000,7.562483154296875,-0.003349998500198126,-0.000016250647604465485,-0.0018849086482077837
1782969980718409000,7.572408935546875,0.0006751031614840031,0.0018556853756308556,0.0015404489822685719
1782969980728334800,7.5823349609375,-0.001427641836926341,0.000635812059044838,-0.0004803040064871311
1782969980738262000,7.592261962890625,-0.000019095896277576685,-0.0002353079617023468,-0.0022699483670294285
1782969980748188000,7.60218798828125,0.0015062808524817228,0.0018550786189734936,-0.0009076598798856139
1782969980758115000,7.612114990234375,0.0032064428087323904,-0.0013814610429108143,0.00014801707584410906
1782969980768041000,7.622041015625,-0.0008978761616162956,0.003034669440239668,-0.0012767647858709097
1782969980777967000,7.631967041015625,0.0005993530503474176,-0.0028932609129697084,-0.0007105767726898193
1782969980787894000,7.64189404296875,-0.0018601513002067804,-0.0002400972880423069,0.001896396279335022
1782969980797820200,7.651820068359375,-0.0011237871367484331,0.0029120203107595444,0.0005706747760996222
1782969980807746000,7.66174609375,-0.0015037013217806816,-0.0010886462405323982,0.0013650412438437343
1782969980817673000,7.6716728515625,-0.0005284516955725849,-0.00043856818228960037,0.00003479223232716322
1782969980827599000,7.68159912109375,-0.0015964033082127571,-0.0010598041117191315,-0.0015236620092764497
1782969980837526000,7.691526123046875,-0.001322097727097571,-0.0017905752174556255,-0.0007366979843936861
1782969980847452000,7.701451904296875,-0.00021905777975916862,0.0016721156425774097,-0.0028825635090470314
1782969980857378000,7.7113779296875,-0.002058769343420863,-0.0006166049279272556,0.002265060320496559
1782969980867305000,7.721304931640625,-0.00004691847425419837,-0.000013910699635744095,0.00026182865258306265
1782969980877230800,7.73123095703125,0.0007866509258747101,-0.002473606262356043,0.0016173776239156723
1782969980887157000,7.741156982421875,-0.0009855078533291817,-0.0012167694512754679,-0.0007442450150847435
1782969980897084000,7.751083984375,0.0018390407785773277,-0.00019704503938555717,0.000384668936021626
1782969980907010000,7.761010009765625,-0.0012106747599318624,0.0008687344379723072,-0.0016263775760307908
1782969980916936000,7.77093603515625,-0.00009374503861181438,-0.001881245756521821,-0.0016231818590313196
1782969980926862800,7.78086279296875,0.002804012503474951,-0.0006187534891068935,0.00021217414177954197
1782969980936789000,7.7907890625,0.001882825163193047,-0.0009449906647205353,0.00042149866931140423
1782969980946716200,7.800716064453125,-0.000843124813400209,-0.001954725245013833,-0.0018621194176375866
1782969980956641800,7.810641845703125,0.0014085778966546059,-0.0003938465379178524,0.0008963829604908824
1782969980966568000,7.82056787109375,-0.00012478553981054574,0.001401116605848074,-0.00013829104136675596
1782969980976495000,7.8304951171875,-0.001970356097444892,-0.0011826821137219667,0.0010758440475910902
1782969980986421000,7.8404208984375,-0.0000170095736393705,-0.00012898584827780724,0.0008147802436724305
1782969980996347000,7.850346923828125,-0.0014822807861492038,-0.00011939834803342819,-0.00020467769354581833
1782969981006274000,7.860274169921875,0.0004328763752710074,0.00048503559082746506,-0.0000936826691031456
1782969981016200200,7.8702001953125,0.003187916474416852,0.0008557476103305817,0.0021084852050989866
1782969981026126800,7.880126953125,0.00010936315811704844,0.00006694067269563675,-0.00032360851764678955
1782969981036053000,7.890052978515625,-0.00049357651732862,-0.0026635986287146807,0.0007203506538644433
1782969981045979100,7.899979248046875,0.0006432465743273497,0.00023875199258327484,-0.0005166644114069641
1782969981055906000,7.909906005859375,-0.0031882431358098984,0.0023863250389695168,0.0007669791812077165
1782969981065832000,7.91983203125,-0.00039247775566764176,-0.001951455371454358,0.0001582619734108448
1782969981075758000,7.929758056640625,-0.000022831009118817747,-0.002109380904585123,0.001220596837811172
1782969981085685000,7.93968505859375,-0.00003560099867172539,0.0006286189891397953,-0.0006270105368457735
1782969981095611100,7.949611083984375,0.001995059195905924,-0.00024862634018063545,-0.0007079706410877407
1782969981105537000,7.959537109375,-0.0009489630465395749,-0.0004701693542301655,-0.00017951359041035175
1782969981115464000,7.9694638671875,-0.0001833042479120195,0.0006510214880108833,-0.001391518278978765
1782969981125390000,7.97939013671875,0.000012755393981933594,-0.00023549841716885567,-0.0016340389847755432
1782969981135317000,7.98931689453125,0.0003935874265152961,0.0017719925381243229,0.003947147633880377
1782969981145241000,7.999240966796875,-0.0007481170468963683,0.00033456040546298027,0.0007749309297651052
1782969981155167000,8.0091669921875,0.00010009975812863559,0.001228849869221449,0.002517969813197851
1782969981165092900,8.0190927734375,0.002334718592464924,0.0000711795873939991,0.0008848815923556685
1782969981175020000,8.02902001953125,-0.0009255233453586698,-0.0007687816396355629,0.00011096696835011244
1782969981184946200,8.0389462890625,-0.002397543750703335,0.00031002331525087357,-0.0017829372081905603
1782969981194871800,8.048871826171874,0.0003835954121313989,-0.0033949664793908596,-0.0005911726038902998
1782969981204799000,8.058799072265625,-0.001813521608710289,0.0003003138117492199,-0.0010757268173620105
1782969981214725000,8.06872509765625,0.0023298244923353195,-0.0029492755420506,-0.00007437821477651596
1782969981224652000,8.078652099609375,-0.0003736424841918051,-0.0008511682972311974,-0.002931158524006605
1782969981234578000,8.088577880859376,0.0011358371702954173,-0.001763034611940384,0.002022853819653392
1782969981244504000,8.098504150390625,0.0015463903546333313,0.0004914840683341026,0.0021727613639086485
1782969981254431000,8.108430908203125,-0.002619858831167221,0.0015594116412103176,-0.0019860309548676014
1782969981264357000,8.118357177734374,-0.0011859110090881586,-0.003110279329121113,-0.0001252916408702731
1782969981274283000,8.128282958984375,0.00047643407015129924,0.002620044630020857,0.0022265459410846233
1782969981284210000,8.1382099609375,-0.0007573951734229922,-0.00021412409842014313,-0.0026043045800179243
1782969981294136000,8.148135986328125,-0.0006593908183276653,0.0007376899011433125,-0.001936916378326714
1782969981304062000,8.15806201171875,-0.0002461793483234942,-0.0018954589031636715,0.0032419629860669374
1782969981313988900,8.16798876953125,-0.002424378879368305,-0.00017212750390172005,0.001962314359843731
1782969981323915000,8.1779150390625,0.0007174438796937466,-0.002085112500935793,-0.0011132176732644439
1782969981333842000,8.187842041015625,0.0001214284566231072,-0.0010725785978138447,-0.0008759299525991082
1782969981343767800,8.197767822265625,0.00044951014569960535,-0.00008772360160946846,0.002455816837027669
1782969981353694000,8.20769384765625,0.0029416964389383793,-0.0023274419363588095,-0.0006243952084332705
1782969981363621000,8.21762109375,-0.0025696298107504845,-0.0007963394746184349,0.00020623556338250637
1782969981373547000,8.227547119140626,0.0011694483691826463,-0.00038328301161527634,0.002209465252235532
1782969981383472600,8.23747265625,-0.003533291630446911,-0.0006381329149007797,-0.001382917515002191
1782969981393399600,8.247399658203125,-0.0000549369869986549,0.001282272394746542,0.00104135787114501
1782969981403325400,8.257325439453124,-0.0009756063809618354,-0.002376597374677658,0.0013985034311190248
1782969981413252600,8.267252685546875,0.000655579729937017,0.0003105322830379009,0.0021377969533205032
1782969981423178800,8.2771787109375,-0.00010693728108890355,0.0004196828231215477,0.000927165849134326
1782969981433104600,8.287104736328125,0.0005980014684610069,-0.0008205510675907135,0.00022595550399273634
1782969981443031600,8.297031494140626,-0.001071431557647884,0.0008339392952620983,0.0003247640561312437
1782969981452957700,8.306957763671875,0.00020102679263800383,0.0007753497920930386,0.0007700446294620633
1782969981462883600,8.316883544921875,-0.0022735544480383396,-0.0008393279276788235,-0.0028071021661162376
1782969981472810500,8.326810546875,0.0006127795204520226,-0.0006366614252328873,-0.0002733706496655941
1782969981482736600,8.336736572265625,-0.0008115538512356579,-0.0006061946041882038,-0.000033021788112819195
1782969981492662800,8.346662841796874,-0.0014259452000260353,0.00021618977189064026,-0.0011904315324500203
1782969981502589400,8.35658935546875,0.0014969806652516127,0.0025771642103791237,-0.0015819428954273462
1782969981512515600,8.366515625,-0.001500673359259963,-0.00026602623984217644,-0.0003433067467994988
1782969981522442500,8.3764423828125,-0.0010810882085934281,-0.00014545489102602005,0.0012596109881997108
1782969981532368600,8.38636865234375,0.001028401660732925,0.0008108862675726414,0.0015605480875819921
1782969981542294500,8.39629443359375,0.0016258667455986142,-0.000865415669977665,-0.0014728924725204706
1782969981552222500,8.406222412109376,-0.0033523801248520613,0.0004294132813811302,0.001045658835209906
1782969981562148600,8.416148681640625,-0.00020399116328917444,-0.0018095062114298344,-0.002603936940431595
1782969981572074800,8.42607470703125,-0.001902969554066658,-0.0010483087971806526,0.00024430430494248867
1782969981582001400,8.43600146484375,0.003556510666385293,-0.0013207502197474241,-0.0002901921980082989
1782969981591927600,8.445927490234375,0.0009429922793060541,-0.0012788434978574514,0.0009429594501852989
1782969981601853700,8.455853759765626,-0.003511411137878895,0.00022823922336101532,0.0005189840449020267
1782969981611780600,8.465780517578125,-0.0012454661773517728,-0.0011978836264461279,-0.0028444628696888685
1782969981621706500,8.47570654296875,-0.0019679819233715534,0.00009721191599965096,0.0002610492520034313
1782969981631632600,8.485632568359375,0.001516538206487894,0.0006903526373207569,-0.0001516846241429448
1782969981641559600,8.4955595703125,-0.0008376962505280972,-0.0021272716112434864,0.0006246268749237061
1782969981651485700,8.505485595703124,0.001464498694986105,0.00007805274799466133,-0.0016965612303465605
1782969981661412400,8.515412353515625,-0.0023459522053599358,0.00036833714693784714,0.001065402990207076
1782969981671338500,8.52533837890625,0.0005715510924346745,0.00023507047444581985,0.003316578920930624
1782969981681264600,8.5352646484375,-0.00024044675228651613,0.0002529136836528778,0.0007775211706757545
1782969981691191600,8.545191650390626,0.0023605781607329845,0.0020512882620096207,-0.0009519848972558975
1782969981701117400,8.555117431640625,0.00016639985551591963,0.0003481963649392128,-0.00035011046566069126
1782969981711043600,8.565043701171875,-0.002321845619007945,-0.00037257885560393333,-0.00129825493786484
1782969981720970800,8.574970703125,-0.0007902616634964943,0.00023195846006274223,-0.0017078490927815437
1782969981730896400,8.584896484375,0.0006848977645859122,-0.0014762133359909058,-0.0014736996963620186
1782969981740822500,8.594822509765624,-0.0005167205817997456,-0.003555076662451029,0.001217957236804068
1782969981750749700,8.604749755859375,0.0013066163519397378,-0.0006881514564156532,-0.0015994289424270391
1782969981760675600,8.614675537109376,0.0005015427013859153,0.0015204083174467087,0.00007463421206921339
1782969981770602500,8.6246025390625,-0.0017345781670883298,-0.0017993522342294455,-0.0005332227447070181
1782969981780528600,8.634528564453126,-0.0003585228114388883,0.0014835265465080738,-0.0009952811524271965
1782969981790454500,8.64445458984375,-0.00047562498366460204,-0.0005630976520478725,-0.0003991773119196296
1782969981800381700,8.654381591796875,-0.001415720907971263,0.0015929974615573883,-0.0016119808424264193
1782969981810307600,8.6643076171875,-0.002385591622442007,0.0026740790344774723,0.0007157297804951668
1782969981820233500,8.6742333984375,0.00021924609609413892,0.0010628663003444672,-0.0008483447600156069
1782969981830160600,8.68416064453125,-0.0007210611365735531,-0.0005798926576972008,-0.0010165192652493715
1782969981840086500,8.69408642578125,-0.002320821862667799,0.0015594246797263622,-0.0015803104033693671
1782969981850013400,8.704013427734376,0.00039193665725179017,0.0011067083105444908,-0.0006518620648421347
1782969981859939600,8.713939697265625,0.001895291032269597,-0.00028053252026438713,-0.0016542759258300066
1782969981869865700,8.72386572265625,-0.0019460488110780716,0.0016493555158376694,0.002264125971123576
1782969981879792400,8.73379248046875,-0.001441113417968154,0.0019569508731365204,0.0005575723480433226
1782969981889718500,8.743718505859375,-0.00007452255522366613,-0.0006316215731203556,0.0014626980992034078
1782969981899644700,8.753644775390624,0.00019925041124224663,0.0012634838931262493,0.00009809434413909912
1782969981909571600,8.763571533203125,0.0008481930126436055,0.0014346097595989704,0.0009085150668397546
1782969981919497500,8.77349755859375,-0.0035420279018580914,-0.0002303984947502613,-0.000759422779083252
1782969981929423600,8.783423583984375,0.0005070287734270096,-0.0020843232050538063,0.0014156914548948407
1782969981939350500,8.7933505859375,-0.0009603728540241718,-0.00016871141269803047,-0.0008565175230614841
1782969981949276400,8.8032763671875,-0.0011601932346820831,0.00014674756675958633,0.0012002091389149427
1782969981959203600,8.81320361328125,0.0003607379621826112,0.0005595372058451176,0.0015626654494553804
1782969981969129500,8.82312939453125,-0.0006911644013598561,-0.0002537239342927933,-0.00009820552077144384
1782969981979055600,8.8330556640625,-0.0005255158175714314,0.0005896990187466145,0.00390053098089993
1782969981988982800,8.842982666015626,0.0006187456310726702,-0.0018423318397253752,0.002339860424399376
1782969981998908400,8.852908447265625,0.0010041050845757127,0.0003704885020852089,-0.0023579555563628674
1782969982008834600,8.86283447265625,-0.0019337807316333055,0.0012719337828457355,0.0012979044113308191
1782969982018761700,8.87276171875,0.0002625281922519207,-0.00001703621819615364,0.0009740639943629503
1782969982028687400,8.882687255859375,-0.00014257805014494807,-0.003998711705207825,0.0004394866991788149
1782969982038614500,8.892614501953124,0.0010731549700722098,-0.0023563404101878405,0.00187652837485075
1782969982048540700,8.902540771484375,-0.0013641570694744587,-0.0011379546485841274,-0.0018698971252888441
1782969982058466600,8.912466552734376,0.0028111469000577927,0.0018298719078302383,0.00010164105333387852
1782969982068393500,8.9223935546875,-0.0011753757717087865,-0.00011167163029313087,0.00018818723037838936
1782969982078319600,8.932319580078126,-0.000644075102172792,-0.0018616348970681429,-0.0012664312962442636
1782969982088245500,8.94224560546875,0.0014674571575596929,0.001856191549450159,0.0013382425531744957
1782969982098172700,8.952172607421875,-0.0006811811472289264,0.0013858773745596409,-0.0009691202430985868
1782969982108098600,8.9620986328125,-0.001264415797777474,-0.0006614052690565586,-0.0008601126028224826
1782969982118025500,8.972025390625,-0.0012993032578378916,0.0015133321285247803,0.001965501345694065
1782969982127951600,8.98195166015625,-0.0011338605545461178,-0.001379026798531413,-0.002188608981668949
1782969982137877500,8.99187744140625,0.0007023890502750874,0.0012758783996105194,0.0006359396502375603
1782969982147804400,9.001804443359376,0.0026559922844171524,0.0004562349058687687,0.0007740599103271961
1782969982157730600,9.01173046875,0.003594490233808756,-0.0010271458886563778,0.0011317224707454443
1782969982167656700,9.02165673828125,0.0005872360779903829,0.000285441055893898,-0.0016959698405116796
1782969982177583400,9.031583251953125,0.0006088076625019312,-0.0004160357639193535,0.0016409710515290499
1782969982187509500,9.041509521484375,-0.0012575864093378186,-0.00047853076830506325,-0.0012785355793312192
1782969982197435600,9.051435546875,-0.0005997856496833265,0.0017260340973734856,-0.0003674682229757309
1782969982207362600,9.061362548828125,-0.0008139451965689659,-0.0009396285749971867,0.001909521408379078
1782969982217288400,9.071288330078126,-0.0002197940048063174,-0.00042856764048337936,-0.00011421483941376209
1782969982227215600,9.081215576171875,-0.001994806108996272,-0.0012611646670848131,-0.001187163288705051
1782969982237141500,9.0911416015625,-0.0004525694530457258,-0.0012025751639157534,0.0006829084595665336
1782969982247067400,9.1010673828125,0.0028330704662948847,-0.0023890838492661715,0.00028396223206073046
1782969982256994600,9.11099462890625,0.0010109356371685863,0.003760155290365219,-0.0014207271160557866
1782969982266920400,9.12092041015625,-0.00003023797762580216,0.0007512462325394154,-0.0024199020117521286
1782969982276846600,9.1308466796875,0.001215588767081499,0.0015917401760816574,-0.0006648787530139089
1782969982286773800,9.140773681640624,0.0006651575677096844,0.00030851876363158226,0.0002996694529429078
1782969982296699600,9.15069970703125,0.0007075018365867436,-0.0013708705082535744,-0.001470267423428595
1782969982306625500,9.16062548828125,0.0005221544415690005,0.0035228123888373375,-0.0012311359168961644
1782969982316552700,9.170552734375,-0.003413198748603463,0.00016456609591841698,-0.0018702945671975613
1782969982326478600,9.180478515625,-0.0010227470193058252,0.00039878813549876213,-0.00007442838978022337
1782969982336405500,9.190405517578125,0.0010230932384729385,0.0014805644750595093,0.00017590878996998072
1782969982346331600,9.20033154296875,0.0014221383025869727,-0.00016187457367777824,0.0002587216440588236
1782969982356257800,9.2102578125,0.0021563717164099216,-0.0003315182402729988,0.0015338429948315024
1782969982366184400,9.220184326171875,-0.00040867680218070745,-0.0004626237787306309,0.0001810602843761444
1782969982376111400,9.230111328125,-0.00208194088190794,-0.0008298736065626144,-0.0020533318165689707
1782969982386037200,9.240037353515625,-0.0003878868301399052,0.0010771257802844048,-0.0007350273663178086
1782969982395964200,9.249964111328126,-0.0009868317283689976,-0.0011756420135498047,-0.0006175819435156882
1782969982405890300,9.259890380859375,0.0012214069720357656,0.0007587233558297157,-0.0007789140217937529
1782969982415816200,9.269816162109375,-0.0017560070846229792,-0.0006751222535967827,-0.0005450884927995503
1782969982425743400,9.279743408203124,-0.0018923297757282853,0.0017845802940428257,0.0012071061646565795
1782969982435669200,9.289669189453125,-0.000825733644887805,0.0018279897049069405,-0.0009649680578149855
1782969982445596200,9.29959619140625,0.0017271079123020172,-0.0004040277563035488,0.001386449672281742
1782969982455522300,9.309522216796875,0.0005800843937322497,-0.0009342632256448269,-0.0029025713447481394
1782969982465448200,9.3194482421875,-0.0011155791580677032,0.0012937737628817558,-0.0023308629170060158
1782969982475375000,9.329375,-0.002266331110149622,-0.0011933522764593363,-0.00009860144928097725
1782969982485301200,9.33930126953125,-0.0010741137666627765,0.0006732279434800148,0.0012635636376217008
1782969982495227400,9.349227294921874,-0.0010312368394806981,0.0013318276032805443,-0.0005644302000291646
1782969982505154000,9.359154052734375,-0.0010621906258165836,-0.0012767079751938581,0.0013115465408191085
1782969982515080200,9.369080078125,0.0002824393450282514,-0.00008574221283197403,0.00107212841976434
1782969982525007400,9.37900732421875,0.0013568251160904765,-0.0004257489927113056,-0.0015820488333702087
1782969982534933200,9.388933349609376,-0.00017928614397533238,-0.000009230338037014008,0.002243848517537117
1782969982544859100,9.398859130859375,0.0020159694831818342,0.00012105796486139297,-0.000753049913328141
1782969982554786300,9.408786376953126,0.002006648341193795,0.0007815221324563026,-0.0006955256685614586
1782969982564712200,9.418712158203125,0.000990247237496078,0.0007353648543357849,-0.0037554434966295958
1782969982574638000,9.42863818359375,0.0008616165723651648,-0.003154448000714183,-0.00011916330549865961
1782969982584565200,9.438565185546874,0.0003712024772539735,0.001325246412307024,0.001900188042782247
1782969982594491100,9.4484912109375,0.0014577722176909447,0.0005422770045697689,0.000986723811365664
1782969982604418300,9.458418212890624,-0.0014753699069842696,0.0027332035824656487,-0.0018519756849855185
1782969982614344200,9.46834423828125,-0.001006387174129486,-0.0005520721897482872,-0.002131075132638216
1782969982624270000,9.47827001953125,0.002197439782321453,0.000840392429381609,-0.0008776549948379397
1782969982634197200,9.488197265625,0.0006040705484338105,0.003485444001853466,0.0010984105756506324
1782969982644123400,9.498123291015625,0.0016494904411956668,-0.0005175638943910599,-0.0013739712303504348
1782969982654049300,9.50804931640625,-0.00024454970844089985,0.0009514358825981617,0.0016143618850037456
1782969982663976200,9.51797607421875,-0.00008189670916181058,-0.0006733196787536144,0.0012880719732493162
1782969982673902300,9.52790234375,-0.00014501363330055028,0.0009528067894279957,0.0014649059157818556
1782969982683828200,9.537828125,-0.00045711995335295796,0.003094383515417576,0.0004942652303725481
1782969982693755100,9.547755126953126,-0.0009013352100737393,0.00019659753888845444,-0.0007009614491835237
1782969982703681300,9.557681396484375,0.0006112919072620571,-0.0013240913394838572,0.0002410620218142867
1782969982713608200,9.567608154296876,-0.00033998925937339664,-0.0001429794356226921,0.0009992639534175396
1782969982723534300,9.577534423828125,-0.0009992349660024047,0.0007244357839226723,-0.0009298527147620916
1782969982733460200,9.587460205078125,-0.00029802462086081505,0.0034762797877192497,-0.00011386012192815542
1782969982743387100,9.59738720703125,-0.000034240103559568524,0.0013924161903560162,-0.00011034985072910786
1782969982753313300,9.607313232421875,-0.00041374057764187455,0.0016579334624111652,-0.0006179483607411385
1782969982763239200,9.6172392578125,0.00009729317389428616,0.0017636250704526901,-0.0008326705428771675
1782969982773166000,9.627166015625,-0.00008113859803415835,-0.0003107110969722271,-0.0009575727744959295
1782969982783092200,9.63709228515625,0.0008587785996496677,-0.00009008729830384254,0.00044615520164370537
1782969982793018400,9.647018310546875,-0.003255805466324091,0.0012020785361528397,-0.00212832260876894
1782969982802945000,9.656945068359375,-0.0010787720093503594,0.0005209925584495068,0.0010873154969885945
1782969982812871200,9.66687109375,-0.0008018033113330603,0.002062696497887373,0.0008337824838235974
1782969982822798300,9.67679833984375,-0.00034203421091660857,-0.00012790923938155174,0.000076927593909204
1782969982832724200,9.68672412109375,-0.00025761203141883016,-0.0007404363714158535,0.0013898659963160753
1782969982842650000,9.696650146484375,-0.0008285916410386562,-0.0006297025829553604,-0.0013265785528346896
1782969982852577300,9.706577392578126,0.0005682362825609744,0.0007005464285612106,0.0004164603305980563
1782969982862503200,9.716503173828125,-0.0002580951841082424,-0.0012187839020043612,-0.0008349810377694666
1782969982872429000,9.726428955078125,-0.0017292252741754055,0.0013461066409945488,-0.0011196729028597474
1782969982882356200,9.736356201171875,-0.0011187739437445998,-0.00046915188431739807,0.0025329384952783585
1782969982892282400,9.746282470703125,0.0012000403366982937,-0.00036715297028422356,0.00019548193085938692
1782969982902208300,9.756208251953124,0.001111693331040442,0.0008723554201424122,0.0011073186760768294
1782969982912135200,9.76613525390625,0.0007556286873295903,0.000158628448843956,0.001632227678783238
1782969982922061300,9.776061279296876,0.0007734432583674788,-0.00017408141866326332,-0.000802176829893142
1782969982931988200,9.78598828125,0.0018624098738655448,0.00047306669875979424,-0.0007592999027110636
1782969982941914400,9.795914306640626,0.00012347781739663333,0.00025849929079413414,0.0009959368035197258
1782969982951840300,9.80584033203125,0.002608739770948887,-0.0019849478267133236,0.00047555495984852314
1782969982961767200,9.81576708984375,-0.000031746705644764006,0.001038307324051857,0.0021013766527175903
1782969982971693300,9.825693359375,0.0010633451165631413,-0.0004144469276070595,0.0006145336665213108
1782969982981619200,9.835619140625,-0.0014415888581424952,0.001202956773340702,-0.0019367862259969115
1782969982991546000,9.845546142578126,-0.0012176170712336898,-0.0005272990092635155,-0.00042171392124146223
1782969983001472300,9.85547216796875,-0.0023023413959890604,0.002098402474075556,-0.00013099482748657465
1782969983011399200,9.865399169921876,0.0005831935559399426,-0.0000022989697754383087,-0.0016804218757897615
1782969983021325300,9.8753251953125,-0.00028720981208607554,0.00017438502982258797,0.0009692196035757661
1782969983031251200,9.885251220703125,-0.0006869502831250429,-0.0002661021426320076,-0.001544804428704083
1782969983041178000,9.89517822265625,-0.0024566359352320433,-0.0021514720283448696,0.0007828176021575928
1782969983051104300,9.905104248046875,-0.0009420964634045959,0.001457111444324255,-0.0019053771393373609
1782969983061030100,9.915030029296876,0.0009473829995840788,0.000942570623010397,0.00036710978019982576
1782969983070957000,9.92495703125,-0.00010909303091466427,0.001754834782332182,-0.0026326747611165047
1782969983080883200,9.93488330078125,0.0010427975794300437,0.0007405616343021393,0.0008438843069598079
1782969983090809300,9.944809326171875,-0.0012485862243920565,-0.00020299619063735008,0.000457193236798048
1782969983100736300,9.954736328125,0.0007486248505301774,-0.002921523991972208,-0.0014054569182917476
1782969983110662100,9.964662109375,0.0006538162706419826,0.0013909325934946537,0.0007564971456304193
1782969983120589300,9.97458935546875,-0.00009759332169778645,0.0023843785747885704,-0.0003909636288881302
1782969983130515500,9.984515380859374,-0.003387928707525134,-0.0013520363718271255,-0.0029238960705697536
1782969983140441000,9.994441162109375,-0.0009405188611708581,-0.001223015133291483,0.0009762868285179138
1782969983150368300,10.0043681640625,-0.0005080214468762279,0.0015994030982255936,-0.0004082905361428857
1782969983160294400,10.01429443359375,-0.00029486697167158127,0.0028607030399143696,-0.0030034352093935013
1782969983170220000,10.024219970703125,-0.0008767676772549748,-0.0018759947270154953,-0.0005709038232453167
1782969983180147200,10.034147216796875,0.00002611381933093071,0.0005221185274422169,0.0010436502052471042
1782969983190073300,10.0440732421875,0.0015875252429395914,-0.002298701787367463,0.00029556837398558855
1782969983199999200,10.053999267578124,-0.000635650590993464,0.00043539563193917274,0.000014607910998165607
1782969983209926100,10.063926025390625,-0.00027825438883155584,-0.00035476405173540115,-0.0009949964005500078
1782969983219852300,10.073852294921876,-0.00029580906266346574,-0.00032952940091490746,0.00010168401058763266
1782969983229779200,10.083779296875,-0.000832169724162668,0.0012755575589835644,-0.0018544078338891268
1782969983239705300,10.093705322265626,-0.00007584321429021657,-0.0006817658431828022,0.0012394468067213893
1782969983249631200,10.10363134765625,0.004470705520361662,0.00245969882234931,-0.004147062543779612
1782969983259558100,10.11355810546875,0.00119105470366776,-0.001349055441096425,-0.00016170460730791092
1782969983269484300,10.123484375,0.0007412468548864126,0.0004224791191518307,0.0009858515113592148
1782969983279410200,10.13341015625,-0.0016775825060904026,-0.0008876146748661995,0.0005510698538273573
1782969983289337000,10.143337158203124,0.001231122063472867,0.0005369102582335472,0.0016357754357159138
1782969983299263200,10.15326318359375,-0.00041703906026668847,0.00025437166914343834,0.00010993808973580599
1782969983309189400,10.163189453125,0.002126013394445181,-0.0015208914410322905,0.0018660264322534204
1782969983319116000,10.173115966796875,0.00047156825894489884,-0.0005984469316899776,0.0015899669378995895
1782969983329042200,10.183042236328125,-0.0012616170570254326,-0.00023199617862701416,-0.0008588096825405955
1782969983338969300,10.19296923828125,-0.003388097509741783,0.0015185987576842308,-0.0001820530742406845
1782969983348895200,10.202895263671875,0.0023515471257269382,-0.001306748716160655,0.000551115139387548
1782969983358821000,10.212821044921874,0.002042909152805805,0.001484377309679985,-0.0003246477572247386
1782969983368748300,10.222748291015625,0.0008154581300914288,0.00044867396354675293,-0.0006122690974734724
1782969983378674000,10.232673828125,0.00031809817301109433,-0.001237804302945733,0.0021500778384506702
1782969983388600000,10.24260009765625,0.0004531204467639327,0.0004495745524764061,0.0007018508622422814
1782969983398527200,10.25252734375,0.0026500937528908253,-0.0010916520841419697,0.0008281994378194213
1782969983408452900,10.262452880859374,0.000310506991809234,-0.0023742306511849165,-0.0021287081763148308
1782969983418380000,10.272380126953125,-0.002015204867348075,0.0004109153524041176,0.0006457383278757334
1782969983428306200,10.28230615234375,-0.0005589883658103645,-0.0008671358227729797,0.0009267018176615238
1782969983438232000,10.292232177734375,0.0014572639483958483,0.000057375989854335785,-0.0007984022959135473
1782969983448159200,10.3021591796875,0.0007856148295104504,-0.0006504924967885017,0.00018323888070881367
1782969983458085000,10.312085205078125,0.0011071900371462107,0.00025296909734606743,-0.0007013906724750996
1782969983468011300,10.32201123046875,0.0015111914835870266,-0.00018378905951976776,-0.0014968769391998649
1782969983477938200,10.331938232421875,-0.001511218724772334,-0.0022053385619074106,0.00025321217253804207
1782969983487864000,10.341864013671875,0.0017213262617588043,0.00017126649618148804,0.0005147346528246999
1782969983497790200,10.351790283203124,-0.0008814538596197963,0.0018988996744155884,0.0001445690868422389
1782969983507717000,10.361717041015625,0.0013329645153135061,-0.0008665267378091812,-0.0000517058651894331
1782969983517643300,10.371643310546874,0.0013466444797813892,-0.0008364212699234486,0.000939488410949707
1782969983527570000,10.38156982421875,-0.0029314574785530567,0.0002131303772330284,-0.0026059779338538647
1782969983537496000,10.39149609375,-0.00044041938963346183,0.0004869699478149414,-0.000058088451623916626
1782969983547422200,10.401422119140625,-0.0013661342673003674,0.0009615453891456127,0.00017200864385813475
1782969983557349000,10.41134912109375,-0.0013540288200601935,-0.000050146132707595825,-0.00004200602415949106
1782969983567275000,10.42127490234375,-0.0016613577026873827,0.0025642788968980312,-0.0002899463288486004
1782969983577201200,10.431201171875,0.0013891615672037005,-0.0020046269055455923,0.0006801702547818422
1782969983587128000,10.441128173828124,-0.0021925237961113453,0.0022122221998870373,0.002625076798722148
1782969983597054000,10.451053955078125,-0.0014820605283603072,0.0006714207120239735,-0.0003278682706877589
1782969983606980000,10.46097998046875,0.0011414194013923407,-0.00036108680069446564,0.000004760571755468845
1782969983616907000,10.470906982421875,-0.0011657904833555222,0.00024982821196317673,-0.0010429230751469731
1782969983626833200,10.480833251953126,0.0021895261015743017,0.0005302592180669308,-0.0007089626742526889
1782969983636760000,10.490760009765625,0.0018519804580137134,0.0008361735381186008,-0.0005138975684531033
1782969983646686000,10.50068603515625,0.0017132296925410628,-0.000799806322902441,0.0011460506357252598
1782969983656612000,10.510612060546874,0.00012629502452909946,-0.0012210661079734564,-0.0002572782104834914
1782969983666539300,10.520539306640625,-0.0017352546565234661,0.0014460897073149681,0.0003765540895983577
1782969983676465200,10.530465087890626,-0.00003363331779837608,0.0011696340516209602,0.0009208989795297384
1782969983686391000,10.54039111328125,0.0011876923963427544,0.002316657453775406,-0.0012261414667591453
1782969983696318200,10.550318115234376,-0.0019555222243070602,0.001654858235269785,-0.0009678421774879098
1782969983706244000,10.560244140625,0.0006152271525934339,0.002870324533432722,-0.0018629305996000767
1782969983716170000,10.570169921875,-0.001556604402139783,-0.0011897631920874119,0.002211307641118765
1782969983726097200,10.58009716796875,-0.0008308929391205311,-0.00006138207390904427,0.0000040798913687467575
1782969983736023300,10.590023193359375,-0.00253735831938684,-0.0012154262512922287,-0.0006841636495664716
1782969983745950200,10.5999501953125,0.0014467305736616254,-0.002327029826119542,0.0008370339637622237
1782969983755876000,10.6098759765625,-0.00200670026242733,0.0015471996739506721,0.002097815042361617
1782969983765802200,10.61980224609375,0.0005613859975710511,0.0004776744171977043,-0.0006114186253398657
1782969983775729200,10.629729248046875,0.000286484690150246,0.0006021838635206223,0.0018620974151417613
1782969983785655000,10.639655029296875,-0.001113805454224348,0.00027514761313796043,-0.0006450024084188044
1782969983795581200,10.649581298828124,-0.0003741453983820975,0.0003954838030040264,-0.0026900251396000385
1782969983805508000,10.659508056640625,-0.0019984073005616665,-0.0021254646126180887,-0.00020662753377109766
1782969983815434200,10.669434326171874,-0.00022597116185352206,-0.0012144099455326796,-0.0006838736589998007
1782969983825361000,10.67936083984375,0.001743436325341463,0.0010143895633518696,0.0034043448977172375
1782969983835287000,10.689287109375,-0.0020399163477122784,-0.000162449199706316,-0.0013967276317998767
1782969983845213200,10.699213134765625,-0.0009946255013346672,0.0014756610617041588,-0.001918174559250474
1782969983855140000,10.70914013671875,-0.0004624631255865097,0.0007456759922206402,-0.001462674466893077
1782969983865066000,10.71906591796875,0.0016273193759843707,-0.0012554230634123087,0.0010521485237404704
1782969983874992000,10.7289921875,0.0031182821840047836,-0.0002825534902513027,0.000419989344663918
1782969983884919000,10.7389189453125,-0.0011526292655616999,0.0029494590125977993,-0.0017294479766860604
1782969983894845000,10.748844970703125,0.0010629759635776281,-0.0006876452825963497,0.00042577669955790043
1782969983904771000,10.75877099609375,-0.00022732559591531754,0.00012328755110502243,0.00031685340218245983
1782969983914698200,10.7686982421875,-0.0005528588080778718,-0.002760648960247636,-0.00047880003694444895
1782969983924624100,10.7786240234375,-0.0006466020131483674,-0.00013184268027544022,0.0006945886416360736
1782969983934550000,10.788550048828125,0.00040735257789492607,0.001943762879818678,-0.000039084115996956825
1782969983944477200,10.798477294921875,-0.0001226164458785206,0.002256684470921755,-0.0004468140541575849
1782969983954403000,10.808403076171874,-0.000520078931003809,0.00047094887122511864,-0.0005941660492680967
1782969983964330200,10.818330322265625,-0.0010468520922586322,0.00299269612878561,0.0011922824196517467
1782969983974256000,10.828256103515624,0.0008765025995671749,0.003914667293429375,-0.0012244516983628273
1782969983984182000,10.83818212890625,3.2264506444334984e-7,-0.00004545366391539574,-0.001253213849849999
1782969983994109200,10.848109130859376,0.0017135429661720991,0.002735019661486149,0.001106915413402021
1782969984004035000,10.85803515625,0.004059255123138428,-0.00008500181138515472,-0.000992720713838935
1782969984013961000,10.8679609375,0.00048194031114690006,0.002708593849092722,0.0016114579048007727
1782969984023888100,10.87788818359375,0.0007913996232673526,-0.0006374018266797066,0.00009478779975324869
1782969984033814300,10.887814208984375,-0.0005281935445964336,0.0004874151200056076,0.0011384374229237437
1782969984043741000,10.897740966796874,0.0017485428834334016,0.00178117910400033,0.000007659313268959522
1782969984053667000,10.9076669921875,-0.0024368076119571924,0.0006976132281124592,-0.0013083319645375013
1782969984063593200,10.91759326171875,0.00035604939330369234,-0.0019548949785530567,0.0012967722723260522
1782969984073520000,10.92752001953125,-0.0011838285718113184,-0.0018807132728397846,0.002323742490261793
1782969984083446000,10.937446044921876,-0.0016027437523007393,-0.000170963816344738,-0.0007964169490151107
1782969984093372200,10.9473720703125,0.0008955979719758034,-0.00028692465275526047,0.0003471201052889228
1782969984103299000,10.957299072265625,0.0010623118141666055,0.0008049714379012585,-0.0025868844240903854
1782969984113225200,10.96722509765625,0.000851681106723845,0.003677931148558855,-0.002817672910168767
1782969984123151000,10.977151123046875,-0.0021038949489593506,0.0004190211184322834,0.002409846056252718
1782969984133078000,10.987078125,0.0023420839570462704,-0.0010846401564776897,0.00036049471236765385
1782969984143004200,10.997004150390625,-0.000110953813418746,0.00045280298218131065,-0.000003559398464858532
1782969984152931300,11.006931396484376,-0.0020119340624660254,-0.002098541706800461,-0.001218399964272976
1782969984162857000,11.01685693359375,0.0025141083169728518,-0.0010881382040679455,-0.000388558954000473
1782969984172783000,11.026783203125,0.0024471364449709654,0.0003606346435844898,0.0012242532102391124
1782969984182710300,11.036710205078125,0.0028822969179600477,-0.0014346023090183735,0.001297223730944097
1782969984192636000,11.046635986328125,0.0008635433623567224,0.0018727192655205727,0.0007241839775815606
1782969984202562000,11.05656201171875,-0.0022065485827624798,-0.0009715370833873749,-0.0011466867290437222
1782969984212489200,11.0664892578125,0.0012983160559087992,-0.0007445663213729858,0.0003504097694531083
1782969984222415000,11.0764150390625,-0.0011017246870324016,-0.0020585700403898954,0.0020444465335458517
1782969984232341000,11.086341064453125,-0.0008473994676023722,0.008167130872607231,0.010681681334972382
1782969984242268200,11.09626806640625,-0.0012253019958734512,0.010183409787714481,0.004800623282790184
1782969984252194000,11.106194091796874,-0.0014282718766480684,-0.0000678105279803276,0.000849779462441802
1782969984262121200,11.116121337890625,0.0006324820569716394,-0.00853639654815197,-0.0033889077603816986
1782969984272047000,11.126047119140624,0.0012130977120250463,-0.0070778606459498405,-0.0009540118626318872
1782969984281973200,11.13597314453125,-0.0007509836577810347,-0.011971951462328434,-0.008331767283380032
1782969984291900200,11.145900146484376,-0.0002723848447203636,0.0008318773470818996,-0.000805570452939719
1782969984301826000,11.155825927734375,0.0015377658419311047,0.00012214481830596924,0.003101020585745573
1782969984311752200,11.165752197265626,0.00027135678101330996,0.0006586224772036076,0.00006837572436779737
