time,seconds_elapsed,z,y,x
1782968806603261400,0.060261474609375,-0.928436279296875,-0.0489654541015625,-0.2535858154296875
1782968806613188600,0.070188720703125,-1.018157958984375,-0.032928466796875,-0.3107757568359375
1782968806623114200,0.0801142578125,-1.1013641357421875,-0.0108489990234375,-0.3582611083984375
1782968806633040400,0.090040283203125,-1.1546630859375,0.011505126953125,-0.3835296630859375
1782968806642967600,0.099967529296875,-1.1712493896484375,0.033416748046875,-0.379425048828125
1782968806652893400,0.1098935546875,-1.1523895263671875,0.051605224609375,-0.338653564453125
1782968806662819300,0.1198193359375,-1.114349365234375,0.062347412109375,-0.2862701416015625
1782968806672746500,0.12974658203125,-1.06793212890625,0.0751953125,-0.25640869140625
1782968806682672400,0.13967236328125,-1.0040740966796875,0.08984375,-0.237579345703125
1782968806692598300,0.149598388671875,-0.9322052001953125,0.094451904296875,-0.21881103515625
1782968806702525400,0.159525390625,-0.8878173828125,0.0919036865234375,-0.1923828125
1782968806712451600,0.16945166015625,-0.876373291015625,0.0902099609375,-0.1707916259765625
1782968806722377500,0.17937744140625,-0.876739501953125,0.089385986328125,-0.16925048828125
1782968806732304400,0.189304443359375,-0.879486083984375,0.0972747802734375,-0.1727142333984375
1782968806742230500,0.19923046875,-0.878631591796875,0.111907958984375,-0.1806488037109375
1782968806752156400,0.209156494140625,-0.86541748046875,0.119964599609375,-0.1982269287109375
1782968806762083600,0.21908349609375,-0.8263397216796875,0.117767333984375,-0.2206573486328125
1782968806772009500,0.229009521484375,-0.775848388671875,0.1062469482421875,-0.2563323974609375
1782968806781935400,0.238935302734375,-0.7278594970703125,0.0883331298828125,-0.2968597412109375
1782968806791862500,0.248862548828125,-0.6988067626953125,0.0718994140625,-0.32818603515625
1782968806801788400,0.258788330078125,-0.69805908203125,0.0564422607421875,-0.355926513671875
1782968806811714300,0.26871435546875,-0.7327117919921875,0.0464324951171875,-0.3801116943359375
1782968806821641500,0.278641357421875,-0.7866668701171875,0.0436248779296875,-0.39593505859375
1782968806831567600,0.288567626953125,-0.865509033203125,0.052734375,-0.388824462890625
1782968806841493200,0.2984931640625,-0.9603118896484375,0.0674285888671875,-0.37664794921875
1782968806851420400,0.30842041015625,-1.0355987548828125,0.0869140625,-0.367828369140625
1782968806861346600,0.3183466796875,-1.0885162353515625,0.109130859375,-0.35797119140625
1782968806871272400,0.3282724609375,-1.11566162109375,0.1253204345703125,-0.3432159423828125
1782968806881199400,0.338199462890625,-1.13433837890625,0.1400299072265625,-0.3119964599609375
1782968806891125500,0.34812548828125,-1.1500701904296875,0.1413116455078125,-0.280792236328125
1782968806901051600,0.3580517578125,-1.1638336181640625,0.133575439453125,-0.261138916015625
1782968806910978300,0.367978271484375,-1.1531829833984375,0.130279541015625,-0.24749755859375
1782968806920904400,0.377904541015625,-1.0887603759765625,0.1334075927734375,-0.2302093505859375
1782968806930830600,0.38783056640625,-0.9818878173828125,0.133148193359375,-0.2085113525390625
1782968806940757500,0.397757568359375,-0.841400146484375,0.1199493408203125,-0.1668548583984375
1782968806950683400,0.407683349609375,-0.7269439697265625,0.1012725830078125,-0.1320953369140625
1782968806960609500,0.417609619140625,-0.65643310546875,0.094207763671875,-0.134124755859375
1782968806970536400,0.427536376953125,-0.63824462890625,0.0676727294921875,-0.1392669677734375
1782968806980462300,0.43746240234375,-0.6562652587890625,0.036376953125,-0.135528564453125
1782968806990388500,0.447388427734375,-0.6936798095703125,0.0163421630859375,-0.135589599609375
1782968807000315400,0.4573154296875,-0.739501953125,0.010040283203125,-0.16748046875
1782968807010241500,0.467241455078125,-0.802154541015625,0.0045623779296875,-0.1877593994140625
1782968807020167400,0.47716748046875,-0.86053466796875,0.0003204345703125,-0.1946563720703125
1782968807030094300,0.48709423828125,-0.91400146484375,0.002532958984375,-0.185760498046875
1782968807040020500,0.4970205078125,-0.9480438232421875,0.004608154296875,-0.1724853515625
1782968807049946600,0.506946533203125,-0.96685791015625,-0.005767822265625,-0.1711273193359375
1782968807059873300,0.516873291015625,-0.979461669921875,-0.0287628173828125,-0.1775665283203125
1782968807069799400,0.52679931640625,-0.9881744384765625,-0.05419921875,-0.18450927734375
1782968807079725600,0.5367255859375,-0.992218017578125,-0.0792999267578125,-0.1746826171875
1782968807089652500,0.546652587890625,-0.9961090087890625,-0.107025146484375,-0.13580322265625
1782968807099578400,0.556578369140625,-0.9998626708984375,-0.12017822265625,-0.1077880859375
1782968807109504500,0.56650439453125,-1.0067291259765625,-0.13427734375,-0.1048583984375
1782968807119431400,0.576431396484375,-1.0178680419921875,-0.1578216552734375,-0.103240966796875
1782968807129357300,0.586357421875,-1.03692626953125,-0.1869049072265625,-0.0973052978515625
1782968807139283500,0.596283447265625,-1.0724639892578125,-0.201904296875,-0.0724334716796875
1782968807149210400,0.60621044921875,-1.1144866943359375,-0.2211456298828125,-0.031341552734375
1782968807159136500,0.616136474609375,-1.1430206298828125,-0.2476348876953125,0.01806640625
1782968807169062400,0.6260625,-1.1654815673828125,-0.2639312744140625,0.0631256103515625
1782968807178989300,0.6359892578125,-1.17242431640625,-0.25738525390625,0.0926971435546875
1782968807188915500,0.64591552734375,-1.1749267578125,-0.2670440673828125,0.093658447265625
1782968807198841300,0.65584130859375,-1.1693267822265625,-0.299285888671875,0.081573486328125
1782968807208768300,0.665768310546875,-1.1482086181640625,-0.336181640625,0.069427490234375
1782968807218694400,0.6756943359375,-1.121307373046875,-0.37164306640625,0.0702667236328125
1782968807228620500,0.68562060546875,-1.0942840576171875,-0.3992156982421875,0.0814056396484375
1782968807238547200,0.695547119140625,-1.08111572265625,-0.42767333984375,0.0991363525390625
1782968807248473300,0.705473388671875,-1.0929718017578125,-0.4544830322265625,0.1154327392578125
1782968807258399500,0.7153994140625,-1.11468505859375,-0.4708404541015625,0.1257171630859375
1782968807268326400,0.725326416015625,-1.1042633056640625,-0.4695587158203125,0.1274566650390625
1782968807278252300,0.735252197265625,-1.0694427490234375,-0.4751739501953125,0.138397216796875
1782968807288178400,0.745178466796875,-1.015899658203125,-0.536590576171875,0.1285400390625
1782968807298105600,0.755105712890625,-0.9392852783203125,-0.5882720947265625,0.1315155029296875
1782968807308031200,0.76503125,-0.88006591796875,-0.603759765625,0.1349334716796875
1782968807317957400,0.774957275390625,-0.854522705078125,-0.5974578857421875,0.1275787353515625
1782968807327884500,0.784884521484375,-0.867523193359375,-0.5952911376953125,0.129791259765625
1782968807337810400,0.794810546875,-0.899993896484375,-0.5855560302734375,0.1146087646484375
1782968807347736300,0.804736328125,-0.9791107177734375,-0.5596923828125,0.1388092041015625
1782968807357663500,0.81466357421875,-1.0427703857421875,-0.5639495849609375,0.208892822265625
1782968807367589400,0.82458935546875,-1.0989227294921875,-0.5198211669921875,0.1850433349609375
1782968807377515300,0.834515380859375,-1.158233642578125,-0.4508056640625,0.176727294921875
1782968807387442400,0.8444423828125,-1.213348388671875,-0.4131317138671875,0.1969757080078125
1782968807397368300,0.854368408203125,-1.2476348876953125,-0.3811798095703125,0.20751953125
1782968807407294500,0.86429443359375,-1.2364959716796875,-0.3571624755859375,0.20025634765625
1782968807417221600,0.8742216796875,-1.198028564453125,-0.3553619384765625,0.1849822998046875
1782968807427147300,0.884147216796875,-1.1531524658203125,-0.369110107421875,0.1544952392578125
1782968807437073400,0.894073486328125,-1.1061248779296875,-0.381317138671875,0.109527587890625
1782968807447000600,0.90400048828125,-1.0888671875,-0.3936004638671875,0.07073974609375
1782968807456926500,0.913926513671875,-1.0914764404296875,-0.390533447265625,0.0468292236328125
1782968807466852400,0.923852294921875,-1.0743408203125,-0.37274169921875,0.0172271728515625
1782968807476779500,0.933779541015625,-1.091827392578125,-0.33734130859375,0.06353759765625
1782968807486705700,0.94370556640625,-1.1292877197265625,-0.29217529296875,0.1503448486328125
1782968807496631300,0.95363134765625,-1.1746368408203125,-0.210540771484375,0.178253173828125
1782968807506558500,0.963558349609375,-1.228790283203125,-0.130859375,0.181793212890625
1782968807516484600,0.973484619140625,-1.2665863037109375,-0.0900115966796875,0.1818695068359375
1782968807526410200,0.98341015625,-1.2631988525390625,-0.0796051025390625,0.1750946044921875
1782968807536337400,0.99333740234375,-1.224700927734375,-0.068572998046875,0.1368255615234375
1782968807546263600,1.003263671875,-1.16375732421875,-0.0560150146484375,0.0839691162109375
1782968807556189400,1.013189453125,-1.0879974365234375,-0.0525054931640625,0.0373077392578125
1782968807566116400,1.023116455078125,-1.0113372802734375,-0.059326171875,-0.01336669921875
1782968807576042500,1.03304248046875,-0.9410552978515625,-0.0651092529296875,-0.0714569091796875
1782968807585968400,1.042968505859375,-0.9080352783203125,-0.0685272216796875,-0.1106414794921875
1782968807595895600,1.0528955078125,-0.924652099609375,-0.066253662109375,-0.1228485107421875
1782968807605821400,1.062821533203125,-0.9745941162109375,-0.034912109375,-0.108489990234375
1782968807615747300,1.072747314453125,-1.0423736572265625,0.0190277099609375,-0.1055755615234375
1782968807625674500,1.082674560546875,-1.1014556884765625,0.072052001953125,-0.118072509765625
1782968807635600400,1.092600341796875,-1.1464996337890625,0.108978271484375,-0.1251983642578125
1782968807645526500,1.102526611328125,-1.16473388671875,0.1278533935546875,-0.1265106201171875
1782968807655453400,1.112453369140625,-1.1425628662109375,0.135040283203125,-0.1236419677734375
1782968807665379600,1.122379638671875,-1.1036376953125,0.1287994384765625,-0.1133880615234375
1782968807675305500,1.132305419921875,-1.0510711669921875,0.1121978759765625,-0.1046905517578125
1782968807685232400,1.142232421875,-0.9940032958984375,0.099456787109375,-0.111328125
1782968807695158500,1.152158447265625,-0.945404052734375,0.0899658203125,-0.1268157958984375
1782968807705084400,1.16208447265625,-0.905914306640625,0.077789306640625,-0.13189697265625
1782968807715011300,1.17201123046875,-0.876983642578125,0.06622314453125,-0.1271820068359375
1782968807724938500,1.1819384765625,-0.854034423828125,0.0621490478515625,-0.1092376708984375
1782968807734864400,1.191864501953125,-0.8535308837890625,0.0777740478515625,-0.0691986083984375
1782968807744791300,1.201791259765625,-0.8939666748046875,0.120635986328125,-0.0300140380859375
1782968807754717400,1.211717529296875,-0.949981689453125,0.16790771484375,-0.0102386474609375
1782968807764643300,1.221643310546875,-0.9845123291015625,0.210968017578125,-0.0182952880859375
1782968807774570500,1.231570556640625,-1.009613037109375,0.242767333984375,-0.0716705322265625
1782968807784496400,1.241496337890625,-1.0035858154296875,0.260650634765625,-0.055023193359375
1782968807794422300,1.25142236328125,-1.0589599609375,0.2346038818359375,-0.0638427734375
1782968807804349400,1.261349365234375,-1.081085205078125,0.2242584228515625,-0.15679931640625
1782968807814275600,1.271275634765625,-1.0316619873046875,0.1990509033203125,-0.2037353515625
1782968807824201500,1.281201416015625,-0.97265625,0.1666412353515625,-0.233367919921875
1782968807834128400,1.29112841796875,-0.9086456298828125,0.1602783203125,-0.27471923828125
1782968807844054500,1.301054443359375,-0.8447723388671875,0.15728759765625,-0.32464599609375
1782968807853980400,1.31098046875,-0.802154541015625,0.1321563720703125,-0.3208160400390625
1782968807863907300,1.3209072265625,-0.7747955322265625,0.1310577392578125,-0.315093994140625
1782968807873833500,1.33083349609375,-0.7619171142578125,0.1341400146484375,-0.3214874267578125
1782968807883759600,1.340759521484375,-0.7929840087890625,0.1330413818359375,-0.2900238037109375
1782968807893686300,1.350686279296875,-0.8598785400390625,0.1331024169921875,-0.2355194091796875
1782968807903612400,1.3606123046875,-0.937255859375,0.14111328125,-0.19012451171875
1782968807913538600,1.37053857421875,-0.9906768798828125,0.1584320068359375,-0.1495819091796875
1782968807923465500,1.380465576171875,-0.9998321533203125,0.18798828125,-0.115234375
1782968807933391400,1.390391357421875,-0.963348388671875,0.20086669921875,-0.09271240234375
1782968807943317500,1.4003173828125,-0.9168548583984375,0.19195556640625,-0.0736846923828125
1782968807953243400,1.410243408203125,-0.88494873046875,0.15985107421875,-0.0810089111328125
1782968807963170300,1.42017041015625,-0.8272247314453125,0.127960205078125,-0.1038665771484375
1782968807973096400,1.430096435546875,-0.798370361328125,0.093658447265625,-0.1392822265625
1782968807983022300,1.440022216796875,-0.8183441162109375,0.071807861328125,-0.1869964599609375
1782968807992949500,1.449949462890625,-0.8735504150390625,0.0541839599609375,-0.2211456298828125
1782968808002875400,1.45987548828125,-0.9346160888671875,0.0317535400390625,-0.2305145263671875
1782968808012801500,1.469801513671875,-0.9773406982421875,0.0143280029296875,-0.2301483154296875
1782968808022728400,1.479728515625,-0.994720458984375,0.0088653564453125,-0.2252349853515625
1782968808032654300,1.489654296875,-1.0003509521484375,0.0044097900390625,-0.2180938720703125
1782968808042580500,1.49958056640625,-0.9983367919921875,-0.00299072265625,-0.2050628662109375
1782968808052507400,1.50950732421875,-0.9837646484375,-0.017303466796875,-0.180938720703125
1782968808062433500,1.51943359375,-0.9493865966796875,-0.043670654296875,-0.1417083740234375
1782968808072359400,1.529359375,-0.906280517578125,-0.0729827880859375,-0.111724853515625
1782968808082286300,1.539286376953125,-0.8756866455078125,-0.1041107177734375,-0.10748291015625
1782968808092212500,1.54921240234375,-0.86907958984375,-0.1461029052734375,-0.117034912109375
1782968808102138400,1.559138427734375,-0.868255615234375,-0.1940460205078125,-0.1259613037109375
1782968808112065300,1.569065185546875,-0.8877105712890625,-0.234893798828125,-0.1289215087890625
1782968808121991400,1.578991455078125,-0.9342498779296875,-0.2591705322265625,-0.1214447021484375
1782968808131917600,1.58891748046875,-1.0008544921875,-0.2721099853515625,-0.123291015625
1782968808141844200,1.59884423828125,-1.0759735107421875,-0.2865142822265625,-0.147796630859375
1782968808151770400,1.608770263671875,-1.1546630859375,-0.3061981201171875,-0.1782684326171875
1782968808161696500,1.618696533203125,-1.2256622314453125,-0.32513427734375,-0.20452880859375
1782968808171623400,1.62862353515625,-1.2684173583984375,-0.3326873779296875,-0.2142333984375
1782968808181549300,1.63854931640625,-1.26593017578125,-0.3419342041015625,-0.2080230712890625
1782968808191475500,1.648475341796875,-1.2655181884765625,-0.372283935546875,-0.1870269775390625
1782968808201402400,1.65840234375,-1.2381591796875,-0.3980255126953125,-0.1575164794921875
1782968808211328500,1.66832861328125,-1.174713134765625,-0.4209136962890625,-0.1121978759765625
1782968808221254400,1.67825439453125,-1.0966033935546875,-0.438629150390625,-0.0587005615234375
1782968808231181300,1.688181396484375,-1.017974853515625,-0.459197998046875,-0.00091552734375
1782968808241107500,1.698107421875,-0.951812744140625,-0.48956298828125,0.0530242919921875
1782968808251033300,1.708033447265625,-0.8908538818359375,-0.5256195068359375,0.078399658203125
1782968808260960300,1.717960205078125,-0.8707733154296875,-0.5627288818359375,0.0910491943359375
1782968808270886400,1.727886474609375,-0.8677520751953125,-0.62359619140625,0.066192626953125
1782968808280812500,1.7378125,-0.848114013671875,-0.721527099609375,-0.0215911865234375
1782968808290739200,1.7477392578125,-0.8375091552734375,-0.8031463623046875,-0.1059417724609375
1782968808300665300,1.757665283203125,-0.8307342529296875,-0.7950286865234375,-0.1365814208984375
1782968808310591500,1.767591552734375,-0.823150634765625,-0.6427459716796875,-0.041015625
1782968808320518400,1.777518310546875,-0.836090087890625,-0.4463958740234375,0.1485443115234375
1782968808330444300,1.7874443359375,-0.8859710693359375,-0.363525390625,0.36285400390625
1782968808340370400,1.797370361328125,-0.95001220703125,-0.39544677734375,0.5014801025390625
1782968808350297300,1.80729736328125,-1.0281829833984375,-0.46124267578125,0.5376129150390625
1782968808360223200,1.81722314453125,-1.094635009765625,-0.485260009765625,0.513671875
1782968808370149400,1.8271494140625,-1.1396331787109375,-0.46075439453125,0.4516754150390625
1782968808380076300,1.837076171875,-1.14630126953125,-0.4086456298828125,0.391326904296875
1782968808390002400,1.84700244140625,-1.1198272705078125,-0.3801422119140625,0.363433837890625
1782968808399928300,1.85692822265625,-1.1004486083984375,-0.3669586181640625,0.3440704345703125
1782968808409854500,1.8668544921875,-1.0963287353515625,-0.34130859375,0.29388427734375
1782968808419781400,1.876781494140625,-1.110931396484375,-0.3359222412109375,0.230194091796875
1782968808429707300,1.886707275390625,-1.12933349609375,-0.340118408203125,0.16754150390625
1782968808439634400,1.896634521484375,-1.137451171875,-0.340606689453125,0.1127777099609375
1782968808449560300,1.906560302734375,-1.1275634765625,-0.3317718505859375,0.0850830078125
1782968808459486500,1.916486572265625,-1.0959014892578125,-0.3127593994140625,0.0892181396484375
1782968808469412400,1.926412353515625,-1.0642852783203125,-0.2879791259765625,0.112701416015625
1782968808479339300,1.93633935546875,-1.0532684326171875,-0.250946044921875,0.153350830078125
1782968808489265400,1.946265380859375,-1.0601348876953125,-0.20489501953125,0.18560791015625
1782968808499191300,1.95619140625,-1.0734405517578125,-0.1573944091796875,0.1890411376953125
1782968808509118200,1.9661181640625,-1.08843994140625,-0.12298583984375,0.1688690185546875
1782968808519044400,1.97604443359375,-1.1048736572265625,-0.100555419921875,0.1428680419921875
1782968808528970500,1.985970458984375,-1.1147918701171875,-0.085845947265625,0.1236114501953125
1782968808538897200,1.995897216796875,-1.117889404296875,-0.0725555419921875,0.1182708740234375
1782968808548823300,2.0058232421875,-1.120574951171875,-0.056610107421875,0.120574951171875
1782968808558749400,2.01574951171875,-1.139007568359375,-0.0268707275390625,0.11065673828125
1782968808568676400,2.02567626953125,-1.145538330078125,0.0173797607421875,0.0872039794921875
1782968808578602200,2.035602294921875,-1.1344757080078125,0.0390472412109375,0.0493011474609375
1782968808588528400,2.0455283203125,-1.1051025390625,0.028594970703125,-0.0076904296875
1782968808598455600,2.05545556640625,-1.0740509033203125,0.015777587890625,-0.0701751708984375
1782968808608381200,2.065381103515625,-1.0642852783203125,0.01153564453125,-0.130523681640625
1782968808618307300,2.075307373046875,-1.0807647705078125,0.0147247314453125,-0.179168701171875
1782968808628234500,2.085234375,-1.1117401123046875,0.0279388427734375,-0.2086029052734375
1782968808638160400,2.095160400390625,-1.139251708984375,0.0481719970703125,-0.2133026123046875
1782968808648086300,2.105086181640625,-1.15924072265625,0.073394775390625,-0.2000579833984375
1782968808658013400,2.115013427734375,-1.1689910888671875,0.0948028564453125,-0.1772003173828125
1782968808667939300,2.124939208984375,-1.147186279296875,0.1069793701171875,-0.1499176025390625
1782968808677865500,2.134865478515625,-1.0947723388671875,0.1134185791015625,-0.1164093017578125
1782968808687792400,2.14479248046875,-1.034576416015625,0.1117095947265625,-0.090484619140625
1782968808697718300,2.15471826171875,-0.986541748046875,0.1023712158203125,-0.074676513671875
1782968808707644400,2.16464453125,-0.9516448974609375,0.0889434814453125,-0.0552215576171875
1782968808717571600,2.174571533203125,-0.9196319580078125,0.0744781494140625,-0.0304412841796875
1782968808727496700,2.18449658203125,-0.893951416015625,0.0715484619140625,-0.0045928955078125
1782968808737422600,2.194422607421875,-0.882781982421875,0.0744171142578125,0.0130767822265625
1782968808747349800,2.204349853515625,-0.8872222900390625,0.08447265625,0.0147552490234375
1782968808757275600,2.214275634765625,-0.8886260986328125,0.097320556640625,-0.008636474609375
1782968808767201500,2.224201416015625,-0.8901824951171875,0.1073150634765625,-0.050323486328125
1782968808777128700,2.234128662109375,-0.89263916015625,0.112640380859375,-0.101470947265625
1782968808787054600,2.2440546875,-0.8996124267578125,0.114410400390625,-0.1598052978515625
1782968808796980700,2.253980712890625,-0.888336181640625,0.1083984375,-0.2147674560546875
1782968808806907600,2.26390771484375,-0.84991455078125,0.099029541015625,-0.254547119140625
1782968808816833800,2.273833740234375,-0.805572509765625,0.093017578125,-0.2825164794921875
1782968808826759700,2.283759765625,-0.7735595703125,0.092987060546875,-0.300689697265625
1782968808836686600,2.2936865234375,-0.770477294921875,0.101165771484375,-0.302764892578125
1782968808846612700,2.30361279296875,-0.8017120361328125,0.11041259765625,-0.2932891845703125
1782968808856538600,2.31353857421875,-0.8639678955078125,0.1204986572265625,-0.28143310546875
1782968808866465500,2.323465576171875,-0.9374542236328125,0.1282196044921875,-0.2692413330078125
1782968808876391700,2.3333916015625,-1.0108642578125,0.143218994140625,-0.252899169921875
1782968808886317800,2.34331787109375,-1.0647430419921875,0.1621246337890625,-0.234832763671875
1782968808896243500,2.353243408203125,-1.083251953125,0.1831512451171875,-0.2116851806640625
1782968808906170600,2.363170654296875,-1.057342529296875,0.194915771484375,-0.1916961669921875
1782968808916096800,2.3730966796875,-0.99456787109375,0.1921539306640625,-0.18341064453125
1782968808926023700,2.383023681640625,-0.910919189453125,0.17047119140625,-0.1746673583984375
1782968808935949600,2.392949462890625,-0.83709716796875,0.1458282470703125,-0.1700439453125
1782968808945875700,2.402875732421875,-0.7887115478515625,0.124176025390625,-0.1881256103515625
1782968808955801600,2.412801513671875,-0.7581634521484375,0.1011505126953125,-0.21826171875
1782968808965728500,2.422728515625,-0.7399749755859375,0.0796356201171875,-0.24066162109375
1782968808975654700,2.432654541015625,-0.7491912841796875,0.062286376953125,-0.2505035400390625
1782968808985580800,2.442580810546875,-0.7923431396484375,0.0550384521484375,-0.2555999755859375
1782968808995507700,2.4525078125,-0.8462677001953125,0.0550384521484375,-0.26837158203125
1782968809005433600,2.46243359375,-0.90545654296875,0.0533905029296875,-0.2793426513671875
1782968809015359700,2.47235986328125,-0.962860107421875,0.050140380859375,-0.28936767578125
1782968809025286700,2.48228662109375,-1.0143280029296875,0.0472564697265625,-0.297149658203125
1782968809035212800,2.492212890625,-1.0543365478515625,0.0406494140625,-0.2952423095703125
1782968809045138700,2.502138671875,-1.083587646484375,0.025177001953125,-0.275726318359375
1782968809055065600,2.512065673828125,-1.1015777587890625,0.0050811767578125,-0.2425079345703125
1782968809064991700,2.52199169921875,-1.0927581787109375,-0.00933837890625,-0.2034149169921875
1782968809074917600,2.531917724609375,-1.0626373291015625,-0.021759033203125,-0.160369873046875
1782968809084844500,2.541844482421875,-1.0265350341796875,-0.042236328125,-0.128082275390625
1782968809094770700,2.551770751953125,-1.0037994384765625,-0.07110595703125,-0.1069793701171875
1782968809104696800,2.56169677734375,-0.9904937744140625,-0.1034698486328125,-0.0951080322265625
1782968809114623500,2.57162353515625,-0.9875335693359375,-0.1414031982421875,-0.076568603515625
1782968809124549600,2.581549560546875,-0.99993896484375,-0.179779052734375,-0.0632171630859375
1782968809134475800,2.591475830078125,-1.029754638671875,-0.2066192626953125,-0.064117431640625
1782968809144402700,2.601402587890625,-1.06744384765625,-0.2239990234375,-0.0744476318359375
1782968809154328600,2.61132861328125,-1.1074676513671875,-0.2423858642578125,-0.0721282958984375
1782968809164254700,2.621254638671875,-1.1350555419921875,-0.263885498046875,-0.059417724609375
1782968809174181600,2.631181640625,-1.1428070068359375,-0.282684326171875,-0.04486083984375
1782968809184107500,2.641107421875,-1.14202880859375,-0.29486083984375,-0.0336151123046875
1782968809194033700,2.65103369140625,-1.1376953125,-0.3121795654296875,-0.0202484130859375
1782968809203960600,2.660960693359375,-1.1302947998046875,-0.3376007080078125,-0.00738525390625
1782968809213886700,2.67088671875,-1.11407470703125,-0.3596954345703125,0.000457763671875
1782968809223812600,2.6808125,-1.0948486328125,-0.3834381103515625,0.00030517578125
1782968809233739500,2.690739501953125,-1.0755157470703125,-0.4031982421875,0.000030517578125
1782968809243665700,2.700665771484375,-1.070556640625,-0.4245452880859375,0.012451171875
1782968809253591600,2.710591552734375,-1.0736236572265625,-0.435577392578125,0.0357513427734375
1782968809263518500,2.7205185546875,-1.0738677978515625,-0.4370269775390625,0.0616912841796875
1782968809273444600,2.730444580078125,-1.0683441162109375,-0.4446563720703125,0.0717620849609375
1782968809283370800,2.740370849609375,-1.0590362548828125,-0.4566192626953125,0.0672454833984375
1782968809293297400,2.75029736328125,-1.0503387451171875,-0.47113037109375,0.0543212890625
1782968809303223600,2.7602236328125,-1.041046142578125,-0.4835357666015625,0.038238525390625
1782968809313149700,2.770149658203125,-1.0087127685546875,-0.4890594482421875,0.0401458740234375
1782968809323076600,2.78007666015625,-0.97235107421875,-0.482696533203125,0.054412841796875
1782968809333002500,2.79000244140625,-0.956512451171875,-0.4554901123046875,0.0832672119140625
1782968809342928600,2.7999287109375,-0.98638916015625,-0.4359283447265625,0.1009521484375
1782968809352855800,2.809855712890625,-1.0239410400390625,-0.43798828125,0.1071929931640625
1782968809362781400,2.819781494140625,-1.05120849609375,-0.4353179931640625,0.11859130859375
1782968809372707600,2.82970751953125,-1.0588836669921875,-0.4112701416015625,0.133087158203125
1782968809382633700,2.8396337890625,-1.050689697265625,-0.378570556640625,0.146026611328125
1782968809392560600,2.849560546875,-1.0378570556640625,-0.3514251708984375,0.156158447265625
1782968809402486500,2.859486572265625,-1.0230865478515625,-0.338897705078125,0.1566925048828125
1782968809412412700,2.86941259765625,-1.01287841796875,-0.3365936279296875,0.1438446044921875
1782968809422339600,2.879339599609375,-1.008087158203125,-0.3363189697265625,0.127044677734375
1782968809432265500,2.889265380859375,-1.00335693359375,-0.3355255126953125,0.1005096435546875
1782968809442191600,2.899191650390625,-1.0051116943359375,-0.331390380859375,0.07818603515625
1782968809452118500,2.909118408203125,-1.0149078369140625,-0.3252716064453125,0.058624267578125
1782968809462044700,2.919044677734375,-1.0368194580078125,-0.312835693359375,0.0449371337890625
1782968809471970600,2.928970458984375,-1.063873291015625,-0.2939605712890625,0.03814697265625
1782968809481897500,2.9388974609375,-1.0794677734375,-0.2636871337890625,0.0430755615234375
1782968809491823600,2.94882373046875,-1.0884552001953125,-0.228851318359375,0.045623779296875
1782968809501749800,2.958749755859375,-1.0867156982421875,-0.19525146484375,0.040496826171875
1782968809511676700,2.9686767578125,-1.0775146484375,-0.1638946533203125,0.0347137451171875
1782968809521602600,2.9786025390625,-1.0714874267578125,-0.1403961181640625,0.0272216796875
1782968809531528700,2.98852880859375,-1.0849151611328125,-0.11865234375,0.0136566162109375
1782968809541456000,2.998455810546875,-1.0926513671875,-0.09735107421875,0.0003509521484375
1782968809551381500,3.008381591796875,-1.08087158203125,-0.0790557861328125,-0.00653076171875
1782968809561307600,3.0183076171875,-1.0589141845703125,-0.0628204345703125,-0.0130767822265625
1782968809571234800,3.02823486328125,-1.03125,-0.04681396484375,-0.0251007080078125
1782968809581160400,3.038160400390625,-1.00164794921875,-0.0323638916015625,-0.04388427734375
1782968809591086600,3.048086669921875,-0.9739990234375,-0.0239715576171875,-0.06805419921875
1782968809601013800,3.058013671875,-0.95611572265625,-0.0218505859375,-0.09716796875
1782968809610939600,3.067939697265625,-0.94903564453125,-0.020050048828125,-0.124176025390625
1782968809620865500,3.077865478515625,-0.94610595703125,-0.0201568603515625,-0.1448822021484375
1782968809630792700,3.087792724609375,-0.9539642333984375,-0.0127716064453125,-0.1556549072265625
1782968809640718600,3.097718505859375,-0.9796295166015625,0.008575439453125,-0.1592254638671875
1782968809650644500,3.10764453125,-1.006256103515625,0.0320892333984375,-0.15875244140625
1782968809660571600,3.117571533203125,-1.0272979736328125,0.048248291015625,-0.156768798828125
1782968809670497500,3.12749755859375,-1.0404052734375,0.0613555908203125,-0.1530914306640625
1782968809680423700,3.137423583984375,-1.05657958984375,0.0684661865234375,-0.1574554443359375
1782968809690350600,3.1473505859375,-1.06787109375,0.0761260986328125,-0.1627197265625
1782968809700276700,3.15727685546875,-1.065338134765625,0.0781097412109375,-0.1605072021484375
1782968809710202600,3.16720263671875,-1.0497283935546875,0.0823211669921875,-0.155426025390625
1782968809720130000,3.177130126953125,-1.0289306640625,0.0871124267578125,-0.1501312255859375
1782968809730056000,3.187055908203125,-1.003631591796875,0.086456298828125,-0.14178466796875
1782968809739981800,3.19698193359375,-0.9752960205078125,0.0868988037109375,-0.132110595703125
1782968809749909000,3.206908935546875,-0.96002197265625,0.08905029296875,-0.1214141845703125
1782968809759835000,3.2168349609375,-0.955108642578125,0.092041015625,-0.1149444580078125
1782968809769760800,3.2267607421875,-0.94989013671875,0.100982666015625,-0.116851806640625
1782968809779687000,3.23668701171875,-0.9437408447265625,0.10443115234375,-0.127838134765625
1782968809789614000,3.246614013671875,-0.9506683349609375,0.1089019775390625,-0.14898681640625
1782968809799539700,3.256539794921875,-0.9584808349609375,0.1095428466796875,-0.1839752197265625
1782968809809465900,3.2664658203125,-0.9542236328125,0.1070098876953125,-0.225250244140625
1782968809819393000,3.27639306640625,-0.945648193359375,0.0985870361328125,-0.2689208984375
1782968809829319000,3.28631884765625,-0.9510040283203125,0.0888519287109375,-0.3060760498046875
1782968809839244800,3.296244873046875,-0.9730224609375,0.0778961181640625,-0.3332977294921875
1782968809849172000,3.306171875,-1.0057373046875,0.0747528076171875,-0.336700439453125
1782968809859097900,3.316097900390625,-1.034881591796875,0.0822906494140625,-0.3181915283203125
1782968809869023700,3.326023681640625,-1.0411834716796875,0.1029205322265625,-0.28045654296875
1782968809878951000,3.335950927734375,-1.014129638671875,0.1280975341796875,-0.2311859130859375
1782968809888876800,3.345876708984375,-0.9616546630859375,0.1451263427734375,-0.186614990234375
1782968809898803000,3.355802978515625,-0.8950958251953125,0.1520538330078125,-0.1481781005859375
1782968809908729900,3.365729736328125,-0.8339996337890625,0.1525726318359375,-0.121734619140625
1782968809918656000,3.375656005859375,-0.794158935546875,0.1467437744140625,-0.1175689697265625
1782968809928582000,3.385581787109375,-0.778411865234375,0.141448974609375,-0.1327972412109375
1782968809938509000,3.395509033203125,-0.776824951171875,0.1322479248046875,-0.1648101806640625
1782968809948435000,3.40543505859375,-0.792724609375,0.1173858642578125,-0.207275390625
1782968809958360800,3.41536083984375,-0.825164794921875,0.098663330078125,-0.244903564453125
1782968809968288000,3.4252880859375,-0.86865234375,0.0860443115234375,-0.2779541015625
1782968809978214000,3.4352138671875,-0.9181365966796875,0.0738983154296875,-0.3074798583984375
1782968809988139800,3.445139892578125,-0.964599609375,0.063018798828125,-0.3230743408203125
1782968809998067000,3.45506689453125,-1.01165771484375,0.06280517578125,-0.323333740234375
1782968810007993000,3.4649931640625,-1.0567779541015625,0.06512451171875,-0.3085784912109375
1782968810017918700,3.474918701171875,-1.0776824951171875,0.0702362060546875,-0.2884674072265625
1782968810027846000,3.484845947265625,-1.070831298828125,0.0701141357421875,-0.259613037109375
1782968810037772000,3.49477197265625,-1.0423126220703125,0.05877685546875,-0.221893310546875
1782968810047697700,3.50469775390625,-0.9967803955078125,0.0417022705078125,-0.1815643310546875
1782968810057624800,3.514624755859375,-0.942840576171875,0.0213775634765625,-0.1506195068359375
1782968810067551000,3.524551025390625,-0.905517578125,-0.0030975341796875,-0.1306304931640625
1782968810077476900,3.534476806640625,-0.8957672119140625,-0.0301361083984375,-0.121856689453125
1782968810087403800,3.54440380859375,-0.90411376953125,-0.057403564453125,-0.128143310546875
1782968810097330000,3.554329833984375,-0.9205474853515625,-0.085296630859375,-0.1496734619140625
1782968810107255800,3.564255859375,-0.9387359619140625,-0.1154937744140625,-0.1651611328125
1782968810117183000,3.574182861328125,-0.97314453125,-0.149017333984375,-0.1624755859375
1782968810127108900,3.58410888671875,-1.026031494140625,-0.175872802734375,-0.143035888671875
1782968810137035000,3.594034912109375,-1.07647705078125,-0.182220458984375,-0.1230621337890625
1782968810146962000,3.6039619140625,-1.1149444580078125,-0.19024658203125,-0.1032562255859375
1782968810156887800,3.6138876953125,-1.1364898681640625,-0.2014617919921875,-0.083831787109375
1782968810166814000,3.62381396484375,-1.1419830322265625,-0.212799072265625,-0.068115234375
1782968810176740900,3.633740966796875,-1.1392974853515625,-0.2274169921875,-0.0621185302734375
1782968810186667000,3.6436669921875,-1.126708984375,-0.248199462890625,-0.06243896484375
1782968810196593000,3.653593017578125,-1.1104736328125,-0.2803802490234375,-0.0638427734375
1782968810206518800,3.663518798828125,-1.0936431884765625,-0.3068084716796875,-0.0584564208984375
1782968810216446000,3.673446044921875,-1.07208251953125,-0.323150634765625,-0.041107177734375
1782968810226372000,3.6833720703125,-1.0417022705078125,-0.3284759521484375,-0.0191497802734375
1782968810236297700,3.693297607421875,-1.0040740966796875,-0.3376617431640625,-0.0082550048828125
1782968810246225000,3.703224853515625,-0.9683990478515625,-0.347900390625,-0.0019683837890625
1782968810256151000,3.713151123046875,-0.9438323974609375,-0.373291015625,-0.0102996826171875
1782968810266077000,3.723076904296875,-0.9313812255859375,-0.4114532470703125,-0.0206298828125
1782968810276003800,3.73300390625,-0.9329071044921875,-0.4468994140625,-0.03021240234375
1782968810285930000,3.742929931640625,-0.947662353515625,-0.465423583984375,-0.040985107421875
1782968810295855900,3.75285595703125,-0.959014892578125,-0.4780426025390625,-0.0517578125
1782968810305782800,3.76278271484375,-0.959686279296875,-0.5060882568359375,-0.0592498779296875
1782968810315709000,3.772708984375,-0.9434356689453125,-0.52899169921875,-0.0637664794921875
1782968810325635000,3.782635009765625,-0.9077606201171875,-0.5242156982421875,-0.0462646484375
1782968810335562000,3.79256201171875,-0.872161865234375,-0.480987548828125,0.0151214599609375
1782968810345488000,3.80248779296875,-0.886260986328125,-0.4045867919921875,0.1118621826171875
1782968810355414000,3.8124140625,-0.95166015625,-0.3928070068359375,0.1878662109375
1782968810365341000,3.8223408203125,-1.0215911865234375,-0.41217041015625,0.2417449951171875
1782968810375266800,3.832266845703125,-1.0622406005859375,-0.4136962890625,0.2579498291015625
1782968810385193000,3.84219287109375,-1.06781005859375,-0.388397216796875,0.2549285888671875
1782968810395119900,3.852119873046875,-1.0518646240234375,-0.35986328125,0.2455902099609375
1782968810405046000,3.8620458984375,-1.040008544921875,-0.350189208984375,0.2356719970703125
1782968810414972000,3.871971923828125,-1.04248046875,-0.357208251953125,0.2120361328125
1782968810424898800,3.88189892578125,-1.06329345703125,-0.3668670654296875,0.1682586669921875
1782968810434825000,3.891824951171875,-1.085235595703125,-0.372314453125,0.1145477294921875
1782968810444750800,3.901750732421875,-1.1013336181640625,-0.3802337646484375,0.0648345947265625
1782968810454677800,3.911677734375,-1.110321044921875,-0.3845062255859375,0.0194244384765625
1782968810464604000,3.92160400390625,-1.1066436767578125,-0.3798828125,-0.0162353515625
1782968810474530000,3.931530029296875,-1.1042633056640625,-0.3660125732421875,-0.03057861328125
1782968810484456700,3.941456787109375,-1.109527587890625,-0.34173583984375,-0.0259552001953125
1782968810494382800,3.9513828125,-1.1141510009765625,-0.3095855712890625,-0.0065765380859375
1782968810504309000,3.96130908203125,-1.116363525390625,-0.2761688232421875,0.0093536376953125
1782968810514236000,3.97123583984375,-1.11383056640625,-0.243316650390625,0.0189056396484375
1782968810524161800,3.981161865234375,-1.111907958984375,-0.20806884765625,0.029754638671875
1782968810534086000,3.9910859375,-1.1074371337890625,-0.176177978515625,0.0405120849609375
1782968810544011800,4.00101171875,-1.09832763671875,-0.1403045654296875,0.05377197265625
1782968810553938000,4.01093798828125,-1.083770751953125,-0.1086273193359375,0.0669403076171875
1782968810563864800,4.02086474609375,-1.0677032470703125,-0.0866546630859375,0.0704193115234375
1782968810573790700,4.030790771484375,-1.03973388671875,-0.0785980224609375,0.0603790283203125
1782968810583716900,4.040716796875,-1.012481689453125,-0.0767822265625,0.0337982177734375
1782968810593643800,4.050643798828125,-0.99383544921875,-0.0764007568359375,-0.017364501953125
1782968810603570000,4.06056982421875,-0.9958648681640625,-0.0781402587890625,-0.0863800048828125
1782968810613495800,4.070495849609375,-1.01495361328125,-0.0892181396484375,-0.1519012451171875
1782968810623423000,4.080423095703125,-1.0278778076171875,-0.1066436767578125,-0.190093994140625
1782968810633348900,4.090348876953125,-1.0487060546875,-0.104644775390625,-0.202911376953125
1782968810643274800,4.100274658203125,-1.0895538330078125,-0.0714263916015625,-0.2112579345703125
1782968810653202000,4.110201904296875,-1.1460113525390625,-0.0292816162109375,-0.21807861328125
1782968810663127800,4.1201279296875,-1.2124481201171875,0.011749267578125,-0.20330810546875
1782968810673054000,4.130053955078125,-1.2630157470703125,0.0510711669921875,-0.169189453125
1782968810682980900,4.13998095703125,-1.2850799560546875,0.0878753662109375,-0.1423492431640625
1782968810692906800,4.14990673828125,-1.264068603515625,0.113494873046875,-0.1376800537109375
1782968810702833000,4.1598330078125,-1.2071990966796875,0.113250732421875,-0.1344451904296875
1782968810712760000,4.169760009765625,-1.1303253173828125,0.096832275390625,-0.12542724609375
1782968810722685700,4.179685791015625,-1.0542449951171875,0.0816802978515625,-0.111114501953125
1782968810732612000,4.189612060546875,-0.9897003173828125,0.08148193359375,-0.0949859619140625
1782968810742539300,4.199539306640625,-0.9419708251953125,0.088653564453125,-0.0696258544921875
1782968810752465000,4.20946484375,-0.9084930419921875,0.10076904296875,-0.032928466796875
1782968810762391000,4.21939111328125,-0.8862762451171875,0.12738037109375,0.0124053955078125
1782968810772318200,4.229318115234375,-0.8725738525390625,0.1634674072265625,0.0430145263671875
1782968810782243800,4.239243896484375,-0.863128662109375,0.195404052734375,0.0364227294921875
1782968810792170000,4.249169921875,-0.8516387939453125,0.2101898193359375,0.010345458984375
1782968810802097200,4.25909716796875,-0.830322265625,0.204925537109375,-0.0190582275390625
1782968810812023000,4.26902294921875,-0.8079681396484375,0.181854248046875,-0.0485992431640625
1782968810821949000,4.278948974609375,-0.787261962890625,0.1586456298828125,-0.0907745361328125
1782968810831876000,4.2888759765625,-0.7607421875,0.1456146240234375,-0.1390228271484375
1782968810841802200,4.29880224609375,-0.730499267578125,0.1345977783203125,-0.1792755126953125
1782968810851728000,4.308727783203125,-0.7012481689453125,0.124237060546875,-0.1976470947265625
1782968810861655000,4.318655029296875,-0.6843719482421875,0.11798095703125,-0.1945037841796875
1782968810871581200,4.328581298828125,-0.693328857421875,0.1252593994140625,-0.204833984375
1782968810881507000,4.338507080078125,-0.71923828125,0.1273651123046875,-0.213653564453125
1782968810891434000,4.34843408203125,-0.7718963623046875,0.1189117431640625,-0.2155609130859375
1782968810901360000,4.358360107421875,-0.859649658203125,0.11383056640625,-0.21771240234375
1782968810911286000,4.3682861328125,-0.9583892822265625,0.122833251953125,-0.2201995849609375
1782968810921213200,4.378213134765625,-1.0434417724609375,0.157501220703125,-0.2444610595703125
1782968810931139000,4.38813916015625,-1.1229095458984375,0.139373779296875,-0.1342620849609375
1782968810941065000,4.39806494140625,-1.138916015625,0.1534881591796875,-0.101226806640625
1782968810950992100,4.4079921875,-1.112152099609375,0.200347900390625,-0.102813720703125
1782968810960919000,4.4179189453125,-1.07080078125,0.19940185546875,-0.0952606201171875
1782968810970845000,4.427844970703125,-1.0397491455078125,0.1660919189453125,-0.0924835205078125
1782968810980771000,4.43777099609375,-0.999420166015625,0.1460418701171875,-0.105926513671875
1782968810990698000,4.447697998046875,-0.9605255126953125,0.1283416748046875,-0.1290130615234375
1782968811000623900,4.457623779296875,-0.9229888916015625,0.1113128662109375,-0.1595001220703125
1782968811010550000,4.467550048828125,-0.894561767578125,0.0854949951171875,-0.186767578125
1782968811020477200,4.477477294921875,-0.873138427734375,0.05474853515625,-0.20623779296875
1782968811030403000,4.487403076171875,-0.8614044189453125,0.025604248046875,-0.2123870849609375
1782968811040329000,4.497328857421875,-0.85943603515625,0.001495361328125,-0.2249298095703125
1782968811050256100,4.507256103515625,-0.8679962158203125,-0.0152435302734375,-0.2431640625
1782968811060182000,4.51718212890625,-0.8832244873046875,-0.03515625,-0.2721710205078125
1782968811070108000,4.52710791015625,-0.901947021484375,-0.062652587890625,-0.3121795654296875
1782968811080035000,4.53703515625,-0.918121337890625,-0.0940704345703125,-0.3333587646484375
1782968811089961000,4.5469609375,-0.9368896484375,-0.1217193603515625,-0.3282470703125
1782968811099887000,4.55688720703125,-0.95501708984375,-0.1410369873046875,-0.311431884765625
1782968811109813000,4.56681298828125,-0.9894256591796875,-0.1466827392578125,-0.292755126953125
1782968811119740000,4.576739990234375,-1.0429840087890625,-0.1467132568359375,-0.2627410888671875
1782968811129666000,4.586666015625,-1.0928802490234375,-0.153533935546875,-0.2299957275390625
1782968811139592200,4.59659228515625,-1.1309967041015625,-0.162139892578125,-0.1887664794921875
1782968811149518800,4.606518798828125,-1.163726806640625,-0.1602325439453125,-0.1352996826171875
1782968811159445000,4.616445068359375,-1.1838836669921875,-0.153839111328125,-0.074432373046875
1782968811169371100,4.62637109375,-1.18682861328125,-0.149932861328125,-0.018768310546875
1782968811179298000,4.636298095703125,-1.1787261962890625,-0.1533660888671875,0.0291900634765625
1782968811189224000,4.646223876953125,-1.16143798828125,-0.1676483154296875,0.0592498779296875
1782968811199150000,4.656150146484375,-1.1383514404296875,-0.1920013427734375,0.0721893310546875
1782968811209077000,4.666076904296875,-1.100006103515625,-0.2139434814453125,0.0710906982421875
1782968811219003000,4.6760029296875,-1.0582427978515625,-0.236328125,0.0619049072265625
1782968811228929000,4.685928955078125,-1.0207977294921875,-0.2635040283203125,0.046051025390625
1782968811238856200,4.695856201171875,-0.9882659912109375,-0.2828521728515625,0.027435302734375
1782968811248782000,4.705781982421875,-0.9705657958984375,-0.31170654296875,0.013671875
1782968811258708000,4.7157080078125,-0.959716796875,-0.343048095703125,0.0003662109375
1782968811268635100,4.72563525390625,-0.9485626220703125,-0.3647613525390625,-0.01959228515625
1782968811278561000,4.73556103515625,-0.934051513671875,-0.3940277099609375,-0.0375213623046875
1782968811288487000,4.74548681640625,-0.9064178466796875,-0.43475341796875,-0.0540618896484375
1782968811298414000,4.7554140625,-0.872650146484375,-0.49298095703125,-0.08587646484375
1782968811308340000,4.765340087890625,-0.8744659423828125,-0.560028076171875,-0.1263275146484375
1782968811318266000,4.77526611328125,-0.869415283203125,-0.581298828125,-0.1695404052734375
1782968811328193000,4.785193115234375,-0.8674774169921875,-0.57769775390625,-0.183502197265625
1782968811338119000,4.795118896484375,-0.8678741455078125,-0.508087158203125,-0.1279144287109375
1782968811348045000,4.805045166015625,-0.9176483154296875,-0.4028778076171875,-0.0043487548828125
1782968811357972200,4.81497216796875,-1.014617919921875,-0.3609161376953125,0.1416168212890625
1782968811367898000,4.824898193359375,-1.1151885986328125,-0.3593902587890625,0.25714111328125
1782968811377824000,4.834823974609375,-1.2073974609375,-0.3494873046875,0.31597900390625
1782968811387751200,4.844751220703125,-1.2476348876953125,-0.3372802734375,0.3393707275390625
1782968811397677000,4.854677001953125,-1.224151611328125,-0.3118438720703125,0.350555419921875
1782968811407603000,4.86460302734375,-1.1639862060546875,-0.2877655029296875,0.3465576171875
1782968811417530000,4.874530029296875,-1.1020050048828125,-0.2899017333984375,0.3229522705078125
1782968811427456300,4.884456298828125,-1.0646209716796875,-0.3148193359375,0.2795562744140625
1782968811437382000,4.8943818359375,-1.0353851318359375,-0.34661865234375,0.2235260009765625
1782968811447309000,4.90430908203125,-1.006439208984375,-0.3810882568359375,0.1641387939453125
1782968811457235200,4.914235107421875,-0.9844512939453125,-0.4127960205078125,0.112701416015625
1782968811467160800,4.924160888671875,-0.979217529296875,-0.4332427978515625,0.080963134765625
1782968811477088000,4.934087890625,-0.9866485595703125,-0.4320526123046875,0.0857696533203125
1782968811487014100,4.94401416015625,-1.0042266845703125,-0.405670166015625,0.1195068359375
1782968811496940000,4.95393994140625,-1.034210205078125,-0.369384765625,0.15313720703125
1782968811506867200,4.9638671875,-1.069976806640625,-0.3369598388671875,0.180755615234375
1782968811516793000,4.97379296875,-1.0988922119140625,-0.3034820556640625,0.200225830078125
1782968811526719000,4.983718994140625,-1.121429443359375,-0.2711334228515625,0.202667236328125
1782968811536646100,4.993646240234375,-1.1397552490234375,-0.2344512939453125,0.1903839111328125
1782968811546572000,5.003572021484375,-1.1552276611328125,-0.2047576904296875,0.1681976318359375
1782968811556498200,5.013498291015625,-1.1568756103515625,-0.1824188232421875,0.14422607421875
1782968811566424000,5.023424072265625,-1.14013671875,-0.1678619384765625,0.126800537109375
1782968811576351200,5.033351318359375,-1.1123809814453125,-0.157806396484375,0.1270599365234375
1782968811586277000,5.043277099609375,-1.0740203857421875,-0.1386260986328125,0.1375885009765625
1782968811596203000,5.053203125,-1.0251617431640625,-0.1151275634765625,0.133514404296875
1782968811606130200,5.063130126953125,-0.977203369140625,-0.1061248779296875,0.11480712890625
1782968811616056000,5.07305615234375,-0.9348297119140625,-0.103607177734375,0.0793609619140625
1782968811625982000,5.08298193359375,-0.910430908203125,-0.1004791259765625,0.0338897705078125
1782968811635909000,5.0929091796875,-0.919525146484375,-0.096954345703125,-0.0122528076171875
1782968811645835300,5.102835205078125,-0.962127685546875,-0.0922698974609375,-0.061248779296875
1782968811655761000,5.112760986328125,-1.0127716064453125,-0.08917236328125,-0.1109619140625
1782968811665688000,5.12268798828125,-1.05194091796875,-0.08111572265625,-0.1507568359375
1782968811675614200,5.1326142578125,-1.0740509033203125,-0.0646514892578125,-0.1733245849609375
1782968811685539800,5.142539794921875,-1.0869903564453125,-0.0391387939453125,-0.181640625
1782968811695467000,5.152467041015625,-1.0869598388671875,-0.0036468505859375,-0.169525146484375
1782968811705393200,5.16239306640625,-1.07000732421875,0.0264892578125,-0.1490020751953125
1782968811715319000,5.172319091796875,-1.04608154296875,0.039306640625,-0.1170196533203125
1782968811725246000,5.182245849609375,-1.0255126953125,0.0463409423828125,-0.0719146728515625
1782968811735171800,5.192171875,-1.028350830078125,0.0665283203125,-0.0197906494140625
1782968811745098000,5.202097900390625,-1.0450592041015625,0.0972137451171875,0.0206756591796875
1782968811755025000,5.21202490234375,-1.0569305419921875,0.124481201171875,0.045013427734375
1782968811764951000,5.221950927734375,-1.0452880859375,0.13909912109375,0.054351806640625
1782968811774877000,5.231876953125,-1.0158538818359375,0.1477203369140625,0.0554046630859375
1782968811784803800,5.241803955078125,-0.9788970947265625,0.15167236328125,0.0396270751953125
1782968811794730000,5.25172998046875,-0.946685791015625,0.149658203125,0.00689697265625
1782968811804655900,5.26165576171875,-0.91949462890625,0.139617919921875,-0.0383758544921875
1782968811814582800,5.271582763671875,-0.901458740234375,0.1310882568359375,-0.0920867919921875
1782968811824509000,5.281509033203125,-0.8903350830078125,0.128173828125,-0.1396942138671875
1782968811834435000,5.29143505859375,-0.888946533203125,0.1251983642578125,-0.17431640625
1782968811844361700,5.30136181640625,-0.89349365234375,0.1263427734375,-0.194580078125
1782968811854288000,5.311287841796875,-0.902130126953125,0.136322021484375,-0.205108642578125
1782968811864214000,5.321214111328125,-0.9082794189453125,0.148223876953125,-0.212921142578125
1782968811874141000,5.331140869140625,-0.9192657470703125,0.152587890625,-0.2202911376953125
1782968811884066800,5.34106689453125,-0.9466400146484375,0.1549072265625,-0.22137451171875
1782968811893993000,5.350992919921875,-0.987640380859375,0.159820556640625,-0.20654296875
1782968811903919900,5.360919921875,-1.043792724609375,0.1705322265625,-0.1985931396484375
1782968811913845800,5.370845703125,-1.104248046875,0.1844482421875,-0.196380615234375
1782968811923772000,5.38077197265625,-1.1494903564453125,0.2007598876953125,-0.1878662109375
1782968811933698800,5.39069873046875,-1.165313720703125,0.214691162109375,-0.1681365966796875
1782968811943625000,5.400625,-1.1299896240234375,0.221343994140625,-0.149566650390625
1782968811953550800,5.41055078125,-1.0461883544921875,0.217742919921875,-0.137176513671875
1782968811963477000,5.42047705078125,-0.94964599609375,0.2054595947265625,-0.1327362060546875
1782968811973404000,5.43040380859375,-0.867218017578125,0.1874237060546875,-0.1375732421875
1782968811983329800,5.440329833984375,-0.80999755859375,0.1662139892578125,-0.159912109375
1782968811993256000,5.450255859375,-0.78759765625,0.141510009765625,-0.189788818359375
1782968812003182800,5.460182861328125,-0.791015625,0.1119232177734375,-0.2140960693359375
1782968812013109000,5.47010888671875,-0.8268890380859375,0.0893096923828125,-0.235565185546875
1782968812023035000,5.480034912109375,-0.8789520263671875,0.081756591796875,-0.2499542236328125
1782968812032961800,5.4899619140625,-0.9294281005859375,0.0835113525390625,-0.25189208984375
1782968812042888000,5.499887939453125,-0.9708404541015625,0.089691162109375,-0.2480010986328125
1782968812052814000,5.50981396484375,-0.9996185302734375,0.0858917236328125,-0.2456817626953125
1782968812062740700,5.51974072265625,-1.00372314453125,0.055938720703125,-0.250030517578125
1782968812072667000,5.5296669921875,-0.9898529052734375,0.0146942138671875,-0.257232666015625
1782968812082593000,5.539593017578125,-0.96783447265625,-0.0169830322265625,-0.2596282958984375
1782968812092520000,5.54952001953125,-0.951934814453125,-0.0441741943359375,-0.25885009765625
1782968812102445800,5.55944580078125,-0.9541168212890625,-0.078826904296875,-0.2632904052734375
1782968812112372000,5.5693720703125,-0.97332763671875,-0.1226043701171875,-0.2755584716796875
1782968812122299000,5.579298828125,-0.997467041015625,-0.167999267578125,-0.2858123779296875
1782968812132224800,5.589224853515625,-1.026763916015625,-0.20465087890625,-0.288177490234375
1782968812142151000,5.59915087890625,-1.052703857421875,-0.2280731201171875,-0.28857421875
1782968812152077800,5.609077880859375,-1.0750274658203125,-0.2432861328125,-0.288421630859375
1782968812162004000,5.61900390625,-1.0974884033203125,-0.2567138671875,-0.2784423828125
1782968812171929900,5.628929931640625,-1.114898681640625,-0.2694549560546875,-0.2570343017578125
1782968812181856800,5.638856689453125,-1.125885009765625,-0.28619384765625,-0.226715087890625
1782968812191783000,5.648782958984375,-1.122894287109375,-0.301055908203125,-0.1905517578125
1782968812201708800,5.658708740234375,-1.099456787109375,-0.3151702880859375,-0.1422119140625
1782968812211635700,5.6686357421875,-1.0558319091796875,-0.3284912109375,-0.0845489501953125
1782968812221561900,5.678561767578125,-1.0028076171875,-0.346527099609375,-0.020965576171875
1782968812231488000,5.688488037109375,-0.94879150390625,-0.3745269775390625,0.02374267578125
1782968812241415000,5.698414794921875,-0.907073974609375,-0.4120635986328125,0.0455169677734375
1782968812251340800,5.7083408203125,-0.8731689453125,-0.45660400390625,0.0517730712890625
1782968812261267000,5.718266845703125,-0.8519134521484375,-0.5022430419921875,0.044647216796875
1782968812271193900,5.72819384765625,-0.84716796875,-0.5382843017578125,0.031402587890625
1782968812281119700,5.73811962890625,-0.85760498046875,-0.5712738037109375,0.0103607177734375
1782968812291046000,5.7480458984375,-0.8771820068359375,-0.604400634765625,-0.003509521484375
1782968812300973000,5.75797314453125,-0.8966827392578125,-0.6341552734375,-0.0153350830078125
1782968812310898700,5.767898681640625,-0.9131317138671875,-0.660430908203125,-0.0162353515625
1782968812320824800,5.777824951171875,-0.9237518310546875,-0.678985595703125,-0.004547119140625
1782968812330752000,5.787751953125,-0.9164276123046875,-0.6895904541015625,0.0091400146484375
1782968812340678000,5.797677978515625,-0.88946533203125,-0.66534423828125,0.0386199951171875
1782968812350603800,5.807603759765625,-0.8828887939453125,-0.5873260498046875,0.1125946044921875
1782968812360530000,5.817530029296875,-0.9245452880859375,-0.5513763427734375,0.182861328125
1782968812370456800,5.827456787109375,-0.9777374267578125,-0.5790252685546875,0.2395477294921875
1782968812380382700,5.8373828125,-1.026397705078125,-0.5949554443359375,0.2628326416015625
1782968812390308900,5.847308837890625,-1.08709716796875,-0.5701141357421875,0.2490234375
1782968812400235800,5.85723583984375,-1.149658203125,-0.51849365234375,0.235321044921875
1782968812410162000,5.867161865234375,-1.196319580078125,-0.4841156005859375,0.2158355712890625
1782968812420087800,5.877087890625,-1.2268524169921875,-0.4630889892578125,0.1878814697265625
1782968812430015000,5.887014892578125,-1.239013671875,-0.447357177734375,0.1553802490234375
1782968812439940900,5.89694091796875,-1.2244415283203125,-0.4313201904296875,0.1140594482421875
1782968812449866800,5.90686669921875,-1.1869049072265625,-0.420928955078125,0.0755615234375
1782968812459794000,5.9167939453125,-1.132049560546875,-0.426727294921875,0.041259765625
1782968812469719800,5.9267197265625,-1.0794525146484375,-0.433563232421875,0.0259246826171875
1782968812479646000,5.93664599609375,-1.0428924560546875,-0.436004638671875,0.01220703125
1782968812489573000,5.946572998046875,-1.021636962890625,-0.4314117431640625,0.0124969482421875
1782968812499498800,5.956498779296875,-1.01922607421875,-0.4073333740234375,0.0412445068359375
1782968812509425000,5.9664248046875,-1.0431671142578125,-0.3608856201171875,0.0757904052734375
1782968812519352000,5.97635205078125,-1.0688934326171875,-0.307708740234375,0.0937652587890625
1782968812529277700,5.986277587890625,-1.0897216796875,-0.2684326171875,0.0960693359375
1782968812539203800,5.996203857421875,-1.1119384765625,-0.22308349609375,0.087982177734375
1782968812549131000,6.006131103515625,-1.1219329833984375,-0.183685302734375,0.0656280517578125
1782968812559057000,6.016056884765625,-1.1319732666015625,-0.15533447265625,0.03265380859375
1782968812568982800,6.025982666015625,-1.137603759765625,-0.1401824951171875,0.005950927734375
1782968812578910000,6.035909912109375,-1.1096954345703125,-0.1246337890625,-0.0030517578125
1782968812588835800,6.0458359375,-1.05657958984375,-0.111541748046875,0.0016021728515625
1782968812598761700,6.05576171875,-1.001129150390625,-0.0958099365234375,0.0023345947265625
1782968812608689000,6.06568896484375,-0.9480743408203125,-0.080810546875,-0.0130615234375
1782968812618615000,6.075614990234375,-0.9059906005859375,-0.0720672607421875,-0.0316162109375
1782968812628541000,6.085541015625,-0.8826904296875,-0.0750732421875,-0.0431365966796875
1782968812638467800,6.0954677734375,-0.880706787109375,-0.0767974853515625,-0.0475006103515625
1782968812648394000,6.10539404296875,-0.8976898193359375,-0.0666961669921875,-0.0504150390625
1782968812658320000,6.11531982421875,-0.9243927001953125,-0.043365478515625,-0.052276611328125
1782968812668247000,6.1252470703125,-0.945281982421875,-0.0277252197265625,-0.0618896484375
1782968812678173000,6.1351728515625,-0.963043212890625,-0.0087127685546875,-0.0776824951171875
1782968812688098800,6.145098876953125,-0.969390869140625,0.0101776123046875,-0.0977783203125
1782968812698026000,6.15502587890625,-0.955718994140625,0.026397705078125,-0.1248779296875
1782968812707951900,6.164951904296875,-0.926422119140625,0.0303802490234375,-0.148345947265625
1782968812717877800,6.174877685546875,-0.897735595703125,0.01922607421875,-0.17071533203125
1782968812727805400,6.184805419921875,-0.88018798828125,0.00750732421875,-0.1882171630859375
1782968812737731300,6.1947314453125,-0.8657684326171875,0.0028076171875,-0.1922760009765625
1782968812747657200,6.2046572265625,-0.8416290283203125,0.009002685546875,-0.1671905517578125
1782968812757583400,6.214583251953125,-0.831085205078125,0.0384063720703125,-0.11614990234375
1782968812767510300,6.22451025390625,-0.85491943359375,0.0815277099609375,-0.05792236328125
1782968812777436200,6.234436279296875,-0.9019317626953125,0.116912841796875,-0.0205841064453125
1782968812787362300,6.2443623046875,-0.9606475830078125,0.1419830322265625,-0.008148193359375
1782968812797289500,6.25428955078125,-1.0305633544921875,0.16229248046875,-0.01409912109375
1782968812807215000,6.264215087890625,-1.0879669189453125,0.1735992431640625,-0.0470428466796875
1782968812817141200,6.274141357421875,-1.1162261962890625,0.1762237548828125,-0.099578857421875
1782968812827068400,6.284068359375,-1.11083984375,0.1723175048828125,-0.1562042236328125
1782968812836994000,6.293994140625,-1.0726165771484375,0.160430908203125,-0.2091522216796875
1782968812846920200,6.303920166015625,-1.021026611328125,0.1490631103515625,-0.251251220703125
1782968812856847400,6.313847412109375,-0.972076416015625,0.1435394287109375,-0.2806549072265625
1782968812866773200,6.323773193359375,-0.9441680908203125,0.14556884765625,-0.294586181640625
1782968812876699100,6.33369921875,-0.9542694091796875,0.158111572265625,-0.29705810546875
1782968812886626300,6.343626220703125,-1.0082855224609375,0.1704254150390625,-0.2931365966796875
1782968812896552400,6.353552490234375,-1.0906982421875,0.1779632568359375,-0.2913665771484375
1782968812906478000,6.36347802734375,-1.1878814697265625,0.1873016357421875,-0.2833251953125
1782968812916405200,6.3734052734375,-1.262664794921875,0.2015533447265625,-0.2634735107421875
1782968812926331400,6.383331298828125,-1.2902069091796875,0.2266387939453125,-0.2346343994140625
1782968812936257300,6.39325732421875,-1.2687530517578125,0.254425048828125,-0.21124267578125
1782968812946184200,6.40318408203125,-1.2021636962890625,0.2693939208984375,-0.194061279296875
1782968812956110300,6.4131103515625,-1.0902557373046875,0.255157470703125,-0.191497802734375
1782968812966036200,6.4230361328125,-0.9661407470703125,0.22314453125,-0.202392578125
1782968812975963400,6.43296337890625,-0.857574462890625,0.185821533203125,-0.2227783203125
1782968812985889300,6.44288916015625,-0.780670166015625,0.1474456787109375,-0.2382965087890625
1782968812995815200,6.452815185546875,-0.7449188232421875,0.1127777099609375,-0.2463531494140625
1782968813005742300,6.462742431640625,-0.7613067626953125,0.0901336669921875,-0.2562103271484375
1782968813015668200,6.472668212890625,-0.8240509033203125,0.0836334228515625,-0.2666778564453125
1782968813025594000,6.482593994140625,-0.8964996337890625,0.0857391357421875,-0.2779083251953125
1782968813035521300,6.492521240234375,-0.95220947265625,0.083831787109375,-0.2913665771484375
1782968813045447400,6.502447509765625,-0.9859466552734375,0.0772247314453125,-0.2902069091796875
1782968813055373300,6.512373291015625,-0.997955322265625,0.071990966796875,-0.264892578125
1782968813065300200,6.52230029296875,-0.9924774169921875,0.0691986083984375,-0.223968505859375
1782968813075226400,6.532226318359375,-0.9676361083984375,0.0631256103515625,-0.191070556640625
1782968813085152300,6.54215234375,-0.9156341552734375,0.04498291015625,-0.1716156005859375
1782968813095079200,6.5520791015625,-0.86553955078125,0.01080322265625,-0.1652984619140625
1782968813105005300,6.56200537109375,-0.826202392578125,-0.03387451171875,-0.16168212890625
1782968813114931500,6.571931396484375,-0.8077239990234375,-0.079864501953125,-0.154571533203125
1782968813124858400,6.5818583984375,-0.8050384521484375,-0.125,-0.142730712890625
1782968813134784300,6.5917841796875,-0.8171844482421875,-0.157379150390625,-0.1326904296875
1782968813144710400,6.60171044921875,-0.8441925048828125,-0.1727752685546875,-0.1336822509765625
1782968813154637300,6.61163720703125,-0.882598876953125,-0.18505859375,-0.136688232421875
1782968813164563200,6.621563232421875,-0.9212799072265625,-0.212005615234375,-0.14178466796875
1782968813174489300,6.6314892578125,-0.957305908203125,-0.24359130859375,-0.1370391845703125
1782968813184416300,6.641416259765625,-0.999786376953125,-0.26947021484375,-0.1177215576171875
1782968813194342400,6.65134228515625,-1.0463714599609375,-0.2777557373046875,-0.107391357421875
1782968813204268300,6.661268310546875,-1.0836334228515625,-0.2797698974609375,-0.10455322265625
1782968813214194200,6.671194091796875,-1.112457275390625,-0.285430908203125,-0.1045684814453125
1782968813224121300,6.681121337890625,-1.1294097900390625,-0.3025970458984375,-0.0994873046875
1782968813234047200,6.691047119140625,-1.1262664794921875,-0.3263397216796875,-0.0918121337890625
1782968813243973400,6.700973388671875,-1.1079254150390625,-0.345611572265625,-0.075225830078125
1782968813253900300,6.710900390625,-1.07843017578125,-0.3596954345703125,-0.0414276123046875
1782968813263826400,6.720826416015625,-1.040802001953125,-0.3711395263671875,-0.0027008056640625
1782968813273752300,6.73075244140625,-1.002471923828125,-0.3714599609375,0.0449676513671875
1782968813283679200,6.74067919921875,-0.9631500244140625,-0.398468017578125,0.0807342529296875
1782968813293605400,6.75060546875,-0.9246978759765625,-0.444488525390625,0.07977294921875
1782968813303531300,6.76053125,-0.891021728515625,-0.4879150390625,0.065887451171875
1782968813313458200,6.770458251953125,-0.8560791015625,-0.5571136474609375,0.0297088623046875
1782968813323384300,6.78038427734375,-0.8332366943359375,-0.640289306640625,-0.028411865234375
1782968813333310500,6.790310546875,-0.8473358154296875,-0.7087860107421875,-0.094940185546875
1782968813343237000,6.800237060546875,-0.9000244140625,-0.74493408203125,-0.1539306640625
1782968813353163300,6.810163330078125,-0.9857330322265625,-0.678497314453125,-0.11810302734375
1782968813363089400,6.82008935546875,-1.0860748291015625,-0.4986114501953125,0.024871826171875
1782968813373016300,6.830016357421875,-1.2021942138671875,-0.3960113525390625,0.2425384521484375
1782968813382942200,6.839942138671875,-1.2691192626953125,-0.36297607421875,0.444610595703125
1782968813392868400,6.849868408203125,-1.316253662109375,-0.33599853515625,0.5423583984375
1782968813402795300,6.859795166015625,-1.33837890625,-0.326873779296875,0.53363037109375
1782968813412721200,6.86972119140625,-1.264007568359375,-0.3289642333984375,0.4358062744140625
1782968813422647300,6.879647216796875,-1.146820068359375,-0.3461151123046875,0.333404541015625
1782968813432574200,6.88957421875,-1.0505828857421875,-0.3835296630859375,0.2713470458984375
1782968813442500400,6.899500244140625,-0.9678955078125,-0.4172821044921875,0.2177276611328125
1782968813452426200,6.90942626953125,-0.9034881591796875,-0.438690185546875,0.160736083984375
1782968813462353200,6.919353271484375,-0.8703765869140625,-0.449493408203125,0.1082763671875
1782968813472279300,6.929279296875,-0.8750457763671875,-0.449554443359375,0.0835723876953125
1782968813482205200,6.939205078125,-0.9181976318359375,-0.4248809814453125,0.091033935546875
1782968813492132000,6.949132080078125,-0.9743804931640625,-0.3738555908203125,0.1039886474609375
1782968813502058200,6.959058349609375,-1.02734375,-0.3238525390625,0.1099090576171875
1782968813511984400,6.968984375,-1.0699005126953125,-0.285797119140625,0.1133880615234375
1782968813521911000,6.9789111328125,-1.0907745361328125,-0.24761962890625,0.1047515869140625
1782968813531837200,6.988837158203125,-1.0915374755859375,-0.2106781005859375,0.101470947265625
1782968813541763300,6.998763427734375,-1.0812225341796875,-0.175506591796875,0.1277923583984375
1782968813551690200,7.008690185546875,-1.066802978515625,-0.137115478515625,0.1645050048828125
1782968813561616100,7.0186162109375,-1.03619384765625,-0.0857696533203125,0.17535400390625
1782968813571542300,7.028542236328125,-0.98553466796875,-0.0471038818359375,0.1552276611328125
1782968813581469200,7.03846923828125,-0.9265899658203125,-0.0293426513671875,0.126068115234375
1782968813591395300,7.048395263671875,-0.870269775390625,-0.030487060546875,0.0919189453125
1782968813601321200,7.0583212890625,-0.8362274169921875,-0.04473876953125,0.055908203125
1782968813611248000,7.068248046875,-0.8375701904296875,-0.05035400390625,0.0059661865234375
1782968813621174300,7.07817431640625,-0.872222900390625,-0.0361328125,-0.0449066162109375
1782968813631100200,7.08810009765625,-0.9241790771484375,-0.0166015625,-0.0929718017578125
1782968813641026300,7.0980263671875,-0.9824981689453125,0.003509521484375,-0.1389312744140625
1782968813650953200,7.107953125,-1.0259246826171875,0.021087646484375,-0.182342529296875
1782968813660879400,7.11787939453125,-1.0528106689453125,0.03277587890625,-0.2137908935546875
1782968813670805200,7.12780517578125,-1.0771484375,0.0379638671875,-0.228302001953125
1782968813680732200,7.137732177734375,-1.1048583984375,0.040008544921875,-0.231597900390625
1782968813690658300,7.147658203125,-1.13623046875,0.0443115234375,-0.216888427734375
1782968813700584200,7.157584228515625,-1.1674346923828125,0.0604248046875,-0.186431884765625
1782968813710511000,7.167510986328125,-1.1945648193359375,0.0824737548828125,-0.1495819091796875
1782968813720437200,7.177437255859375,-1.214874267578125,0.102752685546875,-0.117156982421875
1782968813730362000,7.187362060546875,-1.214813232421875,0.1159210205078125,-0.0934600830078125
1782968813740289300,7.197289306640625,-1.1915740966796875,0.117706298828125,-0.0784454345703125
1782968813750215200,7.207215087890625,-1.154510498046875,0.1074981689453125,-0.07122802734375
1782968813760141300,7.217141357421875,-1.1217498779296875,0.0885467529296875,-0.0810394287109375
1782968813770068200,7.227068115234375,-1.094146728515625,0.0701751708984375,-0.1019439697265625
1782968813779994400,7.236994384765625,-1.0738067626953125,0.056304931640625,-0.1259307861328125
1782968813789920300,7.246920166015625,-1.0632781982421875,0.0475921630859375,-0.1483154296875
1782968813799847400,7.256847412109375,-1.056854248046875,0.0455169677734375,-0.1623382568359375
1782968813809773300,7.266773193359375,-1.0490570068359375,0.0521392822265625,-0.1612091064453125
1782968813819699200,7.27669921875,-1.029327392578125,0.0672760009765625,-0.1579132080078125
1782968813829626400,7.28662646484375,-1.0018463134765625,0.08721923828125,-0.1575164794921875
1782968813839552300,7.29655224609375,-0.9755706787109375,0.0977020263671875,-0.160614013671875
1782968813849478100,7.30647802734375,-0.9582977294921875,0.104522705078125,-0.167388916015625
1782968813859405300,7.3164052734375,-0.9334259033203125,0.1116485595703125,-0.1769561767578125
1782968813869331500,7.32633154296875,-0.9046783447265625,0.11627197265625,-0.1855010986328125
1782968813879257000,7.336257080078125,-0.879241943359375,0.11669921875,-0.2017669677734375
1782968813889184300,7.346184326171875,-0.8706512451171875,0.1162872314453125,-0.2271270751953125
1782968813899110400,7.3561103515625,-0.8822021484375,0.1146240234375,-0.255035400390625
1782968813909036000,7.3660361328125,-0.921875,0.1122589111328125,-0.276458740234375
1782968813918963200,7.375963134765625,-0.979522705078125,0.1126556396484375,-0.2887725830078125
1782968813928889300,7.385889404296875,-1.03961181640625,0.1181640625,-0.2899169921875
1782968813938815200,7.395815185546875,-1.0932464599609375,0.1349334716796875,-0.275482177734375
1782968813948742100,7.4057421875,-1.1239166259765625,0.151214599609375,-0.2556610107421875
1782968813958668300,7.415668212890625,-1.114166259765625,0.1661376953125,-0.2439727783203125
1782968813968594400,7.425594482421875,-1.0640106201171875,0.17071533203125,-0.2394561767578125
1782968813978521300,7.435521240234375,-1.0025482177734375,0.157958984375,-0.2422637939453125
1782968813988447200,7.445447265625,-0.9478912353515625,0.1368560791015625,-0.2499847412109375
1782968813998373400,7.455373291015625,-0.8996429443359375,0.110626220703125,-0.27130126953125
1782968814008300300,7.46530029296875,-0.8815460205078125,0.087127685546875,-0.29931640625
1782968814018226200,7.47522607421875,-0.9038848876953125,0.06915283203125,-0.321441650390625
1782968814028152300,7.48515234375,-0.9547576904296875,0.0622711181640625,-0.32574462890625
1782968814038078200,7.495078125,-1.0030059814453125,0.0623321533203125,-0.3142242431640625
1782968814048005400,7.50500537109375,-1.0310821533203125,0.0665435791015625,-0.2980194091796875
1782968814057931300,7.51493115234375,-1.0543365478515625,0.0705718994140625,-0.2812042236328125
1782968814067857200,7.524857177734375,-1.067840576171875,0.0709075927734375,-0.2657623291015625
1782968814077784300,7.534784423828125,-1.0467071533203125,0.0715179443359375,-0.2371978759765625
1782968814087710500,7.54471044921875,-0.993621826171875,0.0598297119140625,-0.2056884765625
1782968814097636000,7.554635986328125,-0.935089111328125,0.037811279296875,-0.1807098388671875
1782968814107563300,7.564563232421875,-0.88983154296875,0.011749267578125,-0.1584930419921875
1782968814117489400,7.574489501953125,-0.8665313720703125,-0.0084686279296875,-0.140411376953125
1782968814127415300,7.584415283203125,-0.86181640625,-0.0242156982421875,-0.1335906982421875
1782968814137342200,7.59434228515625,-0.8715972900390625,-0.0466156005859375,-0.1336517333984375
1782968814147268400,7.604268310546875,-0.886932373046875,-0.0793304443359375,-0.1352996826171875
1782968814157194500,7.614194580078125,-0.904571533203125,-0.11981201171875,-0.1338958740234375
1782968814167121200,7.62412109375,-0.92474365234375,-0.156463623046875,-0.131622314453125
1782968814177047300,7.63404736328125,-0.9678802490234375,-0.184112548828125,-0.128173828125
1782968814186973400,7.643973388671875,-1.031402587890625,-0.1947021484375,-0.1199188232421875
1782968814196900400,7.653900390625,-1.097808837890625,-0.20013427734375,-0.10198974609375
1782968814206826200,7.663826171875,-1.1432647705078125,-0.2093353271484375,-0.0711212158203125
1782968814216752400,7.67375244140625,-1.13128662109375,-0.230133056640625,-0.0296630859375
1782968814226679300,7.68367919921875,-1.07623291015625,-0.25634765625,0.008453369140625
1782968814236605200,7.693605224609375,-1.0103759765625,-0.2900390625,0.0344085693359375
1782968814246531300,7.70353125,-0.9562835693359375,-0.32562255859375,0.0467529296875
1782968814256458200,7.713458251953125,-0.9212493896484375,-0.370330810546875,0.0441436767578125
1782968814266384400,7.72338427734375,-0.9103546142578125,-0.4114837646484375,0.0420379638671875
1782968814276310300,7.733310302734375,-0.914794921875,-0.438507080078125,0.0415191650390625
1782968814286237200,7.7432373046875,-0.93231201171875,-0.454132080078125,0.0419921875
1782968814296163300,7.753163330078125,-0.95306396484375,-0.47845458984375,0.039398193359375
1782968814306089200,7.763089111328125,-0.97119140625,-0.5092010498046875,0.03668212890625
1782968814316016000,7.77301611328125,-0.9827880859375,-0.5410919189453125,0.0292510986328125
1782968814325942300,7.7829423828125,-0.9774169921875,-0.5683135986328125,0.0232391357421875
1782968814335868400,7.792868408203125,-0.957061767578125,-0.582061767578125,0.020263671875
1782968814345795000,7.802795166015625,-0.9388580322265625,-0.598846435546875,0.02728271484375
1782968814355721200,7.81272119140625,-0.9274139404296875,-0.61871337890625,0.0474090576171875
1782968814365647400,7.8226474609375,-0.9142913818359375,-0.6245269775390625,0.0822601318359375
1782968814375574300,7.83257421875,-0.8805084228515625,-0.58209228515625,0.13714599609375
1782968814385500200,7.842500244140625,-0.85626220703125,-0.52392578125,0.1830902099609375
1782968814395426300,7.85242626953125,-0.8892364501953125,-0.537689208984375,0.21466064453125
1782968814405353200,7.862353271484375,-0.9357452392578125,-0.56768798828125,0.244598388671875
1782968814415279000,7.872279052734375,-0.9776611328125,-0.533660888671875,0.2605743408203125
1782968814425205200,7.882205322265625,-1.0281982421875,-0.4693450927734375,0.2633514404296875
1782968814435131400,7.89213134765625,-1.076080322265625,-0.4318695068359375,0.2575225830078125
1782968814445058300,7.902058349609375,-1.1139984130859375,-0.4176025390625,0.23577880859375
1782968814454984200,7.911984130859375,-1.1481781005859375,-0.3986968994140625,0.1935882568359375
1782968814464910300,7.921910400390625,-1.171966552734375,-0.3800506591796875,0.1343841552734375
1782968814474837200,7.931837158203125,-1.1634521484375,-0.37652587890625,0.0797119140625
1782968814484763100,7.94176318359375,-1.1269073486328125,-0.3792572021484375,0.04168701171875
1782968814494689300,7.951689208984375,-1.0697021484375,-0.3744964599609375,0.01849365234375
1782968814504616200,7.9616162109375,-1.0294189453125,-0.366455078125,0.01983642578125
1782968814514542300,7.971542236328125,-1.015472412109375,-0.3355560302734375,0.0439453125
1782968814524468200,7.98146826171875,-1.0188446044921875,-0.28802490234375,0.0735931396484375
1782968814534395100,7.99139501953125,-1.0554962158203125,-0.25634765625,0.1166839599609375
1782968814544320300,8.0013203125,-1.1049652099609375,-0.22882080078125,0.1214752197265625
1782968814554247400,8.011247314453126,-1.1638946533203125,-0.1929168701171875,0.0824432373046875
1782968814564173300,8.02117333984375,-1.1884002685546875,-0.166015625,0.0487823486328125
1782968814574099200,8.03109912109375,-1.1981048583984375,-0.1495819091796875,0.044189453125
1782968814584026400,8.0410263671875,-1.1993560791015625,-0.135467529296875,0.054931640625
1782968814593952300,8.0509521484375,-1.1979522705078125,-0.1201934814453125,0.059783935546875
1782968814603878100,8.060878173828126,-1.15972900390625,-0.0970916748046875,0.031890869140625
1782968814613805300,8.070805419921875,-1.09161376953125,-0.0806732177734375,-0.0143280029296875
1782968814623731500,8.0807314453125,-1.0313262939453125,-0.08245849609375,-0.0535736083984375
1782968814633657300,8.0906572265625,-1.00103759765625,-0.08447265625,-0.08612060546875
1782968814643584300,8.100584228515626,-0.9869842529296875,-0.08209228515625,-0.1120758056640625
1782968814653510400,8.110510498046875,-0.9674072265625,-0.0829010009765625,-0.12945556640625
1782968814663436300,8.120436279296875,-0.9483489990234375,-0.0774993896484375,-0.1313934326171875
1782968814673363200,8.13036328125,-0.94232177734375,-0.059539794921875,-0.1206817626953125
1782968814683289300,8.140289306640625,-0.9460906982421875,-0.0378875732421875,-0.1168365478515625
1782968814693215500,8.150215576171876,-0.9703369140625,-0.021697998046875,-0.1230316162109375
1782968814703141000,8.16014111328125,-1.0201263427734375,-0.01220703125,-0.139373779296875
1782968814713068300,8.170068359375,-1.064239501953125,-0.00958251953125,-0.1663055419921875
1782968814722994400,8.179994384765624,-1.0772705078125,-0.0009613037109375,-0.1802520751953125
1782968814732920600,8.189920654296875,-1.06634521484375,0.002166748046875,-0.1838836669921875
1782968814742847500,8.199847412109374,-1.0345458984375,-0.0038604736328125,-0.1823272705078125
1782968814752773600,8.209773681640625,-0.9985504150390625,-0.0106201171875,-0.180419921875
1782968814762699500,8.219699462890626,-0.9745635986328125,-0.016082763671875,-0.1892242431640625
1782968814772626700,8.229626708984375,-0.965850830078125,-0.0199127197265625,-0.198486328125
1782968814782552600,8.239552490234376,-0.96075439453125,-0.019622802734375,-0.2003326416015625
1782968814792478500,8.249478515625,-0.9467010498046875,-0.015167236328125,-0.194183349609375
1782968814802405600,8.259405517578125,-0.9319305419921875,-0.005584716796875,-0.1793975830078125
1782968814812331500,8.26933154296875,-0.9153900146484375,0.005340576171875,-0.169342041015625
1782968814822257400,8.27925732421875,-0.9061126708984375,0.0213623046875,-0.165924072265625
1782968814832184600,8.2891845703125,-0.909912109375,0.0444793701171875,-0.1678619384765625
1782968814842110700,8.29911083984375,-0.9181060791015625,0.0691986083984375,-0.175262451171875
1782968814852036400,8.309036376953125,-0.9199371337890625,0.0872650146484375,-0.1833038330078125
1782968814861963500,8.318963623046875,-0.90142822265625,0.0959320068359375,-0.197784423828125
1782968814871889700,8.3288896484375,-0.86767578125,0.0953216552734375,-0.220916748046875
1782968814881815600,8.338815673828124,-0.8313140869140625,0.0858001708984375,-0.2510528564453125
1782968814891742500,8.348742431640625,-0.8018341064453125,0.0740203857421875,-0.27996826171875
1782968814901668600,8.358668701171876,-0.7904815673828125,0.057525634765625,-0.3032684326171875
1782968814911596500,8.368596435546875,-0.81298828125,0.0366363525390625,-0.3250732421875
1782968814921522700,8.378522705078124,-0.862457275390625,0.0236968994140625,-0.3399505615234375
1782968814931449600,8.38844970703125,-0.918426513671875,0.0283660888671875,-0.338897705078125
1782968814941375500,8.39837548828125,-0.9611358642578125,0.0513458251953125,-0.3182525634765625
1782968814951301600,8.408301513671875,-0.9744415283203125,0.0811309814453125,-0.284332275390625
1782968814961228500,8.418228515625,-0.967681884765625,0.10736083984375,-0.242645263671875
1782968814971154400,8.428154541015624,-0.9377593994140625,0.1252899169921875,-0.205413818359375
1782968814981080600,8.43808056640625,-0.8961334228515625,0.1332550048828125,-0.183990478515625
1782968814991007500,8.448007568359374,-0.858184814453125,0.128753662109375,-0.1761932373046875
1782968815000933600,8.45793359375,-0.825775146484375,0.1154327392578125,-0.1768798828125
1782968815010859500,8.467859619140626,-0.802825927734375,0.1009368896484375,-0.185394287109375
1782968815020786400,8.477786376953125,-0.792999267578125,0.07623291015625,-0.2011566162109375
1782968815030712600,8.487712646484376,-0.8054046630859375,0.0563812255859375,-0.218902587890625
1782968815040638500,8.497638427734374,-0.8498077392578125,0.046905517578125,-0.2371978759765625
1782968815050564600,8.507564697265625,-0.9144744873046875,0.04681396484375,-0.2570037841796875
1782968815060491500,8.517491455078124,-0.9788055419921875,0.0423126220703125,-0.2783203125
1782968815070417700,8.527417724609375,-1.0493621826171875,0.036834716796875,-0.2983245849609375
1782968815080343600,8.537343505859376,-1.1081390380859375,0.037017822265625,-0.308746337890625
1782968815090270500,8.5472705078125,-1.14263916015625,0.030029296875,-0.300262451171875
1782968815100196600,8.557196533203125,-1.151123046875,0.00177001953125,-0.28277587890625
1782968815110122500,8.56712255859375,-1.1310272216796875,-0.039764404296875,-0.2649688720703125
1782968815120049400,8.57704931640625,-1.091552734375,-0.0820465087890625,-0.239990234375
1782968815129975600,8.5869755859375,-1.0312347412109375,-0.1264495849609375,-0.2112884521484375
1782968815139901700,8.596901611328125,-0.949981689453125,-0.16973876953125,-0.192535400390625
1782968815149828600,8.60682861328125,-0.8822784423828125,-0.2075347900390625,-0.1846466064453125
1782968815159754500,8.61675439453125,-0.84271240234375,-0.2436981201171875,-0.1836700439453125
1782968815169680600,8.6266806640625,-0.8383026123046875,-0.2646942138671875,-0.174530029296875
1782968815179607600,8.636607666015625,-0.83880615234375,-0.2807464599609375,-0.1487274169921875
1782968815189533400,8.646533447265625,-0.864105224609375,-0.2987823486328125,-0.1172637939453125
1782968815199459600,8.65645947265625,-0.913909912109375,-0.3126678466796875,-0.09417724609375
1782968815209386500,8.666386474609375,-0.97747802734375,-0.327178955078125,-0.081024169921875
1782968815219312600,8.676312744140626,-1.037933349609375,-0.3375091552734375,-0.0711212158203125
1782968815229238500,8.686238525390625,-1.09539794921875,-0.355438232421875,-0.0602264404296875
1782968815239165400,8.69616552734375,-1.1136322021484375,-0.3694915771484375,-0.03668212890625
1782968815249091600,8.706091552734375,-1.10089111328125,-0.3914337158203125,-0.014129638671875
1782968815259017500,8.716017578125,-1.0698394775390625,-0.4163055419921875,0.0018463134765625
1782968815268944400,8.7259443359375,-1.0282745361328125,-0.4498291015625,0.0045166015625
1782968815278870500,8.73587060546875,-0.9913330078125,-0.47119140625,0.0128173828125
1782968815288796700,8.745796630859376,-0.966888427734375,-0.4937286376953125,0.03570556640625
1782968815298723600,8.7557236328125,-0.9979400634765625,-0.5174560546875,0.0618896484375
1782968815308649500,8.7656494140625,-1.0212860107421875,-0.54144287109375,0.06842041015625
1782968815318575600,8.77557568359375,-1.0334014892578125,-0.5662078857421875,0.0782012939453125
1782968815328502500,8.78550244140625,-1.030975341796875,-0.605438232421875,0.0725250244140625
1782968815338428400,8.795428466796874,-1.0059814453125,-0.622802734375,0.0719451904296875
1782968815348354600,8.8053544921875,-0.98468017578125,-0.6253204345703125,0.07159423828125
1782968815358281700,8.81528173828125,-0.969482421875,-0.649383544921875,0.0602264404296875
1782968815368207400,8.825207275390625,-0.947296142578125,-0.66986083984375,0.0490570068359375
1782968815378133500,8.835133544921876,-0.914886474609375,-0.654205322265625,0.05487060546875
1782968815388060700,8.845060791015625,-0.909332275390625,-0.5723114013671875,0.1134033203125
1782968815397986600,8.854986572265625,-0.9716949462890625,-0.5108489990234375,0.2081298828125
1782968815407912400,8.864912353515624,-1.06243896484375,-0.5002288818359375,0.2881011962890625
1782968815417839600,8.874839599609375,-1.1666259765625,-0.4967193603515625,0.3274993896484375
1782968815427765500,8.884765625,-1.2591705322265625,-0.461395263671875,0.317413330078125
1782968815437691400,8.89469140625,-1.2987823486328125,-0.4094696044921875,0.29119873046875
1782968815447617500,8.904617431640625,-1.30682373046875,-0.3572235107421875,0.2701873779296875
1782968815457544400,8.91454443359375,-1.270172119140625,-0.322845458984375,0.239044189453125
1782968815467470600,8.924470703125,-1.19677734375,-0.318878173828125,0.1923065185546875
1782968815477396500,8.934396484375,-1.1143951416015625,-0.3352508544921875,0.140045166015625
1782968815487323600,8.94432373046875,-1.0318756103515625,-0.360137939453125,0.0867462158203125
1782968815497249500,8.95424951171875,-0.9715423583984375,-0.3807373046875,0.03253173828125
1782968815507175400,8.964175537109375,-0.947601318359375,-0.39031982421875,-0.0053253173828125
1782968815517102600,8.9741025390625,-0.9501953125,-0.386749267578125,-0.01580810546875
1782968815527028500,8.984028564453125,-0.9670867919921875,-0.3621826171875,-0.01678466796875
1782968815536954600,8.99395458984375,-1.005828857421875,-0.3216400146484375,-0.01495361328125
1782968815546881500,9.003881591796874,-1.0515594482421875,-0.2827301025390625,-0.0017547607421875
1782968815556807400,9.013807373046875,-1.0834197998046875,-0.2475738525390625,0.021331787109375
1782968815566733600,9.023733642578126,-1.0976409912109375,-0.213958740234375,0.0377960205078125
1782968815576660700,9.03366064453125,-1.1095428466796875,-0.1865386962890625,0.088592529296875
1782968815586586400,9.04358642578125,-1.09271240234375,-0.154296875,0.0769500732421875
1782968815596512500,9.053512451171875,-1.0609588623046875,-0.089630126953125,0.029266357421875
1782968815606439700,9.063439697265625,-1.0536346435546875,-0.0781402587890625,0.0703125
1782968815616365600,9.073365478515624,-1.0437774658203125,-0.0771636962890625,0.07574462890625
1782968815626291500,9.08329150390625,-1.00885009765625,-0.04693603515625,0.058441162109375
1782968815636218600,9.093218505859374,-0.98089599609375,-0.0395965576171875,0.0378265380859375
1782968815646144500,9.10314453125,-0.9615020751953125,-0.038116455078125,-0.0177001953125
1782968815656070400,9.1130703125,-0.951507568359375,-0.0416717529296875,-0.082855224609375
1782968815665997600,9.12299755859375,-0.966064453125,-0.04302978515625,-0.147308349609375
1782968815675923700,9.132923828125,-0.9947662353515625,-0.033905029296875,-0.2138671875
1782968815685849600,9.142849609375,-1.0275115966796875,-0.01593017578125,-0.2681884765625
1782968815695776500,9.152776611328125,-1.056060791015625,-0.0071563720703125,-0.3019866943359375
1782968815705702700,9.16270263671875,-1.059783935546875,-0.0077362060546875,-0.28082275390625
1782968815715628500,9.172628662109375,-1.0279083251953125,-0.0021209716796875,-0.2567138671875
1782968815725555700,9.1825556640625,-0.9907989501953125,0.030792236328125,-0.240692138671875
1782968815735482000,9.192482177734375,-0.9763946533203125,0.0671234130859375,-0.215850830078125
1782968815745408000,9.202407958984375,-1.0054779052734375,0.0850982666015625,-0.1486053466796875
1782968815755335200,9.212335205078125,-1.062164306640625,0.0868682861328125,-0.0888824462890625
1782968815765261000,9.222260986328125,-1.128387451171875,0.109710693359375,-0.080078125
1782968815775187200,9.232187255859374,-1.178558349609375,0.124298095703125,-0.08831787109375
1782968815785114000,9.242114013671875,-1.1929931640625,0.1187591552734375,-0.08953857421875
1782968815795040300,9.252040283203126,-1.16473388671875,0.109619140625,-0.08795166015625
1782968815804966100,9.261966064453125,-1.111541748046875,0.0958709716796875,-0.0908660888671875
1782968815814893300,9.271893310546876,-1.0326080322265625,0.0739593505859375,-0.0976715087890625
1782968815824819200,9.281819091796875,-0.9466705322265625,0.050750732421875,-0.1070404052734375
1782968815834745000,9.2917451171875,-0.861663818359375,0.0355224609375,-0.120208740234375
1782968815844671200,9.301671142578124,-0.8015594482421875,0.0264434814453125,-0.1255950927734375
1782968815854598100,9.31159814453125,-0.7813873291015625,0.024993896484375,-0.121185302734375
1782968815864524000,9.32152392578125,-0.7902679443359375,0.0352325439453125,-0.1038055419921875
1782968815874450200,9.3314501953125,-0.81280517578125,0.0521240234375,-0.0939788818359375
1782968815884377300,9.34137744140625,-0.82513427734375,0.0656280517578125,-0.1199188232421875
1782968815894303000,9.351302978515625,-0.8500823974609375,0.06500244140625,-0.15362548828125
1782968815904229000,9.36122900390625,-0.9004669189453125,0.05084228515625,-0.1916351318359375
1782968815914156300,9.37115625,-0.9282989501953125,0.0861663818359375,-0.3188629150390625
1782968815924082000,9.38108203125,-0.985076904296875,0.1011810302734375,-0.3573150634765625
1782968815934008000,9.391008056640626,-1.0686187744140625,0.059661865234375,-0.302215576171875
1782968815943935200,9.400935302734375,-1.1334228515625,0.06475830078125,-0.26104736328125
1782968815953861000,9.410861083984376,-1.174835205078125,0.075164794921875,-0.178863525390625
1782968815963787000,9.420787109375,-1.1487884521484375,0.08160400390625,-0.1474609375
1782968815973714200,9.430714111328125,-1.0615997314453125,0.145050048828125,-0.1772613525390625
1782968815983640300,9.440640380859374,-0.9721527099609375,0.1285400390625,-0.1266632080078125
1782968815993566000,9.45056591796875,-0.8798675537109375,0.101226806640625,-0.1297149658203125
1782968816003493000,9.4604931640625,-0.80767822265625,0.0806427001953125,-0.138671875
1782968816013419300,9.470419189453125,-0.743988037109375,0.049530029296875,-0.1606292724609375
1782968816023345200,9.48034521484375,-0.708251953125,0.055328369140625,-0.214508056640625
1782968816033272000,9.49027197265625,-0.717559814453125,0.0199737548828125,-0.1931610107421875
1782968816043198200,9.5001982421875,-0.760589599609375,-0.0092620849609375,-0.189544677734375
1782968816053124000,9.5101240234375,-0.8351593017578125,-0.0006256103515625,-0.217315673828125
1782968816063051300,9.52005126953125,-0.9239959716796875,-0.0001373291015625,-0.2322235107421875
1782968816072977200,9.52997705078125,-0.9950714111328125,-0.01507568359375,-0.2367706298828125
1782968816082903000,9.539903076171875,-1.0537567138671875,-0.01519775390625,-0.228424072265625
1782968816092830200,9.549830322265626,-1.1112823486328125,-0.0060272216796875,-0.2167510986328125
1782968816102756000,9.559756103515625,-1.1444244384765625,-0.0057525634765625,-0.1977996826171875
1782968816112682000,9.569681884765625,-1.125762939453125,-0.0278472900390625,-0.1923980712890625
1782968816122609200,9.579609130859374,-1.0862884521484375,-0.06610107421875,-0.2005157470703125
1782968816132535300,9.589535400390625,-1.0385284423828125,-0.1181640625,-0.2064361572265625
1782968816142461200,9.599461181640624,-0.983642578125,-0.1673126220703125,-0.197052001953125
1782968816152388000,9.60938818359375,-0.945770263671875,-0.196746826171875,-0.1716156005859375
1782968816162314200,9.619314208984376,-0.921630859375,-0.2111663818359375,-0.139556884765625
1782968816172240100,9.629240234375,-0.9000396728515625,-0.2260894775390625,-0.1085968017578125
1782968816182166000,9.639166015625,-0.9017486572265625,-0.2458343505859375,-0.0807647705078125
1782968816192093200,9.64909326171875,-0.9257049560546875,-0.2616424560546875,-0.061248779296875
1782968816202019300,9.659019287109375,-0.943878173828125,-0.271514892578125,-0.0445709228515625
1782968816211945000,9.668945068359376,-0.9658660888671875,-0.2799072265625,-0.02252197265625
1782968816221872000,9.6788720703125,-1.006011962890625,-0.29888916015625,0.0037384033203125
1782968816231798300,9.68879833984375,-1.0661468505859375,-0.322723388671875,0.023040771484375
1782968816241724200,9.69872412109375,-1.1219482421875,-0.3470458984375,0.022674560546875
1782968816251651000,9.708651123046875,-1.140411376953125,-0.3857879638671875,0.00421142578125
1782968816261577200,9.7185771484375,-1.1206817626953125,-0.4263458251953125,-0.0137939453125
1782968816271503000,9.728503173828125,-1.0787200927734375,-0.451019287109375,-0.0153961181640625
1782968816281430300,9.73843017578125,-1.032073974609375,-0.467498779296875,0.0078277587890625
1782968816291356200,9.748356201171875,-1.0019073486328125,-0.498260498046875,0.069580078125
1782968816301282000,9.758281982421876,-0.9923248291015625,-0.5028533935546875,0.1264801025390625
1782968816311209200,9.768209228515625,-0.9928131103515625,-0.4832305908203125,0.1618499755859375
1782968816321135000,9.778135009765625,-0.99407958984375,-0.4678192138671875,0.18829345703125
1782968816331061200,9.788061279296874,-1.002655029296875,-0.4661102294921875,0.2063446044921875
1782968816340988200,9.79798828125,-0.996246337890625,-0.4691009521484375,0.1939544677734375
1782968816350914300,9.807914306640624,-0.9274139404296875,-0.383544921875,0.05511474609375
1782968816360840200,9.817840087890625,-0.98980712890625,-0.420440673828125,0.16961669921875
1782968816370767000,9.82776708984375,-1.0572357177734375,-0.5483245849609375,0.26348876953125
1782968816380693200,9.837693359375,-1.0812835693359375,-0.53515625,0.2436370849609375
1782968816390619100,9.847619140625,-1.0831298828125,-0.4227294921875,0.12713623046875
1782968816400546000,9.857546142578125,-1.1064300537109375,-0.3768157958984375,0.088043212890625
1782968816410472200,9.86747216796875,-1.1381683349609375,-0.3980255126953125,0.1234130859375
1782968816420398300,9.8773984375,-1.1361846923828125,-0.3694000244140625,0.1085205078125
1782968816430325000,9.887324951171875,-1.1102447509765625,-0.3480224609375,0.0991363525390625
1782968816440251100,9.897251220703126,-1.077117919921875,-0.334503173828125,0.095184326171875
1782968816450177300,9.90717724609375,-1.0365142822265625,-0.3311004638671875,0.093475341796875
1782968816460104200,9.917104248046876,-0.9793853759765625,-0.3189544677734375,0.080047607421875
1782968816470030000,9.927030029296875,-0.9030609130859375,-0.2678070068359375,0.0012359619140625
1782968816479956200,9.936956298828125,-0.893524169921875,-0.277374267578125,0.0258636474609375
1782968816489883100,9.946883056640624,-0.9265289306640625,-0.371002197265625,0.1085052490234375
1782968816499809000,9.95680908203125,-0.9673004150390625,-0.397491455078125,0.1461639404296875
1782968816509735200,9.966735107421876,-0.993133544921875,-0.34246826171875,0.0833892822265625
1782968816519661300,9.976661376953125,-1.0413055419921875,-0.2895050048828125,0.04302978515625
1782968816529588200,9.986588134765626,-1.1180267333984375,-0.2768707275390625,0.0587310791015625
1782968816539514000,9.99651416015625,-1.179931640625,-0.2585296630859375,0.0709228515625
1782968816549440300,10.006440185546875,-1.2024688720703125,-0.22833251953125,0.066253662109375
1782968816559367200,10.0163671875,-1.190032958984375,-0.234588623046875,0.0942230224609375
1782968816569293000,10.02629296875,-1.154205322265625,-0.1780242919921875,0.0472564697265625
1782968816579219200,10.03621923828125,-1.1028594970703125,-0.1418304443359375,-0.0022430419921875
1782968816589146000,10.04614599609375,-1.0482940673828125,-0.127471923828125,-0.0416107177734375
1782968816599072300,10.056072265625,-0.9890289306640625,-0.1155853271484375,-0.0802154541015625
1782968816608998100,10.065998046875,-0.9406585693359375,-0.10595703125,-0.1044921875
1782968816618925000,10.075925048828125,-0.90301513671875,-0.095306396484375,-0.1135101318359375
1782968816628851200,10.085851318359374,-0.8778839111328125,-0.0801849365234375,-0.1004638671875
1782968816638777300,10.09577734375,-0.88525390625,-0.06048583984375,-0.0751953125
1782968816648704000,10.1057041015625,-0.9320068359375,-0.0763092041015625,-0.0211029052734375
1782968816658630100,10.115630126953125,-0.9633026123046875,-0.094329833984375,0.0166168212890625
1782968816668556300,10.125556396484376,-0.974456787109375,-0.08526611328125,-0.004150390625
1782968816678483200,10.135483154296875,-0.976318359375,-0.085479736328125,-0.0486907958984375
1782968816688409000,10.1454091796875,-0.9885406494140625,-0.1028594970703125,-0.094390869140625
1782968816698335200,10.155335205078124,-1.014007568359375,-0.119781494140625,-0.1426849365234375
1782968816708262100,10.16526220703125,-1.0443267822265625,-0.141998291015625,-0.1759796142578125
1782968816718188000,10.17518798828125,-1.090667724609375,-0.140625,-0.1805877685546875
1782968816728113700,10.18511376953125,-1.1291656494140625,-0.0958251953125,-0.2083587646484375
1782968816738040600,10.19504052734375,-1.1432952880859375,-0.053131103515625,-0.232879638671875
1782968816747966500,10.204966552734374,-1.1409454345703125,-0.0205841064453125,-0.2602996826171875
1782968816757892600,10.214892578125,-1.11907958984375,-0.0124969482421875,-0.2671966552734375
1782968816767819500,10.224819580078124,-1.087982177734375,-0.054534912109375,-0.21533203125
1782968816777745700,10.23474560546875,-1.036651611328125,-0.066192626953125,-0.1777801513671875
1782968816787671600,10.244671630859376,-0.9788360595703125,-0.045196533203125,-0.16583251953125
1782968816797598700,10.2545986328125,-0.936676025390625,-0.03240966796875,-0.1496124267578125
1782968816807524600,10.264524658203126,-0.9086456298828125,-0.02862548828125,-0.127471923828125
1782968816817450500,10.274450439453124,-0.8952178955078125,-0.0233612060546875,-0.123138427734375
1782968816827377700,10.284377685546875,-0.8798828125,-0.0224456787109375,-0.1439208984375
1782968816837303600,10.294303466796874,-0.857818603515625,-0.0291595458984375,-0.1636505126953125
1782968816847229700,10.304229736328125,-0.8331756591796875,-0.0285186767578125,-0.1813507080078125
1782968816857155600,10.314155517578126,-0.799560546875,-0.0211181640625,-0.20343017578125
1782968816867082500,10.32408251953125,-0.7604217529296875,-0.01983642578125,-0.2305908203125
1782968816877008600,10.334008544921875,-0.7302703857421875,-0.02471923828125,-0.264190673828125
1782968816886934500,10.3439345703125,-0.71649169921875,-0.026702880859375,-0.309539794921875
1782968816896861400,10.353861328125,-0.7377471923828125,-0.0267791748046875,-0.3577117919921875
1782968816906787600,10.36378759765625,-0.8028564453125,-0.0279693603515625,-0.3954315185546875
1782968816916713700,10.373713623046875,-0.9069671630859375,-0.027679443359375,-0.4024200439453125
1782968816926640600,10.383640625,-1.0097808837890625,-0.009613037109375,-0.3841094970703125
1782968816936566500,10.39356640625,-1.0877227783203125,0.02557373046875,-0.36077880859375
1782968816946492700,10.40349267578125,-1.135498046875,0.0644683837890625,-0.3315887451171875
1782968816956419600,10.413419677734375,-1.131591796875,0.099212646484375,-0.3089141845703125
1782968816966345500,10.423345458984375,-1.0635833740234375,0.1156158447265625,-0.2946319580078125
1782968816976271600,10.433271728515624,-0.967071533203125,0.111846923828125,-0.2839813232421875
1782968816986198800,10.44319873046875,-0.876922607421875,0.08544921875,-0.2857513427734375
1782968816996124700,10.453124755859376,-0.80377197265625,0.03704833984375,-0.3055572509765625
1782968817006050600,10.463050537109375,-0.75958251953125,-0.002685546875,-0.35137939453125
1782968817015977700,10.472977783203126,-0.7557220458984375,-0.0278167724609375,-0.3973846435546875
1782968817025903600,10.482903564453125,-0.7909698486328125,-0.035186767578125,-0.424041748046875
1782968817035829500,10.49282958984375,-0.8506622314453125,-0.024688720703125,-0.4244232177734375
1782968817045756700,10.502756591796874,-0.9031219482421875,-0.0029144287109375,-0.407440185546875
1782968817055682600,10.5126826171875,-0.933074951171875,0.0285186767578125,-0.38116455078125
1782968817065608700,10.522608642578126,-0.945404052734375,0.06414794921875,-0.34423828125
1782968817075535600,10.53253564453125,-0.946502685546875,0.0914459228515625,-0.30609130859375
1782968817085461500,10.54246142578125,-0.9284210205078125,0.0963592529296875,-0.278564453125
1782968817095387600,10.5523876953125,-0.8927154541015625,0.0754547119140625,-0.2719268798828125
1782968817105314800,10.562314697265625,-0.848602294921875,0.0355072021484375,-0.268585205078125
1782968817115240400,10.572240478515624,-0.8087005615234375,-0.001617431640625,-0.26275634765625
1782968817125166600,10.58216650390625,-0.7823486328125,-0.025390625,-0.255340576171875
1782968817135093800,10.59209375,-0.7709503173828125,-0.051055908203125,-0.24285888671875
1782968817145019600,10.60201953125,-0.7742919921875,-0.073486328125,-0.2296142578125
1782968817154945500,10.611945556640626,-0.8078460693359375,-0.094482421875,-0.21734619140625
1782968817164872700,10.621872802734375,-0.86480712890625,-0.1105499267578125,-0.1882171630859375
1782968817174798800,10.631798828125,-0.923980712890625,-0.119110107421875,-0.1489715576171875
1782968817184724500,10.641724365234374,-0.9821624755859375,-0.129241943359375,-0.1098175048828125
1782968817194650600,10.651650634765625,-1.043548583984375,-0.140655517578125,-0.078277587890625
1782968817204577800,10.661577880859374,-1.1030426025390625,-0.15496826171875,-0.0570831298828125
1782968817214503400,10.67150341796875,-1.151947021484375,-0.1646881103515625,-0.030609130859375
1782968817224429600,10.6814296875,-1.1886444091796875,-0.17626953125,-0.0005950927734375
1782968817234356700,10.691356689453125,-1.200469970703125,-0.1919708251953125,0.0225830078125
1782968817244282600,10.70128271484375,-1.1930389404296875,-0.2158966064453125,0.0371551513671875
1782968817254208500,10.71120849609375,-1.1704864501953125,-0.2413177490234375,0.051605224609375
1782968817264135700,10.7211357421875,-1.13726806640625,-0.268402099609375,0.06695556640625
1782968817274061600,10.7310615234375,-1.1074676513671875,-0.2935028076171875,0.0836181640625
1782968817283987500,10.740987548828125,-1.0788726806640625,-0.3184967041015625,0.103790283203125
1782968817293914600,10.75091455078125,-1.05438232421875,-0.3455810546875,0.11236572265625
1782968817303840500,10.760840576171875,-1.0326385498046875,-0.37652587890625,0.111968994140625
1782968817313766700,10.7707666015625,-1.022186279296875,-0.3972015380859375,0.1144256591796875
1782968817323693800,10.78069384765625,-1.014892578125,-0.42431640625,0.1146240234375
1782968817333619700,10.79061962890625,-1.011566162109375,-0.4507293701171875,0.11669921875
1782968817343545600,10.800545654296876,-1.0081634521484375,-0.4803314208984375,0.1193389892578125
1782968817353472800,10.81047265625,-1.0089569091796875,-0.5331573486328125,0.1049957275390625
1782968817363398700,10.820398681640626,-1.0208892822265625,-0.5779876708984375,0.0712127685546875
1782968817373324500,10.830324462890625,-1.022613525390625,-0.5765380859375,0.052459716796875
1782968817383251700,10.840251708984376,-1.0118255615234375,-0.53936767578125,0.07769775390625
1782968817393177900,10.850177734375,-1.0242767333984375,-0.4818878173828125,0.142791748046875
1782968817403103500,10.860103515625,-1.088958740234375,-0.42596435546875,0.225250244140625
1782968817413030700,10.87003076171875,-1.191436767578125,-0.3846435546875,0.2967681884765625
1782968817422956800,10.879956787109375,-1.290863037109375,-0.350189208984375,0.3324737548828125
1782968817432882400,10.88988232421875,-1.352813720703125,-0.3224945068359375,0.3279266357421875
1782968817442809600,10.8998095703125,-1.3578033447265625,-0.308868408203125,0.2958831787109375
1782968817452735700,10.90973583984375,-1.3053436279296875,-0.3145294189453125,0.2545318603515625
1782968817462661600,10.91966162109375,-1.21240234375,-0.3343353271484375,0.199005126953125
1782968817472588500,10.929588623046875,-1.1189117431640625,-0.35302734375,0.149627685546875
1782968817482514700,10.9395146484375,-1.0418548583984375,-0.3673553466796875,0.109710693359375
1782968817492440600,10.949440673828125,-0.990966796875,-0.376861572265625,0.078399658203125
1782968817502367700,10.95936767578125,-0.9764251708984375,-0.3823394775390625,0.0640106201171875
1782968817512293600,10.969293701171875,-1.0013275146484375,-0.361358642578125,0.0515289306640625
1782968817522219800,10.9792197265625,-1.0567779541015625,-0.321441650390625,0.047607421875
1782968817532145700,10.989145751953124,-1.11541748046875,-0.2822113037109375,0.0552520751953125
1782968817542072600,10.999072509765625,-1.1547088623046875,-0.240631103515625,0.0782012939453125
1782968817551998700,11.008998779296874,-1.1710968017578125,-0.2002716064453125,0.098846435546875
1782968817561924600,11.018924560546875,-1.16143798828125,-0.1641845703125,0.11236572265625
1782968817571851800,11.028851806640626,-1.119781494140625,-0.140472412109375,0.1175079345703125
1782968817581777700,11.038777587890625,-1.061309814453125,-0.1291046142578125,0.1109161376953125
1782968817591703600,11.04870361328125,-1.003997802734375,-0.1280364990234375,0.0846405029296875
1782968817601630700,11.058630615234375,-0.9576568603515625,-0.1284942626953125,0.0381927490234375
1782968817611556600,11.068556640625,-0.9397125244140625,-0.1357574462890625,-0.0190582275390625
1782968817621482500,11.078482421875,-0.9452056884765625,-0.142425537109375,-0.07366943359375
1782968817631409700,11.08840966796875,-0.96087646484375,-0.1471099853515625,-0.111053466796875
1782968817641335800,11.098335693359376,-0.9827423095703125,-0.1478424072265625,-0.133697509765625
1782968817651261700,11.10826171875,-1.0093231201171875,-0.1419219970703125,-0.1518707275390625
1782968817661188600,11.118188720703126,-1.042572021484375,-0.125946044921875,-0.1595306396484375
1782968817671114800,11.12811474609375,-1.077606201171875,-0.1025238037109375,-0.1613006591796875
1782968817681040600,11.13804052734375,-1.1018524169921875,-0.077728271484375,-0.16021728515625
1782968817690967600,11.147967529296874,-1.11614990234375,-0.053192138671875,-0.15240478515625
1782968817700893700,11.157893798828125,-1.1230621337890625,-0.0319976806640625,-0.1379547119140625
1782968817710819800,11.16781982421875,-1.1255035400390625,-0.0134124755859375,-0.1220245361328125
1782968817720746800,11.177746826171875,-1.1295166015625,0.0047149658203125,-0.1082611083984375
1782968817730673200,11.187673095703126,-1.1312255859375,0.019073486328125,-0.1002655029296875
1782968817740599000,11.19759912109375,-1.128753662109375,0.0256805419921875,-0.1006927490234375
1782968817750526200,11.207526123046875,-1.11883544921875,0.01654052734375,-0.0906524658203125
1782968817760452000,11.2174521484375,-1.0967864990234375,0.001678466796875,-0.0653076171875
1782968817770378200,11.227378173828125,-1.06610107421875,0.0529937744140625,-0.0975799560546875
1782968817780305200,11.23730517578125,-1.0385284423828125,0.0765838623046875,-0.104522705078125
1782968817790231300,11.247231201171875,-1.004364013671875,0.0628509521484375,-0.0771942138671875
1782968817800157200,11.2571572265625,-0.96978759765625,0.0426177978515625,-0.0442657470703125
1782968817810084000,11.267083984375,-0.9400634765625,0.051788330078125,-0.0401458740234375
1782968817820010200,11.27701025390625,-0.912811279296875,0.0608367919921875,-0.0499267578125
1782968817829936000,11.28693603515625,-0.87945556640625,0.0548248291015625,-0.063232421875
1782968817839862000,11.296862060546875,-0.850860595703125,0.04412841796875,-0.0795135498046875
1782968817849789200,11.3067890625,-0.8350372314453125,0.0390472412109375,-0.1078948974609375
1782968817859715300,11.31671533203125,-0.829986572265625,0.0319976806640625,-0.14788818359375
1782968817869641000,11.326640869140626,-0.8238983154296875,0.003753662109375,-0.16845703125
1782968817879568100,11.336568115234375,-0.8014984130859375,0.013671875,-0.2118072509765625
1782968817889494300,11.346494384765625,-0.775421142578125,-0.0060272216796875,-0.2238311767578125
1782968817899420000,11.356419921875,-0.7629852294921875,0.01251220703125,-0.2562255859375
1782968817909347000,11.36634716796875,-0.7826995849609375,0.05230712890625,-0.2927703857421875
1782968817919273200,11.376273193359374,-0.8572845458984375,0.0857696533203125,-0.3071136474609375
1782968817929199000,11.38619921875,-0.9488067626953125,0.092498779296875,-0.3040313720703125
1782968817939126300,11.396126220703126,-1.0196380615234375,0.066680908203125,-0.2728271484375
1782968817949052200,11.40605224609375,-1.071380615234375,0.0822601318359375,-0.2698822021484375
1782968817958978300,11.415978271484375,-1.0897216796875,0.11126708984375,-0.26922607421875
1782968817968905200,11.4259052734375,-1.0609588623046875,0.110015869140625,-0.249267578125
1782968817978831000,11.4358310546875,-1.010894775390625,0.109649658203125,-0.2523956298828125
1782968817988757200,11.44575732421875,-0.93060302734375,0.122314453125,-0.2797088623046875
1782968817998684200,11.45568408203125,-0.8524627685546875,0.1224212646484375,-0.3016510009765625
1782968818008610300,11.4656103515625,-0.8104248046875,0.10101318359375,-0.315338134765625
1782968818018536200,11.4755361328125,-0.794464111328125,0.071319580078125,-0.31964111328125
