time,seconds_elapsed,z,y,x
1782968806619391500,0.0763916015625,-0.8905278667658567,1.4829007622137664,-1.7537775582447648
1782968806629317600,0.086317626953125,-1.585680460947752,1.725204228580743,-2.0699759896449743
1782968806639244300,0.096244384765625,-1.9545774862259626,1.9861380150072276,-2.1497303482308983
1782968806649170400,0.10617041015625,-1.924074211412668,2.2356987590260804,-1.9217678341664373
1782968806659096600,0.1160966796875,-1.6305764182507991,2.4154902396395803,-1.4161277580149472
1782968806669023500,0.1260234375,-1.2464818238407374,2.581468445086479,-1.0102443795144558
1782968806678949400,0.135949462890625,-0.7032587437480687,2.77848563965857,-0.8144783540472388
1782968806688875500,0.14587548828125,-0.024791326907277107,2.9321558599352833,-0.6618810236990451
1782968806698802400,0.155802490234375,0.5775760160714387,2.99285027487278,-0.4562609820850193
1782968806708728300,0.165728271484375,0.8222311601310968,3.022221915307641,-0.19502762819007038
1782968806718654500,0.175654541015625,0.8304629819035529,3.0763059721946715,-0.0842180599965155
1782968806728581400,0.185581298828125,0.8050298499614,3.146747874164581,-0.10050415501743555
1782968806738507500,0.195507568359375,0.7646160065084695,3.3450621228098867,-0.13237579557448625
1782968806748433400,0.205433349609375,0.7935895875364541,3.535564236399531,-0.2464883508361876
1782968806758360300,0.2153603515625,1.0272317546725271,3.6458997573405503,-0.41495647340267894
1782968806768286500,0.225286376953125,1.4677537542253731,3.650288639949262,-0.6890975319266319
1782968806778212600,0.235212646484375,1.9525433500498532,3.5614667394191026,-1.069819727294147
1782968806788139300,0.24513916015625,2.312724569430947,3.4399542831644414,-1.3973478003516793
1782968806798065400,0.2550654296875,2.479385204184055,3.3080250623136758,-1.6736159340322017
1782968806807991600,0.264991455078125,2.285223983564973,3.1964760739296674,-1.905244569388777
1782968806817918500,0.27491845703125,1.8406407259225843,3.1241958506166934,-2.1207196500629184
1782968806827844400,0.28484423828125,1.2119319039851426,3.1504309465914964,-2.135817119821161
1782968806837770500,0.2947705078125,0.31454759545326233,3.258158038599789,-2.0043195683859287
1782968806847697400,0.304697509765625,-0.5307493829667568,3.395002796281874,-1.8811819951474666
1782968806857623300,0.314623291015625,-1.1645423763006926,3.585001928785443,-1.7872591182164848
1782968806867549400,0.324549560546875,-1.5415309380978346,3.747315474244952,-1.6851806996196508
1782968806877476400,0.334476318359375,-1.7452438309162854,3.8657401936173437,-1.4583895674221217
1782968806887402500,0.344402587890625,-1.8794816209703682,3.920104236489534,-1.167750816953182
1782968806897328400,0.354328369140625,-2.025011789411306,3.841508838680386,-0.9330258230164646
1782968806907255300,0.36425537109375,-2.067896406891942,3.74655442674458,-0.8591564308159053
1782968806917181400,0.374181396484375,-1.694197534289956,3.734050919002294,-0.7886815033592284
1782968806927107300,0.384107421875,-0.8218097198486327,3.7420416254952547,-0.6902129458226263
1782968806937034500,0.394034423828125,0.46267479465007777,3.7120696810796856,-0.5185527492165565
1782968806946960400,0.40396044921875,1.7733645945072174,3.4420173531740903,-0.06388049762770533
1782968806956886500,0.413886474609375,2.7170062118232248,3.353911199697852,-0.07147898993268609
1782968806966813400,0.4238134765625,3.17243118147552,3.1500597751915453,-0.1529987507559359
1782968806976739300,0.4337392578125,3.1524896326869722,2.815465417009592,-0.25655688651651143
1782968806986665500,0.44366552734375,2.881988099709153,2.502149701438844,-0.20732472664006052
1782968806996592600,0.453592529296875,2.4816899739950893,2.347020514525473,-0.3874139480911195
1782968807006518300,0.463518310546875,1.9493986222833395,2.258601203446835,-0.6928947322525084
1782968807016444400,0.4734443359375,1.3456927241772412,2.154144219150394,-0.7921868811316788
1782968807026371600,0.48337158203125,0.7992062583744526,2.100181888946891,-0.7752575928363948
1782968807036297200,0.493297119140625,0.3609428514033556,2.0884989038072526,-0.6148722389604896
1782968807046223400,0.503223388671875,0.13265198216736315,2.003247409109771,-0.5416949937425554
1782968807056150500,0.513150634765625,0.006145663148164749,1.776138443134725,-0.5683825096599757
1782968807066076400,0.523076416015625,-0.10680208611786365,1.454745804092288,-0.6818635620851069
1782968807076002300,0.533002197265625,-0.11900924126207828,1.1397381899118422,-0.7183356091096997
1782968807085929500,0.542929443359375,-0.1468055952042341,0.7657618155427277,-0.5329947507407516
1782968807095855400,0.55285546875,-0.16322072343230246,0.46913025439977646,-0.20538535607531666
1782968807105781200,0.56278125,-0.18412731786072253,0.2420793022222817,-0.14789010250531137
1782968807115708400,0.57270849609375,-0.23586627292633056,-0.06487082383930683,-0.19949023362211882
1782968807125634300,0.58263427734375,-0.36915713751912116,-0.47956002460792657,-0.2437530806533992
1782968807135560400,0.592560546875,-0.5972586216628551,-0.8077567176420241,-0.14708938058167695
1782968807145487600,0.602487548828125,-1.0195347704291342,-1.0870656803231686,0.13936623898372053
1782968807155413500,0.61241357421875,-1.3362182088673114,-1.42895815962404,0.601705445003882
1782968807165339400,0.62233935546875,-1.5811416484743355,-1.767692101828754,1.0762184153553098
1782968807175266600,0.6322666015625,-1.73188166051805,-1.8887739115811883,1.508433555138111
1782968807185192400,0.6421923828125,-1.7474375415682792,-1.9270682786621152,1.6968291979677974
1782968807195118300,0.652118408203125,-1.7602514304339885,-2.2420399447463453,1.6646674884229897
1782968807205045500,0.66204541015625,-1.6211112552911042,-2.6661709275990724,1.5603355918109416
1782968807214971600,0.6719716796875,-1.3615169007748364,-3.092584614561498,1.5339005893498658
1782968807224897300,0.681897216796875,-1.0989911689817904,-3.490660972572863,1.6014292342215775
1782968807234824400,0.691824462890625,-0.873673178076744,-3.7989717194631694,1.763684035231173
1782968807244750600,0.70175048828125,-0.8642208745986223,-4.180391541706025,1.9365765501111745
1782968807254676200,0.71167626953125,-1.0654600707799196,-4.4029196096315975,2.0712683675430714
1782968807264603400,0.721603271484375,-1.1596610339999198,-4.5707945886105295,2.083682005044818
1782968807274529500,0.731529541015625,-0.900486366200447,-4.506127178388834,2.14285490950346
1782968807284455400,0.741455322265625,-0.4968173027485609,-4.874903499896824,2.1209123961560428
1782968807294382300,0.75138232421875,0.1941594670534134,-5.514453157061338,2.0007573458597063
1782968807304308500,0.76130859375,0.8854577238947152,-5.866472112774849,2.0173501687422393
1782968807314234400,0.771234375,1.3336065650641917,-5.884366665905714,1.9207403908148406
1782968807324161500,0.78116162109375,1.3894067782193422,-5.870354507166147,1.8009955287545918
1782968807334087400,0.79108740234375,1.1295318531960248,-5.885707559120655,1.8046137192517517
1782968807344013600,0.801013671875,0.6840086843550205,-5.699696911731362,1.5016650839164851
1782968807353940500,0.8109404296875,-0.21096564042568205,-5.641262842941284,2.344532935493439
1782968807363866400,0.820866455078125,-0.6743447839528321,-5.582119164577126,2.4052329033888875
1782968807373792500,0.83079248046875,-1.299580961343646,-4.923040923339128,2.1916738854691387
1782968807383719400,0.840719482421875,-1.8322464070647955,-4.397178435631096,2.278800380258262
1782968807393645600,0.8506455078125,-2.32467395042181,-4.059059994976223,2.4599717709228397
1782968807403571500,0.860571533203125,-2.431731472605467,-3.7315251999169585,2.4372401530243457
1782968807413498400,0.870498291015625,-2.166196622124314,-3.5543332342773675,2.3078137087747455
1782968807423424500,0.880424560546875,-1.7285165679991243,-3.5679502562195062,2.059073048967123
1782968807433350400,0.890350341796875,-1.2872370280772447,-3.654822483986616,1.6260336602546275
1782968807443277300,0.90027734375,-0.8907891480505465,-3.7188276309072967,1.1486972299803049
1782968807453203500,0.910203369140625,-0.9091174164235591,-3.7118119069263336,0.8178142935369164
1782968807463129600,0.920129638671875,-0.8309586564660072,-3.566374092943966,0.5490099929310381
1782968807473056300,0.93005615234375,-0.7423065595448016,-3.2144694112598895,0.4009417939124629
1782968807482982400,0.939982421875,-1.0865642336070538,-2.8077412524983285,1.2983986196912825
1782968807492908500,0.949908447265625,-1.4835942974358796,-2.1257234496995805,1.8381451097145676
1782968807502835500,0.95983544921875,-1.985041598072648,-1.2079695762254297,1.9443053907975554
1782968807512761300,0.96976123046875,-2.48269593616724,-0.5267945809263735,1.9525931805409489
1782968807522687500,0.9796875,-2.672486102095246,-0.22864432231616227,1.9644578058578073
1782968807532613600,0.989613525390625,-2.4482015458911657,-0.039117739227786656,1.755915008664876
1782968807542540300,0.999540283203125,-1.9748013590872286,0.20719708167240022,1.2810348124362527
1782968807552466400,1.009466552734375,-1.28608961160779,0.4203648352522403,0.8136816507115959
1782968807562393300,1.019393310546875,-0.5420481910943985,0.5129330827038735,0.38492797649428245
1782968807572319500,1.029319580078125,0.17263152585625646,0.5719860140446573,-0.12323527972558512
1782968807582245400,1.039245361328125,0.7127636541962623,0.6478162579894066,-0.5517463225597515
1782968807592171500,1.049171630859375,0.7548474766880273,0.7118643672689795,-0.7165607083916664
1782968807602098400,1.059098388671875,0.4027390891253948,0.9528630346477032,-0.5615160944892094
1782968807612024600,1.069024658203125,-0.23862813885509968,1.4559436355747282,-0.3281391176279634
1782968807621950500,1.078950439453125,-0.8845926314979791,2.0894534280531105,-0.29562106892615553
1782968807631877400,1.08887744140625,-1.4287263966947794,2.5916622145816683,-0.30198848506622017
1782968807641803500,1.098803466796875,-1.7746458664894103,2.9239982724428177,-0.25819011374153195
1782968807651729400,1.1087294921875,-1.7630173880159854,3.1111975450947877,-0.18724559601172805
1782968807661656300,1.11865625,-1.4636878199607133,3.18800401366055,-0.0736278385296464
1782968807671582500,1.12858251953125,-1.0289537561595439,3.1123207039058207,0.06469422516338527
1782968807681508600,1.138508544921875,-0.4953349552363157,3.017488457044959,0.09827983003146946
1782968807691435300,1.148435302734375,0.02433364626765251,2.9718109939754007,-0.019203005380928517
1782968807701361400,1.158361328125,0.4469932413935661,2.9129221671551466,-0.1208766425691545
1782968807711287600,1.16828759765625,0.7714917374968528,2.8262045454278586,-0.0989309143513441
1782968807721215500,1.178215576171875,1.012981695523858,2.7713904207006097,-0.0015036825612187385
1782968807731141400,1.188141357421875,1.1617857710689306,2.8317054809316993,0.31699586538821456
1782968807741067500,1.198067626953125,0.9477005373179912,3.1481492653951046,0.7540935895808041
1782968807750994400,1.207994384765625,0.4261275634974241,3.622490532441437,1.0935821495451032
1782968807760920300,1.21792041015625,-0.06681786625385285,4.07434728821814,1.1791392030604182
1782968807770846500,1.227846435546875,-0.28252573277056214,4.447633780626952,0.8487441962644457
1782968807780773400,1.2377734375,-0.432746689376235,4.726898173514008,0.6722331986263393
1782968807790699500,1.247699462890625,-0.5955898116677999,4.67051577655673,0.9135356712572276
1782968807800625400,1.25762548828125,-1.1546727241933346,4.467855899922549,0.33743265034779907
1782968807810552300,1.26755224609375,-0.9703332248866557,4.401322111307084,-0.4467240690633654
1782968807820478500,1.277478515625,-0.40241058782339095,4.111716357147693,-0.6695216015800833
1782968807830404400,1.287404296875,0.15001812750995158,3.9735248610317706,-1.0334263715289533
1782968807840331300,1.297331298828125,0.793420076188445,4.017112658345699,-1.415672707723826
1782968807850257400,1.30725732421875,1.2937369114905595,3.9543785542741414,-1.743326160726696
1782968807860183600,1.31718359375,1.648855586785078,3.7504753995805977,-1.549058264862746
1782968807870110200,1.327110107421875,1.8563637802332638,3.8364687986865635,-1.6169062048166989
1782968807880036400,1.337036376953125,1.8052467564582824,3.7805642483741044,-1.5591083881035446
1782968807889962500,1.34696240234375,1.3125187688499689,3.7203310212075706,-1.1213482544794677
1782968807899889400,1.356889404296875,0.5893973867684602,3.6885447208464144,-0.6725067548707128
1782968807909815300,1.366815185546875,-0.058684244158864016,3.7432887029469013,-0.32401611941382286
1782968807919741400,1.376741455078125,-0.3638753977239132,3.923758082821965,-0.001855272477865219
1782968807929668400,1.38666845703125,-0.20059096140563487,4.127400540752709,0.1982507549550384
1782968807939594200,1.39659423828125,0.3348474561601877,4.1217274635523555,0.3569095772992819
1782968807949520400,1.406520263671875,0.6335784738004208,3.871230315466225,0.39046559074670073
1782968807959447300,1.416447265625,1.0990063665509224,3.5449183402001854,0.18025369129776952
1782968807969373400,1.42637353515625,1.61283851698637,3.199960408914089,-0.09541450372822582
1782968807979299300,1.43629931640625,1.634250722849369,2.89711844882369,-0.49572621957622465
1782968807989226200,1.446226318359375,1.2473948470324276,2.6963860331207514,-0.9047908584613352
1782968807999152400,1.45615234375,0.6481926900863647,2.484883217078447,-1.0862767219025642
1782968808009078500,1.46607861328125,0.11529343560934066,2.241735554972291,-1.0935639563012867
1782968808019005200,1.476005126953125,-0.15507073472440241,2.1136495655462144,-1.0681931490056216
1782968808028931300,1.485931396484375,-0.2566992175966501,2.0456598790340124,-1.0448463948834688
1782968808038857500,1.495857421875,-0.2630214063555002,1.9702815435752272,-1.006288335365057
1782968808048784400,1.505784423828125,-0.18122399763464928,1.833850919651985,-0.9084723234530537
1782968808058710300,1.515710205078125,0.06969137586355209,1.6053901006765663,-0.6602933891814202
1782968808068636400,1.525636474609375,0.4962187523335218,1.3010111402772366,-0.36211269890032705
1782968808078563300,1.535563232421875,0.8927104715019464,0.984953432521969,-0.2511647451493889
1782968808088489200,1.5454892578125,1.0646697971850634,0.6002895137913524,-0.3351991191420704
1782968808098415400,1.555415283203125,1.1133856050372124,0.09405585566088556,-0.4467022956229746
1782968808108342500,1.565342529296875,1.039791376516223,-0.4204096242420375,-0.487320940933004
1782968808118268400,1.575268310546875,0.7388380066514014,-0.8023072931297123,-0.4135904457464814
1782968808128194300,1.5851943359375,0.1693541116207838,-1.0553636241793631,-0.29826522675938905
1782968808138121500,1.59512158203125,-0.5313724833011627,-1.2683755296103656,-0.357691448391974
1782968808148047400,1.60504736328125,-1.2773644533604382,-1.543677740868181,-0.5748377502139658
1782968808157973200,1.61497314453125,-2.0208394721627236,-1.846872606049478,-0.8280750638537109
1782968808167900400,1.624900390625,-2.5961393599957225,-2.0977026393517852,-0.9963643957871943
1782968808177826300,1.634826416015625,-2.763094009259343,-2.2335091400273144,-0.9961061832424253
1782968808187752400,1.64475244140625,-2.700781637731194,-2.558756262540817,-0.9100405956830829
1782968808197679400,1.654679443359375,-2.6227719308555124,-2.92578398681581,-0.7027376424834132
1782968808207605200,1.664605224609375,-2.1314637469172477,-3.2561312089473007,-0.3957176660560071
1782968808217531400,1.674531494140625,-1.3982465027570723,-3.4963737972617146,0.051150560718402266
1782968808227457300,1.684457275390625,-0.6148281806230544,-3.7475656496137377,0.5287048715271055
1782968808237384200,1.69438427734375,0.11414660366177558,-4.017775798429549,1.0557847722008824
1782968808247310300,1.704310302734375,0.7363689861893653,-4.430957663375139,1.4190237717173992
1782968808257236500,1.714236572265625,1.201446165806055,-4.849140697608888,1.5152242381915448
1782968808267163400,1.724163330078125,1.2289584421098232,-5.333024576765299,1.5115356128066777
1782968808277089300,1.73408935546875,1.3756331044107675,-6.210610544371605,0.8305285944856703
1782968808287015400,1.744015380859375,1.531298882418871,-7.252582187536358,-0.13388477536533028
1782968808296942600,1.753942626953125,1.6108716008275747,-7.731557544124126,-0.8228471000723541
1782968808306868200,1.7638681640625,1.6943880884259939,-7.03355189859867,-0.6027651831898838
1782968808316794400,1.77379443359375,1.7089532048732041,-5.147783160182834,0.7950560068272053
1782968808326721500,1.783721435546875,1.3937854316949843,-3.747266666667163,2.775839216803014
1782968808336647200,1.793647216796875,0.8167594507217407,-3.669202014733851,4.483196676917374
1782968808346573300,1.8035732421875,0.12233049463927745,-4.32649775646925,5.172074720874429
1782968808356500500,1.81350048828125,-0.6474672984212636,-4.882898005782067,5.1165603389233345
1782968808366426400,1.82342626953125,-1.1724813526064157,-4.8575847008273,4.607801546229422
1782968808376352300,1.833352294921875,-1.464935774195194,-4.423753138823807,3.97887849701941
1782968808386279400,1.843279541015625,-1.30511229198575,-3.904469737245142,3.59590881498605
1782968808396205300,1.853205322265625,-1.0717506953567266,-3.7186692254751916,3.491492162699997
1782968808406131500,1.86313134765625,-0.9446861579328775,-3.4200711865648623,3.2327105858713385
1782968808416058400,1.873058349609375,-1.0011848747462033,-3.1968805630773303,2.692341433905065
1782968808425984300,1.882984375,-1.1827075630664825,-3.133466660048067,2.119383433023095
1782968808435910400,1.892910400390625,-1.3381190740525721,-3.097560357147455,1.5441981114804744
1782968808445837600,1.902837646484375,-1.3337380824893712,-2.991406213544309,1.1160844887323678
1782968808455763500,1.912763427734375,-1.1245061339884996,-2.7753482184156772,1.0006653809167445
1782968808465689300,1.922689453125,-0.7877741792559623,-2.4908304350450634,1.1189292106389999
1782968808475616500,1.932616455078125,-0.5621820475846528,-2.119979206959158,1.4296703995466231
1782968808485542400,1.94254248046875,-0.55726388040483,-1.6353522543504833,1.8210940216705203
1782968808495468300,1.95246826171875,-0.668197951760888,-1.083135355136916,2.014931417162716
1782968808505395500,1.9623955078125,-0.8254214806050062,-0.5887169302236288,1.9552235290445386
1782968808515321600,1.972321533203125,-0.9778566061288118,-0.2446757484562695,1.7369583792604506
1782968808525247200,1.982247314453125,-1.1375807196170091,0.021597864628210662,1.5491099950499831
1782968808535174400,1.99217431640625,-1.2033739189982413,0.25217501817047594,1.4813608392953872
1782968808545100500,2.0021005859375,-1.2263520590037107,0.4833054947465658,1.5468366432905196
1782968808555026200,2.012026123046875,-1.3585060285210608,0.7985469176828861,1.586753058615327
1782968808564953300,2.021953369140625,-1.5216928496837616,1.2943610347382724,1.482511032243818
1782968808574879500,2.03187939453125,-1.513801219651103,1.7726618530653415,1.2705188252493738
1782968808584805400,2.041805419921875,-1.3444979614347219,1.9053136891022324,0.8694639628838747
1782968808594732300,2.051732177734375,-1.0308183809876441,1.8656478875376283,0.3582973053306341
1782968808604658400,2.061658447265625,-0.8352642447054386,1.8560059067063033,-0.18997158690951763
1782968808614584300,2.071584228515625,-0.8954922111749648,1.9127106674857437,-0.6635668578941375
1782968808624511500,2.081511474609375,-1.1538298436284065,2.0480949972264466,-1.007028267012164
1782968808634437400,2.091437255859375,-1.4755413393616676,2.2383782073684038,-1.1356576425999403
1782968808644363500,2.101363525390625,-1.7120727981984614,2.4890993734687563,-1.0420818255409598
1782968808654290400,2.11129052734375,-1.8781436503648756,2.752467693565786,-0.8495371732730418
1782968808664216300,2.12121630859375,-1.8398066131860016,2.9333646512031555,-0.6077575115844607
1782968808674142500,2.131142578125,-1.4633330151736736,3.041285804478824,-0.31229492115564644
1782968808684069400,2.1410693359375,-0.875648277541995,3.0853444341748952,-0.008152545991167425
1782968808693995500,2.15099560546875,-0.33534663785398006,3.043786681383848,0.18785517927743495
1782968808703921400,2.16092138671875,0.046235096952319144,2.9492075325012204,0.32305246201343835
1782968808713847300,2.170847412109375,0.37016193064749237,2.8243814216539262,0.5464690762765705
1782968808723773700,2.180773681640625,0.6712900725573301,2.758849503557384,0.8128772024609148
1782968808733699600,2.190699462890625,0.8332786238461732,2.785522698688507,1.0684564030516892
1782968808743625700,2.200625732421875,0.8595593125283718,2.8668355387628077,1.213075667192787
1782968808753552600,2.210552734375,0.7945762604862451,3.003492664918303,1.1434832947243005
1782968808763478800,2.220478759765625,0.7858025869220495,3.156556151473522,0.8685225173152983
1782968808773404700,2.23040478515625,0.7607499787300824,3.2450802381008863,0.4673922516260296
1782968808783331600,2.24033154296875,0.6898702698647976,3.3061247816503045,-0.03972615344971418
1782968808793257700,2.2502578125,0.6558569411039352,3.3265476842150092,-0.5765878818169236
1782968808803183600,2.26018359375,0.9058978698551654,3.262744489607215,-1.010933092430979
1782968808813110500,2.270110595703125,1.327395435464382,3.2221570431530475,-1.3080056753396987
1782968808823036700,2.28003662109375,1.7219611550062894,3.22046456002146,-1.5191794055581092
1782968808832962800,2.289962890625,1.900222795704007,3.277773716434836,-1.5944732776038348
1782968808842889500,2.299889404296875,1.7626128988683223,3.3533009588450193,-1.5364965971924365
1782968808852815600,2.309815673828125,1.285220427557826,3.422151792231202,-1.3937439306408166
1782968808862741800,2.31974169921875,0.6087251875728369,3.4806115799844264,-1.2675932931914924
1782968808872668700,2.329668701171875,-0.11596797387003897,3.545477143126726,-1.114815491709858
1782968808882594600,2.339594482421875,-0.7663356699079275,3.6832951297551393,-0.9576137363061308
1782968808892520700,2.349520751953125,-1.1256237398415803,3.8470588740229603,-0.7931422821603715
1782968808902447600,2.359447509765625,-1.0760708966434,4.020046958231926,-0.607548983400315
1782968808912373500,2.36937353515625,-0.6265221255481243,4.052707703340054,-0.5253399251386522
1782968808922299600,2.379299560546875,0.1485848798364401,3.9306151091098784,-0.5078606748104095
1782968808932226600,2.3892265625,0.9434761976212263,3.703456458774209,-0.4536464887376874
1782968808942152700,2.399152587890625,1.5501695871055126,3.4856656485036015,-0.5269743944726885
1782968808952078600,2.40907861328125,1.9161399112820625,3.2809716356933114,-0.7840073740683495
1782968808962005500,2.419005615234375,2.1573837855935096,3.0664556093096733,-1.0391210760392249
1782968808971931600,2.428931640625,2.2224182755619286,2.854639489534497,-1.1621908447384834
1782968808981857500,2.438857421875,1.9449597630530595,2.7213603153795,-1.1678326500177383
1782968808991784400,2.448784423828125,1.4443226097553967,2.661257436594367,-1.2058733345985413
1782968809001710600,2.458710693359375,0.8887228631705045,2.6187691249549387,-1.2947927041538059
1782968809011636700,2.46863671875,0.3206003196209669,2.5411311740010976,-1.372097916021943
1782968809021563600,2.478563720703125,-0.19993746593296527,2.4572432227417824,-1.476342134350538
1782968809031489500,2.488489501953125,-0.6380272699028253,2.356284017433226,-1.535495165064931
1782968809041415700,2.498415771484375,-0.9558943651676177,2.177056454312801,-1.4889897267386316
1782968809051342800,2.5083427734375,-1.17775140196383,1.9357298701539634,-1.286216452857852
1782968809061268500,2.5182685546875,-1.2165922970116139,1.6895799574919044,-0.9958401527173817
1782968809071194600,2.528194580078125,-0.9833791689425706,1.5164607942491768,-0.6580908376358449
1782968809081121800,2.538121826171875,-0.6160019005775451,1.2985126014597712,-0.3419590417310595
1782968809091047400,2.54804736328125,-0.3032055327057838,0.9844060277722775,-0.14705299409404396
1782968809100973600,2.5579736328125,-0.12112228789329528,0.6182924957327545,-0.03768544140234589
1782968809110900700,2.567900634765625,-0.02201952410638332,0.2030019680701196,0.07446085528768599
1782968809120826600,2.57782666015625,-0.04257891253232956,-0.26600422155857084,0.24285335533469915
1782968809130752500,2.58775244140625,-0.25123335340619085,-0.6797947199217975,0.3063425155572593
1782968809140679700,2.5976796875,-0.5809761799037456,-0.9770762694060802,0.23126053269654512
1782968809150605600,2.60760546875,-0.9613964697152375,-1.23723556432873,0.18989494147673247
1782968809160531500,2.617531494140625,-1.3043787170141934,-1.5309303413674233,0.2873713461708277
1782968809170457600,2.62745751953125,-1.4725462491989134,-1.8268739202462136,0.4330466221708804
1782968809180384500,2.637384521484375,-1.4839946949303149,-2.0453839847020805,0.5828139167249202
1782968809190310700,2.647310546875,-1.4465981534719465,-2.254538630183041,0.7092503123130649
1782968809200236500,2.657236572265625,-1.3950631965458393,-2.5425676365450025,0.8702522637173533
1782968809210163700,2.667163818359375,-1.2692945441514254,-2.858367862407863,0.9927319575689733
1782968809220089600,2.677089599609375,-1.0990975519657133,-3.126893419137597,1.0408793909486382
1782968809230015700,2.687015625,-0.8903285448014736,-3.417358712735772,1.025122434368357
1782968809239942700,2.696942626953125,-0.7656997100919485,-3.677569445584714,1.089056927205622
1782968809249868500,2.70686865234375,-0.7684639141082763,-3.9306121865004298,1.271078212697804
1782968809259794700,2.716794677734375,-0.790913646325469,-4.004670233140885,1.5316516413792967
1782968809269721900,2.726721923828125,-0.7538526204317808,-4.109174271449446,1.7201313092306256
1782968809279647500,2.7366474609375,-0.6894026523530483,-4.224574966825545,1.740865761962533
1782968809289573600,2.74657373046875,-0.5861018523544073,-4.400716838890314,1.6506128057159482
1782968809299500800,2.756500732421875,-0.5324830748915672,-4.544943523517251,1.479010330646485
1782968809309426400,2.766426513671875,-0.32343583530783654,-4.648917692732811,1.3855648619689047
1782968809319352600,2.7763525390625,0.046131636577844616,-4.67075776861906,1.4532922442831098
1782968809329279700,2.78627978515625,0.3540507538020611,-4.5277883905768395,1.6418576907217501
1782968809339205600,2.79620556640625,0.27827041341364384,-4.266189710500836,1.869571344591677
1782968809349131500,2.806131591796875,-0.10060556956529616,-4.228534518106281,1.9380190040044485
1782968809359058700,2.81605859375,-0.43380116686522957,-4.269861384750903,1.9937566733174026
1782968809368984600,2.825984619140625,-0.613818126797676,-4.123995993006229,2.1218359407417475
1782968809378910500,2.835910400390625,-0.5840829137474298,-3.812837163208425,2.2545887529350814
1782968809388837600,2.845837646484375,-0.471309352004528,-3.467443470853567,2.3846812598779796
1782968809398763800,2.855763671875,-0.34089725771844387,-3.234776578490436,2.4403002712473274
1782968809408689700,2.865689697265625,-0.20670856750309466,-3.130542881555855,2.369683451101929
1782968809418616600,2.875616455078125,-0.1468757378309965,-3.0670261026740073,2.2181717240333554
1782968809428542700,2.885542724609375,-0.0905044467896223,-3.0271818758025764,1.9774337534174322
1782968809438468600,2.895468505859375,-0.08175064696967602,-2.957313097545504,1.724829988440871
1782968809448395800,2.905395751953125,-0.12118833886682986,-2.8531074576616287,1.4931614594653249
1782968809458321700,2.91532177734375,-0.2824678651034832,-2.717488442382216,1.331549048012495
1782968809468247600,2.92524755859375,-0.5535433985769749,-2.527690969930589,1.2074133305821566
1782968809478174700,2.9351748046875,-0.7576128497481346,-2.2303351861663163,1.1999491321813314
1782968809488100600,2.9451005859375,-0.8848965828806161,-1.8534334258697927,1.2545154926925897
1782968809498026500,2.955026611328125,-0.9279624021470546,-1.4654127440571785,1.2209171744734049
1782968809507953700,2.96495361328125,-0.8674363295137881,-1.080333376393467,1.1522484927210956
1782968809517879800,2.9748798828125,-0.7604922045767307,-0.7556329279772936,1.0721014084905385
1782968809527805400,2.984805419921875,-0.8124158685594797,-0.4907835755422711,0.9648693334575742
1782968809537732600,2.994732666015625,-0.9523965861797332,-0.20076368762403726,0.8067355579007417
1782968809547658800,3.00465869140625,-0.9460843342930078,0.06743643654361367,0.6989725177962333
1782968809557584600,3.014584716796875,-0.7660165209561586,0.3071600424852222,0.6563856411531567
1782968809567510500,3.024510498046875,-0.5442950932383537,0.5527603584405034,0.5823370929934084
1782968809577437700,3.034437744140625,-0.2580214061111212,0.7914961223885416,0.460429426876083
1782968809587363800,3.04436376953125,0.011062661284208297,0.9797631704024969,0.27529738895222544
1782968809597289500,3.05428955078125,0.2277040092587471,1.1118607335574924,0.05927556111551821
1782968809607216600,3.064216552734375,0.334895386955142,1.188574847664684,-0.17629129047282038
1782968809617142800,3.074142822265625,0.36021336808502674,1.249486558614671,-0.36527335488833484
1782968809627068400,3.084068359375,0.3517658577352762,1.3268833942890166,-0.45803982832580803
1782968809636995600,3.09399560546875,0.1565396382331848,1.4892966007307171,-0.47368265700712797
1782968809646921700,3.103921630859375,-0.12360592140257358,1.765193416880816,-0.4237511897549033
1782968809656847600,3.11384765625,-0.36881343864798544,1.9746967296689748,-0.3675150694005191
1782968809666774800,3.12377490234375,-0.5384545505166053,2.14312042857185,-0.285507232799381
1782968809676700700,3.13370068359375,-0.6923065571010112,2.2488848422050474,-0.23958514731898903
1782968809686626600,3.14362646484375,-0.8431745794385671,2.324874003038555,-0.2626755155272782
1782968809696553700,3.1535537109375,-0.9048480685412883,2.3993616732679306,-0.24458587821573016
1782968809706479600,3.163479736328125,-0.813206142154336,2.418402766085416,-0.1707780069440603
1782968809716405500,3.173405517578125,-0.6399421636134386,2.4990102343693374,-0.09367065573558211
1782968809726333000,3.1833330078125,-0.41833354862034317,2.5266730250597,-0.014186638523638247
1782968809736259000,3.193259033203125,-0.14423428341150282,2.539806355138123,0.09647679919749498
1782968809746184700,3.203184814453125,0.0801344439446926,2.559187347434461,0.20013050428703427
1782968809756112000,3.21311181640625,0.15872458105683326,2.5954382259890436,0.3149452164687216
1782968809766038000,3.2230380859375,0.19762334377169608,2.668915257871151,0.3582588730163872
1782968809775964000,3.2329638671875,0.25868366941213605,2.7565561319231984,0.3159659378185868
1782968809785890800,3.242890869140625,0.25264906542301174,2.807587230980396,0.1977124833598733
1782968809795817000,3.25281689453125,0.1345715520530939,2.8607746312886473,-0.04270326956436038
1782968809805743000,3.2627431640625,0.11670447145104408,2.874486930298805,-0.37513153575360775
1782968809815669800,3.272669677734375,0.1821767683148384,2.8401942000746727,-0.7412595347099006
1782968809825596000,3.282595947265625,0.1984106947571039,2.766169763442874,-1.1058956876732409
1782968809835522000,3.29252197265625,0.051228082934021944,2.668950329184532,-1.3917111096389592
1782968809845449000,3.302448974609375,-0.24426760604679584,2.5876298903256654,-1.5492268994279206
1782968809855374800,3.312374755859375,-0.5506190355628728,2.604455937442183,-1.462741186760366
1782968809865301000,3.322301025390625,-0.7505676074117422,2.754488677999377,-1.2029879884205759
1782968809875228000,3.332227783203125,-0.64260641438663,2.9935277357429264,-0.8054562586799263
1782968809885153800,3.34215380859375,-0.2305138059824705,3.2101965562462804,-0.3952753291159868
1782968809895080000,3.352079833984375,0.3813151928246021,3.3326100529938936,-0.04877089904025197
1782968809905006800,3.3620068359375,1.0399024356752633,3.378952701973915,0.2246573350392282
1782968809914933000,3.37193310546875,1.5508283432751893,3.3521117490604517,0.35029198579043147
1782968809924859000,3.38185888671875,1.8257658128738403,3.297452230373025,0.27517697744295
1782968809934785800,3.391785888671875,1.8987521386295556,3.2420804717630145,0.03348024479746818
1782968809944712000,3.4017119140625,1.8392384579092262,3.126609633760154,-0.34389117883741854
1782968809954638000,3.41163818359375,1.5971633934706448,2.92664148042798,-0.7266514559037983
1782968809964564700,3.421564697265625,1.211155658915639,2.7569664662897586,-1.0527256768912077
1782968809974491000,3.431490966796875,0.7568868735611438,2.613184602820873,-1.3415394038900732
1782968809984417000,3.4414169921875,0.2692816357940435,2.464087097287178,-1.5782491419032214
1782968809994344000,3.451343994140625,-0.1603746863514185,2.366354745070636,-1.6604544007726012
1782968810004269800,3.461269775390625,-0.6202507901936769,2.3529412828765808,-1.6188538317531347
1782968810014196000,3.471196044921875,-0.9492091883152722,2.354743509992957,-1.4898220859095452
1782968810024122000,3.4811220703125,-0.9988117158740758,2.3517339529134333,-1.3241948858574033
1782968810034048800,3.491048828125,-0.7923995009690523,2.265778255469352,-1.0714100652255116
1782968810043975000,3.500974853515625,-0.4196656740069389,2.0845074960835275,-0.7447153011869638
1782968810053901000,3.510901123046875,0.10613163951039313,1.8785016700223087,-0.4870069065477699
1782968810063828000,3.520827880859375,0.5907967321723699,1.6213720981843769,-0.30002061905935407
1782968810073753900,3.53075390625,0.8351900104254484,1.3267507078200578,-0.2080057677067816
1782968810083680000,3.540679931640625,0.8418722646683454,1.0124190932050348,-0.22479747416228055
1782968810093607000,3.55060693359375,0.7202087095052003,0.6924182007819414,-0.41091070514321326
1782968810103532800,3.56053271484375,0.5716530557632445,0.35521102975308894,-0.6370582787401974
1782968810113459000,3.570458984375,0.3358621861606836,-0.013169862696528435,-0.7061377332504838
1782968810123385900,3.5803857421875,-0.11162906788289546,-0.40876609432995314,-0.5893786820679903
1782968810133312000,3.59031201171875,-0.6273123991429805,-0.6371345588468015,-0.3708996703375131
1782968810143238000,3.60023779296875,-1.051818498918414,-0.7441157278586179,-0.17826814350374043
1782968810153164800,3.610164794921875,-1.3609130896627901,-0.9123167969867586,0.03184424109347164
1782968810163091000,3.620091064453125,-1.4648194543391466,-1.0849312255777417,0.20723697529137133
1782968810173016800,3.630016845703125,-1.4738105700463056,-1.2885735373780132,0.31301541744992134
1782968810182943700,3.63994384765625,-1.3930758221209047,-1.498817877791822,0.32863281942903994
1782968810192870000,3.649869873046875,-1.241344460952282,-1.8295172743618486,0.2926273670028895
1782968810202796000,3.659796142578125,-1.067331709870696,-2.205399920743704,0.2903077649489045
1782968810212722700,3.66972265625,-0.8880985937923193,-2.4543089228555557,0.3880295227061957
1782968810222648800,3.67964892578125,-0.6247182909965515,-2.5974185861513015,0.5983026508230715
1782968810232575000,3.689574951171875,-0.27855741366147996,-2.696652867363393,0.7499325974438339
1782968810242502000,3.699501953125,0.09397416872680187,-2.83601165369302,0.8422716392494738
1782968810252427800,3.709427734375,0.39703649356961246,-3.0267484528213737,0.8366505114320665
1782968810262354000,3.71935400390625,0.574845129802823,-3.400180198919773,0.7412971633065492
1782968810272280800,3.72928076171875,0.632723902797699,-3.817242120169103,0.6528879352305084
1782968810282206700,3.739206787109375,0.544423103532195,-4.124409542243183,0.5663823488187044
1782968810292132900,3.7491328125,0.38955987407863135,-4.291455961443484,0.44767742426544427
1782968810302059800,3.759059814453125,0.3424737132549286,-4.501578429043293,0.3595982318613678
1782968810311986000,3.76898583984375,0.394185780313611,-4.8424797784149645,0.25063385314308106
1782968810321911800,3.778911865234375,0.6842728882491588,-4.957627668073773,0.2744458866894245
1782968810331838700,3.788838623046875,1.0638690021961927,-4.820060149075091,0.5531842098757624
1782968810341764900,3.798764892578125,1.2463719337254762,-4.169797374716401,1.3569327878549695
1782968810351690800,3.808690673828125,0.8012409790724515,-3.745552556225657,2.146613823645562
1782968810361618000,3.818617919921875,0.0969704279333353,-3.9179257234066722,2.7580601067453623
1782968810371543800,3.828543701171875,-0.4841390229612589,-4.08315924796611,3.072256112281978
1782968810381470000,3.838469970703125,-0.6959077964633703,-3.9569343762367963,3.108472796306014
1782968810391395800,3.848395751953125,-0.6226724643826484,-3.6466470685765144,3.05090674252212
1782968810401322800,3.85832275390625,-0.4531137701004743,-3.41031288587749,2.97594268695265
1782968810411249000,3.868248779296875,-0.39610476567745206,-3.396845501539111,2.8695865910366174
1782968810421175000,3.878175048828125,-0.5250093780100346,-3.457571772919595,2.570722302405536
1782968810431101700,3.888101806640625,-0.7597901937872171,-3.488185814630985,2.09021549846679
1782968810441027800,3.89802783203125,-0.9452706798225641,-3.515046056766808,1.6099895572960377
1782968810450954000,3.9079541015625,-1.0792822599053382,-3.5417893945246934,1.1593430540919303
1782968810460881000,3.917880859375,-1.1096323899835348,-3.5120363535568115,0.7620598922848701
1782968810470806800,3.927806884765625,-1.060313940063119,-3.3720720025494693,0.5244509404096752
1782968810480733000,3.93773291015625,-1.0810872635006903,-3.1484897493958472,0.4619085595179349
1782968810490659800,3.947659912109375,-1.1313333496600388,-2.822884461094439,0.5943206685148179
1782968810500585700,3.957585693359375,-1.1694564518272876,-2.4569483314484355,0.7556908687096089
1782968810510511900,3.967511962890625,-1.173508357566595,-2.090980491489917,0.8412395927879959
1782968810520438800,3.977438720703125,-1.139468140798807,-1.6925842538744211,0.920019480318576
1782968810530365000,3.987364990234375,-1.1199053621947765,-1.3152801963873206,0.9853552182558923
1782968810540289800,3.997289794921875,-1.057415296012163,-0.9272724471215158,1.0941371530793607
1782968810550216000,4.0072158203125,-0.9429431136578321,-0.5041974761277437,1.2223279911193996
1782968810560141800,4.017141845703125,-0.8058978649675845,-0.15222082518599928,1.3074433652818203
1782968810570068700,4.02706884765625,-0.5861912842035293,0.0843348182439804,1.274464932526648
1782968810579995000,4.036994873046875,-0.33096389272511,0.21886808411329983,1.142907175336778
1782968810589921000,4.046921142578125,-0.09258943637013435,0.3155381408605724,0.8047256793830543
1782968810599847700,4.05684765625,-0.023576690420508382,0.4129586506489664,0.24670835026241839
1782968810609773800,4.06677392578125,-0.16874562433362006,0.4428814221605658,-0.3539228896386921
1782968810619700000,4.076699951171875,-0.34501053825616834,0.3690567458845675,-0.7822827422328292
1782968810629627000,4.086626953125,-0.5137421340644359,0.3364636591851711,-0.9083816494949162
1782968810639552800,4.096552734375,-0.8345464518249034,0.5709897695489228,-0.8910307017214596
1782968810649479000,4.10647900390625,-1.3285709089845419,1.0176213380232453,-0.8867613538391887
1782968810659405800,4.11640576171875,-1.963045454841852,1.4532380298778413,-0.8040288562253117
1782968810669331700,4.126331787109375,-2.583079971936345,1.8702685330756008,-0.5033763690032065
1782968810679257900,4.1362578125,-2.9517940418630837,2.261472228838503,-0.15809271289408205
1782968810689185000,4.14618505859375,-2.969895515742898,2.6137866603672504,-0.03294306918084621
1782968810699111000,4.15611083984375,-2.566861243063211,2.764611428084969,-0.040738691493123765
1782968810709036800,4.166036865234375,-1.8919786989718674,2.699832374182343,-0.05147402051910758
1782968810718964000,4.1759638671875,-1.109980765029788,2.5404873231396077,0.004806669629365205
1782968810728889900,4.185889892578125,-0.41401802350878714,2.4883646294534203,0.080905355251953
1782968810738816000,4.19581591796875,0.15483809501230716,2.5576202442482114,0.19508973364084958
1782968810748743200,4.2057431640625,0.5364589927852154,2.6722376802921293,0.44296464346460995
1782968810758669000,4.2156689453125,0.8114327027410269,2.8976024329483505,0.792917533493787
1782968810768595000,4.225594970703125,0.9854512990415095,3.249905466300249,1.169753900403902
1782968810778522000,4.235522216796875,1.0847995620220898,3.642716451129317,1.2434865875475107
1782968810788448000,4.245447998046875,1.1568132433533669,3.9428585046112534,1.0559386475883423
1782968810798374000,4.255373779296875,1.3153952010691166,4.05025212688148,0.7654246194776148
1782968810808301000,4.265301025390625,1.5151000272899866,3.9730157424658534,0.5208911290362477
1782968810818227000,4.27522705078125,1.7095102542340754,3.7881884596422313,0.20626586523689328
1782968810828153000,4.285153076171875,1.9150322423011064,3.6855852865189314,-0.22461729528978466
1782968810838080300,4.295080322265625,2.177591876363754,3.647584349426627,-0.640952217438817
1782968810848006000,4.305005859375,2.4577099634706974,3.594286474481225,-0.9230447464238851
1782968810857932000,4.31493212890625,2.7060861738801,3.5363369743376967,-0.9367546342812478
1782968810867859200,4.324859130859375,2.720445538622141,3.567862577936053,-0.9332268985465169
1782968810877785000,4.33478515625,2.563857385072112,3.6234289823353287,-1.0321608085725456
1782968810887711000,4.3447109375,2.197792368349433,3.558632977297902,-1.0612745287235825
1782968810897637000,4.35463720703125,1.5036515815585851,3.4263808081030844,-1.05722773755081
1782968810907564300,4.364564208984375,0.5632715963870286,3.3642315181821583,-1.0430299931112677
1782968810917490000,4.374489990234375,-0.28398762201666833,3.546366493181884,-1.3234139646127818
1782968810927416000,4.384416015625,-1.1880366491347552,3.592704758247733,-0.7837766340523957
1782968810937343200,4.39434326171875,-1.6093775628775358,3.3865906495064495,-0.018825988762080668
1782968810947268900,4.404268798828125,-1.5408376951366662,3.735002520638704,-0.006341624111682176
1782968810957195000,4.414195068359375,-1.1254618272781372,3.9942485001087187,-0.030652912417054173
1782968810967122200,4.4241220703125,-0.7828571811199188,3.7211800392523404,0.012549611906334758
1782968810977048000,4.434048095703125,-0.4424228647381067,3.436443352434039,-0.07106945928372442
1782968810986974000,4.443973876953125,-0.027883447703719137,3.2774194961696863,-0.24553696839548647
1782968810996901000,4.453901123046875,0.3395850060760975,3.1258094232931732,-0.49604478400610386
1782968811006827000,4.463826904296875,0.6591594897806644,2.9453379975914955,-0.7490254925362765
1782968811016753000,4.4737529296875,0.8850584954440593,2.671375510504842,-0.9497505286503583
1782968811026680000,4.48368017578125,1.0499527050465345,2.3923653846397994,-0.9880145005930214
1782968811036606000,4.49360595703125,1.1107996801972388,2.1194809020482004,-1.0233087360098958
1782968811046532000,4.503531982421875,1.0743559094190598,1.9212511168159543,-1.1290258033700287
1782968811056459000,4.513458984375,0.9511796116054058,1.7283062862493097,-1.303001291181147
1782968811066385200,4.52338525390625,0.7808826661765575,1.4556633573286235,-1.6464384426407515
1782968811076311000,4.53331103515625,0.6361071154952049,1.1065211260952055,-1.9954577781468628
1782968811086238200,4.54323828125,0.47061669356524943,0.7413269008576869,-2.078815275791287
1782968811096164000,4.5531640625,0.3082224840849638,0.4231389030754566,-1.9909017222777008
1782968811106090000,4.563090087890625,0.10958441031277179,0.19897519677206874,-1.88296595595479
1782968811116017200,4.57301708984375,-0.3173275815606117,0.07182064297720789,-1.7118524334460496
1782968811125943000,4.582943115234375,-0.8282961592584848,-0.07128858192712068,-1.4635717923656104
1782968811135869000,4.592868896484375,-1.2334499083101749,-0.2810902931399643,-1.1909436956878752
1782968811145796000,4.602796142578125,-1.5518822362422942,-0.43319903625361617,-0.8141477338533848
1782968811155722200,4.61272216796875,-1.8093232121169567,-0.4963333186239004,-0.3104026046030223
1782968811165648000,4.62264794921875,-1.8966630573958156,-0.5459397917054594,0.18913535528108477
1782968811175575000,4.632574951171875,-1.8512994825810194,-0.6406499465566128,0.6305959508582949
1782968811185501200,4.642501220703125,-1.720753532782197,-0.8132117681775242,0.9706427292272448
1782968811195426800,4.6524267578125,-1.5195418091297148,-1.0843369860116392,1.147943196742609
1782968811205354000,4.66235400390625,-1.2133575528740883,-1.3656089923940598,1.1556934455431997
1782968811215280000,4.672280029296875,-0.8022539555072784,-1.626850675725937,1.108478397642821
1782968811225206000,4.6822060546875,-0.40750294252634045,-1.9057452123872936,0.9829785522524267
1782968811235133200,4.69213330078125,-0.0587502951323986,-2.1704259302571414,0.8080741860933601
1782968811245059000,4.70205908203125,0.18978490523099897,-2.413604864284396,0.6679252722993493
1782968811254985200,4.711985107421875,0.314382175758481,-2.7663381057471037,0.5506654319878668
1782968811264912100,4.721912109375,0.427992772847414,-3.0506799480289217,0.40489093339703974
1782968811274838000,4.731838134765625,0.542278492718935,-3.2979709935501216,0.20176194141376763
1782968811284764200,4.74176416015625,0.7307663438767195,-3.699142394967377,0.050551718042418356
1782968811294691000,4.751691162109375,1.1157926661789417,-4.1590439255118365,-0.17949673545062542
1782968811304617200,4.7616171875,1.232280280008912,-4.93260603954196,-0.5426355259956792
1782968811314543000,4.771543212890625,1.2366525037437677,-5.383254296311736,-0.9782055656969547
1782968811324469000,4.781468994140625,1.2815098826020954,-5.525953625240922,-1.3241710665903985
1782968811334396200,4.791396240234375,1.2995681018620728,-5.297579753896594,-1.2140272688291966
1782968811344322000,4.801322021484375,1.1318734478861092,-4.398447432653605,-0.3657274553313851
1782968811354248000,4.811248046875,0.3468161263734102,-3.709762865442037,0.9387670700822025
1782968811364175000,4.821175048828125,-0.6332552331954241,-3.6741929548889396,2.18602038975209
1782968811374101200,4.831101318359375,-1.6240309421300887,-3.6957249877393243,2.988136690354347
1782968811384027000,4.84102685546875,-2.311764199966192,-3.5937779404371977,3.3248382499486206
1782968811393954000,4.8509541015625,-2.3869541732460258,-3.391674236381054,3.5267493540421126
1782968811403880200,4.860880126953125,-1.9278724346518514,-3.050753013265133,3.6247739672034975
1782968811413806000,4.87080615234375,-1.2782763075083494,-2.851747275224328,3.5601404592514037
1782968811423733000,4.88073291015625,-0.8006231394350528,-2.932470332711935,3.292638692611456
1782968811433659100,4.8906591796875,-0.4914823714613914,-3.141611680319905,2.855676139105856
1782968811443585300,4.900585205078125,-0.21298340998888016,-3.3964535796120763,2.298860879251361
1782968811453512000,4.910511962890625,0.04639233334064483,-3.65917892563045,1.7609407278724014
1782968811463438000,4.92043798828125,0.18449732021689413,-3.8901965894818304,1.318751964151114
1782968811473364200,4.9303642578125,0.158139474645257,-3.9420474804893133,1.1427929013073443
1782968811483291100,4.940291015625,0.06024141047298908,-3.7661730271890757,1.338740713082254
1782968811493217000,4.950217041015625,-0.19114450314641,-3.3926465885445474,1.6615718604952097
1782968811503143200,4.96014306640625,-0.5177250662207603,-3.0139065069049593,1.9308602182909844
1782968811513070000,4.970070068359375,-0.8493687579035758,-2.665292975720763,2.15215143789798
1782968811522996000,4.979995849609375,-1.1018097335338592,-2.293362281835079,2.2496789151921868
1782968811532922000,4.989922119140625,-1.302726858153939,-1.9030159335538743,2.188482834342867
1782968811542849000,4.99984912109375,-1.477746740451455,-1.4952020253822207,1.9947725723616778
1782968811552775200,5.009775146484375,-1.5755641406029461,-1.1730860405012964,1.7441560356795787
1782968811562701000,5.019701171875,-1.5174422065019606,-0.9001467589825392,1.5161040897659956
1782968811572628000,5.0296279296875,-1.2974614849716424,-0.700546196853742,1.4041355607956647
1782968811582554000,5.03955419921875,-0.9888929639279842,-0.4779217558816075,1.4724534563489258
1782968811592480000,5.04947998046875,-0.5557973149836063,-0.12887947789132595,1.5147500448085367
1782968811602407000,5.059406982421875,-0.0854892489761114,0.12229863819628953,1.3987104670070112
1782968811612333000,5.0693330078125,0.35622049905657766,0.27803441270068285,1.1516285341918469
1782968811622259200,5.07925927734375,0.6873790375709533,0.38637116103991864,0.7725724454056471
1782968811632185900,5.089185791015625,0.7771651069581508,0.4955091427594423,0.3626016514610499
1782968811642112000,5.099112060546875,0.4811836802870035,0.6050412383630871,-0.026853629731945692
1782968811652038100,5.1090380859375,-0.019628245055675505,0.7112700546376407,-0.4539986631762236
1782968811661965000,5.118965087890625,-0.4991898770987987,0.8050044232591986,-0.8311158928543328
1782968811671891000,5.128890869140625,-0.7837877399682999,0.974263111681491,-1.0887434773422777
1782968811681817000,5.138817138671875,-0.9805161807268857,1.213957710724324,-1.1936946018312127
1782968811691744000,5.148743896484375,-1.0458826791286469,1.5502347612962126,-1.159649343562126
1782968811701670100,5.158670166015625,-0.9648679452180862,1.9125836801052092,-0.990384225399047
1782968811711596000,5.168595947265625,-0.759620682439208,2.1467842117764055,-0.7611104826055467
1782968811721522200,5.178522216796875,-0.5130290173590183,2.2211681293703616,-0.4065255853941664
1782968811731448800,5.18844873046875,-0.41358430826663967,2.3435987233832476,0.051303230529464776
1782968811741375000,5.198375,-0.5401964257478714,2.61617443228662,0.5054304885214195
1782968811751300900,5.20830078125,-0.6962041490614413,2.9469255590438843,0.7952901078440249
1782968811761227800,5.218227783203125,-0.7179951251089572,3.172048319637775,0.9753343941748142
1782968811771154000,5.22815380859375,-0.5146785381317138,3.319950770168006,1.0464728270415216
1782968811781079800,5.238079833984375,-0.19500936188101767,3.440558971059322,1.0277033177070318
1782968811791006700,5.2480068359375,0.14549392808377742,3.517688387969136,0.846659645075351
1782968811800932900,5.257932861328125,0.4184107055097818,3.521173891997337,0.5390152531392872
1782968811810859000,5.26785888671875,0.616770546862483,3.4808424661308526,0.11098024858534336
1782968811820786000,5.277785888671875,0.7371896549224853,3.4868791159465906,-0.3315384046774357
1782968811830711800,5.2877119140625,0.7900199123561382,3.507930964064598,-0.6845738439571112
1782968811840638000,5.297637939453125,0.7539490665435791,3.5342470163211224,-0.8853312479708343
1782968811850564900,5.30756494140625,0.6777513775259256,3.606694120633602,-0.9907654798015951
1782968811860490800,5.31749072265625,0.5874930144518613,3.753393917375803,-1.0258321170076727
1782968811870417000,5.3274169921875,0.5192079982548952,3.8311075639143586,-1.0688519782405346
1782968811880343800,5.33734375,0.328625220644474,3.850414614191651,-1.0908674837589263
1782968811890270000,5.34727001953125,-0.003426467317342758,3.8711809233665466,-0.9810788561109453
1782968811900195800,5.35719580078125,-0.4893786771804094,3.9280373675763607,-0.8127072527214885
1782968811910122800,5.367122802734375,-1.0710831713587046,4.017640481612086,-0.7735515926361084
1782968811920049000,5.377048828125,-1.605663510790467,4.163669539485872,-0.7155902559243142
1782968811929974800,5.386974853515625,-1.9348451962739228,4.297217885971069,-0.5920174330737441
1782968811939902000,5.39690185546875,-1.8407845183074474,4.4013346785277125,-0.4213033582113683
1782968811949827800,5.406827880859375,-1.2416150945872069,4.427817027261853,-0.3043528761100024
1782968811959754000,5.41675390625,-0.3009270663797855,4.363062523278594,-0.26057993148751557
1782968811969681000,5.426680908203125,0.5927496198058128,4.230948885771632,-0.2711286519002169
1782968811979606800,5.436606689453125,1.2897148163676262,4.055312040619552,-0.42157289586775004
1782968811989533000,5.446532958984375,1.6774083120524883,3.848154268044233,-0.6920136385690421
1782968811999460000,5.456460205078125,1.7690362099140882,3.580805646139383,-0.9335206207960843
1782968812009385700,5.4663857421875,1.5560264964401722,3.306989289525151,-1.1223070165090263
1782968812019311900,5.476311767578125,1.1065624810189008,3.1476813556224106,-1.2718433518514036
1782968812029239000,5.486239013671875,0.5822428388386964,3.117294108404219,-1.3059960890829563
1782968812039164700,5.49616455078125,0.13467267434000968,3.138764474195242,-1.2686458709843456
1782968812049090800,5.5060908203125,-0.22900749307274818,3.1614176200300452,-1.200437573285401
1782968812059018000,5.51601806640625,-0.38584640651345253,2.988321399271488,-1.2145765002097935
1782968812068944000,5.52594384765625,-0.32445465696156023,2.5854671593338248,-1.2855734787791966
1782968812078869800,5.535869873046875,-0.12030804890096188,2.2093295152775942,-1.3501098099671303
1782968812088797000,5.545796875,0.08126023310422897,1.901402507007867,-1.3494406785339117
1782968812098722800,5.555722900390625,0.16345277862250804,1.5809278595931826,-1.346512662257999
1782968812108648700,5.565648681640625,0.06250818636119365,1.1430386927619576,-1.412236741925776
1782968812118575900,5.575575927734375,-0.1551063905596733,0.6593443448282778,-1.4992863720864056
1782968812128502000,5.585501953125,-0.4152613015681505,0.1880263711258769,-1.516361717788875
1782968812138428000,5.595427978515625,-0.6917214506894349,-0.17460794049575923,-1.4709747620984912
1782968812148355000,5.60535498046875,-0.9059837945729493,-0.417885366461426,-1.4471647013135254
1782968812158281000,5.615281005859375,-1.1159902345776558,-0.6505455368228257,-1.379581842036545
1782968812168206800,5.625206787109375,-1.3043226029127835,-0.8437485799342394,-1.2318943494312464
1782968812178132700,5.6351328125,-1.4366729717850684,-1.0875935766547917,-0.9738776194952428
1782968812188060000,5.645059814453125,-1.4518535897821188,-1.3345394620001316,-0.680893182682991
1782968812197985800,5.65498583984375,-1.3254086455613374,-1.54604315482527,-0.315875190795213
1782968812207912000,5.664911865234375,-0.9572206453353166,-1.7629633197411894,0.1559622767366469
1782968812217839000,5.674839111328125,-0.46936757028698917,-1.985695970328152,0.7238539341397583
1782968812227764700,5.6847646484375,0.09324702349603176,-2.257068733182549,1.2572460867002606
1782968812237691000,5.69469091796875,0.5836112045824527,-2.6453590257167816,1.5438539742179214
1782968812247618000,5.7046181640625,0.943351694458723,-3.08591317397356,1.6850702249825
1782968812257543700,5.714543701171875,1.2285177126049995,-3.6235680985450744,1.6620961766302584
1782968812267469800,5.7244697265625,1.3758686667323112,-4.08018549285233,1.5820013340435921
1782968812277397000,5.73439697265625,1.3325135091304778,-4.459412188965082,1.3908683752045035
1782968812287323000,5.744322998046875,1.1884136657536029,-4.845194298070669,1.2153742995239794
1782968812297248800,5.754248779296875,0.9926356575876474,-5.214550173032284,1.0989674958452582
1782968812307176000,5.764176025390625,0.8236246603161096,-5.553343151947856,0.9943344973947852
1782968812317102000,5.77410205078125,0.688681352341175,-5.807652259537577,1.0528226344596594
1782968812327027700,5.78402783203125,0.6623147389411926,-5.993131576529145,1.1470328038994222
1782968812336955000,5.793954833984375,0.8514625153124332,-6.037627136337757,1.2466413983166218
1782968812346881000,5.803881103515625,1.1066448986053465,-5.528488112154602,1.6956830966725944
1782968812356807000,5.813806884765625,0.9237941765516996,-4.90204635836631,2.361319381251931
1782968812366733800,5.82373388671875,0.42634734372794625,-4.980467860913277,2.895287141743302
1782968812376660000,5.833659912109375,-0.0574912349820137,-5.311596004289388,3.3087773419857025
1782968812386585900,5.8435859375,-0.5833388173818588,-5.286615876811743,3.327871918556094
1782968812396513000,5.853512939453125,-1.213667349475622,-4.855131170195341,3.2226752218082546
1782968812406439000,5.86343896484375,-1.7717349474787711,-4.3840243550255895,3.1709266221314665
1782968812416364800,5.87336474609375,-2.157179787454009,-4.1038779186069965,2.9929706863820553
1782968812426292000,5.8832919921875,-2.390422726139426,-3.8708331328421828,2.7791189691260456
1782968812436217900,5.8932177734375,-2.3904309094458815,-3.6776863499626513,2.443370472472906
1782968812446143700,5.903143798828125,-2.136332814258337,-3.4608345741078255,2.0636130304843188
1782968812456071000,5.91307080078125,-1.6649609184116123,-3.388309436123073,1.6605337496191261
1782968812465997000,5.9229970703125,-1.1177005456268787,-3.414393433189392,1.4011466081127524
1782968812475923000,5.9329228515625,-0.6768874541729688,-3.393417280656099,1.231082156265527
1782968812485849900,5.942849853515625,-0.39280280152261254,-3.3426120993092656,1.096191747521609
1782968812495776000,5.95277587890625,-0.26578970202505586,-3.168437435664236,1.2110690035454927
1782968812505702000,5.962701904296875,-0.3891144683986902,-2.7662095109313727,1.5287269861042498
1782968812515627800,5.972627685546875,-0.6612550007551908,-2.2032919886790214,1.7870916526950895
1782968812525555000,5.982554931640625,-0.8824468516409396,-1.708502976887673,1.8675016987107693
1782968812535481000,5.992481201171875,-1.0992097801685332,-1.2552239332228898,1.8109049283504486
1782968812545407700,6.00240771484375,-1.2769482737749813,-0.769313224413991,1.6631448089003562
1782968812555334000,6.012333984375,-1.3578466878294944,-0.3748730309478938,1.365297880618274
1782968812565260000,6.022260009765625,-1.487293736475706,-0.09508300675153732,1.0298336077339947
1782968812575185700,6.032185546875,-1.4104998351305722,0.12030249594300985,0.8451600541673601
1782968812585112800,6.04211279296875,-0.982265070220828,0.35191140368580814,0.8151457319147885
1782968812595039000,6.0520390625,-0.4438613731086254,0.5746276876598596,0.8627944219920783
1782968812604964900,6.06196484375,0.07582827118337154,0.8043577959187328,0.7691967584274709
1782968812614892000,6.07189208984375,0.5480716891676187,1.003528661393374,0.5708507994696498
1782968812624818000,6.08181787109375,0.8570756790190934,1.0919710610866546,0.42805122503638265
1782968812634743800,6.091743896484375,0.9848492414951324,1.105136685999483,0.3602227935004979
1782968812644671000,6.1016708984375,0.8784674266159533,1.1784018286965787,0.3559451892465353
1782968812654596900,6.111596923828125,0.6412871484816074,1.402741768349707,0.362463046707958
1782968812664523000,6.12152294921875,0.379726462328434,1.6399964268945157,0.3620134032443166
1782968812674450000,6.131449951171875,0.18441724071800708,1.829493455094844,0.2619035082414746
1782968812684376000,6.1413759765625,0.04175882832109928,2.059010212863982,0.11291486990973353
1782968812694302000,6.151302001953125,0.06868950534462928,2.269347346127778,-0.0825458159353584
1782968812704228900,6.161228759765625,0.2880494646281004,2.400378010703623,-0.3292679024621844
1782968812714155000,6.171155029296875,0.584535918211937,2.369186461365223,-0.5382944645840674
1782968812724081000,6.181080810546875,0.8146201006054877,2.2560433356575667,-0.7501864991396665
1782968812734008300,6.19100830078125,0.9538836098670959,2.1826661108881233,-0.8728167073778808
1782968812743934200,6.200934326171875,1.130710249325633,2.18844498655051,-0.7834702715169638
1782968812753860400,6.2108603515625,1.3476450272887945,2.358134321475029,-0.38211869122721254
1782968812763787300,6.220787353515625,1.289183485969901,2.7237948490500448,0.20746873822063205
1782968812773713400,6.23071337890625,0.9110024995177983,3.114399556006491,0.7400530815295875
1782968812783639300,6.240639404296875,0.3921896380603313,3.3960926373451947,1.0124265458591282
1782968812793566200,6.250566162109375,-0.25969547680318356,3.614425007146597,1.1247423538971693
1782968812803492400,6.260492431640625,-0.9211386936068534,3.7642765459179874,1.0048770072624087
1782968812813418200,6.270418212890625,-1.3647931459665297,3.83811715041548,0.6365370313450693
1782968812823345200,6.28034521484375,-1.501445595946908,3.8596287249997254,0.15618877896890043
1782968812833271300,6.290271240234375,-1.287665482622385,3.792392633333802,-0.34828692957833407
1782968812843197400,6.300197509765625,-0.8315735734939574,3.697678459894657,-0.7724886395797133
1782968812853124400,6.310124267578125,-0.32680385043621063,3.6211233357414603,-1.1020723299928008
1782968812863050200,6.32005029296875,0.07473579977154732,3.6051457221478223,-1.2867204568572341
1782968812872976400,6.329976318359375,0.16864508656859398,3.6689579768449065,-1.335487118113786
1782968812882903300,6.3399033203125,-0.1406108322173357,3.7738814096093174,-1.3017042371079326
1782968812892829200,6.3498291015625,-0.8217816627979279,3.8214480474263426,-1.2714045220427215
1782968812902755300,6.35975537109375,-1.7186743884205817,3.853020412775874,-1.2285089447766542
1782968812912682200,6.36968212890625,-2.603955002182722,3.9192663243606685,-1.1249757973268628
1782968812922608400,6.3796083984375,-3.1017467029213903,4.09017175707668,-0.911841434559971
1782968812932534300,6.3895341796875,-3.1171248893171546,4.345245711559057,-0.7065015250615775
1782968812942461200,6.399461181640625,-2.673342426663637,4.568665759888291,-0.5676596022129059
1782968812952387300,6.40938720703125,-1.7682845147639512,4.600937797939777,-0.5293171582065522
1782968812962313200,6.419313232421875,-0.56401510823071,4.377008338783681,-0.6491974832147359
1782968812972239400,6.4292392578125,0.6080412969619036,4.072112076511979,-0.8655129602357745
1782968812982166300,6.439166259765625,1.5227373903006314,3.7100288229018448,-1.1004690595146267
1782968812992092400,6.449092529296875,2.0919290243864057,3.3538837271690367,-1.2363890305019913
1782968813002018300,6.459018310546875,2.199421430855989,3.0624329296648503,-1.3474351839303969
1782968813011945200,6.4689453125,1.7872621869564056,2.901018963393569,-1.4652268660962582
1782968813021871400,6.478871337890625,1.0781839432746172,2.879381132081151,-1.5890774099096654
1782968813031797200,6.48879736328125,0.4480231689631939,2.8601129525095224,-1.7446207305818795
1782968813041724200,6.49872412109375,0.012367314141988753,2.7802523570701476,-1.8680372668921947
1782968813051650300,6.508650390625,-0.2036222919255495,2.7033699006587266,-1.8022184946782887
1782968813061576400,6.518576416015625,-0.1994172414511442,2.6526006674081084,-1.518204423046112
1782968813071503000,6.528503173828125,-0.08137070774137974,2.6055846492111683,-1.1977375936117023
1782968813081429200,6.53842919921875,0.3347609469205141,2.4967273841291666,-1.0245576400924474
1782968813091355400,6.54835546875,0.8704699981212616,2.2140959990270432,-0.9644638944618403
1782968813101282300,6.5582822265625,1.3303168758690356,1.7944379238046704,-1.0183136311363428
1782968813111208200,6.568208251953125,1.6148124474078416,1.321547732349485,-1.0074994647204876
1782968813121134300,6.57813427734375,1.7342103957265615,0.8233736081644892,-0.9607808220349252
1782968813131061200,6.588061279296875,1.6937696642667055,0.38434184716939923,-0.848916191830486
1782968813140987100,6.597987060546875,1.5218611919879912,0.09961027491763233,-0.7977730837661773
1782968813150913300,6.607913330078125,1.1904548161923885,-0.07399301858022808,-0.8070699774868786
1782968813160840200,6.617840087890625,0.8046253608137369,-0.3181960349582135,-0.8202085682623088
1782968813170766300,6.627766357421875,0.4541255774915218,-0.7014326973646878,-0.7799886399462819
1782968813180692200,6.637692138671875,0.09589549217820167,-1.0840469900891183,-0.5957358690749853
1782968813190619100,6.647619140625,-0.35730186455249785,-1.3172161328859626,-0.3600147037077695
1782968813200545300,6.657545166015625,-0.7696762125074863,-1.4436501173213123,-0.2551888860989362
1782968813210471200,6.66747119140625,-1.0800421383619307,-1.5519886192262171,-0.1920391869638115
1782968813220398000,6.677398193359375,-1.3094348313599824,-1.7450103144213556,-0.14280257010795175
1782968813230324200,6.68732421875,-1.3646762415885925,-2.0466430448524653,-0.035321707945689555
1782968813240250400,6.69725048828125,-1.2609335430413484,-2.344758122551441,0.06100691495276987
1782968813250177000,6.707177001953125,-0.9966180052220821,-2.5780527914240956,0.3069593322813511
1782968813260103200,6.717103271484375,-0.6759621560215949,-2.798001364250481,0.6750452603723853
1782968813270029300,6.727029296875,-0.2817863125801086,-2.8902962015882134,1.0663188795663416
1782968813279956200,6.736956298828125,0.09591361235678196,-3.051124184665084,1.5398822941079735
1782968813289882000,6.746882080078125,0.5002496152848005,-3.496965917935967,1.6955730604268608
1782968813299808300,6.756808349609375,0.8468313483804464,-3.985916725093126,1.584943378844857
1782968813309735400,6.7667353515625,1.1873872453153134,-4.556776876913011,1.356749247981608
1782968813319661300,6.776661376953125,1.520065540742874,-5.434819648376107,0.8050861832585186
1782968813329587200,6.786587158203125,1.5845166778653859,-6.297828224575519,0.14279299856200814
1782968813339514400,6.796514404296875,1.2515981439411639,-6.956578549033403,-0.6327113355770707
1782968813349440300,6.806440185546875,0.5870195517212152,-7.066519517698883,-0.9654957217276096
1782968813359366100,6.8163662109375,-0.359105114582181,-5.848242044079304,-0.13607578260358422
1782968813369293300,6.826293212890625,-1.4223159451305865,-4.387102155035734,1.5413403839617967
1782968813379219200,6.83621923828125,-2.382332358664274,-3.933935485704243,3.719775433151424
1782968813389145300,6.846145263671875,-2.87705122782886,-3.7004473400861024,5.1523231417000295
1782968813399072300,6.856072265625,-3.2901837006747723,-3.4939816414281726,5.581779557359218
1782968813408998100,6.865998046875,-3.093022713717818,-3.4399390855953094,5.0286862406373025
1782968813418924300,6.87592431640625,-2.003010970005393,-3.4247447313338517,3.958153104376793
1782968813428850200,6.88585009765625,-0.9452847083479166,-3.626908933405578,3.235227537128329
1782968813438777000,6.895777099609375,-0.08250000403225421,-3.913423735812306,2.747622007100284
1782968813448703200,6.905703125,0.6524269666552543,-4.094668483974039,2.2540338955312964
1782968813458629400,6.91562939453125,1.148282146373391,-4.1895080373585225,1.7471799135453998
1782968813468556300,6.925556396484375,1.286824355623126,-4.204296733428538,1.3675300235845147
1782968813478482200,6.935482177734375,1.0308663117825985,-4.066773345832527,1.328301736654341
1782968813488408300,6.945408203125,0.5029986217319965,-3.6590810182139277,1.4930572684384882
1782968813498335500,6.95533544921875,-0.03165069128274917,-3.0858751800507305,1.5851064604520797
1782968813508261000,6.96526123046875,-0.520778608572483,-2.6516923203915357,1.651417107836157
1782968813518187300,6.975187255859375,-0.8356482755869626,-2.2397823750779033,1.632270070426166
1782968813528114400,6.985114501953125,-0.9415741633921861,-1.8361615346819162,1.539805575609952
1782968813538040000,6.9950400390625,-0.8745598977833986,-1.4061867942370474,1.6387537333570419
1782968813547966200,7.00496630859375,-0.7719897501468658,-0.9925731137454509,1.994164377335459
1782968813557893400,7.014893310546875,-0.5653378812670707,-0.46292365484461184,2.265038835278898
1782968813567819300,7.0248193359375,-0.17036124283671378,0.1126311575975269,2.207665089196712
1782968813577745200,7.0347451171875,0.38694413862228394,0.47439679662585255,1.9768426556564866
1782968813587672300,7.04467236328125,0.9362304642766713,0.6511384612146764,1.6974031984634697
1782968813597598200,7.05459814453125,1.4089362390756606,0.6692053752377629,1.426585877534747
1782968813607524000,7.064524169921875,1.5463912376105784,0.6377130893871188,1.1047767666459083
1782968813617451300,7.074451171875,1.3411398831784724,0.7815743747677654,0.7083733102828264
1782968813627377200,7.084377197265625,0.875215731343627,1.0418233207352459,0.3399475557781756
1782968813637303300,7.09430322265625,0.28717794249057765,1.3106399693660438,0.010026157843321561
1782968813647230200,7.104230224609375,-0.24483809941112994,1.5623539458960294,-0.32672508611157536
1782968813657156400,7.11415625,-0.6103945820897817,1.7560232913449405,-0.6285175371490419
1782968813667082200,7.124082275390625,-0.8498428051561117,1.8728078422948717,-0.7726153346993029
1782968813677009400,7.134009521484375,-1.1229162344485522,1.9165647125653922,-0.8085562705218792
1782968813686935300,7.143935302734375,-1.429998900848627,1.9489044090256094,-0.7231099839046597
1782968813696861200,7.153861083984375,-1.7328016979724168,2.0514950149282813,-0.45708179694861173
1782968813706788400,7.163788330078125,-2.0257962177872657,2.2615922019563612,-0.09426657580211759
1782968813716714500,7.173714599609375,-2.28060392254889,2.4904995956555007,0.26706147552654147
1782968813726639400,7.183639404296875,-2.392547463208437,2.6691636796742677,0.562353312498331
1782968813736566300,7.193566162109375,-2.2924305539429186,2.7638141402274368,0.7690376223430037
1782968813746492200,7.2034921875,-1.975112324732542,2.746713367822766,0.9123433927327393
1782968813756418300,7.213418212890625,-1.6296283237457274,2.6243416643902657,0.92457685136199
1782968813766345200,7.22334521484375,-1.3346148653239012,2.4433003298461435,0.7820289136022329
1782968813776271400,7.233271240234375,-1.112667812156677,2.313016245853901,0.5729378348767757
1782968813786197200,7.243197265625,-0.9565998830884694,2.212032344495505,0.35791020570918913
1782968813796124200,7.253124267578125,-0.8921978458046913,2.174112655945867,0.1726850096091628
1782968813806050300,7.26305029296875,-0.8342243802636862,2.19717248288542,0.08843290121257305
1782968813815976400,7.2729765625,-0.6978717900127172,2.3174134578995407,0.11963263385742902
1782968813825903000,7.282903076171875,-0.4650269107341766,2.521927876359224,0.11271832442432642
1782968813835829200,7.292829345703125,-0.1678074667006731,2.693766790533066,0.08331073589324951
1782968813845755400,7.30275537109375,0.02201309436559677,2.7806214826434847,0.007968786922097206
1782968813855681300,7.312681396484375,0.218545135769248,2.8724422727286814,-0.10395838712453842
1782968813865608200,7.322608154296875,0.48203123702704903,2.9631045404285192,-0.19776699002608655
1782968813875534300,7.332534423828125,0.7635083375275135,2.9990333474218844,-0.3118343909718096
1782968813885460500,7.34246044921875,0.9405722928732633,3.023298020106554,-0.5159504577636719
1782968813895387100,7.35238720703125,0.9230711229741573,3.0215935542762278,-0.768009448339045
1782968813905313300,7.362313232421875,0.6727326725810766,2.987076075385511,-1.0127855884298682
1782968813915239400,7.372239501953125,0.18771745130717754,2.952740382802486,-1.1676200301803648
1782968813925166300,7.382166259765625,-0.40066754354834555,2.9484985074490306,-1.2364274628162384
1782968813935092200,7.39209228515625,-0.9613578912705183,3.039565556557476,-1.1985817162856458
1782968813945018400,7.402018310546875,-1.3943594321906565,3.1997929433926937,-1.0395986304230986
1782968813954945300,7.4119453125,-1.5119512078702448,3.3547043959021567,-0.9027969812303781
1782968813964871200,7.42187109375,-1.1923919217348098,3.4740181730687616,-0.8636755156755447
1782968813974797300,7.43179736328125,-0.5989823767155409,3.4401398688644167,-0.899042889393866
1782968813984724200,7.44172412109375,-0.031468904975056645,3.285483852420747,-0.985841321272403
1782968813994650400,7.451650390625,0.49334933437705036,3.0570027213096616,-1.1332213553637265
1782968814004576300,7.461576171875,0.8473188396364449,2.8125264409482478,-1.4164290790490806
1782968814014503200,7.471503173828125,0.8239303652644157,2.609779178291559,-1.6842347970716653
1782968814024429300,7.48142919921875,0.442666610366106,2.463044017975032,-1.838888621558249
1782968814034355200,7.491355224609375,-0.07868541418015956,2.4077242818132043,-1.8173203483507037
1782968814044282000,7.5012822265625,-0.4341045337259769,2.4130789407141506,-1.7013395149990915
1782968814054208300,7.511208251953125,-0.6656769088506698,2.4329250663042066,-1.5570079086929558
1782968814064134400,7.521134521484375,-0.8606108674079179,2.4458248798877,-1.4785083724737167
1782968814074061000,7.53106103515625,-0.8337672841459512,2.433614948264509,-1.32784727088511
1782968814083987200,7.5409873046875,-0.4267828125357628,2.391865472293645,-1.0817909547906368
1782968814093913300,7.550913330078125,0.15272154124975204,2.2006429354749617,-0.8727754985846579
1782968814103840300,7.56084033203125,0.6851350580364465,1.9386692846067248,-0.702526191689819
1782968814113766100,7.57076611328125,1.0298124188154936,1.6793756666027009,-0.5377094312377274
1782968814123692300,7.5806923828125,1.168912846469879,1.4891276739045978,-0.43709597062692046
1782968814133619200,7.590619140625,1.1438982322007416,1.2815130974724889,-0.4416032189182937
1782968814143545000,7.600545166015625,1.0259504826903343,0.9753639125302433,-0.4439460557173937
1782968814153471200,7.61047119140625,0.853960177347064,0.5572539435327053,-0.45499885319471356
1782968814163398100,7.620398193359375,0.6898071415007114,0.10994725227579474,-0.41566959010809656
1782968814173324300,7.63032421875,0.4274924221098423,-0.27733956230431794,-0.3846802122782916
1782968814183250200,7.640250244140625,-0.11514438252747058,-0.5539497874207794,-0.34346272429227825
1782968814193177300,7.65017724609375,-0.7617834134310484,-0.6923053880572319,-0.2240964862860739
1782968814203103200,7.660103271484375,-1.3542004402816294,-0.8201485817033797,-0.0036308307830244303
1782968814213029000,7.670029052734375,-1.515209332883358,-1.0366486215110868,0.32102877416610714
1782968814222956300,7.679956298828125,-1.1436731912732123,-1.311101011006534,0.7079279046028852
1782968814232882200,7.689882080078125,-0.5007774385511875,-1.6632976613745092,0.9892670579373836
1782968814242808300,7.699808349609375,0.09764671975970268,-2.047759920053184,1.1651671571355313
1782968814252735500,7.709735595703125,0.5620698193818331,-2.4990251396775243,1.1925071456123142
1782968814262661000,7.7196611328125,0.7813929537862538,-2.981393061313033,1.1522941584937274
1782968814272587300,7.729587158203125,0.8073772898703813,-3.372986779306829,1.1671855842858552
1782968814282513400,7.739513427734375,0.7048036351025104,-3.590578852134943,1.2033143708307295
1782968814292440000,7.749440185546875,0.49559448295533653,-3.8154356552690265,1.2299576822802423
1782968814302366200,7.7593662109375,0.3059446022808552,-4.120257390999794,1.2505202855765818
1782968814312292400,7.769292236328125,0.137909756565094,-4.462745425041019,1.2279285145401955
1782968814322219300,7.77921923828125,0.1076274310261011,-4.781960135522485,1.1831975385405122
1782968814332145200,7.789145263671875,0.24254618908166883,-5.00481787379384,1.1221071830879896
1782968814342071300,7.7990712890625,0.4487251797527075,-5.133389308649301,1.1332505083929747
1782968814351998200,7.808998291015625,0.6115893448323011,-5.364481791302562,1.2176592686560004
1782968814361924000,7.818924072265625,0.7067506775170564,-5.521984721609949,1.4617688345968722
1782968814371850200,7.828850341796875,0.9234247587174177,-5.408744711399078,1.8499613658450542
1782968814381777400,7.83877734375,1.3127782965689896,-4.788521101473272,2.344366785146296
1782968814391703300,7.848703369140625,1.2752245187222957,-4.587119992728531,2.616081201045215
1782968814401629200,7.858629150390625,0.810546567556262,-4.970803960511088,2.8816572603195905
1782968814411556400,7.868556396484375,0.40996436420381066,-4.985095520713925,3.089661420591175
1782968814421482200,7.878482177734375,-0.058200844556093215,-4.428792302034795,3.170259682655334
1782968814431408000,7.888408203125,-0.5492851566106081,-3.873743759591877,3.1718843612477183
1782968814441335300,7.898335205078125,-0.9797592248797417,-3.63411345795691,3.112902303186059
1782968814451261200,7.90826123046875,-1.3111544947594402,-3.442588431060314,2.814208110424876
1782968814461187300,7.918187255859375,-1.6509633727192878,-3.1924343973234293,2.357618188646436
1782968814471114200,7.9281142578125,-1.7311942627757786,-3.0252029769450424,1.781413607058674
1782968814481040100,7.9380400390625,-1.522667247673869,-2.986504412977397,1.340098265171051
1782968814490966300,7.94796630859375,-1.0220575669050216,-2.9261019667237997,1.0169944382965563
1782968814500893400,7.9578935546875,-0.5087649301737547,-2.830290645697713,0.8677523366604
1782968814510819000,7.967819091796875,-0.2609048525929451,-2.615378021211922,0.9958457787405699
1782968814520745200,7.9777451171875,-0.19316636436283588,-2.1660161509908735,1.22519704374969
1782968814530672400,7.98767236328125,-0.40110885757505893,-1.7551821643456815,1.6091422928169368
1782968814540598300,7.997598388671875,-0.8067319777041673,-1.4860961972542106,1.898134006731212
1782968814550524200,8.007524169921876,-1.4215157346636056,-1.1129289473108948,1.7300249267354606
1782968814560451300,8.017451416015625,-1.832431700503826,-0.7235637190215289,1.320397831661999
1782968814570377500,8.02737744140625,-1.9932441937506198,-0.4757710075885057,1.1306648027487098
1782968814580303000,8.03730322265625,-2.051146347621083,-0.2586522513605654,1.201421908147633
1782968814590230300,8.047230224609375,-2.0532740072995423,-0.045831411522254346,1.3103060612365602
1782968814600156400,8.057156494140624,-1.939391607531905,0.23569398509934544,1.2268230375163256
1782968814610082000,8.06708203125,-1.3760381780803204,0.5759153893828391,0.8323525950424373
1782968814620009200,8.07700927734375,-0.7173761164277792,0.7388368376076221,0.4069591179732233
1782968814629935400,8.086935302734375,-0.28960604642033577,0.8002331172041595,0.10370258573256433
1782968814639861200,8.096861328125,-0.1282271514624357,0.9176030668266117,-0.17105236690603196
1782968814649788400,8.106788330078125,0.006632569882273674,1.0126536326132713,-0.347846419269219
1782968814659714300,8.11671435546875,0.19658289480805397,1.1163979385957121,-0.4334213007021695
1782968814669640200,8.12664013671875,0.3064338471025228,1.3067790561541914,-0.3521639171421528
1782968814679566000,8.136566162109375,0.3095037560671568,1.584184377171099,-0.22922632345519958
1782968814689493200,8.1464931640625,0.16529460709691046,1.8411689875803887,-0.248189820991829
1782968814699419100,8.156419189453125,-0.2181663655847311,2.046548352306336,-0.3104090343438089
1782968814709345300,8.16634521484375,-0.7647071919232606,2.1551910978548228,-0.5041538561817258
1782968814719272400,8.1762724609375,-1.0629290909975766,2.2737952654473483,-0.692384444642812
1782968814729198300,8.1861982421875,-1.0946563546478747,2.427167233429849,-0.71595477838777
1782968814739124500,8.19612451171875,-0.9018804509073496,2.471494743195176,-0.6779533298388123
1782968814749051600,8.2060517578125,-0.5609814396232367,2.4568700055152175,-0.6118650199685245
1782968814758977500,8.2159775390625,-0.2649649416387081,2.4608704733282325,-0.6144369893483818
1782968814768903400,8.2259033203125,-0.13500935894846916,2.4399381599366663,-0.6984589422509074
1782968814778830600,8.23583056640625,-0.09274491919279097,2.4660011142149565,-0.7487021788660436
1782968814788756700,8.2457568359375,-0.00154021517932415,2.518897422622144,-0.7298152536969631
1782968814798682400,8.255682373046875,0.12292846053242683,2.6111098423734305,-0.6110875327900052
1782968814808609500,8.265609619140625,0.27597674951851364,2.750393225379288,-0.46738121877536176
1782968814818535700,8.27553564453125,0.4151958351165056,2.9019387085869908,-0.4005203901626169
1782968814828461600,8.285461669921874,0.41526948487460613,3.1310178055912252,-0.3678443013548851
1782968814838388500,8.295388427734375,0.33145839824378487,3.398286932519078,-0.3858797242611646
1782968814848314600,8.305314697265626,0.25095219837725163,3.6537767743259666,-0.42992724804133176
1782968814858240500,8.315240478515625,0.3116197253078222,3.8210193006202577,-0.4898614922612905
1782968814868167700,8.325167724609376,0.5650286691874266,3.894408654218912,-0.6521018263541162
1782968814878093600,8.335093505859374,0.9016922348588704,3.8666377269789574,-0.8772897611387074
1782968814888019500,8.34501953125,1.2315391062527894,3.773937815971672,-1.1629622675023972
1782968814897946600,8.354946533203124,1.4382739772409199,3.6486651304006577,-1.3825043053545056
1782968814907872500,8.36487255859375,1.4029811300635338,3.448129698574543,-1.5559690671645103
1782968814917799400,8.37479931640625,1.0207967531889677,3.250691940502822,-1.7191418598018586
1782968814927725600,8.3847255859375,0.4884948800832033,3.1743320466607807,-1.7822854214571415
1782968814937652500,8.394652587890626,-0.008678981018066407,3.279206379586458,-1.6799216100476682
1782968814947578600,8.40457861328125,-0.2734539530426264,3.511390749129653,-1.4241332236856221
1782968814957504500,8.41450439453125,-0.271378900334239,3.751219495946169,-1.068351700568199
1782968814967431400,8.424431396484374,-0.08579729201197624,3.9328000519335267,-0.7159446223199367
1782968814977357600,8.434357666015625,0.3114326783031225,4.043377857197821,-0.4562929846584797
1782968814987283500,8.444283447265626,0.7257406246691942,4.018449752168357,-0.36237098451033234
1782968814997210600,8.454210693359375,1.0834271046251058,3.890736687707901,-0.3661830901443958
1782968815007136500,8.464136474609376,1.3732365646630524,3.73836702863574,-0.4199434680350125
1782968815017062700,8.474062744140625,1.551291284611821,3.5099852662459012,-0.5513057026527821
1782968815026989600,8.483989501953126,1.5488567509412765,3.2514562028735874,-0.6954844564847648
1782968815036915500,8.49391552734375,1.2891934228420256,3.0545237639755007,-0.8611512578949332
1782968815046841600,8.503841552734375,0.7250280924856662,2.9887016307607293,-1.0170514291808008
1782968815056768800,8.513768798828124,0.09566635959744453,2.918592906267941,-1.19736664140746
1782968815066694400,8.5236943359375,-0.5605646755158901,2.812104416143894,-1.3757675444453954
1782968815076620500,8.53362060546875,-1.1996867549180983,2.7325036406844854,-1.5348825861245392
1782968815086547700,8.543547607421875,-1.6563666930675505,2.707048296910524,-1.5438861229218541
1782968815096473300,8.553473388671875,-1.8667764531761406,2.492966570290923,-1.4129412369333207
1782968815106399500,8.5633994140625,-1.788805324745178,2.1127159379579123,-1.2962979941502213
1782968815116326700,8.57332666015625,-1.471542040592432,1.662156966906786,-1.1271344366654752
1782968815126252500,8.58325244140625,-0.9822919582277536,1.2178599788598716,-0.92003540854007
1782968815136178400,8.593178466796875,-0.24261048648953437,0.7607659069515764,-0.7403244458168745
1782968815146105600,8.603105712890626,0.5209609794020652,0.33243279623389244,-0.6740753924269228
1782968815156031500,8.613031494140625,1.1123895797371863,-0.09145736360028385,-0.6919355318315327
1782968815165957400,8.622957275390625,1.2989876716256141,-0.44393779934570193,-0.7087134289573878
1782968815175884500,8.632884521484375,1.331948276463151,-0.686692370481044,-0.5662650791145861
1782968815185810700,8.642810791015625,1.2613327714920044,-0.9581249006986617,-0.2845735321458429
1782968815195736600,8.652736572265624,0.8894546845763921,-1.2127084413155913,0.011580913004651664
1782968815205663500,8.66266357421875,0.341331557482481,-1.4782057362653314,0.20241466970145702
1782968815215589600,8.672589599609376,-0.2609346632093191,-1.670439788214117,0.34277861448563635
1782968815225515500,8.682515625,-0.8609995744645595,-1.9404398014105855,0.4651145890176296
1782968815235442700,8.692442626953126,-1.2370879725515842,-2.159234674157202,0.6580624883241951
1782968815245368600,8.70236865234375,-1.246982174578309,-2.4241760887898502,0.9361949545718729
1782968815255294500,8.71229443359375,-1.00128424346745,-2.7192618817955254,1.1410888738684355
1782968815265220600,8.722220703125,-0.6286152984350919,-3.0865973568454383,1.238097149594128
1782968815275147500,8.7321474609375,-0.2353577388823032,-3.4515070660531517,1.2585932635255157
1782968815285073400,8.742073486328126,0.15497604217827318,-3.722979197628796,1.3851719171285628
1782968815294999600,8.75199951171875,0.09337444926798343,-4.04704427075088,1.65383162163198
1782968815304926700,8.7619267578125,-0.21856033333837985,-4.388872964100539,1.7661276289910077
1782968815314852400,8.771852294921874,-0.36238545142710205,-4.675666291187703,1.811825988718122
1782968815324778500,8.781778564453125,-0.4359785109043121,-5.064379485309123,1.828574732814729
1782968815334705700,8.79170556640625,-0.2688128492385149,-5.4478328592061995,1.7239003063753247
1782968815344631600,8.801631591796875,-0.01851122372448444,-5.513822457942366,1.7407520724549888
1782968815354557400,8.811557373046876,0.1670265454560518,-5.687385127168893,1.6226137688085436
1782968815364484600,8.821484619140625,0.3376426398366689,-5.946967791247367,1.4753485932685433
1782968815374410800,8.83141064453125,0.6074181966274976,-6.091990594688058,1.3383755330316722
1782968815384336400,8.84133642578125,0.882183232268691,-5.605820358160138,1.570060867011547
1782968815394263600,8.851263671875,0.6438976232409477,-4.875964114865661,2.2692639056280255
1782968815404189700,8.861189697265624,-0.211648361992836,-4.596587493775785,3.124851684176922
1782968815414115600,8.871115478515625,-1.113438212007284,-4.667902086926996,3.6452860093563793
1782968815424042500,8.88104248046875,-2.159119815605879,-4.491218655331433,3.787042212216556
1782968815433968600,8.89096875,-2.8141379677981138,-4.037215827436745,3.5760382856070994
1782968815443894500,8.90089453125,-3.035273120060563,-3.4633690610215067,3.396274423652887
1782968815453821700,8.91082177734375,-2.921805730834603,-2.9446961925566195,3.1941026227965947
1782968815463747600,8.92074755859375,-2.3504905287235975,-2.6849551230460404,2.8415374313771724
1782968815473673500,8.930673583984374,-1.5721324125885963,-2.6736177364736795,2.345714984884858
1782968815483600600,8.9406005859375,-0.7553788070857524,-2.8133088234975934,1.8249740779742598
1782968815493526500,8.950526611328126,-0.023860183537006377,-2.9747078844606873,1.2716224025771021
1782968815503452400,8.960452392578125,0.3858341315537691,-3.0621073509722945,0.7573672044239937
1782968815513379600,8.970379638671876,0.46997371948659417,-3.0453830106645823,0.5273825368821621
1782968815523305700,8.9803056640625,0.36621640789210796,-2.8594515659913418,0.48251003351993854
1782968815533231600,8.990231689453125,0.10293898094892501,-2.4600430825933812,0.48676031137555836
1782968815543158500,9.000158447265624,-0.36056641930639743,-2.004605545720458,0.5470185999181121
1782968815553084700,9.010084716796875,-0.7529284913241863,-1.586510920422524,0.7579157051522284
1782968815563010600,9.020010498046876,-0.9895289237439632,-1.1841096118841319,0.9811701145909726
1782968815572937500,9.0299375,-1.0885925245642663,-0.7890309013187885,1.1893301230113953
1782968815582863600,9.039863525390626,-1.143352873277664,-0.48790597427934407,1.6737503740668296
1782968815592789800,9.049789794921875,-0.8513976333826779,0.12343816362023353,1.0668182073906063
1782968815602716400,9.05971630859375,-0.6500321804732084,0.6483915736593305,1.097157962205261
1782968815612642600,9.069642578125,-0.6501853252083063,0.6708392600499093,1.4300351412057877
1782968815622568700,9.079568603515625,-0.41678807274401186,0.9729128661163151,1.2953852632194758
1782968815632494300,9.089494384765626,-0.10872282504737377,1.2928085445992648,1.2433568236880004
1782968815642421500,9.09942138671875,0.09705459908545017,1.4002607651889323,0.8861253940232098
1782968815652347600,9.10934765625,0.21705168234109878,1.5076481038488447,0.3987142175234854
1782968815662273500,9.1192734375,0.18157646433413027,1.5500271098949014,-0.15960012178234756
1782968815672200400,9.129200439453125,-0.08696399770379067,1.6385174403831362,-0.6645779346328229
1782968815682126600,9.139126708984374,-0.39450200665593144,1.8720878574572501,-1.212571809323877
1782968815692052500,9.149052490234375,-0.7597089452445507,2.0500454006418583,-1.5702851772867141
1782968815701979600,9.158979736328124,-0.9442758235663175,2.1425290385499594,-1.620303299909085
1782968815711905500,9.168905517578125,-0.8180728714078664,2.1578449733644725,-1.2372649365536867
1782968815721831700,9.178831787109376,-0.44052433764040466,2.3849800966940817,-1.114199259507656
1782968815731759000,9.188759033203125,-0.16101181521117686,2.7456328791096807,-0.8706279651619493
1782968815741685200,9.198685302734376,-0.22208792294263838,3.0581115593343973,-0.5320698179155587
1782968815751611100,9.208611083984374,-0.6693734252810478,3.072100921720266,0.27631489543169735
1782968815761538000,9.2185380859375,-1.3019155417710542,3.172539318025112,0.5694513079352677
1782968815771464200,9.228464111328124,-1.8785697668224572,3.399516182053089,0.5322963201478124
1782968815781390000,9.23839013671875,-2.2312977475881577,3.43791459403038,0.4788838789120316
1782968815791317200,9.248317138671876,-2.1451842292338608,3.3794904621124267,0.4917874918878078
1782968815801243100,9.2582431640625,-1.765168428570032,3.302185396374762,0.4924697750635445
1782968815811169000,9.2681689453125,-1.101744851604104,3.182414815351367,0.4384612676307559
1782968815821096200,9.27809619140625,-0.30200667831003664,2.993084375889599,0.3515178743235767
1782968815831022000,9.28802197265625,0.5539928959101438,2.853341558678448,0.21218612213134763
1782968815840948200,9.2979482421875,1.2851970466822384,2.781281407856941,0.09805778477862477
1782968815850875100,9.307875244140625,1.677941980537772,2.753319634220004,0.07654138788878917
1782968815860801300,9.31780126953125,1.703285680630803,2.8286873021543024,0.18998261976018546
1782968815870727200,9.32772705078125,1.5105945325642822,2.982276858410239,0.3620293314658105
1782968815880654000,9.337654052734376,1.3317992233812808,3.1725083383649584,0.29077669763490555
1782968815890580200,9.347580322265625,1.2119962013930081,3.257796511811018,-0.07610226581916213
1782968815900506000,9.357506103515625,0.758231273907423,3.139273008239269,-0.23756138640642166
1782968815910433000,9.36743310546875,0.3917822263032198,3.2058082581594585,-1.158944410163164
1782968815920359200,9.377359130859375,0.04464578193426132,3.590410509830713,-2.1540885434404013
1782968815930285300,9.387285400390626,-0.6928741278558969,3.3571497432276605,-1.8989507299415767
1782968815940212200,9.397212158203125,-1.470790345442295,3.0588530253514645,-1.399827780599147
1782968815950138000,9.40713818359375,-1.9328443778455255,3.268229058498144,-0.9894253172390163
1782968815960064300,9.417064208984375,-2.1068840169340373,3.173042299111187,-0.16768625147379934
1782968815969990100,9.426990234375,-1.4435346742480992,3.605440028919279,-0.5228817183315754
1782968815979917000,9.4369169921875,-0.5522048434495925,3.9529669339105484,-0.44364042383432384
1782968815989843200,9.44684326171875,0.3686404201686382,3.5542154531165955,-0.14148819957375525
1782968815999769000,9.45676904296875,1.170239126637578,3.465977489954233,-0.38972792412191626
1782968816009696300,9.4666962890625,1.825122838795185,3.105423637868464,-0.3799082486361265
1782968816019622100,9.4766220703125,2.370401682373881,3.0499367284461854,-0.9469604595404117
1782968816029548300,9.48654833984375,2.4697955380618573,2.944154633025825,-1.0063599392965434
1782968816039475200,9.49647509765625,2.217366837391257,2.4854703693166376,-0.7581780824154615
1782968816049401000,9.506401123046874,1.6412047797709703,2.3914362870961425,-0.8935893732283264
1782968816059327200,9.5163271484375,0.8196838137358426,2.403592734966427,-1.0994430044025183
1782968816069254100,9.526254150390624,0.030314474242925642,2.2423064867280424,-1.1796350237533448
1782968816079180300,9.53618017578125,-0.567733836492896,2.058697055261582,-1.1630910084486008
1782968816089106200,9.546106201171876,-1.1127917307972908,2.045677706951648,-1.0851397537618874
1782968816099033000,9.556033203125,-1.5902379781216383,2.035671422852576,-0.9770622408807277
1782968816108959200,9.565959228515625,-1.640187127161026,1.8665300771996378,-0.8591207019153982
1782968816118885000,9.575885009765624,-1.2886597543567417,1.5116627463176846,-0.9415024863954633
1782968816128812000,9.58581201171875,-0.854969062128663,1.0051067243650555,-1.0699890194464474
1782968816138738200,9.59573828125,-0.3174322109788656,0.4288353611513972,-1.0892462392326443
1782968816148664300,9.605664306640625,0.16374153243601322,-0.024346798010170458,-0.9344303560521453
1782968816158591000,9.615591064453126,0.4522358182221651,-0.28656770163774486,-0.6626944589737802
1782968816168517000,9.62551708984375,0.7098030508249997,-0.4843399523608386,-0.3671766312263906
1782968816178443300,9.635443359375,0.8534680099159478,-0.7420796189211308,-0.1006267584837973
1782968816188370200,9.6453701171875,0.7057061369001865,-1.0198775925174355,0.130708008492738
1782968816198296000,9.655296142578125,0.5085024798452854,-1.250217795498669,0.26406061321012675
1782968816208222200,9.66522216796875,0.3397188615888357,-1.4354004676312206,0.44878129385411736
1782968816218149000,9.675149169921875,0.06589023001492023,-1.6751283844217657,0.6953145067453383
1782968816228075000,9.685074951171876,-0.42693128109574313,-1.9851652244523166,0.9480874177437275
1782968816238001200,9.695001220703125,-1.0421119284182787,-2.292686136139184,1.068390863534808
1782968816247928000,9.704927978515625,-1.4192349302500487,-2.6447397247746585,0.9891824483938515
1782968816257854200,9.714854248046874,-1.392736214902997,-3.0940818673819304,0.7842222589280455
1782968816267780000,9.724780029296875,-1.0732201833873987,-3.4634275132104753,0.6863756326820701
1782968816277707000,9.73470703125,-0.6017512569069862,-3.6470688011199233,0.8005613262452185
1782968816287633200,9.744633056640625,-0.21566636546254156,-3.8912747401073573,1.2097469611614942
1782968816297559000,9.75455908203125,-0.02863105120062828,-4.151086244505644,1.863320175242424
1782968816307486000,9.76448583984375,0.009228431594371795,-4.049909597054124,2.283628823328018
1782968816317412000,9.774412109375,0.0002402384966611862,-3.8753877274066206,2.576894269038737
1782968816327338200,9.784338134765624,-0.03423486255705356,-3.810357621352374,2.7990944201841947
1782968816337265200,9.79426513671875,-0.11620587427914142,-3.8932805269718167,2.8893948688343167
1782968816347191000,9.80419091796875,0.349000484675169,-3.5996401104688642,2.1171739402800798
1782968816357117200,9.8141171875,0.4425403536379337,-2.978488864304125,1.6763023966372013
1782968816367043300,9.824043212890626,-0.31575755576491354,-4.234724604918062,3.159715492287278
1782968816376970000,9.833969970703125,-0.817667213216424,-4.91069114485383,3.603504384681582
1782968816386896100,9.843896240234375,-0.8455898238867521,-4.120025043548643,2.7108593796312808
1782968816396822300,9.853822265625,-0.9602566520303487,-3.187694509319961,1.832017859005928
1782968816406749200,9.863749267578125,-1.2872265066832302,-3.2312732465445992,2.0038024126440286
1782968816416675000,9.873675048828124,-1.4609686241298914,-3.148982501348853,2.091981046834588
1782968816426601200,9.883601318359375,-1.2848165229320525,-2.8245003718584774,1.9484031815052032
1782968816436528000,9.893528076171876,-1.0015537080585957,-2.6078914648488163,1.8953993210703133
1782968816446454000,9.9034541015625,-0.6428448993176221,-2.4753137169614434,1.8644079704791305
1782968816456380200,9.913380126953125,-0.18623977997004984,-2.3641385303258895,1.8100868899658322
1782968816466307000,9.92330712890625,0.5195604649543762,-2.036452636358142,1.359529526349902
1782968816476233200,9.933233154296875,1.00055709823668,-1.5616501815408468,0.8248406850423663
1782968816486159000,9.9431591796875,0.8180611809700727,-2.254729184319079,1.586407898439467
1782968816496086000,9.9530859375,0.41168870377838607,-2.9052339507400986,2.237420029860735
1782968816506012200,9.96301220703125,0.11524024411737918,-2.712831556487083,2.047890560695529
1782968816515938000,9.97293798828125,-0.21015432404279707,-2.0476830554246903,1.379663967362046
1782968816525865000,9.982864990234376,-0.8553209443062544,-1.7350354483738542,1.315047410544753
1782968816535791000,9.992791015625,-1.5953379316091536,-1.6066639200046657,1.5242610927365718
1782968816545717200,10.00271728515625,-2.0115327146351336,-1.273394088424742,1.532974268285185
1782968816555644200,10.01264404296875,-2.0694190864145754,-1.1270831448696552,1.6507511912733315
1782968816565570000,10.022570068359375,-1.8353806134372948,-0.8317441077552735,1.6361660549513994
1782968816575496200,10.03249609375,-1.3832336425423621,-0.199090347584337,1.047169869394973
1782968816585423000,10.042423095703125,-0.895849938571453,0.07281096918880939,0.65401555102095
1782968816595349000,10.052348876953126,-0.32407413321137424,0.27795009541809557,0.22579233041852712
1782968816605275100,10.062275146484374,0.20675591377615926,0.46359132497310634,-0.08631196353584528
1782968816615202300,10.072202392578125,0.613739800864458,0.6209229903668165,-0.2969795708630234
1782968816625128000,10.0821279296875,0.9181471105754375,0.8156191946454345,-0.2841939582437277
1782968816635054000,10.09205419921875,1.0480366422921419,1.044399454833567,-0.13249547643139958
1782968816644981200,10.101981201171874,0.7023188325494527,1.1615446557894349,0.2577110980529338
1782968816654907100,10.1119072265625,0.2750555430203676,0.9645305299572646,0.8067078661762177
1782968816664833000,10.1218330078125,0.06614975773394108,1.0266503015227615,0.8992956220459193
1782968816674760200,10.13176025390625,-0.010952186647057533,1.1926146245747804,0.6160235278874635
1782968816684686000,10.14168603515625,-0.07128361349105834,1.1615772428847848,0.24321013288311658
1782968816694612000,10.151612060546874,-0.3106733843684196,1.0718236144624649,-0.0828475753609091
1782968816704538000,10.1615380859375,-0.601792757961154,0.9518858601786195,-0.4255429685425013
1782968816714465000,10.171465087890626,-1.0118763646304607,0.8432710255503654,-0.41779841883033514
1782968816724391200,10.18139111328125,-1.4982628742575645,1.1815246368922292,-0.4504726079419255
1782968816734316500,10.191316650390625,-1.7948048574209212,1.6947659818276761,-0.5951815231278539
1782968816744243700,10.20124365234375,-1.8742665166705845,2.1051649380564688,-0.7606536787487566
1782968816754169600,10.211169677734375,-1.7644629106491803,2.402068155747652,-0.9646917118683457
1782968816764095500,10.221095458984376,-1.5155863495022057,2.2203844316467642,-0.6767480457022785
1782968816774022700,10.231022705078125,-1.1294511891752481,1.895045685327053,-0.1724548541150987
1782968816783948500,10.240948486328126,-0.5601140091389417,2.026487122660875,0.027288258289545772
1782968816793874700,10.250874755859375,-0.059761518001556393,2.226232865414023,0.10494301424771546
1782968816803801600,10.260801513671876,0.27322832759320737,2.3276664102360605,0.29466610628888007
1782968816813727700,10.270727783203125,0.4724287114232778,2.388582651230693,0.44086847490295766
1782968816823653600,10.280653564453125,0.5731698900669813,2.4631296504318714,0.3451424940727651
1782968816833580800,10.290580810546874,0.7669172691881656,2.4591908496782184,0.11627280203551053
1782968816843506700,10.300506591796875,0.9582926584810018,2.454880877524614,-0.03505143963694572
1782968816853432600,10.3104326171875,1.2319991249799727,2.566481303834915,-0.22952128781378267
1782968816863359700,10.32035986328125,1.5884195305228233,2.6612054141461847,-0.42981721179559823
1782968816873285600,10.33028564453125,1.9197674541294574,2.674581028547883,-0.706270200523734
1782968816883211500,10.34021142578125,2.1443062773555517,2.648977508474886,-1.041440751158446
1782968816893138700,10.350138671875,2.095049202233553,2.658720611593127,-1.4751023634225129
1782968816903064800,10.36006494140625,1.6932997086673973,2.6400603347867726,-1.8732517866700886
1782968816912990500,10.369990478515625,0.8232914828389882,2.592836226797104,-2.0749239674411712
1782968816922917600,10.379917724609374,-0.22562369585335254,2.6431714525446295,-1.9752292291104792
1782968816932843800,10.38984375,-1.113313124322891,2.8773271221607923,-1.7649635536476969
1782968816942769400,10.399769287109375,-1.7285820344507694,3.239774825169146,-1.5322281260930002
1782968816952696600,10.409696533203125,-1.9701982492059469,3.60089800157547,-1.3009005195096135
1782968816962622700,10.419622802734375,-1.5998445953786373,3.872855286319554,-1.1800652318641542
1782968816972548600,10.429548583984374,-0.7103074932157993,3.927654213477671,-1.1120670697845518
1782968816982475500,10.4394755859375,0.22589316044449806,3.815567464955151,-1.1138614058554173
1782968816992401700,10.449401611328126,1.025258993294835,3.437927453511953,-1.2272687354572116
1782968817002327800,10.459327880859375,1.6407102742522954,2.9883330897092817,-1.5980504054382443
1782968817012254700,10.469254638671876,1.8609376640200614,2.6508777891382573,-2.0746512879796324
1782968817022180600,10.4791806640625,1.7154419823706148,2.4796003082394598,-2.440229397968203
1782968817032106800,10.489106689453125,1.2268711144417523,2.459801675052941,-2.5874972038567066
1782968817042032600,10.49903271484375,0.6460632768422365,2.5981442700773476,-2.493751290927827
1782968817051959800,10.508959716796875,0.26692016735970975,2.807915440021455,-2.3226817536912856
1782968817061885700,10.5188857421875,0.09714286189079284,3.112715548442304,-2.0404450669951735
1782968817071811600,10.5288115234375,0.029504326903820037,3.4056805499017235,-1.7228880605928598
1782968817081738800,10.53873876953125,0.13275135088860987,3.5483617586523293,-1.4256537112511694
1782968817091664600,10.54866455078125,0.415706122726202,3.433880808469653,-1.3250992873512208
1782968817101590500,10.558590576171875,0.8510878367811441,3.082643943044543,-1.3498014746703206
1782968817111517700,10.568517578125,1.2871698080599308,2.6332544541642067,-1.3403851192884146
1782968817121443800,10.57844384765625,1.6407172885149717,2.301847347716242,-1.3351368433713913
1782968817131369500,10.588369384765626,1.8350772465765475,2.0062853155009446,-1.277481503868848
1782968817141296600,10.598296630859375,1.9169623335808514,1.6877458739325404,-1.1726496218454092
1782968817151222800,10.608222900390626,1.7645897518992424,1.3834049074560404,-1.095292095268145
1782968817161148700,10.618148681640625,1.327335814231634,1.0968680393479764,-0.9145688867624848
1782968817171075600,10.62807568359375,0.7633347345262765,0.8650181624561548,-0.5734871393226086
1782968817181001700,10.638001708984374,0.22000994762480258,0.6680928839512169,-0.17745470822900533
1782968817190927600,10.647927734375,-0.3421370286464691,0.44845235416069623,0.20278277236148715
1782968817200854500,10.6578544921875,-0.9357418039768933,0.18845628697574138,0.456493402601406
1782968817210780700,10.66778076171875,-1.4557617031365633,-0.037845162008702755,0.7035388758637011
1782968817220706800,10.677706787109376,-1.8603461278676985,-0.25843203273862597,1.0036625899713485
1782968817230633700,10.6876337890625,-2.090813756620884,-0.4953720723763108,1.2914815337792038
1782968817240559600,10.6975595703125,-2.096570128190517,-0.7978369427826255,1.4635207928307354
1782968817250485800,10.70748583984375,-1.9298270758509635,-1.151585644898191,1.6055866461619734
1782968817260412700,10.71741259765625,-1.6415531548172235,-1.5172674344569443,1.7392599342010915
1782968817270338600,10.727338623046874,-1.3029840477854013,-1.852726592774689,1.8916997359000145
1782968817280264700,10.7372646484375,-1.013155298525095,-2.202193233656883,2.085005947124958
1782968817290191600,10.747191650390626,-0.7441495570629835,-2.533360832260549,2.2323314745500684
1782968817300117800,10.75711767578125,-0.5091191504389048,-2.9212457588642833,2.2461922421202063
1782968817310043600,10.767043701171875,-0.336627909836173,-3.252026111716032,2.251992452831566
1782968817319970600,10.776970458984374,-0.268210207170248,-3.560598432151973,2.25786529038772
1782968817329896700,10.786896728515625,-0.19000526998341083,-3.923813612401485,2.2469696562334893
1782968817339822600,10.796822509765626,-0.16878537182211875,-4.256680123877525,2.255839337518066
1782968817349748700,10.806748779296875,-0.1398918702930212,-4.738619006446004,2.183146003359556
1782968817359675600,10.816675537109376,-0.18758067318499086,-5.3526534063428635,1.9021270218901336
1782968817369601800,10.826601806640625,-0.2929500961512327,-5.661886528775096,1.5525629119828341
1782968817379527700,10.836527587890625,-0.20928046381771565,-5.502960287666321,1.5313896294422447
1782968817389454600,10.84645458984375,-0.16912497904002666,-5.095362068071961,1.954018975560367
1782968817399380700,10.856380615234375,-0.5225251599788665,-4.59449695123732,2.6649375864118334
1782968817409306600,10.866306640625,-1.3976988057464361,-4.207990327249467,3.417041609610617
1782968817419233500,10.876233642578125,-2.4313866046905517,-3.9107454565137623,3.9292403136253355
1782968817429159700,10.88615966796875,-3.2494647367954252,-3.632171676239371,4.05519367493689
1782968817439085800,10.8960859375,-3.599060264754295,-3.411226201330125,3.8315506315067407
1782968817449012700,10.9060126953125,-3.3404373856186864,-3.32260128467679,3.4651956919267772
1782968817458938600,10.915938720703124,-2.6037013196825978,-3.395696039243042,2.9753786233291026
1782968817468864800,10.92586474609375,-1.6342647513747215,-3.515399984771013,2.442778497929126
1782968817478791700,10.935791748046874,-0.798748577734828,-3.591104045052826,2.0341195172354576
1782968817488717600,10.945717529296875,-0.15557050094008446,-3.6133573779150843,1.68569054883793
1782968817498643700,10.955643798828126,0.1728793631374836,-3.6296696302905676,1.4911086185887454
1782968817508570600,10.965570556640625,0.12173428231179713,-3.516136774612963,1.3771778496347367
1782968817518496800,10.975496826171875,-0.29167525390982624,-3.1304917358905073,1.298665307803452
1782968817528422700,10.985422607421874,-0.8909685962706804,-2.6849656444400547,1.2906675870478153
1782968817538349600,10.995349609375,-1.4042869519650936,-2.232323291243613,1.4460335053265094
1782968817548275700,11.005275634765624,-1.6596066979020834,-1.7612416105151176,1.6653052018046377
1782968817558201600,11.01520166015625,-1.7126929759234188,-1.3022177395880221,1.8223223944216966
1782968817568128500,11.02512841796875,-1.4506681793898344,-0.9132083389990031,1.8887533071845768
1782968817578054700,11.0350546875,-0.942736192908883,-0.6335299584835767,1.8750866008818148
1782968817587980800,11.044980712890625,-0.37981881678700447,-0.48630116943120955,1.7188991370871662
1782968817597907500,11.054907470703125,0.14537585466206074,-0.37206396487653254,1.3654822972744702
1782968817607833600,11.06483349609375,0.4633639459580183,-0.31016609243340787,0.8684590966902672
1782968817617759700,11.074759765625,0.48542497111856936,-0.29109657723903654,0.34341961580291386
1782968817627686700,11.084686767578125,0.36483810527622695,-0.25120427344217894,-0.08005911368615924
1782968817637612500,11.094612548828126,0.1579945132166147,-0.20076982510387897,-0.30581695731319486
1782968817647538700,11.10453857421875,-0.09018120618462562,-0.10691796758249401,-0.46293724497854705
1782968817657465600,11.114465576171876,-0.39651568456590175,0.05905278521031141,-0.5543903707951306
1782968817667391500,11.1243916015625,-0.7452063726395368,0.31654607579410077,-0.5396781009621918
1782968817677317600,11.134317626953125,-1.0762105973750353,0.604879325799644,-0.5178047073282301
1782968817687244500,11.14424462890625,-1.249205111324787,0.8999537206284701,-0.44773229625783856
1782968817697170700,11.154170654296875,-1.3796341567456722,1.172434298594296,-0.3095067517418414
1782968817707096600,11.1640966796875,-1.4214789097845553,1.4011685276836157,-0.12222856863476335
1782968817717022700,11.174022705078125,-1.4574661689668893,1.621270975897461,0.038039661667495964
1782968817726949600,11.18394970703125,-1.4983745179384946,1.8148592189341783,0.17000322317928074
1782968817736876300,11.193876220703125,-1.5092220751672982,1.948008044707775,0.23028576938025652
1782968817746802200,11.20380224609375,-1.4593120890945195,2.0075391149543225,0.24368768726699053
1782968817756729000,11.21372900390625,-1.3124807749271392,1.7798888817094265,0.5215064844556152
1782968817766655200,11.2236552734375,-1.0403162771731616,2.067251094725728,0.44862391133531926
1782968817776581000,11.2335810546875,-0.7592442503422498,2.521931675751507,0.17735753146484493
1782968817786508000,11.243508056640625,-0.478489618897438,2.607060274721682,0.2495695849124342
1782968817796434200,11.25343408203125,-0.12142682379782199,2.3966341480001807,0.590908010527119
1782968817806360300,11.2633603515625,0.1851923167437315,2.3944167642116545,0.7395458626598119
1782968817816287000,11.273286865234375,0.45407881574034686,2.566641755093634,0.66328007684201
1782968817826213000,11.283213134765624,0.7342822430431842,2.6197680728644133,0.5378985240690409
1782968817836139300,11.29313916015625,1.0464227773547172,2.5779350102633236,0.41073425259776414
1782968817846066200,11.303066162109374,1.2558622311264276,2.537360423290729,0.20060572058334947
1782968817855992000,11.312991943359375,1.339044372203946,2.533400287488103,-0.12508731906674803
1782968817865918200,11.322918212890626,1.3719582152903078,2.4242909473411736,-0.43149712770655746
1782968817875845000,11.33284521484375,1.4801035327106713,2.265572796025127,-0.620554741576314
1782968817885771000,11.34277099609375,1.7488298727095126,2.3797062479443847,-1.0310632956594228
1782968817895697200,11.352697265625,1.9277198744386432,2.208893461947888,-1.0454230257276445
1782968817905624000,11.3626240234375,1.9560054732024668,2.590430042438209,-1.5354977954134343
1782968817915550200,11.37255029296875,1.480816649416089,2.901458231593668,-1.695712030506134
1782968817925476000,11.38247607421875,0.6185574302792549,3.1350264567106962,-1.8320783570215105
1782968817935403000,11.392403076171876,-0.2105190657019615,2.930303217805922,-1.5926269190847873
1782968817945329200,11.4023291015625,-0.753010908910632,2.7994086006999015,-1.4165084278956055
1782968817955255000,11.412255126953125,-1.1831272497832774,3.1208646603673693,-1.4982687194764612
1782968817965182000,11.422181884765624,-1.0677262621462345,3.2628061566665765,-1.3726514582514762
1782968817975108000,11.432108154296875,-0.6995090358257293,3.230743669712543,-1.26718281269446
1782968817985034200,11.4420341796875,-0.062383098676800725,3.325100992538035,-1.4778573612190782
1782968817994960100,11.451960205078125,0.7914981682151555,3.438468720781803,-1.7866725505001841
1782968818004887000,11.461886962890626,1.3927794695228337,3.3318677101939915,-1.9896607823058963
1782968818014813200,11.471813232421875,1.6495570130527017,3.048063043528795,-2.125670842729509
