time,seconds_elapsed,z,y,x
1782968806619391500,0.0763916015625,1.323306679725647,-0.3887461721897125,0.5524645447731018
1782968806629317600,0.086317626953125,1.2039167881011963,-0.20819371938705444,0.5594061613082886
1782968806639244300,0.096244384765625,1.076161503791809,-0.008490199223160744,0.5905539989471436
1782968806649170400,0.10617041015625,0.974560558795929,0.1554628610610962,0.6309078931808472
1782968806659096600,0.1160966796875,0.9072315692901611,0.28395238518714905,0.6833028793334961
1782968806669023500,0.1260234375,0.8717029094696045,0.38729193806648254,0.7362121343612671
1782968806678949400,0.135949462890625,0.8641682863235474,0.4429458677768707,0.7623103260993958
1782968806688875500,0.14587548828125,0.8600315451622009,0.41160833835601807,0.751895010471344
1782968806698802400,0.155802490234375,0.8494327068328857,0.2751287817955017,0.7298104763031006
1782968806708728300,0.165728271484375,0.8093783259391785,0.14876626431941986,0.7363046407699585
1782968806718654500,0.175654541015625,0.739632785320282,0.07944551110267639,0.7482680678367615
1782968806728581400,0.185581298828125,0.6763065457344055,0.030107300728559494,0.7703797221183777
1782968806738507500,0.195507568359375,0.6542313694953918,0.00397157110273838,0.824826717376709
1782968806748433400,0.205433349609375,0.6551958918571472,0.010753339156508446,0.8967182636260986
1782968806758360300,0.2153603515625,0.639592170715332,0.012247106060385704,0.9413502216339111
1782968806768286500,0.225286376953125,0.5670678615570068,-0.016942467540502548,0.8831547498703003
1782968806778212600,0.235212646484375,0.45548754930496216,-0.049647148698568344,0.7304589748382568
1782968806788139300,0.24513916015625,0.33281296491622925,-0.08029133826494217,0.5203682780265808
1782968806798065400,0.2550654296875,0.1869194358587265,-0.11857481300830841,0.28207629919052124
1782968806807991600,0.264991455078125,0.01807158999145031,-0.15704897046089172,0.06977688521146774
1782968806817918500,0.27491845703125,-0.1674407422542572,-0.21513251960277557,-0.1196518987417221
1782968806827844400,0.28484423828125,-0.34946832060813904,-0.28453510999679565,-0.26179447770118713
1782968806837770500,0.2947705078125,-0.5132128000259399,-0.32648760080337524,-0.33653050661087036
1782968806847697400,0.304697509765625,-0.6413350701332092,-0.311830997467041,-0.3727961778640747
1782968806857623300,0.314623291015625,-0.7440374493598938,-0.26281896233558655,-0.417302668094635
1782968806867549400,0.324549560546875,-0.8215132355690002,-0.17951349914073944,-0.4687630832195282
1782968806877476400,0.334476318359375,-0.8564832210540771,-0.06356851756572723,-0.5225517749786377
1782968806887402500,0.344402587890625,-0.86204594373703,0.08309745788574219,-0.5403856635093689
1782968806897328400,0.354328369140625,-0.8734943270683289,0.29331329464912415,-0.5035296678543091
1782968806907255300,0.36425537109375,-0.8755820989608765,0.5308295488357544,-0.4157228469848633
1782968806917181400,0.374181396484375,-0.8559697866439819,0.7350500822067261,-0.30606773495674133
1782968806927107300,0.384107421875,-0.7845713496208191,0.8035238981246948,-0.23648875951766968
1782968806937034500,0.394034423828125,-0.5998241305351257,0.6220417618751526,-0.28060296177864075
1782968806946960400,0.40396044921875,-0.5242660641670227,0.6040980219841003,-0.34055501222610474
1782968806956886500,0.413886474609375,-0.5195706486701965,0.5744906067848206,-0.4079976975917816
1782968806966813400,0.4238134765625,-0.6020873785018921,0.5577412247657776,-0.42431533336639404
1782968806976739300,0.4337392578125,-0.6390421986579895,0.3349238634109497,-0.45688074827194214
1782968806986665500,0.44366552734375,-0.6762433648109436,0.06450194120407104,-0.48454272747039795
1782968806996592600,0.453592529296875,-0.742863118648529,-0.1483916938304901,-0.5235188603401184
1782968807006518300,0.463518310546875,-0.8350963592529297,-0.3028879761695862,-0.56436687707901
1782968807016444400,0.4734443359375,-0.9125698804855347,-0.37613528966903687,-0.5958971381187439
1782968807026371600,0.48337158203125,-0.950057864189148,-0.3882034718990326,-0.6028677225112915
1782968807036297200,0.493297119140625,-0.9644845128059387,-0.3335391581058502,-0.616281270980835
1782968807046223400,0.503223388671875,-0.956902265548706,-0.21779510378837585,-0.6662072539329529
1782968807056150500,0.513150634765625,-0.9439845681190491,-0.03804025426506996,-0.7657753825187683
1782968807066076400,0.523076416015625,-0.9493860006332397,0.13045954704284668,-0.8960015773773193
1782968807076002300,0.533002197265625,-0.986559271812439,0.3040422201156616,-1.0149027109146118
1782968807085929500,0.542929443359375,-1.0075173377990723,0.44425535202026367,-1.1321179866790771
1782968807095855400,0.55285546875,-0.9997286796569824,0.5018579363822937,-1.2379817962646484
1782968807105781200,0.56278125,-0.9913884401321411,0.525383472442627,-1.3261187076568604
1782968807115708400,0.57270849609375,-1.0214412212371826,0.5675770044326782,-1.3993146419525146
1782968807125634300,0.58263427734375,-1.0356776714324951,0.47784698009490967,-1.4411693811416626
1782968807135560400,0.592560546875,-1.0382039546966553,0.3453586995601654,-1.376942753791809
1782968807145487600,0.602487548828125,-1.0337929725646973,0.12944430112838745,-1.2600324153900146
1782968807155413500,0.61241357421875,-1.0172573328018188,-0.1317976862192154,-1.1425060033798218
1782968807165339400,0.62233935546875,-0.9402827620506287,-0.3387315273284912,-1.0244083404541016
1782968807175266600,0.6322666015625,-0.793366014957428,-0.45428556203842163,-0.9312672019004822
1782968807185192400,0.6421923828125,-0.634787917137146,-0.4887482523918152,-0.8601884245872498
1782968807195118300,0.652118408203125,-0.4933770000934601,-0.43250495195388794,-0.8110701441764832
1782968807205045500,0.66204541015625,-0.38084203004837036,-0.34216123819351196,-0.7832229137420654
1782968807214971600,0.6719716796875,-0.2920253276824951,-0.20836348831653595,-0.7619509100914001
1782968807224897300,0.681897216796875,-0.21768717467784882,-0.10611347109079361,-0.7440133094787598
1782968807234824400,0.691824462890625,-0.16792920231819153,-0.05485934391617775,-0.7012631893157959
1782968807244750600,0.70175048828125,-0.11193301528692245,-0.0019869536627084017,-0.6103944182395935
1782968807254676200,0.71167626953125,-0.07157228142023087,0.1742653101682663,-0.4907660484313965
1782968807264603400,0.721603271484375,0.040111418813467026,0.22153207659721375,-0.31408369541168213
1782968807274529500,0.731529541015625,0.1431477963924408,0.2908613681793213,-0.14200010895729065
1782968807284455400,0.741455322265625,0.15800216794013977,0.3956882953643799,-0.0756310522556305
1782968807294382300,0.75138232421875,0.15761147439479828,0.5207217931747437,-0.0955943763256073
1782968807304308500,0.76130859375,0.15406188368797302,0.6217007040977478,-0.17880679666996002
1782968807314234400,0.771234375,0.1386946439743042,0.6708387136459351,-0.28171506524086
1782968807324161500,0.78116162109375,0.11754965782165527,0.6308796405792236,-0.3731522262096405
1782968807334087400,0.79108740234375,0.05534300580620766,0.42446571588516235,-0.4352984130382538
1782968807344013600,0.801013671875,0.030455373227596283,0.2243778556585312,-0.4000591039657593
1782968807353940500,0.8109404296875,0.09981473535299301,0.15188981592655182,-0.3384641706943512
1782968807363866400,0.820866455078125,0.16285283863544464,0.005523272790014744,-0.2205660343170166
1782968807373792500,0.83079248046875,0.214176744222641,-0.026695117354393005,-0.06679060310125351
1782968807383719400,0.840719482421875,0.3210318684577942,0.038590796291828156,0.11085038632154465
1782968807393645600,0.8506455078125,0.4547334611415863,0.14657904207706451,0.2998946011066437
1782968807403571500,0.860571533203125,0.5905830264091492,0.24065552651882172,0.4673668146133423
1782968807413498400,0.870498291015625,0.7034016847610474,0.3155941963195801,0.5781546235084534
1782968807423424500,0.880424560546875,0.7819696068763733,0.3577389121055603,0.640936553478241
1782968807433350400,0.890350341796875,0.7860003113746643,0.41963744163513184,0.6118614673614502
1782968807443277300,0.90027734375,0.7809014916419983,0.4324853718280792,0.627971351146698
1782968807453203500,0.910203369140625,0.7319254279136658,0.4128802418708801,0.6454198360443115
1782968807463129600,0.920129638671875,0.6054667830467224,0.3179168403148651,0.601876437664032
1782968807473056300,0.93005615234375,0.5418733954429626,0.22514857351779938,0.5644063353538513
1782968807482982400,0.939982421875,0.6164189577102661,0.13641859591007233,0.562252402305603
1782968807492908500,0.949908447265625,0.7679402828216553,0.032724153250455856,0.6004650592803955
1782968807502835500,0.95983544921875,0.9500357508659363,-0.012807909399271011,0.6887006163597107
1782968807512761300,0.96976123046875,1.1396408081054688,-0.0019203745760023594,0.8333070278167725
1782968807522687500,0.9796875,1.3251510858535767,0.009388932958245277,1.0015977621078491
1782968807532613600,0.989613525390625,1.4536634683609009,-0.012915574014186859,1.15853750705719
1782968807542540300,0.999540283203125,1.5251531600952148,-0.044857725501060486,1.2801927328109741
1782968807552466400,1.009466552734375,1.5511807203292847,-0.12000733613967896,1.3489928245544434
1782968807562393300,1.019393310546875,1.5256222486495972,-0.23776108026504517,1.354444146156311
1782968807572319500,1.029319580078125,1.4414780139923096,-0.430392861366272,1.284528374671936
1782968807582245400,1.039245361328125,1.2906564474105835,-0.6726444363594055,1.1550731658935547
1782968807592171500,1.049171630859375,1.1059556007385254,-0.8936095833778381,1.0015201568603516
1782968807602098400,1.059098388671875,0.9642984867095947,-1.0294660329818726,0.876871645450592
1782968807612024600,1.069024658203125,0.8699466586112976,-1.055906891822815,0.7894360423088074
1782968807621950500,1.078950439453125,0.8085713386535645,-0.9773231148719788,0.7376218438148499
1782968807631877400,1.08887744140625,0.7811573147773743,-0.8236427307128906,0.722297191619873
1782968807641803500,1.098803466796875,0.7702718377113342,-0.6144331097602844,0.7275834679603577
1782968807651729400,1.1087294921875,0.7425699234008789,-0.4184766411781311,0.72441565990448
1782968807661656300,1.11865625,0.7032015323638916,-0.25318604707717896,0.7148090600967407
1782968807671582500,1.12858251953125,0.646834135055542,-0.12323550134897232,0.6936550140380859
1782968807681508600,1.138508544921875,0.5732455253601074,-0.04918147996068001,0.6424500942230225
1782968807691435300,1.148435302734375,0.4777267277240753,-0.03265496715903282,0.5736390948295593
1782968807701361400,1.158361328125,0.3703807294368744,-0.04278407245874405,0.5012840628623962
1782968807711287600,1.16828759765625,0.25635749101638794,-0.08037832379341125,0.4240971505641937
1782968807721215500,1.178215576171875,0.15200521051883698,-0.12867893278598785,0.3168274164199829
1782968807731141400,1.188141357421875,0.08344211429357529,-0.18781627714633942,0.20659701526165009
1782968807741067500,1.198067626953125,0.08535043895244598,-0.21198157966136932,0.13260817527770996
1782968807750994400,1.207994384765625,0.15009748935699463,-0.2183723747730255,0.11339931935071945
1782968807760920300,1.21792041015625,0.23385441303253174,-0.1817551702260971,0.0705542117357254
1782968807770846500,1.227846435546875,0.29120638966560364,-0.33597511053085327,0.049912843853235245
1782968807780773400,1.2377734375,0.4223533272743225,-0.40261727571487427,0.009710860438644886
1782968807790699500,1.247699462890625,0.5279455184936523,-0.0332123264670372,0.21984171867370605
1782968807800625400,1.25762548828125,0.5043693780899048,-0.009047942236065865,0.45901772379875183
1782968807810552300,1.26755224609375,0.4386502802371979,-0.16885411739349365,0.6193647980690002
1782968807820478500,1.277478515625,0.3457253575325012,-0.2620593011379242,0.7065024971961975
1782968807830404400,1.287404296875,0.218684583902359,-0.27169114351272583,0.6678429841995239
1782968807840331300,1.297331298828125,0.03582613915205002,-0.2814325988292694,0.52516108751297
1782968807850257400,1.30725732421875,-0.11146052181720734,-0.19865009188652039,0.31949925422668457
1782968807860183600,1.31718359375,-0.2700543999671936,-0.07013119757175446,0.033892422914505005
1782968807870110200,1.327110107421875,-0.4565766155719757,0.06552596390247345,-0.3084329664707184
1782968807880036400,1.337036376953125,-0.6060473918914795,0.19560354948043823,-0.6063510179519653
1782968807889962500,1.34696240234375,-0.7160884141921997,0.32558444142341614,-0.7866366505622864
1782968807899889400,1.356889404296875,-0.7784651517868042,0.42167022824287415,-0.8237583637237549
1782968807909815300,1.366815185546875,-0.7901511192321777,0.5031083822250366,-0.7431623339653015
1782968807919741400,1.376741455078125,-0.7338811159133911,0.5634390711784363,-0.6273909211158752
1782968807929668400,1.38666845703125,-0.6293427348136902,0.4821482300758362,-0.5135021805763245
1782968807939594200,1.39659423828125,-0.5061966180801392,0.46674200892448425,-0.33705511689186096
1782968807949520400,1.406520263671875,-0.4127771854400635,0.31564995646476746,-0.18017494678497314
1782968807959447300,1.416447265625,-0.35509878396987915,0.05529391020536423,-0.14463016390800476
1782968807969373400,1.42637353515625,-0.3520859479904175,-0.17642827332019806,-0.1844228357076645
1782968807979299300,1.43629931640625,-0.4029379189014435,-0.3591943383216858,-0.2540980577468872
1782968807989226200,1.446226318359375,-0.48264873027801514,-0.4302600026130676,-0.30565258860588074
1782968807999152400,1.45615234375,-0.569963276386261,-0.3788895308971405,-0.3273375630378723
1782968808009078500,1.46607861328125,-0.6555077433586121,-0.21258604526519775,-0.34055641293525696
1782968808019005200,1.476005126953125,-0.7215473651885986,0.027472814545035362,-0.36054396629333496
1782968808028931300,1.485931396484375,-0.7764803767204285,0.3014657497406006,-0.38287031650543213
1782968808038857500,1.495857421875,-0.818105161190033,0.5286295413970947,-0.3909619152545929
1782968808048784400,1.505784423828125,-0.8291306495666504,0.6590905785560608,-0.35702311992645264
1782968808058710300,1.515710205078125,-0.8157651424407959,0.6635227203369141,-0.3354630768299103
1782968808068636400,1.525636474609375,-0.791400134563446,0.5409353375434875,-0.34795647859573364
1782968808078563300,1.535563232421875,-0.7713416814804077,0.33829715847969055,-0.39366698265075684
1782968808088489200,1.5454892578125,-0.770861804485321,0.08520017564296722,-0.47107359766960144
1782968808098415400,1.555415283203125,-0.7914236187934875,-0.20343297719955444,-0.5884811282157898
1782968808108342500,1.565342529296875,-0.8180938959121704,-0.4841434955596924,-0.7300667762756348
1782968808118268400,1.575268310546875,-0.8276824355125427,-0.7172859907150269,-0.8678426742553711
1782968808128194300,1.5851943359375,-0.8085066080093384,-0.8451635837554932,-0.9949241876602173
1782968808138121500,1.59512158203125,-0.7878548502922058,-0.8533007502555847,-1.1046581268310547
1782968808148047400,1.60504736328125,-0.7995839715003967,-0.7218042016029358,-1.1888015270233154
1782968808157973200,1.61497314453125,-0.8354684114456177,-0.4833845794200897,-1.215872049331665
1782968808167900400,1.624900390625,-0.8734578490257263,-0.1814500391483307,-1.2035423517227173
1782968808177826300,1.634826416015625,-0.916908860206604,0.11782805621623993,-1.1896944046020508
1782968808187752400,1.64475244140625,-0.9378300905227661,0.32005706429481506,-1.0746502876281738
1782968808197679400,1.654679443359375,-0.9773659110069275,0.45959708094596863,-0.9259176850318909
1782968808207605200,1.664605224609375,-1.0045300722122192,0.5226300954818726,-0.797919750213623
1782968808217531400,1.674531494140625,-1.0052218437194824,0.5240212082862854,-0.69975745677948
1782968808227457300,1.684457275390625,-0.9747672080993652,0.48718225955963135,-0.6442318558692932
1782968808237384200,1.69438427734375,-0.9337193369865417,0.44341230392456055,-0.6358224153518677
1782968808247310300,1.704310302734375,-0.9168695211410522,0.45567962527275085,-0.7027567028999329
1782968808257236500,1.714236572265625,-0.8668672442436218,0.46624520421028137,-0.7069761157035828
1782968808267163400,1.724163330078125,-0.8831666111946106,0.4597572386264801,-0.6862494945526123
1782968808277089300,1.73408935546875,-1.0361700057983398,0.4963974356651306,-0.687308669090271
1782968808287015400,1.744015380859375,-1.2684195041656494,0.48885220289230347,-0.6531645059585571
1782968808296942600,1.753942626953125,-1.4482593536376953,0.48912549018859863,-0.6376015543937683
1782968808306868200,1.7638681640625,-1.415172815322876,0.6304410696029663,-0.6937215328216553
1782968808316794400,1.77379443359375,-1.1949048042297363,0.9171502590179443,-0.7975266575813293
1782968808326721500,1.783721435546875,-0.813560962677002,1.2385777235031128,-0.8717220425605774
1782968808336647200,1.793647216796875,-0.4388240575790405,1.4083977937698364,-0.8506463170051575
1782968808346573300,1.8035732421875,-0.1567079722881317,1.1682426929473877,-0.6509653925895691
1782968808356500500,1.81350048828125,0.05714045837521553,0.6593148112297058,-0.34616991877555847
1782968808366426400,1.82342626953125,0.24092306196689606,0.07745673507452011,0.07939761877059937
1782968808376352300,1.833352294921875,0.39428937435150146,-0.423597514629364,0.43776002526283264
1782968808386279400,1.843279541015625,0.5347642302513123,-0.672502875328064,0.6307885646820068
1782968808396205300,1.853205322265625,0.695184588432312,-0.743882954120636,0.7051360607147217
1782968808406131500,1.86313134765625,0.8256251811981201,-0.6844752430915833,0.7210492491722107
1782968808416058400,1.873058349609375,0.9053387641906738,-0.5235033631324768,0.7268678545951843
1782968808425984300,1.882984375,0.9414165616035461,-0.2972869873046875,0.7350243330001831
1782968808435910400,1.892910400390625,0.9137161374092102,-0.05677563697099686,0.7463719248771667
1782968808445837600,1.902837646484375,0.8677515983581543,0.13301293551921844,0.7627900242805481
1782968808455763500,1.912763427734375,0.8444937467575073,0.2358451932668686,0.7573795914649963
1782968808465689300,1.922689453125,0.8443936109542847,0.23429204523563385,0.7384352087974548
1782968808475616500,1.932616455078125,0.8903152346611023,0.1540030986070633,0.7314803004264832
1782968808485542400,1.94254248046875,0.9815953373908997,0.025545524433255196,0.7505003213882446
1782968808495468300,1.95246826171875,1.0978033542633057,-0.1262388676404953,0.7939266562461853
1782968808505395500,1.9623955078125,1.2121496200561523,-0.2649261951446533,0.8638737797737122
1782968808515321600,1.972321533203125,1.300811767578125,-0.3421502113342285,0.9363145232200623
1782968808525247200,1.982247314453125,1.3648147583007812,-0.375023752450943,0.9928992390632629
1782968808535174400,1.99217431640625,1.4213067293167114,-0.3985159695148468,1.0434942245483398
1782968808545100500,2.0021005859375,1.482134222984314,-0.44671866297721863,1.0898159742355347
1782968808555026200,2.012026123046875,1.561627745628357,-0.48563307523727417,1.159603238105774
1782968808564953300,2.021953369140625,1.6590168476104736,-0.5204006433486938,1.2372071743011475
1782968808574879500,2.03187939453125,1.74628746509552,-0.5478146076202393,1.2702562808990479
1782968808584805400,2.041805419921875,1.7752200365066528,-0.5318529009819031,1.215398907661438
1782968808594732300,2.051732177734375,1.7338781356811523,-0.4879535734653473,1.0697920322418213
1782968808604658400,2.061658447265625,1.6268787384033203,-0.42961356043815613,0.8777909278869629
1782968808614584300,2.071584228515625,1.4801337718963623,-0.366299033164978,0.6860998868942261
1782968808624511500,2.081511474609375,1.3133131265640259,-0.2634461522102356,0.5221823453903198
1782968808634437400,2.091437255859375,1.164057731628418,-0.14310498535633087,0.39292240142822266
1782968808644363500,2.101363525390625,1.0389820337295532,-0.01970873586833477,0.31388774514198303
1782968808654290400,2.11129052734375,0.9365346431732178,0.10289730876684189,0.2916669249534607
1782968808664216300,2.12121630859375,0.8698181509971619,0.20728416740894318,0.2954254448413849
1782968808674142500,2.131142578125,0.8262286186218262,0.27726224064826965,0.2952406406402588
1782968808684069400,2.1410693359375,0.7952648401260376,0.3020125925540924,0.2876783311367035
1782968808693995500,2.15099560546875,0.7648245096206665,0.26437339186668396,0.276829332113266
1782968808703921400,2.16092138671875,0.7367095351219177,0.19167816638946533,0.27837157249450684
1782968808713847300,2.170847412109375,0.7235084772109985,0.08450281620025635,0.2901202142238617
1782968808723773700,2.180773681640625,0.72958904504776,-0.052104029804468155,0.2938537001609802
1782968808733699600,2.190699462890625,0.7564989328384399,-0.1813974231481552,0.30240821838378906
1782968808743625700,2.200625732421875,0.7980098724365234,-0.2667591869831085,0.3192676305770874
1782968808753552600,2.210552734375,0.8410283923149109,-0.3127324879169464,0.3305751383304596
1782968808763478800,2.220478759765625,0.8651502132415771,-0.3258397579193115,0.34826013445854187
1782968808773404700,2.23040478515625,0.8614530563354492,-0.29710838198661804,0.3695203363895416
1782968808783331600,2.24033154296875,0.8153066039085388,-0.25413933396339417,0.41451552510261536
1782968808793257700,2.2502578125,0.7234494686126709,-0.20695547759532928,0.46005523204803467
1782968808803183600,2.26018359375,0.5922999382019043,-0.17349418997764587,0.4593883752822876
1782968808813110500,2.270110595703125,0.4367702603340149,-0.1554887443780899,0.3787012994289398
1782968808823036700,2.28003662109375,0.25558313727378845,-0.16831453144550323,0.22630590200424194
1782968808832962800,2.289962890625,0.07846629619598389,-0.21414482593536377,0.03299946337938309
1782968808842889500,2.299889404296875,-0.08579055219888687,-0.26494330167770386,-0.1674814373254776
1782968808852815600,2.309815673828125,-0.23542042076587677,-0.27675092220306396,-0.34290745854377747
1782968808862741800,2.31974169921875,-0.3690091073513031,-0.21420125663280487,-0.4571725130081177
1782968808872668700,2.329668701171875,-0.46551528573036194,-0.07715261727571487,-0.49297863245010376
1782968808882594600,2.339594482421875,-0.5216866731643677,0.10763826966285706,-0.4448228180408478
1782968808892520700,2.349520751953125,-0.5374303460121155,0.3009497821331024,-0.33493274450302124
1782968808902447600,2.359447509765625,-0.5092751383781433,0.425910085439682,-0.1898767501115799
1782968808912373500,2.36937353515625,-0.47412219643592834,0.4483913481235504,-0.057014670222997665
1782968808922299600,2.379299560546875,-0.4502509534358978,0.36016854643821716,0.033253706991672516
1782968808932226600,2.3892265625,-0.4310961663722992,0.17963747680187225,0.08112065494060516
1782968808942152700,2.399152587890625,-0.4318391978740692,-0.03702772781252861,0.0854504182934761
1782968808952078600,2.40907861328125,-0.46596676111221313,-0.24512960016727448,0.04419403523206711
1782968808962005500,2.419005615234375,-0.5384380221366882,-0.42774495482444763,-0.05754297971725464
1782968808971931600,2.428931640625,-0.62346351146698,-0.5814388394355774,-0.20538626611232758
1782968808981857500,2.438857421875,-0.706244707107544,-0.6595994234085083,-0.3520963490009308
1782968808991784400,2.448784423828125,-0.7884845733642578,-0.6353517174720764,-0.49075886607170105
1782968809001710600,2.458710693359375,-0.874320387840271,-0.5107660889625549,-0.6174654364585876
1782968809011636700,2.46863671875,-0.9565377831459045,-0.31462362408638,-0.7287020683288574
1782968809021563600,2.478563720703125,-1.03480863571167,-0.06593124568462372,-0.8060681819915771
1782968809031489500,2.488489501953125,-1.1156476736068726,0.1857241988182068,-0.8570846915245056
1782968809041415700,2.498415771484375,-1.1931195259094238,0.38052988052368164,-0.8664014935493469
1782968809051342800,2.5083427734375,-1.2520583868026733,0.5277189612388611,-0.8398805856704712
1782968809061268500,2.5182685546875,-1.277198314666748,0.586747407913208,-0.8050416111946106
1782968809071194600,2.528194580078125,-1.2748398780822754,0.5533456802368164,-0.7795642018318176
1782968809081121800,2.538121826171875,-1.2512757778167725,0.4621340036392212,-0.7833431959152222
1782968809091047400,2.54804736328125,-1.2258055210113525,0.3277261257171631,-0.8028697967529297
1782968809100973600,2.5579736328125,-1.1998951435089111,0.17388463020324707,-0.8394685387611389
1782968809110900700,2.567900634765625,-1.1725685596466064,0.021750787273049355,-0.8963308334350586
1782968809120826600,2.57782666015625,-1.1355754137039185,-0.0967731922864914,-0.9708545804023743
1782968809130752500,2.58775244140625,-1.088472843170166,-0.17148712277412415,-1.037473201751709
1782968809140679700,2.5976796875,-1.0499200820922852,-0.20836737751960754,-1.0705523490905762
1782968809150605600,2.60760546875,-1.0070393085479736,-0.22444091737270355,-1.0550554990768433
1782968809160531500,2.617531494140625,-0.9633089303970337,-0.2135041207075119,-1.0093101263046265
1782968809170457600,2.62745751953125,-0.9157187342643738,-0.21204423904418945,-0.9572045803070068
1782968809180384500,2.637384521484375,-0.8718394041061401,-0.21613459289073944,-0.9010834693908691
1782968809190310700,2.647310546875,-0.8257725834846497,-0.23038288950920105,-0.8425776958465576
1782968809200236500,2.657236572265625,-0.7891961932182312,-0.23055146634578705,-0.7940098643302917
1782968809210163700,2.667163818359375,-0.7584528923034668,-0.20625320076942444,-0.757810115814209
1782968809220089600,2.677089599609375,-0.7447330951690674,-0.15972751379013062,-0.744347870349884
1782968809230015700,2.687015625,-0.7344027757644653,-0.1101110652089119,-0.7377650141716003
1782968809239942700,2.696942626953125,-0.7322533130645752,-0.06683150678873062,-0.7199726700782776
1782968809249868500,2.70686865234375,-0.7020456790924072,-0.04112659767270088,-0.6664844155311584
1782968809259794700,2.716794677734375,-0.6430627703666687,-0.020854614675045013,-0.5784003734588623
1782968809269721900,2.726721923828125,-0.5546658039093018,-0.005998585838824511,-0.4758714735507965
1782968809279647500,2.7366474609375,-0.48774534463882446,0.0032854601740837097,-0.3741627037525177
1782968809289573600,2.74657373046875,-0.43975794315338135,0.019762737676501274,-0.2735365033149719
1782968809299500800,2.756500732421875,-0.4195975363254547,0.07295086234807968,-0.18813398480415344
1782968809309426400,2.766426513671875,-0.4115363359451294,0.14763133227825165,-0.1608656644821167
1782968809319352600,2.7763525390625,-0.3732941448688507,0.24916541576385498,-0.21574649214744568
1782968809329279700,2.78627978515625,-0.2940557301044464,0.3215007185935974,-0.2902698516845703
1782968809339205600,2.79620556640625,-0.23215454816818237,0.32594287395477295,-0.284537672996521
1782968809349131500,2.806131591796875,-0.18154491484165192,0.2530924379825592,-0.1833323836326599
1782968809359058700,2.81605859375,-0.1328471601009369,0.14137575030326843,-0.03255859389901161
1782968809368984600,2.825984619140625,-0.06472111493349075,0.03891162946820259,0.12821681797504425
1782968809378910500,2.835910400390625,0.03652641177177429,-0.02035914920270443,0.27130258083343506
1782968809388837600,2.845837646484375,0.16322503983974457,-0.029800668358802795,0.38278496265411377
1782968809398763800,2.855763671875,0.280923992395401,0.025980304926633835,0.45786213874816895
1782968809408689700,2.865689697265625,0.38646313548088074,0.10057897865772247,0.505212128162384
1782968809418616600,2.875616455078125,0.46848875284194946,0.15713174641132355,0.5325813889503479
1782968809428542700,2.885542724609375,0.5266652703285217,0.1711551398038864,0.5441334247589111
1782968809438468600,2.895468505859375,0.5651440024375916,0.15330611169338226,0.5440762042999268
1782968809448395800,2.905395751953125,0.5830402374267578,0.12285255640745163,0.5358119010925293
1782968809458321700,2.91532177734375,0.5867665410041809,0.09759913384914398,0.5317386388778687
1782968809468247600,2.92524755859375,0.5918262600898743,0.09243561327457428,0.5467775464057922
1782968809478174700,2.9351748046875,0.6133502125740051,0.1026429757475853,0.5687296986579895
1782968809488100600,2.9451005859375,0.6559430360794067,0.12982918322086334,0.5923910140991211
1782968809498026500,2.955026611328125,0.714420735836029,0.16952332854270935,0.62198406457901
1782968809507953700,2.96495361328125,0.7833678722381592,0.19165357947349548,0.6434781551361084
1782968809517879800,2.9748798828125,0.8483452796936035,0.20000551640987396,0.6674385666847229
1782968809527805400,2.984805419921875,0.904906690120697,0.19006210565567017,0.7191235423088074
1782968809537732600,2.994732666015625,0.9591004252433777,0.15551984310150146,0.7883303165435791
1782968809547658800,3.00465869140625,1.0124821662902832,0.08862002193927765,0.8610730767250061
1782968809557584600,3.014584716796875,1.0726323127746582,0.01227252185344696,0.9173930883407593
1782968809567510500,3.024510498046875,1.1275628805160522,-0.07140263170003891,0.9464382529258728
1782968809577437700,3.034437744140625,1.1740174293518066,-0.1625157743692398,0.9423263669013977
1782968809587363800,3.04436376953125,1.206780195236206,-0.2567254900932312,0.9068769216537476
1782968809597289500,3.05428955078125,1.2056925296783447,-0.328687846660614,0.841312825679779
1782968809607216600,3.064216552734375,1.1767791509628296,-0.3660823702812195,0.7522370219230652
1782968809617142800,3.074142822265625,1.1207177639007568,-0.4000277817249298,0.6442447900772095
1782968809627068400,3.084068359375,1.0486043691635132,-0.4225609004497528,0.5344275236129761
1782968809636995600,3.09399560546875,0.9832945466041565,-0.42889443039894104,0.44080355763435364
1782968809646921700,3.103921630859375,0.9333679676055908,-0.4100351333618164,0.36967968940734863
1782968809656847600,3.11384765625,0.8911976218223572,-0.3819907009601593,0.3094581663608551
1782968809666774800,3.12377490234375,0.8544557690620422,-0.3415738344192505,0.2573969066143036
1782968809676700700,3.13370068359375,0.8148342967033386,-0.29949188232421875,0.22503337264060974
1782968809686626600,3.14362646484375,0.7722489833831787,-0.24960273504257202,0.21858225762844086
1782968809696553700,3.1535537109375,0.7277536392211914,-0.20506295561790466,0.2280665785074234
1782968809706479600,3.163479736328125,0.6865691542625427,-0.16553571820259094,0.24296054244041443
1782968809716405500,3.173405517578125,0.6474025845527649,-0.11578759551048279,0.25109171867370605
1782968809726333000,3.1833330078125,0.6179116368293762,-0.06447750329971313,0.24827584624290466
1782968809736259000,3.193259033203125,0.5899103879928589,-0.035350240767002106,0.23101776838302612
1782968809746184700,3.203184814453125,0.5702177882194519,-0.03793488070368767,0.21592184901237488
1782968809756112000,3.21311181640625,0.5662126541137695,-0.06111849471926689,0.22800354659557343
1782968809766038000,3.2230380859375,0.5648282170295715,-0.1140533834695816,0.24310661852359772
1782968809775964000,3.2329638671875,0.5607876777648926,-0.20701128244400024,0.265109121799469
1782968809785890800,3.242890869140625,0.5481917262077332,-0.3171645998954773,0.298570454120636
1782968809795817000,3.25281689453125,0.516983687877655,-0.40105336904525757,0.3356115520000458
1782968809805743000,3.2627431640625,0.4534212350845337,-0.44280463457107544,0.3323485851287842
1782968809815669800,3.272669677734375,0.3557005226612091,-0.43033331632614136,0.27459660172462463
1782968809825596000,3.282595947265625,0.21923160552978516,-0.37807050347328186,0.17356601357460022
1782968809835522000,3.29252197265625,0.049611955881118774,-0.27069664001464844,0.06723025441169739
1782968809845449000,3.302448974609375,-0.1280907541513443,-0.11706244945526123,-0.019115490838885307
1782968809855374800,3.312374755859375,-0.2798592448234558,0.0904981940984726,-0.06603506207466125
1782968809865301000,3.322301025390625,-0.3848365247249603,0.3068336248397827,-0.07129222899675369
1782968809875228000,3.332227783203125,-0.4379223585128784,0.48804575204849243,-0.050983231514692307
1782968809885153800,3.34215380859375,-0.44388386607170105,0.5765908360481262,-0.014902102760970592
1782968809895080000,3.352079833984375,-0.4155278503894806,0.550294816493988,0.021927015855908394
1782968809905006800,3.3620068359375,-0.3629407584667206,0.4115017056465149,0.03970704972743988
1782968809914933000,3.37193310546875,-0.3170824646949768,0.2289380133152008,0.04044421389698982
1782968809924859000,3.38185888671875,-0.28464043140411377,0.05626513063907623,0.01351403258740902
1782968809934785800,3.391785888671875,-0.2780352532863617,-0.09966667741537094,-0.049768269062042236
1782968809944712000,3.4017119140625,-0.3066294491291046,-0.222792848944664,-0.1359127163887024
1782968809954638000,3.41163818359375,-0.3676408529281616,-0.2970638573169708,-0.2214105725288391
1782968809964564700,3.421564697265625,-0.45046791434288025,-0.2891494631767273,-0.31251102685928345
1782968809974491000,3.431490966796875,-0.562238872051239,-0.20776914060115814,-0.4046801030635834
1782968809984417000,3.4414169921875,-0.6900773644447327,-0.07304279506206512,-0.48836129903793335
1782968809994344000,3.451343994140625,-0.8092868328094482,0.08593939989805222,-0.5415704250335693
1782968810004269800,3.461269775390625,-0.9052037596702576,0.26739147305488586,-0.5469937324523926
1782968810014196000,3.471196044921875,-0.9731399416923523,0.44637587666511536,-0.524928629398346
1782968810024122000,3.4811220703125,-1.0105762481689453,0.5801573991775513,-0.49073949456214905
1782968810034048800,3.491048828125,-1.0185412168502808,0.6719765067100525,-0.4545127749443054
1782968810043975000,3.500974853515625,-0.9995917677879333,0.6980687379837036,-0.43319499492645264
1782968810053901000,3.510901123046875,-0.9605234861373901,0.6464282274246216,-0.44886505603790283
1782968810063828000,3.520827880859375,-0.9092235565185547,0.5266097187995911,-0.48841163516044617
1782968810073753900,3.53075390625,-0.8549041152000427,0.3723548948764801,-0.5322294235229492
1782968810083680000,3.540679931640625,-0.8220661282539368,0.22725121676921844,-0.5759639739990234
1782968810093607000,3.55060693359375,-0.8103825449943542,0.10699910670518875,-0.6239674687385559
1782968810103532800,3.56053271484375,-0.8277087211608887,0.007552828174084425,-0.693760097026825
1782968810113459000,3.570458984375,-0.8568077683448792,-0.09147042781114578,-0.758323073387146
1782968810123385900,3.5803857421875,-0.8832337856292725,-0.1544419378042221,-0.796044647693634
1782968810133312000,3.59031201171875,-0.8878679275512695,-0.18326053023338318,-0.7999019622802734
1782968810143238000,3.60023779296875,-0.8695400357246399,-0.17119812965393066,-0.786588191986084
1782968810153164800,3.610164794921875,-0.8268522620201111,-0.12257732450962067,-0.7733112573623657
1782968810163091000,3.620091064453125,-0.7746644020080566,-0.060180798172950745,-0.7570734024047852
1782968810173016800,3.630016845703125,-0.7170533537864685,0.009337561205029488,-0.7302470803260803
1782968810182943700,3.63994384765625,-0.66658616065979,0.07572422921657562,-0.6996634602546692
1782968810192870000,3.649869873046875,-0.6462185978889465,0.1044275164604187,-0.6620633602142334
1782968810202796000,3.659796142578125,-0.6433115005493164,0.10110922902822495,-0.6144442558288574
1782968810212722700,3.66972265625,-0.6255348920822144,0.06853983551263809,-0.546021580696106
1782968810222648800,3.67964892578125,-0.5845029354095459,0.03070060908794403,-0.4827515482902527
1782968810232575000,3.689574951171875,-0.5387093424797058,-0.007433461025357246,-0.44172796607017517
1782968810242502000,3.699501953125,-0.4827425479888916,-0.059944987297058105,-0.42600351572036743
1782968810252427800,3.709427734375,-0.46024391055107117,-0.10514654964208603,-0.4267992675304413
1782968810262354000,3.71935400390625,-0.47166234254837036,-0.13579383492469788,-0.4425511062145233
1782968810272280800,3.72928076171875,-0.4999848008155823,-0.1247803270816803,-0.45544692873954773
1782968810282206700,3.739206787109375,-0.52837735414505,-0.06333093345165253,-0.44944828748703003
1782968810292132900,3.7491328125,-0.5719477534294128,0.035182856023311615,-0.42399483919143677
1782968810302059800,3.759059814453125,-0.6318592429161072,0.1629115790128708,-0.3919921815395355
1782968810311986000,3.76898583984375,-0.7100884914398193,0.29403814673423767,-0.37625372409820557
1782968810321911800,3.778911865234375,-0.7627648115158081,0.4135623872280121,-0.4162144362926483
1782968810331838700,3.788838623046875,-0.699116051197052,0.5856971740722656,-0.5591952800750732
1782968810341764900,3.798764892578125,-0.5672497749328613,0.6697642803192139,-0.6470038890838623
1782968810351690800,3.808690673828125,-0.41262397170066833,0.6018115878105164,-0.5944557189941406
1782968810361618000,3.818617919921875,-0.2516873776912689,0.40640658140182495,-0.4152129590511322
1782968810371543800,3.828543701171875,-0.09359148144721985,0.1584623008966446,-0.17023701965808868
1782968810381470000,3.838469970703125,0.08107366412878036,-0.059202879667282104,0.054198138415813446
1782968810391395800,3.848395751953125,0.26888802647590637,-0.2133415937423706,0.2179332822561264
1782968810401322800,3.85832275390625,0.4549263119697571,-0.2943553328514099,0.3122737407684326
1782968810411249000,3.868248779296875,0.6128754615783691,-0.3110349774360657,0.3694869875907898
1782968810421175000,3.878175048828125,0.7253262400627136,-0.2912065088748932,0.4058242738246918
1782968810431101700,3.888101806640625,0.7959000468254089,-0.26292186975479126,0.4427966773509979
1782968810441027800,3.89802783203125,0.8208501935005188,-0.23068119585514069,0.47373005747795105
1782968810450954000,3.9079541015625,0.8129065036773682,-0.18325403332710266,0.490843266248703
1782968810460881000,3.917880859375,0.7802678942680359,-0.0928567573428154,0.4866275191307068
1782968810470806800,3.927806884765625,0.7334657311439514,0.02713276632130146,0.4625488221645355
1782968810480733000,3.93773291015625,0.6906914710998535,0.15312136709690094,0.4498809576034546
1782968810490659800,3.947659912109375,0.6818284392356873,0.2353256791830063,0.45599398016929626
1782968810500585700,3.957585693359375,0.7010175585746765,0.27624934911727905,0.49268266558647156
1782968810510511900,3.967511962890625,0.7432590126991272,0.3062155246734619,0.5449674725532532
1782968810520438800,3.977438720703125,0.7896041870117188,0.30504798889160156,0.6075395345687866
1782968810530365000,3.987364990234375,0.8555467128753662,0.27836817502975464,0.6883971095085144
1782968810540289800,3.997289794921875,0.9368038773536682,0.22402659058570862,0.7792011499404907
1782968810550216000,4.0072158203125,1.0332982540130615,0.15389783680438995,0.876309335231781
1782968810560141800,4.017141845703125,1.121751070022583,0.0730942115187645,0.9668055176734924
1782968810570068700,4.02706884765625,1.1899632215499878,-0.036856792867183685,1.0311638116836548
1782968810579995000,4.036994873046875,1.2220739126205444,-0.1919705867767334,1.0625245571136475
1782968810589921000,4.046921142578125,1.2018146514892578,-0.3924301862716675,1.0613011121749878
1782968810599847700,4.05684765625,1.1145293712615967,-0.6171812415122986,1.0350674390792847
1782968810609773800,4.06677392578125,0.954656720161438,-0.8233679533004761,0.9883028268814087
1782968810619700000,4.076699951171875,0.7430824637413025,-0.9780533313751221,0.8908429741859436
1782968810629627000,4.086626953125,0.5377047657966614,-1.0450365543365479,0.7337958216667175
1782968810639552800,4.096552734375,0.3616184890270233,-0.973730206489563,0.552395761013031
1782968810649479000,4.10647900390625,0.21965070068836212,-0.7871808409690857,0.38339290022850037
1782968810659405800,4.11640576171875,0.11589770019054413,-0.5281632542610168,0.2753506600856781
1782968810669331700,4.126331787109375,0.06265418231487274,-0.2461174577474594,0.23455263674259186
1782968810679257900,4.1362578125,0.061848971992731094,0.0379721000790596,0.2434951812028885
1782968810689185000,4.14618505859375,0.07224088907241821,0.2983488142490387,0.26767775416374207
1782968810699111000,4.15611083984375,0.07011666893959045,0.5160528421401978,0.2792958617210388
1782968810709036800,4.166036865234375,0.04878900945186615,0.658141553401947,0.27304646372795105
1782968810718964000,4.1759638671875,0.008364077657461166,0.7383338809013367,0.26602405309677124
1782968810728889900,4.185889892578125,-0.0365152470767498,0.761012852191925,0.2608215808868408
1782968810738816000,4.19581591796875,-0.06511843949556351,0.7360684275627136,0.26831573247909546
1782968810748743200,4.2057431640625,-0.0632273256778717,0.6670224666595459,0.3002965748310089
1782968810758669000,4.2156689453125,-0.0052032689563930035,0.5538823008537292,0.35884714126586914
1782968810768595000,4.225594970703125,0.10455199331045151,0.40408429503440857,0.441866934299469
1782968810778522000,4.235522216796875,0.23536831140518188,0.24084071815013885,0.5388774871826172
1782968810788448000,4.245447998046875,0.3477236032485962,0.08478560298681259,0.6439189314842224
1782968810798374000,4.255373779296875,0.42810359597206116,-0.061560388654470444,0.738145112991333
1782968810808301000,4.265301025390625,0.47310274839401245,-0.1729535013437271,0.8001165986061096
1782968810818227000,4.27522705078125,0.46808338165283203,-0.2290610820055008,0.8230506181716919
1782968810828153000,4.285153076171875,0.4130108058452606,-0.2525682747364044,0.7868470549583435
1782968810838080300,4.295080322265625,0.3290088474750519,-0.24128730595111847,0.6926689743995667
1782968810848006000,4.305005859375,0.23664428293704987,-0.22093969583511353,0.5248629450798035
1782968810857932000,4.31493212890625,0.14649611711502075,-0.20451462268829346,0.307880163192749
1782968810867859200,4.324859130859375,0.04975945129990578,-0.20191644132137299,0.06926201283931732
1782968810877785000,4.33478515625,-0.04941416159272194,-0.22817257046699524,-0.19547240436077118
1782968810887711000,4.3447109375,-0.16324006021022797,-0.25549954175949097,-0.44560474157333374
1782968810897637000,4.35463720703125,-0.27750468254089355,-0.2328549176454544,-0.6453839540481567
1782968810907564300,4.364564208984375,-0.39466753602027893,-0.16138312220573425,-0.7645798325538635
1782968810917490000,4.374489990234375,-0.5273235440254211,-0.1334846466779709,-0.804584264755249
1782968810927416000,4.384416015625,-0.5029836297035217,0.15089167654514313,-0.7161800861358643
1782968810937343200,4.39434326171875,-0.4239392578601837,0.3100687861442566,-0.6001519560813904
1782968810947268900,4.404268798828125,-0.3357050120830536,0.4120665192604065,-0.49287235736846924
1782968810957195000,4.414195068359375,-0.23662275075912476,0.4434657692909241,-0.34579023718833923
1782968810967122200,4.4241220703125,-0.14014467597007751,0.2881675362586975,-0.15648557245731354
1782968810977048000,4.434048095703125,-0.06931953132152557,0.08156082034111023,0.008509449660778046
1782968810986974000,4.443973876953125,-0.026437845081090927,-0.11687131226062775,0.13414807617664337
1782968810996901000,4.453901123046875,-0.009851816110312939,-0.33408161997795105,0.19510293006896973
1782968811006827000,4.463826904296875,-0.016359250992536545,-0.49337807297706604,0.20217202603816986
1782968811016753000,4.4737529296875,-0.0497884526848793,-0.5909664034843445,0.15381747484207153
1782968811026680000,4.48368017578125,-0.09786517173051834,-0.6213703751564026,0.057530082762241364
1782968811036606000,4.49360595703125,-0.1522609442472458,-0.5931270122528076,-0.07201089709997177
1782968811046532000,4.503531982421875,-0.210727721452713,-0.4944779574871063,-0.2127067744731903
1782968811056459000,4.513458984375,-0.29406723380088806,-0.3398173749446869,-0.36346474289894104
1782968811066385200,4.52338525390625,-0.4170069992542267,-0.15399661660194397,-0.533623993396759
1782968811076311000,4.53331103515625,-0.5754446983337402,0.03762143477797508,-0.7086151838302612
1782968811086238200,4.54323828125,-0.7379814386367798,0.21811585128307343,-0.8932082056999207
1782968811096164000,4.5531640625,-0.8945826888084412,0.3687652051448822,-1.0697636604309082
1782968811106090000,4.563090087890625,-1.024959683418274,0.47437340021133423,-1.2168917655944824
1782968811116017200,4.57301708984375,-1.1276562213897705,0.5541757941246033,-1.3129408359527588
1782968811125943000,4.582943115234375,-1.1994038820266724,0.6225306391716003,-1.3545995950698853
1782968811135869000,4.592868896484375,-1.2526609897613525,0.6607300043106079,-1.3626034259796143
1782968811145796000,4.602796142578125,-1.261068344116211,0.6851927638053894,-1.3314327001571655
1782968811155722200,4.61272216796875,-1.211068034172058,0.681583821773529,-1.2579364776611328
1782968811165648000,4.62264794921875,-1.112912654876709,0.6397849917411804,-1.1465270519256592
1782968811175575000,4.632574951171875,-0.9781754016876221,0.5558264255523682,-1.0046366453170776
1782968811185501200,4.642501220703125,-0.8319284319877625,0.431838721036911,-0.8457779288291931
1782968811195426800,4.6524267578125,-0.6967717409133911,0.2819445729255676,-0.6758680939674377
1782968811205354000,4.66235400390625,-0.5770198106765747,0.13156147301197052,-0.5248473882675171
1782968811215280000,4.672280029296875,-0.4770958125591278,-0.011967004276812077,-0.41223371028900146
1782968811225206000,4.6822060546875,-0.39962711930274963,-0.10995721817016602,-0.34344348311424255
1782968811235133200,4.69213330078125,-0.3501189351081848,-0.15106697380542755,-0.32134610414505005
1782968811245059000,4.70205908203125,-0.3276176452636719,-0.14846746623516083,-0.3154083490371704
1782968811254985200,4.711985107421875,-0.3189339339733124,-0.11697331070899963,-0.32019659876823425
1782968811264912100,4.721912109375,-0.3323189914226532,-0.08189176023006439,-0.3245641887187958
1782968811274838000,4.731838134765625,-0.3728407025337219,-0.04639604315161705,-0.320788711309433
1782968811284764200,4.74176416015625,-0.4376268684864044,-0.008907790295779705,-0.3875032961368561
1782968811294691000,4.751691162109375,-0.5392504334449768,0.029744265601038933,-0.43329447507858276
1782968811304617200,4.7616171875,-0.6738449931144714,0.008700231090188026,-0.4351342022418976
1782968811314543000,4.771543212890625,-0.8405682444572449,0.07632914930582047,-0.4907752275466919
1782968811324469000,4.781468994140625,-0.9943181276321411,0.296991765499115,-0.6419064402580261
1782968811334396200,4.791396240234375,-1.0483452081680298,0.6143079400062561,-0.8892447352409363
1782968811344322000,4.801322021484375,-1.0029772520065308,0.8657523989677429,-1.0412936210632324
1782968811354248000,4.811248046875,-0.8829143047332764,0.960113525390625,-1.012544870376587
1782968811364175000,4.821175048828125,-0.7115731835365295,0.8040765523910522,-0.7794687151908875
1782968811374101200,4.831101318359375,-0.5397178530693054,0.38829052448272705,-0.3728012144565582
1782968811384027000,4.84102685546875,-0.3805859684944153,-0.10186056047677994,0.08578793704509735
1782968811393954000,4.8509541015625,-0.18697631359100342,-0.49474653601646423,0.4722731411457062
1782968811403880200,4.860880126953125,0.025755656883120537,-0.695647120475769,0.7024962306022644
1782968811413806000,4.87080615234375,0.22659020125865936,-0.721479594707489,0.8011054992675781
1782968811423733000,4.88073291015625,0.3864850699901581,-0.603639543056488,0.8176764845848083
1782968811433659100,4.8906591796875,0.48982465267181396,-0.4173985719680786,0.7926931977272034
1782968811443585300,4.900585205078125,0.5277949571609497,-0.2038293033838272,0.7217886447906494
1782968811453512000,4.910511962890625,0.5003885626792908,0.01229363214224577,0.6245765089988708
1782968811463438000,4.92043798828125,0.4282490909099579,0.1901661604642868,0.5174199938774109
1782968811473364200,4.9303642578125,0.3716241419315338,0.3058719038963318,0.4286330044269562
1782968811483291100,4.940291015625,0.36163437366485596,0.3423132598400116,0.3707931339740753
1782968811493217000,4.950217041015625,0.39513877034187317,0.31986886262893677,0.36172258853912354
1782968811503143200,4.96014306640625,0.46391919255256653,0.27974432706832886,0.3944232761859894
1782968811513070000,4.970070068359375,0.5551177263259888,0.23123925924301147,0.4595242738723755
1782968811522996000,4.979995849609375,0.6514549255371094,0.19081033766269684,0.5402953028678894
1782968811532922000,4.989922119140625,0.7513066530227661,0.16245529055595398,0.6345219016075134
1782968811542849000,4.99984912109375,0.8444187641143799,0.16470485925674438,0.745445191860199
1782968811552775200,5.009775146484375,0.9268143773078918,0.19449254870414734,0.8510813117027283
1782968811562701000,5.019701171875,0.9792040586471558,0.2371787577867508,0.9373589158058167
1782968811572628000,5.0296279296875,1.0276670455932617,0.26332902908325195,1.007490634918213
1782968811582554000,5.03955419921875,1.1017637252807617,0.2557840347290039,1.055670142173767
1782968811592480000,5.04947998046875,1.1815489530563354,0.19717007875442505,1.0731861591339111
1782968811602407000,5.059406982421875,1.2487019300460815,0.08875598758459091,1.0559557676315308
1782968811612333000,5.0693330078125,1.2799453735351562,-0.06530284881591797,0.9978223443031311
1782968811622259200,5.07925927734375,1.2748163938522339,-0.24806015193462372,0.9043928384780884
1782968811632185900,5.089185791015625,1.237804651260376,-0.42003902792930603,0.8007290959358215
1782968811642112000,5.099112060546875,1.1607847213745117,-0.5420222282409668,0.718809187412262
1782968811652038100,5.1090380859375,1.046289324760437,-0.5810166001319885,0.6513891816139221
1782968811661965000,5.118965087890625,0.9002879858016968,-0.5222424864768982,0.5716370940208435
1782968811671891000,5.128890869140625,0.7532110214233398,-0.3992421329021454,0.4808049499988556
1782968811681817000,5.138817138671875,0.6116674542427063,-0.22032430768013,0.3856392800807953
1782968811691744000,5.148743896484375,0.5032431483268738,-0.0021303114481270313,0.2945977747440338
1782968811701670100,5.158670166015625,0.422002911567688,0.208062082529068,0.20900191366672516
1782968811711596000,5.168595947265625,0.352713942527771,0.3559889793395996,0.13105717301368713
1782968811721522200,5.178522216796875,0.3049485385417938,0.40153756737709045,0.07256750017404556
1782968811731448800,5.18844873046875,0.2931469976902008,0.35867172479629517,0.06215392053127289
1782968811741375000,5.198375,0.3280152380466461,0.2489231377840042,0.1284985989332199
1782968811751300900,5.20830078125,0.39991408586502075,0.10243851691484451,0.2578510642051697
1782968811761227800,5.218227783203125,0.4770296514034271,-0.06854628026485443,0.41346728801727295
1782968811771154000,5.22815380859375,0.5583547949790955,-0.2535943388938904,0.5577690601348877
1782968811781079800,5.238079833984375,0.6229876279830933,-0.44138050079345703,0.6725468039512634
1782968811791006700,5.2480068359375,0.6648441553115845,-0.580693781375885,0.7344522476196289
1782968811800932900,5.257932861328125,0.6667671799659729,-0.6342797875404358,0.7366275191307068
1782968811810859000,5.26785888671875,0.6247200965881348,-0.6227496862411499,0.6832043528556824
1782968811820786000,5.277785888671875,0.5452595949172974,-0.5760954022407532,0.5925719141960144
1782968811830711800,5.2877119140625,0.44574153423309326,-0.5079436898231506,0.4845430254936218
1782968811840638000,5.297637939453125,0.33846914768218994,-0.4434147775173187,0.3798597455024719
1782968811850564900,5.30756494140625,0.23588161170482635,-0.3981066346168518,0.2649838626384735
1782968811860490800,5.31749072265625,0.13323698937892914,-0.3712742328643799,0.14258259534835815
1782968811870417000,5.3274169921875,0.02534896321594715,-0.3694993853569031,0.007928851991891861
1782968811880343800,5.33734375,-0.08833392709493637,-0.38357818126678467,-0.11492197215557098
1782968811890270000,5.34727001953125,-0.1816186159849167,-0.3851674795150757,-0.22228987514972687
1782968811900195800,5.35719580078125,-0.2543623149394989,-0.3306099474430084,-0.28865426778793335
1782968811910122800,5.367122802734375,-0.3118988871574402,-0.19836929440498352,-0.2982211112976074
1782968811920049000,5.377048828125,-0.3471170663833618,-0.01705383136868477,-0.23484718799591064
1782968811929974800,5.386974853515625,-0.35067471861839294,0.1659570336341858,-0.10986018180847168
1782968811939902000,5.39690185546875,-0.31766486167907715,0.30497807264328003,0.02315405383706093
1782968811949827800,5.406827880859375,-0.27803364396095276,0.35640496015548706,0.12495113909244537
1782968811959754000,5.41675390625,-0.2229570746421814,0.29671502113342285,0.18755726516246796
1782968811969681000,5.426680908203125,-0.17425070703029633,0.15435712039470673,0.1950802057981491
1782968811979606800,5.436606689453125,-0.15012593567371368,-0.036838144063949585,0.15568406879901886
1782968811989533000,5.446532958984375,-0.15672151744365692,-0.22115518152713776,0.08070292323827744
1782968811999460000,5.456460205078125,-0.19833101332187653,-0.37105199694633484,-0.01374635100364685
1782968812009385700,5.4663857421875,-0.2557699978351593,-0.4682007133960724,-0.10484352707862854
1782968812019311900,5.476311767578125,-0.3212108016014099,-0.49558547139167786,-0.16876685619354248
1782968812029239000,5.486239013671875,-0.3817936182022095,-0.4431323707103729,-0.20702430605888367
1782968812039164700,5.49616455078125,-0.40711867809295654,-0.33549484610557556,-0.22558334469795227
1782968812049090800,5.5060908203125,-0.41569796204566956,-0.20774883031845093,-0.22128495573997498
1782968812059018000,5.51601806640625,-0.4420424997806549,-0.10158724337816238,-0.22209908068180084
1782968812068944000,5.52594384765625,-0.4726899564266205,-0.03694337606430054,-0.24124714732170105
1782968812078869800,5.535869873046875,-0.5092785954475403,-0.03493482246994972,-0.2968771159648895
1782968812088797000,5.545796875,-0.5417221188545227,-0.12981989979743958,-0.37499046325683594
1782968812098722800,5.555722900390625,-0.5743119716644287,-0.28402361273765564,-0.45932185649871826
1782968812108648700,5.565648681640625,-0.6183325052261353,-0.45890477299690247,-0.5407842397689819
1782968812118575900,5.575575927734375,-0.6833392381668091,-0.6031895279884338,-0.6208924055099487
1782968812128502000,5.585501953125,-0.7496708631515503,-0.6631777882575989,-0.7143280506134033
1782968812138428000,5.595427978515625,-0.8186925053596497,-0.6267058253288269,-0.8221221566200256
1782968812148355000,5.60535498046875,-0.8817079663276672,-0.5035351514816284,-0.936498761177063
1782968812158281000,5.615281005859375,-0.9437443614006042,-0.3261547386646271,-1.0302424430847168
1782968812168206800,5.625206787109375,-0.9981399774551392,-0.12614348530769348,-1.0862936973571777
1782968812178132700,5.6351328125,-1.0404101610183716,0.06367518752813339,-1.0976622104644775
1782968812188060000,5.645059814453125,-1.0635122060775757,0.21713408827781677,-1.0628116130828857
1782968812197985800,5.65498583984375,-1.0597816705703735,0.3154497444629669,-0.9852656722068787
1782968812207912000,5.664911865234375,-1.0235531330108643,0.3354909121990204,-0.8883185982704163
1782968812217839000,5.674839111328125,-0.9434601664543152,0.26918113231658936,-0.7917845845222473
1782968812227764700,5.6847646484375,-0.8344025611877441,0.1584223061800003,-0.7142141461372375
1782968812237691000,5.69469091796875,-0.7216280698776245,0.043976955115795135,-0.6595586538314819
1782968812247618000,5.7046181640625,-0.6253805160522461,-0.05393918231129646,-0.6421403884887695
1782968812257543700,5.714543701171875,-0.5616369843482971,-0.10526175051927567,-0.656456708908081
1782968812267469800,5.7244697265625,-0.5152146220207214,-0.10728076845407486,-0.6812490224838257
1782968812277397000,5.73439697265625,-0.5064679980278015,-0.07996579259634018,-0.6879695057868958
1782968812287323000,5.744322998046875,-0.5292700529098511,-0.02496824413537979,-0.6769008040428162
1782968812297248800,5.754248779296875,-0.5702728629112244,0.04274315759539604,-0.6403204202651978
1782968812307176000,5.764176025390625,-0.6222258806228638,0.11049020290374756,-0.5743843913078308
1782968812317102000,5.77410205078125,-0.6744965314865112,0.21161815524101257,-0.4985716640949249
1782968812327027700,5.78402783203125,-0.7047968506813049,0.38652509450912476,-0.4570927619934082
1782968812336955000,5.793954833984375,-0.6840494871139526,0.6774546504020691,-0.5390142798423767
1782968812346881000,5.803881103515625,-0.5583379864692688,0.9272982478141785,-0.6376091837882996
1782968812356807000,5.813806884765625,-0.41969436407089233,0.9090853929519653,-0.6222059726715088
1782968812366733800,5.82373388671875,-0.2809866666793823,0.5855259299278259,-0.4805198609828949
1782968812376660000,5.833659912109375,-0.14973382651805878,0.06867853552103043,-0.2840225100517273
1782968812386585900,5.8435859375,-0.02255232445895672,-0.42589759826660156,-0.059748224914073944
1782968812396513000,5.853512939453125,0.12373751401901245,-0.7431594133377075,0.14666859805583954
1782968812406439000,5.86343896484375,0.26646870374679565,-0.8406473398208618,0.32115429639816284
1782968812416364800,5.87336474609375,0.39524850249290466,-0.7545585036277771,0.4640752077102661
1782968812426292000,5.8832919921875,0.5041805505752563,-0.533113420009613,0.5812336206436157
1782968812436217900,5.8932177734375,0.5886847972869873,-0.22212651371955872,0.6571661829948425
1782968812446143700,5.903143798828125,0.6361095309257507,0.08794227987527847,0.6960767507553101
1782968812456071000,5.91307080078125,0.6502964496612549,0.3195965588092804,0.696236252784729
1782968812465997000,5.9229970703125,0.6485522985458374,0.4343516528606415,0.6729041934013367
1782968812475923000,5.9329228515625,0.6139245629310608,0.4572734534740448,0.6427598595619202
1782968812485849900,5.942849853515625,0.5674283504486084,0.42138007283210754,0.5911980271339417
1782968812495776000,5.95277587890625,0.5564801096916199,0.3548622727394104,0.5424262285232544
1782968812505702000,5.962701904296875,0.594713032245636,0.3037765920162201,0.5197937488555908
1782968812515627800,5.972627685546875,0.6621032953262329,0.2553033232688904,0.5252641439437866
1782968812525555000,5.982554931640625,0.7462923526763916,0.2294769436120987,0.5581888556480408
1782968812535481000,5.992481201171875,0.8531572818756104,0.2311169058084488,0.6215489506721497
1782968812545407700,6.00240771484375,0.9491572380065918,0.2363310009241104,0.6917248964309692
1782968812555334000,6.012333984375,1.021615982055664,0.24665606021881104,0.7804355621337891
1782968812565260000,6.022260009765625,1.071645975112915,0.2861326038837433,0.8792200088500977
1782968812575185700,6.032185546875,1.1018235683441162,0.323543906211853,0.9475618004798889
1782968812585112800,6.04211279296875,1.1430834531784058,0.3313863277435303,0.9645968675613403
1782968812595039000,6.0520390625,1.1963285207748413,0.34373700618743896,0.9468490481376648
1782968812604964900,6.06196484375,1.2384883165359497,0.32846707105636597,0.8860822916030884
1782968812614892000,6.07189208984375,1.2667968273162842,0.26736190915107727,0.8097374439239502
1782968812624818000,6.08181787109375,1.2661452293395996,0.16506513953208923,0.7296656966209412
1782968812634743800,6.091743896484375,1.244941234588623,0.049311112612485886,0.6500675082206726
1782968812644671000,6.1016708984375,1.2256124019622803,-0.03964177519083023,0.582463264465332
1782968812654596900,6.111596923828125,1.2059998512268066,-0.10324844717979431,0.525085985660553
1782968812664523000,6.12152294921875,1.1864728927612305,-0.1339230239391327,0.48129141330718994
1782968812674450000,6.131449951171875,1.1693758964538574,-0.12933440506458282,0.45131832361221313
1782968812684376000,6.1413759765625,1.1515923738479614,-0.06621768325567245,0.4203825891017914
1782968812694302000,6.151302001953125,1.1196684837341309,0.030239081010222435,0.3753797113895416
1782968812704228900,6.161228759765625,1.0584816932678223,0.12239023298025131,0.3206239640712738
1782968812714155000,6.171155029296875,0.9564297795295715,0.18256835639476776,0.2680089771747589
1782968812724081000,6.181080810546875,0.8150195479393005,0.19774076342582703,0.22407618165016174
1782968812734008300,6.19100830078125,0.6599308848381042,0.16678977012634277,0.17844638228416443
1782968812743934200,6.200934326171875,0.5262253284454346,0.08439468592405319,0.09506591409444809
1782968812753860400,6.2108603515625,0.4440220892429352,-0.04031901806592941,0.0007013282738626003
1782968812763787300,6.220787353515625,0.44227421283721924,-0.19061945378780365,-0.06767316907644272
1782968812773713400,6.23071337890625,0.4882097542285919,-0.34783464670181274,-0.09263364225625992
1782968812783639300,6.240639404296875,0.556107759475708,-0.5073675513267517,-0.06485845148563385
1782968812793566200,6.250566162109375,0.6274144053459167,-0.6140913367271423,0.023103632032871246
1782968812803492400,6.260492431640625,0.6778011918067932,-0.6359383463859558,0.14027179777622223
1782968812813418200,6.270418212890625,0.6903294920921326,-0.5752068161964417,0.2526928782463074
1782968812823345200,6.28034521484375,0.6604160666465759,-0.46079084277153015,0.32955315709114075
1782968812833271300,6.290271240234375,0.581072211265564,-0.3439715504646301,0.34415340423583984
1782968812843197400,6.300197509765625,0.46470412611961365,-0.26150891184806824,0.29345449805259705
1782968812853124400,6.310124267578125,0.32443222403526306,-0.22372479736804962,0.16290636360645294
1782968812863050200,6.32005029296875,0.1720542311668396,-0.20315127074718475,-0.02044961228966713
1782968812872976400,6.329976318359375,0.03711691498756409,-0.17653030157089233,-0.2326047420501709
1782968812882903300,6.3399033203125,-0.08158648759126663,-0.14334654808044434,-0.4195954501628876
1782968812892829200,6.3498291015625,-0.19338253140449524,-0.07704396545886993,-0.528162956237793
1782968812902755300,6.35975537109375,-0.28626149892807007,0.057471733540296555,-0.547008752822876
1782968812912682200,6.36968212890625,-0.3509470224380493,0.24578918516635895,-0.4631628692150116
1782968812922608400,6.3796083984375,-0.3690096139907837,0.4356267750263214,-0.314350426197052
1782968812932534300,6.3895341796875,-0.33218902349472046,0.5944502353668213,-0.12900319695472717
1782968812942461200,6.399461181640625,-0.26461154222488403,0.6901007294654846,0.0709833949804306
1782968812952387300,6.40938720703125,-0.2126239836215973,0.7067795395851135,0.222554549574852
1782968812962313200,6.419313232421875,-0.1874760538339615,0.6339936852455139,0.2985815107822418
1782968812972239400,6.4292392578125,-0.20143021643161774,0.5066229701042175,0.27864986658096313
1782968812982166300,6.439166259765625,-0.25463172793388367,0.3560783565044403,0.16984570026397705
1782968812992092400,6.449092529296875,-0.3250342607498169,0.20716877281665802,-0.006663288921117783
1782968813002018300,6.459018310546875,-0.40379664301872253,0.10631711035966873,-0.17373248934745789
1782968813011945200,6.4689453125,-0.48421505093574524,0.0822133719921112,-0.28235167264938354
1782968813021871400,6.478871337890625,-0.5621008276939392,0.12544313073158264,-0.32991549372673035
1782968813031797200,6.48879736328125,-0.6471211314201355,0.23101696372032166,-0.3259173035621643
1782968813041724200,6.49872412109375,-0.7356820106506348,0.3573930263519287,-0.29688042402267456
1782968813051650300,6.508650390625,-0.8026205897331238,0.4684383273124695,-0.25857964158058167
1782968813061576400,6.518576416015625,-0.8302090764045715,0.5532388687133789,-0.216369166970253
1782968813071503000,6.528503173828125,-0.8139176964759827,0.6250139474868774,-0.17706623673439026
1782968813081429200,6.53842919921875,-0.7882462739944458,0.6468128561973572,-0.18168069422245026
1782968813091355400,6.54835546875,-0.772467315196991,0.6095389723777771,-0.23719802498817444
1782968813101282300,6.5582822265625,-0.7769421935081482,0.502953290939331,-0.31135231256484985
1782968813111208200,6.568208251953125,-0.8059171438217163,0.3266077935695648,-0.39450445771217346
1782968813121134300,6.57813427734375,-0.8380632400512695,0.10697674006223679,-0.4859020411968231
1782968813131061200,6.588061279296875,-0.8710778951644897,-0.11504993587732315,-0.5758913159370422
1782968813140987100,6.597987060546875,-0.8923482894897461,-0.3117970824241638,-0.6555642485618591
1782968813150913300,6.607913330078125,-0.9122841358184814,-0.4659387171268463,-0.7288251519203186
1782968813160840200,6.617840087890625,-0.946767270565033,-0.6020132303237915,-0.788265585899353
1782968813170766300,6.627766357421875,-0.9936628937721252,-0.7164577841758728,-0.8425318002700806
1782968813180692200,6.637692138671875,-1.0323114395141602,-0.7913644313812256,-0.883945107460022
1782968813190619100,6.647619140625,-1.0475300550460815,-0.7965245842933655,-0.9235715866088867
1782968813200545300,6.657545166015625,-1.0511060953140259,-0.7327927350997925,-0.9597190618515015
1782968813210471200,6.66747119140625,-1.0531591176986694,-0.6050499677658081,-0.9854292273521423
1782968813220398000,6.677398193359375,-1.050254464149475,-0.4333192706108093,-0.9854507446289062
1782968813230324200,6.68732421875,-1.0613031387329102,-0.26211637258529663,-0.9684552550315857
1782968813240250400,6.69725048828125,-1.069547176361084,-0.1310911923646927,-0.9278950095176697
1782968813250177000,6.707177001953125,-1.054218053817749,-0.04870656132698059,-0.8639610409736633
1782968813260103200,6.717103271484375,-1.0200073719024658,-0.004133577924221754,-0.7879387736320496
1782968813270029300,6.727029296875,-0.9498926997184753,-0.004315738100558519,-0.7016736268997192
1782968813279956200,6.736956298828125,-0.8738762736320496,-0.009169391356408596,-0.6334720253944397
1782968813289882000,6.746882080078125,-0.8322710394859314,0.011763586662709713,-0.6082332730293274
1782968813299808300,6.756808349609375,-0.8114632368087769,0.10231044888496399,-0.6445907354354858
1782968813309735400,6.7667353515625,-0.8692242503166199,0.27128082513809204,-0.7590028047561646
1782968813319661300,6.776661376953125,-0.9913559556007385,0.5316467881202698,-0.961939811706543
1782968813329587200,6.786587158203125,-1.1836873292922974,0.807416558265686,-1.2063932418823242
1782968813339514400,6.796514404296875,-1.4023988246917725,1.034407615661621,-1.4135656356811523
1782968813349440300,6.806440185546875,-1.478637456893921,1.1618609428405762,-1.4909037351608276
1782968813359366100,6.8163662109375,-1.429840087890625,1.1410102844238281,-1.3941423892974854
1782968813369293300,6.826293212890625,-1.1736871004104614,0.9654051065444946,-1.0669306516647339
1782968813379219200,6.83621923828125,-0.7983821630477905,0.6811802983283997,-0.7040072679519653
1782968813389145300,6.846145263671875,-0.3791361153125763,0.2959732115268707,-0.21470442414283752
1782968813399072300,6.856072265625,0.020326657220721245,-0.1093858852982521,0.32218852639198303
1782968813408998100,6.865998046875,0.3127036690711975,-0.37184467911720276,0.6987687945365906
1782968813418924300,6.87592431640625,0.49875545501708984,-0.5173494219779968,0.9056795239448547
1782968813428850200,6.88585009765625,0.6063863039016724,-0.5633164048194885,0.9715070128440857
1782968813438777000,6.895777099609375,0.6436014175415039,-0.5336586833000183,0.9192928671836853
1782968813448703200,6.905703125,0.6275041699409485,-0.45838335156440735,0.779962420463562
1782968813458629400,6.91562939453125,0.5667433738708496,-0.37100809812545776,0.600900411605835
1782968813468556300,6.925556396484375,0.4895191788673401,-0.3023318350315094,0.4285488426685333
1782968813478482200,6.935482177734375,0.4326598048210144,-0.2287311553955078,0.3067999482154846
1782968813488408300,6.945408203125,0.427349716424942,-0.16517215967178345,0.2557026743888855
1782968813498335500,6.95533544921875,0.4497361481189728,-0.11070316284894943,0.27133840322494507
1782968813508261000,6.96526123046875,0.4957611858844757,-0.06506510823965073,0.35386016964912415
1782968813518187300,6.975187255859375,0.5539082288742065,-0.019953517243266106,0.4714452624320984
1782968813528114400,6.985114501953125,0.6177431344985962,0.026133017614483833,0.5966721177101135
1782968813538040000,6.9950400390625,0.6952656507492065,0.04679142311215401,0.7088162899017334
1782968813547966200,7.00496630859375,0.8252420425415039,0.051108941435813904,0.8368895649909973
1782968813557893400,7.014893310546875,1.001322865486145,0.023484202101826668,0.9641751646995544
1782968813567819300,7.0248193359375,1.187750220298767,-0.05717788636684418,1.0705937147140503
1782968813577745200,7.0347451171875,1.3437745571136475,-0.19413916766643524,1.1361846923828125
1782968813587672300,7.04467236328125,1.4628658294677734,-0.41625452041625977,1.158290982246399
1782968813597598200,7.05459814453125,1.5099246501922607,-0.6830706000328064,1.1416025161743164
1782968813607524000,7.064524169921875,1.4979298114776611,-0.9053910374641418,1.0981160402297974
1782968813617451300,7.074451171875,1.4580965042114258,-1.045392632484436,1.0304439067840576
1782968813627377200,7.084377197265625,1.390586495399475,-1.0935169458389282,0.958535373210907
1782968813637303300,7.09430322265625,1.3097617626190186,-1.0267740488052368,0.8726428151130676
1782968813647230200,7.104230224609375,1.220595121383667,-0.8731815814971924,0.7478260397911072
1782968813657156400,7.11415625,1.1148483753204346,-0.6810049414634705,0.5916347503662109
1782968813667082200,7.124082275390625,0.9967436790466309,-0.488008588552475,0.43072232604026794
1782968813677009400,7.134009521484375,0.8696978092193604,-0.33023780584335327,0.28867316246032715
1782968813686935300,7.143935302734375,0.7478249073028564,-0.21365153789520264,0.2009912133216858
1782968813696861200,7.153861083984375,0.6505333781242371,-0.14113761484622955,0.15887057781219482
1782968813706788400,7.163788330078125,0.5984901785850525,-0.1053367480635643,0.16764117777347565
1782968813716714500,7.173714599609375,0.591032087802887,-0.08805758506059647,0.21706156432628632
1782968813726639400,7.183639404296875,0.6101029515266418,-0.08717235177755356,0.2817841172218323
1782968813736566300,7.193566162109375,0.6492770910263062,-0.10256759077310562,0.33842721581459045
1782968813746492200,7.2034921875,0.685594379901886,-0.12421323359012604,0.3673805594444275
1782968813756418300,7.213418212890625,0.7048678398132324,-0.1334068328142166,0.36448946595191956
1782968813766345200,7.22334521484375,0.697210967540741,-0.1087275892496109,0.3392552137374878
1782968813776271400,7.233271240234375,0.6601786613464355,-0.05345022305846214,0.2932983636856079
1782968813786197200,7.243197265625,0.6004162430763245,0.02918846532702446,0.24833621084690094
1782968813796124200,7.253124267578125,0.5277916193008423,0.12211181223392487,0.21957075595855713
1782968813806050300,7.26305029296875,0.46660152077674866,0.21071039140224457,0.20801956951618195
1782968813815976400,7.2729765625,0.42116039991378784,0.29426729679107666,0.21038667857646942
1782968813825903000,7.282903076171875,0.3907151222229004,0.3349846303462982,0.22387106716632843
1782968813835829200,7.292829345703125,0.3640032410621643,0.3382544219493866,0.2517360746860504
1782968813845755400,7.30275537109375,0.3301304876804352,0.29979997873306274,0.2901715934276581
1782968813855681300,7.312681396484375,0.2961301803588867,0.2287987768650055,0.31802934408187866
1782968813865608200,7.322608154296875,0.25975513458251953,0.12792089581489563,0.2999856173992157
1782968813875534300,7.332534423828125,0.2064976692199707,0.007515619043260813,0.23375055193901062
1782968813885460500,7.34246044921875,0.13160450756549835,-0.0922413319349289,0.11675416678190231
1782968813895387100,7.35238720703125,0.039277561008930206,-0.14431366324424744,-0.022178450599312782
1782968813905313300,7.362313232421875,-0.0794576108455658,-0.12603212893009186,-0.163804292678833
1782968813915239400,7.372239501953125,-0.2017580270767212,-0.048071473836898804,-0.2687261998653412
1782968813925166300,7.382166259765625,-0.3176926374435425,0.050479598343372345,-0.3083268702030182
1782968813935092200,7.39209228515625,-0.402523934841156,0.16012050211429596,-0.2786104083061218
1782968813945018400,7.402018310546875,-0.44529882073402405,0.2589986026287079,-0.16969271004199982
1782968813954945300,7.4119453125,-0.45473191142082214,0.3234313428401947,-0.04346231743693352
1782968813964871200,7.42187109375,-0.45364639163017273,0.3201487362384796,0.056381192058324814
1782968813974797300,7.43179736328125,-0.45966389775276184,0.2738741338253021,0.11046914011240005
1782968813984724200,7.44172412109375,-0.47642022371292114,0.20318453013896942,0.10323865711688995
1782968813994650400,7.451650390625,-0.5248819589614868,0.11563181132078171,0.029842376708984375
1782968814004576300,7.461576171875,-0.6038124561309814,0.028234589844942093,-0.09561993926763535
1782968814014503200,7.471503173828125,-0.708501398563385,-0.0053551699966192245,-0.22483918070793152
1782968814024429300,7.48142919921875,-0.8239779472351074,0.014294430613517761,-0.31000015139579773
1782968814034355200,7.491355224609375,-0.9317376017570496,0.07071935385465622,-0.35587596893310547
1782968814044282000,7.5012822265625,-1.0299267768859863,0.15311728417873383,-0.3837139904499054
1782968814054208300,7.511208251953125,-1.097985029220581,0.2709335684776306,-0.36694732308387756
1782968814064134400,7.521134521484375,-1.1471909284591675,0.4202868342399597,-0.3148239254951477
1782968814074061000,7.53106103515625,-1.1637718677520752,0.5188766121864319,-0.2597273588180542
1782968814083987200,7.5409873046875,-1.1584839820861816,0.5316203236579895,-0.23741699755191803
1782968814093913300,7.550913330078125,-1.141365885734558,0.4625333249568939,-0.2414165586233139
1782968814103840300,7.56084033203125,-1.1306352615356445,0.3340749442577362,-0.2843738794326782
1782968814113766100,7.57076611328125,-1.110295057296753,0.18262457847595215,-0.34790879487991333
1782968814123692300,7.5806923828125,-1.0871082544326782,0.035081200301647186,-0.41570383310317993
1782968814133619200,7.590619140625,-1.0778194665908813,-0.10320031642913818,-0.4852369725704193
1782968814143545000,7.600545166015625,-1.0788525342941284,-0.2032478302717209,-0.5506202578544617
1782968814153471200,7.61047119140625,-1.0903160572052002,-0.25149965286254883,-0.6388806700706482
1782968814163398100,7.620398193359375,-1.1207261085510254,-0.25032973289489746,-0.7635586857795715
1782968814173324300,7.63032421875,-1.1535625457763672,-0.200652077794075,-0.8801721930503845
1782968814183250200,7.640250244140625,-1.1812777519226074,-0.09990682452917099,-0.9388431906700134
1782968814193177300,7.65017724609375,-1.1918708086013794,0.0122727882117033,-0.9081763625144958
1782968814203103200,7.660103271484375,-1.1641629934310913,0.13293316960334778,-0.7982797026634216
1782968814213029000,7.670029052734375,-1.1057236194610596,0.21056966483592987,-0.6862566471099854
1782968814222956300,7.679956298828125,-1.011751651763916,0.21000614762306213,-0.6108703017234802
1782968814232882200,7.689882080078125,-0.8948563933372498,0.17158904671669006,-0.5671522617340088
1782968814242808300,7.699808349609375,-0.7837269306182861,0.09597179293632507,-0.5438962578773499
1782968814252735500,7.709735595703125,-0.6945741772651672,-0.027615319937467575,-0.5405948758125305
1782968814262661000,7.7196611328125,-0.6259985566139221,-0.17132242023944855,-0.5295280814170837
1782968814272587300,7.729587158203125,-0.5804576277732849,-0.3250412940979004,-0.5058500170707703
1782968814282513400,7.739513427734375,-0.5270918607711792,-0.44580525159835815,-0.45176923274993896
1782968814292440000,7.749440185546875,-0.47844570875167847,-0.48314762115478516,-0.38209855556488037
1782968814302366200,7.7593662109375,-0.45122048258781433,-0.434858113527298,-0.31611260771751404
1782968814312292400,7.769292236328125,-0.4462404251098633,-0.3116331398487091,-0.26291361451148987
1782968814322219300,7.77921923828125,-0.46122071146965027,-0.13187457621097565,-0.23506708443164825
1782968814332145200,7.789145263671875,-0.4804999530315399,0.052182573825120926,-0.2242983728647232
1782968814342071300,7.7990712890625,-0.5021458268165588,0.21772067248821259,-0.21913637220859528
1782968814351998200,7.808998291015625,-0.5208469033241272,0.3369746804237366,-0.1973900943994522
1782968814361924000,7.818924072265625,-0.5029554963111877,0.38963577151298523,-0.15982140600681305
1782968814371850200,7.828850341796875,-0.3883122205734253,0.5282763242721558,-0.23340706527233124
1782968814381777400,7.83877734375,-0.2657455801963806,0.6669892072677612,-0.3399588167667389
1782968814391703300,7.848703369140625,-0.2054063230752945,0.6199085712432861,-0.3354201018810272
1782968814401629200,7.858629150390625,-0.1333683431148529,0.41820982098579407,-0.2416003942489624
1782968814411556400,7.868556396484375,-0.025938767939805984,0.13885046541690826,-0.10133396089076996
1782968814421482200,7.878482177734375,0.11244840174913406,-0.14219851791858673,0.06917732208967209
1782968814431408000,7.888408203125,0.2716517746448517,-0.3295612633228302,0.2345208376646042
1782968814441335300,7.898335205078125,0.42120105028152466,-0.3957117795944214,0.3597075045108795
1782968814451261200,7.90826123046875,0.5485113263130188,-0.37264660000801086,0.4753071069717407
1782968814461187300,7.918187255859375,0.6200395226478577,-0.27025550603866577,0.5753258466720581
1782968814471114200,7.9281142578125,0.6340889930725098,-0.10481433570384979,0.6338117718696594
1782968814481040100,7.9380400390625,0.6055553555488586,0.09542155265808105,0.6244733929634094
1782968814490966300,7.94796630859375,0.5440145134925842,0.25021040439605713,0.5431474447250366
1782968814500893400,7.9578935546875,0.4663521945476532,0.3158711791038513,0.430562287569046
1782968814510819000,7.967819091796875,0.4241578280925751,0.2864264249801636,0.3295232355594635
1782968814520745200,7.9777451171875,0.4417458772659302,0.1727384775876999,0.2616389989852905
1782968814530672400,7.98767236328125,0.5278860926628113,0.02745869942009449,0.2646820843219757
1782968814540598300,7.997598388671875,0.6256856322288513,-0.08105738461017609,0.3523847758769989
1782968814550524200,8.007524169921876,0.7086194753646851,-0.10340438783168793,0.4809413254261017
1782968814560451300,8.017451416015625,0.7514340281486511,-0.053629111498594284,0.6009207367897034
1782968814570377500,8.02737744140625,0.7843855619430542,-0.017382808029651642,0.6963188052177429
1782968814580303000,8.03730322265625,0.8413510918617249,0.05905097723007202,0.8127479553222656
1782968814590230300,8.047230224609375,0.9177505373954773,0.10687507688999176,1.0021281242370605
1782968814600156400,8.057156494140624,0.9693375825881958,0.05862125754356384,1.1414226293563843
1782968814610082000,8.06708203125,0.9713367223739624,-0.028539247810840607,1.1913524866104126
1782968814620009200,8.07700927734375,0.9639504551887512,-0.10583430528640747,1.180471658706665
1782968814629935400,8.086935302734375,0.9460354447364807,-0.15065179765224457,1.1594910621643066
1782968814639861200,8.096861328125,0.8942745327949524,-0.14409616589546204,1.1245558261871338
1782968814649788400,8.106788330078125,0.8219231367111206,-0.09780258685350418,1.0521913766860962
1782968814659714300,8.11671435546875,0.7481439709663391,-0.05799897760152817,0.9461544156074524
1782968814669640200,8.12664013671875,0.7086295485496521,-0.04427221417427063,0.8410954475402832
1782968814679566000,8.136566162109375,0.6904358863830566,-0.05755686014890671,0.7505384087562561
1782968814689493200,8.1464931640625,0.6846749782562256,-0.11286858469247818,0.7218912839889526
1782968814699419100,8.156419189453125,0.6695692539215088,-0.19404733180999756,0.7649471759796143
1782968814709345300,8.16634521484375,0.6540221571922302,-0.25194063782691956,0.8193821310997009
1782968814719272400,8.1762724609375,0.6375709772109985,-0.30331143736839294,0.8584073185920715
1782968814729198300,8.1861982421875,0.6230995059013367,-0.31656646728515625,0.8524959683418274
1782968814739124500,8.19612451171875,0.6017262935638428,-0.268100380897522,0.7812033891677856
1782968814749051600,8.2060517578125,0.5797480344772339,-0.20203563570976257,0.6703536510467529
1782968814758977500,8.2159775390625,0.5357992053031921,-0.12717017531394958,0.5501230955123901
1782968814768903400,8.2259033203125,0.48127689957618713,-0.028267640620470047,0.4534546136856079
1782968814778830600,8.23583056640625,0.4009799361228943,0.04977576062083244,0.3868263065814972
1782968814788756700,8.2457568359375,0.3230985403060913,0.06665818393230438,0.3526208698749542
1782968814798682400,8.255682373046875,0.2505577504634857,0.03572903200984001,0.3383804261684418
1782968814808609500,8.265609619140625,0.19038309156894684,-0.03419812023639679,0.3403543531894684
1782968814818535700,8.27553564453125,0.14698661863803864,-0.15074443817138672,0.3354016840457916
1782968814828461600,8.285461669921874,0.1311778575181961,-0.27159616351127625,0.34130385518074036
1782968814838388500,8.295388427734375,0.14135193824768066,-0.32934069633483887,0.36606138944625854
1782968814848314600,8.305314697265626,0.17229051887989044,-0.31628987193107605,0.40092694759368896
1782968814858240500,8.315240478515625,0.2069755345582962,-0.27821439504623413,0.41308268904685974
1782968814868167700,8.325167724609376,0.22760485112667084,-0.2568655014038086,0.3866026699542999
1782968814878093600,8.335093505859374,0.2130432277917862,-0.25903812050819397,0.31866809725761414
1782968814888019500,8.34501953125,0.15871252119541168,-0.28930824995040894,0.19593024253845215
1782968814897946600,8.354946533203124,0.07214993983507156,-0.34087851643562317,0.027935108169913292
1782968814907872500,8.36487255859375,-0.05036262795329094,-0.371528297662735,-0.15604399144649506
1782968814917799400,8.37479931640625,-0.19977928698062897,-0.32979869842529297,-0.3202560842037201
1782968814927725600,8.3847255859375,-0.3482934832572937,-0.20900334417819977,-0.44911620020866394
1782968814937652500,8.394652587890626,-0.46499717235565186,-0.03845610097050667,-0.5229946374893188
1782968814947578600,8.40457861328125,-0.5213934779167175,0.13191179931163788,-0.5431020855903625
1782968814957504500,8.41450439453125,-0.5192205905914307,0.2702696621417999,-0.514011025428772
1782968814967431400,8.424431396484374,-0.479127436876297,0.3438340127468109,-0.4659178555011749
1782968814977357600,8.434357666015625,-0.42603757977485657,0.33290520310401917,-0.4116165339946747
1782968814987283500,8.444283447265626,-0.38384026288986206,0.24938945472240448,-0.3636213541030884
1782968814997210600,8.454210693359375,-0.3487667143344879,0.1304934322834015,-0.32396209239959717
1782968815007136500,8.464136474609376,-0.33832573890686035,-0.007681441027671099,-0.32530346512794495
1782968815017062700,8.474062744140625,-0.3552733063697815,-0.15178535878658295,-0.3730472922325134
1782968815026989600,8.483989501953126,-0.3882044553756714,-0.2869513928890228,-0.4508380591869354
1782968815036915500,8.49391552734375,-0.4201280474662781,-0.3843809962272644,-0.5080805420875549
1782968815046841600,8.503841552734375,-0.45341840386390686,-0.41847389936447144,-0.5482370257377625
1782968815056768800,8.513768798828124,-0.4762209355831146,-0.401913046836853,-0.582938015460968
1782968815066694400,8.5236943359375,-0.4850752651691437,-0.31000226736068726,-0.5805646777153015
1782968815076620500,8.53362060546875,-0.4543871283531189,-0.15513652563095093,-0.5337148904800415
1782968815086547700,8.543547607421875,-0.4220942556858063,0.028961028903722763,-0.4658733904361725
1782968815096473300,8.553473388671875,-0.4117656946182251,0.21150340139865875,-0.39163270592689514
1782968815106399500,8.5633994140625,-0.44085344672203064,0.3563684821128845,-0.3458595275878906
1782968815116326700,8.57332666015625,-0.49830183386802673,0.4707059860229492,-0.3221973478794098
1782968815126252500,8.58325244140625,-0.5728803277015686,0.5482009649276733,-0.3193472921848297
1782968815136178400,8.593178466796875,-0.6350722908973694,0.5535416603088379,-0.36853986978530884
1782968815146105600,8.603105712890626,-0.6994152069091797,0.482511967420578,-0.5167149901390076
1782968815156031500,8.613031494140625,-0.7772935032844543,0.35657134652137756,-0.6967273354530334
1782968815165957400,8.622957275390625,-0.8499107956886292,0.21492476761341095,-0.8595000505447388
1782968815175884500,8.632884521484375,-0.9052757620811462,0.04331280291080475,-1.0307074785232544
1782968815185810700,8.642810791015625,-0.911297082901001,-0.1660660356283188,-1.1599851846694946
1782968815195736600,8.652736572265624,-0.8960840106010437,-0.3290269672870636,-1.2313954830169678
1782968815205663500,8.66266357421875,-0.8671247959136963,-0.4567057490348816,-1.2419966459274292
1782968815215589600,8.672589599609376,-0.8521634340286255,-0.48195624351501465,-1.1828089952468872
1782968815225515500,8.682515625,-0.8412327170372009,-0.45762720704078674,-1.0612071752548218
1782968815235442700,8.692442626953126,-0.8064880967140198,-0.4288320243358612,-0.9403545260429382
1782968815245368600,8.70236865234375,-0.7552838921546936,-0.3460109829902649,-0.855665385723114
1782968815255294500,8.71229443359375,-0.6986022591590881,-0.21925437450408936,-0.8275266885757446
1782968815265220600,8.722220703125,-0.6659309267997742,-0.08381672948598862,-0.8495394587516785
1782968815275147500,8.7321474609375,-0.6494832038879395,0.06544013321399689,-0.946194052696228
1782968815285073400,8.742073486328126,-0.6114793419837952,0.17282578349113464,-1.0281667709350586
1782968815294999600,8.75199951171875,-0.5566080808639526,0.2255619764328003,-1.0079320669174194
1782968815304926700,8.7619267578125,-0.5152681469917297,0.23154130578041077,-0.9380519390106201
1782968815314852400,8.771852294921874,-0.4971908628940582,0.277400404214859,-0.801787257194519
1782968815324778500,8.781778564453125,-0.4904545545578003,0.2791593074798584,-0.648698627948761
1782968815334705700,8.79170556640625,-0.45318493247032166,0.24592065811157227,-0.5081207752227783
1782968815344631600,8.801631591796875,-0.405670702457428,0.2503581643104553,-0.4025891125202179
1782968815354557400,8.811557373046876,-0.37596872448921204,0.31612226366996765,-0.3208732306957245
1782968815364484600,8.821484619140625,-0.3637267053127289,0.4478740990161896,-0.31303197145462036
1782968815374410800,8.83141064453125,-0.3055078983306885,0.6788961291313171,-0.461931973695755
1782968815384336400,8.84133642578125,-0.20109066367149353,0.9017063975334167,-0.6632782220840454
1782968815394263600,8.851263671875,-0.048613227903842926,0.9454136490821838,-0.7251365184783936
1782968815404189700,8.861189697265624,0.10078032314777374,0.742857813835144,-0.6598935723304749
1782968815414115600,8.871115478515625,0.2902863323688507,0.325748473405838,-0.37054166197776794
1782968815424042500,8.88104248046875,0.44884809851646423,-0.10009042918682098,0.001837610499933362
1782968815433968600,8.89096875,0.6090095639228821,-0.3714311122894287,0.3424588441848755
1782968815443894500,8.90089453125,0.8001915812492371,-0.43445631861686707,0.6278902292251587
1782968815453821700,8.91082177734375,0.9884887933731079,-0.3255154490470886,0.8306646347045898
1782968815463747600,8.92074755859375,1.1299753189086914,-0.14080297946929932,0.9288105368614197
1782968815473673500,8.930673583984374,1.2307727336883545,0.06710974127054214,0.9460532069206238
1782968815483600600,8.9406005859375,1.2752835750579834,0.22719985246658325,0.884479820728302
1782968815493526500,8.950526611328126,1.2553948163986206,0.3113413453102112,0.7869229316711426
1782968815503452400,8.960452392578125,1.183753252029419,0.3080381751060486,0.691747784614563
1782968815513379600,8.970379638671876,1.0943487882614136,0.22356827557086945,0.6370198130607605
1782968815523305700,8.9803056640625,1.025508999824524,0.11465823650360107,0.6083124279975891
1782968815533231600,8.990231689453125,0.9814261794090271,0.024469759315252304,0.6219608187675476
1782968815543158500,9.000158447265624,0.953791618347168,-0.027572404593229294,0.669069766998291
1782968815553084700,9.010084716796875,0.945422351360321,-0.03600769862532616,0.7303765416145325
1782968815563010600,9.020010498046876,0.9625506401062012,0.016876250505447388,0.7842036485671997
1782968815572937500,9.0299375,1.0552712678909302,0.21326494216918945,0.8559291958808899
1782968815582863600,9.039863525390626,1.131485939025879,0.30351918935775757,0.8924574255943298
1782968815592789800,9.049789794921875,1.1572376489639282,0.25926119089126587,0.921434760093689
1782968815602716400,9.05971630859375,1.227841854095459,0.26104646921157837,0.9936259388923645
1782968815612642600,9.069642578125,1.2982460260391235,0.11889650672674179,1.0719410181045532
1782968815622568700,9.079568603515625,1.3530904054641724,-0.1315973699092865,1.1454036235809326
1782968815632494300,9.089494384765626,1.4056721925735474,-0.38435107469558716,1.1850471496582031
1782968815642421500,9.09942138671875,1.4185709953308105,-0.635231614112854,1.1570688486099243
1782968815652347600,9.10934765625,1.3827110528945923,-0.8106292486190796,1.0844745635986328
1782968815662273500,9.1192734375,1.3033642768859863,-0.8673686385154724,0.9769166707992554
1782968815672200400,9.129200439453125,1.1629858016967773,-0.82527095079422,0.8562784194946289
1782968815682126600,9.139126708984374,0.975507378578186,-0.7036737203598022,0.7315835356712341
1782968815692052500,9.149052490234375,0.7713092565536499,-0.4971980154514313,0.6161270141601562
1782968815701979600,9.158979736328124,0.6010375618934631,-0.25757351517677307,0.505565881729126
1782968815711905500,9.168905517578125,0.43310797214508057,-0.09947177022695541,0.3800998628139496
1782968815721831700,9.178831787109376,0.2659836709499359,-0.020214281976222992,0.21692503988742828
1782968815731759000,9.188759033203125,0.13136139512062073,0.011110085994005203,0.032012972980737686
1782968815741685200,9.198685302734376,0.08063794672489166,0.03206771984696388,-0.11869978159666061
1782968815751611100,9.208611083984374,0.09399210661649704,0.03913761302828789,-0.1760789155960083
1782968815761538000,9.2185380859375,0.10470108687877655,0.015367529354989529,-0.12670595943927765
1782968815771464200,9.228464111328124,0.10436393320560455,-0.009522640146315098,-0.0022383281029760838
1782968815781390000,9.23839013671875,0.10173287242650986,-0.004918145015835762,0.16121745109558105
1782968815791317200,9.248317138671876,0.09988650679588318,0.013515191152691841,0.33438390493392944
1782968815801243100,9.2582431640625,0.0872844010591507,0.03949713706970215,0.4702194035053253
1782968815811169000,9.2681689453125,0.06064587086439133,0.0911150574684143,0.5411979556083679
1782968815821096200,9.27809619140625,0.027611585333943367,0.14936162531375885,0.5507508516311646
1782968815831022000,9.28802197265625,-0.011110777966678143,0.16168619692325592,0.49899980425834656
1782968815840948200,9.2979482421875,-0.052617233246564865,0.13609683513641357,0.4133968949317932
1782968815850875100,9.307875244140625,-0.08942344784736633,0.08781319111585617,0.32704150676727295
1782968815860801300,9.31780126953125,-0.09847477078437805,0.03089318424463272,0.25817155838012695
1782968815870727200,9.32772705078125,-0.08082679659128189,-0.028954699635505676,0.20239858329296112
1782968815880654000,9.337654052734376,-0.05420263111591339,-0.09087885916233063,0.13027343153953552
1782968815890580200,9.347580322265625,-0.039122749119997025,-0.12489381432533264,0.06069649010896683
1782968815900506000,9.357506103515625,-0.06868177652359009,-0.15870976448059082,-0.0025022183544933796
1782968815910433000,9.36743310546875,-0.2556396722793579,-0.2610156238079071,-0.11338905245065689
1782968815920359200,9.377359130859375,-0.4570740759372711,-0.2570408880710602,-0.2498508244752884
1782968815930285300,9.387285400390626,-0.5762837529182434,-0.06888137757778168,-0.3505382835865021
1782968815940212200,9.397212158203125,-0.6633463501930237,0.17491678893566132,-0.3817332983016968
1782968815950138000,9.40713818359375,-0.6703107357025146,0.42640307545661926,-0.3200709819793701
1782968815960064300,9.417064208984375,-0.6441640853881836,0.5850309729576111,-0.2120455652475357
1782968815969990100,9.426990234375,-0.6438301205635071,0.6055530309677124,-0.09843777120113373
1782968815979917000,9.4369169921875,-0.5838062167167664,0.5538547039031982,-0.006581943482160568
1782968815989843200,9.44684326171875,-0.5628644824028015,0.377348929643631,0.05761009082198143
1782968815999769000,9.45676904296875,-0.5490390062332153,0.13458842039108276,0.09069383144378662
1782968816009696300,9.4666962890625,-0.5579227805137634,-0.1580280065536499,0.07424481958150864
1782968816019622100,9.4766220703125,-0.6354988813400269,-0.44078290462493896,-0.046046942472457886
1782968816029548300,9.48654833984375,-0.6739280223846436,-0.6010570526123047,-0.2544765770435333
1782968816039475200,9.49647509765625,-0.6983841061592102,-0.6075215935707092,-0.484026163816452
1782968816049401000,9.506401123046874,-0.7476576566696167,-0.5386357307434082,-0.68319171667099
1782968816059327200,9.5163271484375,-0.8193289637565613,-0.41879987716674805,-0.8270008563995361
1782968816069254100,9.526254150390624,-0.9167346358299255,-0.25283488631248474,-0.9438846111297607
1782968816079180300,9.53618017578125,-0.9946022629737854,-0.05738690868020058,-0.9876900315284729
1782968816089106200,9.546106201171876,-1.0351932048797607,0.11615239083766937,-0.9574458599090576
1782968816099033000,9.556033203125,-1.0354669094085693,0.20950919389724731,-0.8701289296150208
1782968816108959200,9.565959228515625,-1.032128095626831,0.22299224138259888,-0.7708848714828491
1782968816118885000,9.575885009765624,-1.0526537895202637,0.18353402614593506,-0.6899535059928894
1782968816128812000,9.58581201171875,-1.1123347282409668,0.12648804485797882,-0.6548924446105957
1782968816138738200,9.59573828125,-1.198196530342102,0.07800322026014328,-0.6718204617500305
1782968816148664300,9.605664306640625,-1.2731045484542847,0.04221033304929733,-0.7257627844810486
1782968816158591000,9.615591064453126,-1.3250832557678223,0.0037289438769221306,-0.8016073107719421
1782968816168517000,9.62551708984375,-1.3363873958587646,-0.03161333501338959,-0.9176827669143677
1782968816178443300,9.635443359375,-1.3337421417236328,-0.04839988052845001,-1.0502840280532837
1782968816188370200,9.6453701171875,-1.3214607238769531,-0.04857032001018524,-1.16420578956604
1782968816198296000,9.655296142578125,-1.285677194595337,-0.06978818774223328,-1.228153944015503
1782968816208222200,9.66522216796875,-1.221484899520874,-0.1139409989118576,-1.2327347993850708
1782968816218149000,9.675149169921875,-1.1369601488113403,-0.1942995935678482,-1.1513698101043701
1782968816228075000,9.685074951171876,-1.0433100461959839,-0.2737475633621216,-0.9864412546157837
1782968816238001200,9.695001220703125,-0.9740302562713623,-0.30559056997299194,-0.7661741971969604
1782968816247928000,9.704927978515625,-0.9504716992378235,-0.2734896242618561,-0.5517112016677856
1782968816257854200,9.714854248046874,-0.9829486608505249,-0.2326943278312683,-0.38796791434288025
1782968816267780000,9.724780029296875,-1.0308544635772705,-0.2015712857246399,-0.2866516709327698
1782968816277707000,9.73470703125,-1.049079179763794,-0.16065409779548645,-0.2617059051990509
1782968816287633200,9.744633056640625,-1.0150424242019653,-0.03586183488368988,-0.271371066570282
1782968816297559000,9.75455908203125,-0.9313700199127197,0.03256436437368393,-0.29561087489128113
1782968816307486000,9.76448583984375,-0.820006251335144,0.023575928062200546,-0.31236162781715393
1782968816317412000,9.774412109375,-0.6961221098899841,-0.017420776188373566,-0.32477375864982605
1782968816327338200,9.784338134765624,-0.5579323172569275,-0.03792072460055351,-0.322723388671875
1782968816337265200,9.79426513671875,-0.43175452947616577,-0.03890472650527954,-0.30945488810539246
1782968816347191000,9.80419091796875,-0.4431033134460449,-0.23201319575309753,-0.3926432430744171
1782968816357117200,9.8141171875,-0.3397239148616791,-0.2853814363479614,-0.4022085666656494
1782968816367043300,9.824043212890626,-0.10045459121465683,-0.1313961297273636,-0.2976909279823303
1782968816376970000,9.833969970703125,0.07536357641220093,-0.036458421498537064,-0.16296294331550598
1782968816386896100,9.843896240234375,0.11409419775009155,-0.09466047585010529,-0.042320411652326584
1782968816396822300,9.853822265625,0.14538583159446716,-0.09840194880962372,0.11819875240325928
1782968816406749200,9.863749267578125,0.22070588171482086,-0.05211248621344566,0.28828099370002747
1782968816416675000,9.873675048828124,0.29001954197883606,-0.054481327533721924,0.4190995991230011
1782968816426601200,9.883601318359375,0.36686214804649353,-0.005179024301469326,0.5215361714363098
1782968816436528000,9.893528076171876,0.44901159405708313,0.08214709162712097,0.595848798751831
1782968816446454000,9.9034541015625,0.535444438457489,0.18063265085220337,0.6346645951271057
1782968816456380200,9.913380126953125,0.6035226583480835,0.21069274842739105,0.6173667907714844
1782968816466307000,9.92330712890625,0.5766633749008179,0.1012922152876854,0.4861774146556854
1782968816476233200,9.933233154296875,0.6044144630432129,0.12178611755371094,0.3622552156448364
1782968816486159000,9.9431591796875,0.7259142994880676,0.26399627327919006,0.28526216745376587
1782968816496086000,9.9530859375,0.848250150680542,0.3196720778942108,0.2330470085144043
1782968816506012200,9.96301220703125,0.8627936840057373,0.21749164164066315,0.1979723870754242
1782968816515938000,9.97293798828125,0.8533458709716797,0.10702623426914215,0.22427710890769958
1782968816525865000,9.982864990234376,0.8757510781288147,0.05982915684580803,0.32792067527770996
1782968816535791000,9.992791015625,0.9255465865135193,0.03492921218276024,0.4931509792804718
1782968816545717200,10.00271728515625,0.9971025586128235,0.06553718447685242,0.6842074990272522
1782968816555644200,10.01264404296875,1.1155003309249878,0.1450231373310089,0.8468078374862671
1782968816565570000,10.022570068359375,1.2004314661026,0.12640604376792908,0.9233537316322327
1782968816575496200,10.03249609375,1.2633131742477417,0.1774803102016449,0.958304762840271
1782968816585423000,10.042423095703125,1.3224774599075317,0.2932170331478119,0.9580346941947937
1782968816595349000,10.052348876953126,1.3556702136993408,0.3708849251270294,0.9247551560401917
1782968816605275100,10.062275146484374,1.3396151065826416,0.41372108459472656,0.8526359796524048
1782968816615202300,10.072202392578125,1.282958745956421,0.4439692497253418,0.7566092610359192
1782968816625128000,10.0821279296875,1.193259835243225,0.4547193646430969,0.6666485071182251
1782968816635054000,10.09205419921875,1.1277079582214355,0.38069671392440796,0.6462486982345581
1782968816644981200,10.101981201171874,1.1622177362442017,0.2544269263744354,0.7122151851654053
1782968816654907100,10.1119072265625,1.2341207265853882,0.03353097289800644,0.8148539066314697
1782968816664833000,10.1218330078125,1.2756375074386597,-0.280057817697525,0.9074666500091553
1782968816674760200,10.13176025390625,1.2661538124084473,-0.5864509344100952,0.9512848854064941
1782968816684686000,10.14168603515625,1.2561509609222412,-0.8460385799407959,0.9797314405441284
1782968816694612000,10.151612060546874,1.1824332475662231,-0.9993764758110046,0.9536145329475403
1782968816704538000,10.1615380859375,1.1123279333114624,-1.1170284748077393,0.8712171316146851
1782968816714465000,10.171465087890626,1.0787105560302734,-1.1594494581222534,0.8090304136276245
1782968816724391200,10.18139111328125,1.0404542684555054,-1.0472267866134644,0.7575682997703552
1782968816734316500,10.191316650390625,0.9923040866851807,-0.826364278793335,0.6986762285232544
1782968816744243700,10.20124365234375,0.8942698836326599,-0.5179411768913269,0.6224536299705505
1782968816754169600,10.211169677734375,0.7944108843803406,-0.15217527747154236,0.542985200881958
1782968816764095500,10.221095458984376,0.7685332298278809,0.17652350664138794,0.4761281907558441
1782968816774022700,10.231022705078125,0.7588900923728943,0.3857332766056061,0.40977656841278076
1782968816783948500,10.240948486328126,0.7367483377456665,0.4585467576980591,0.35409945249557495
1782968816793874700,10.250874755859375,0.7318181395530701,0.4448988139629364,0.33834561705589294
1782968816803801600,10.260801513671876,0.7501084804534912,0.3814098536968231,0.36221739649772644
1782968816813727700,10.270727783203125,0.7766132950782776,0.3028421401977539,0.4342764914035797
1782968816823653600,10.280653564453125,0.7700057625770569,0.23261432349681854,0.5154757499694824
1782968816833580800,10.290580810546874,0.7286506295204163,0.1417793333530426,0.5781795382499695
1782968816843506700,10.300506591796875,0.6888896822929382,0.050470199435949326,0.6215339303016663
1782968816853432600,10.3104326171875,0.649759829044342,-0.037136416882276535,0.6352381706237793
1782968816863359700,10.32035986328125,0.601944088935852,-0.12200816720724106,0.5852423906326294
1782968816873285600,10.33028564453125,0.5427232384681702,-0.21626684069633484,0.4644010365009308
1782968816883211500,10.34021142578125,0.44251516461372375,-0.31171905994415283,0.2712627351284027
1782968816893138700,10.350138671875,0.2924104630947113,-0.3739294707775116,0.028710918501019478
1782968816903064800,10.36006494140625,0.10716498643159866,-0.3931148946285248,-0.20278728008270264
1782968816912990500,10.369990478515625,-0.07690845429897308,-0.3124716579914093,-0.35656559467315674
1782968816922917600,10.379917724609374,-0.232234925031662,-0.15886715054512024,-0.420614093542099
1782968816932843800,10.38984375,-0.34310489892959595,0.02473120018839836,-0.3951972723007202
1782968816942769400,10.399769287109375,-0.3808533251285553,0.23785918951034546,-0.2773531973361969
1782968816952696600,10.409696533203125,-0.35755112767219543,0.437080979347229,-0.11170419305562973
1782968816962622700,10.419622802734375,-0.3037416934967041,0.5545601844787598,0.022274384275078773
1782968816972548600,10.429548583984374,-0.24354788661003113,0.5332956314086914,0.11524287611246109
1782968816982475500,10.4394755859375,-0.21013133227825165,0.3972233235836029,0.15093936026096344
1782968816992401700,10.449401611328126,-0.23063962161540985,0.19674071669578552,0.08701236546039581
1782968817002327800,10.459327880859375,-0.33441659808158875,-0.008051849901676178,-0.0540693923830986
1782968817012254700,10.469254638671876,-0.49883535504341125,-0.15414534509181976,-0.23133963346481323
1782968817022180600,10.4791806640625,-0.6997058987617493,-0.2249140590429306,-0.4003736674785614
1782968817032106800,10.489106689453125,-0.8906495571136475,-0.1997327208518982,-0.5249609351158142
1782968817042032600,10.49903271484375,-1.060666561126709,-0.08926612883806229,-0.6007009148597717
1782968817051959800,10.508959716796875,-1.182484745979309,0.05626055598258972,-0.6438369154930115
1782968817061885700,10.5188857421875,-1.2387150526046753,0.17840856313705444,-0.6338300704956055
1782968817071811600,10.5288115234375,-1.2275241613388062,0.2645707130432129,-0.5818447470664978
1782968817081738800,10.53873876953125,-1.1933867931365967,0.28959617018699646,-0.5145527720451355
1782968817091664600,10.54866455078125,-1.1783958673477173,0.26560741662979126,-0.4886108338832855
1782968817101590500,10.558590576171875,-1.1923834085464478,0.21577435731887817,-0.5296083092689514
1782968817111517700,10.568517578125,-1.222275733947754,0.15842735767364502,-0.6176367402076721
1782968817121443800,10.57844384765625,-1.2653014659881592,0.1059870645403862,-0.7419562935829163
1782968817131369500,10.588369384765626,-1.3046188354492188,0.0706314742565155,-0.8965170979499817
1782968817141296600,10.598296630859375,-1.3480621576309204,0.010692769661545753,-1.0612714290618896
1782968817151222800,10.608222900390626,-1.3936057090759277,-0.0659632757306099,-1.2079490423202515
1782968817161148700,10.618148681640625,-1.4324464797973633,-0.1656470000743866,-1.303305745124817
1782968817171075600,10.62807568359375,-1.4475228786468506,-0.2775821089744568,-1.3597164154052734
1782968817181001700,10.638001708984374,-1.4399398565292358,-0.38770994544029236,-1.3925294876098633
1782968817190927600,10.647927734375,-1.4031920433044434,-0.44442373514175415,-1.4143577814102173
1782968817200854500,10.6578544921875,-1.34636390209198,-0.43349385261535645,-1.4089460372924805
1782968817210780700,10.66778076171875,-1.2719353437423706,-0.37320318818092346,-1.3872445821762085
1782968817220706800,10.677706787109376,-1.183960199356079,-0.300385981798172,-1.338747262954712
1782968817230633700,10.6876337890625,-1.084045648574829,-0.2105676680803299,-1.2794331312179565
1782968817240559600,10.6975595703125,-0.9901137948036194,-0.13782669603824615,-1.2149258852005005
1782968817250485800,10.70748583984375,-0.9051399827003479,-0.07333879172801971,-1.1565704345703125
1782968817260412700,10.71741259765625,-0.8264986872673035,-0.03755895048379898,-1.0992141962051392
1782968817270338600,10.727338623046874,-0.751026451587677,-0.02452932298183441,-1.047384262084961
1782968817280264700,10.7372646484375,-0.6733947992324829,-0.01856091246008873,-0.9981536865234375
1782968817290191600,10.747191650390626,-0.6108587980270386,0.0006291037425398827,-0.9690426588058472
1782968817300117800,10.75711767578125,-0.5647640228271484,0.02158791571855545,-0.9549399018287659
1782968817310043600,10.767043701171875,-0.5256713032722473,0.04651761054992676,-0.9511237740516663
1782968817319970600,10.776970458984374,-0.48377102613449097,0.10839802026748657,-0.939936101436615
1782968817329896700,10.786896728515625,-0.4459792673587799,0.18578225374221802,-0.9228124022483826
1782968817339822600,10.796822509765626,-0.415752112865448,0.2655404508113861,-0.8980809450149536
1782968817349748700,10.806748779296875,-0.417928010225296,0.3308858275413513,-0.8609676957130432
1782968817359675600,10.816675537109376,-0.4674963653087616,0.3535386621952057,-0.7790701985359192
1782968817369601800,10.826601806640625,-0.516331136226654,0.356571227312088,-0.7355841994285583
1782968817379527700,10.836527587890625,-0.4982738196849823,0.407602995634079,-0.7873451709747314
1782968817389454600,10.84645458984375,-0.3866494297981262,0.47890982031822205,-0.8846222162246704
1782968817399380700,10.856380615234375,-0.19826540350914001,0.4736604690551758,-0.9141457676887512
1782968817409306600,10.866306640625,0.03534075990319252,0.3771358132362366,-0.7888196706771851
1782968817419233500,10.876233642578125,0.2798770070075989,0.2696511745452881,-0.5102125406265259
1782968817429159700,10.88615966796875,0.5028186440467834,0.19277046620845795,-0.11775675415992737
1782968817439085800,10.8960859375,0.7051213979721069,0.10235721617937088,0.30762675404548645
1782968817449012700,10.9060126953125,0.8641530871391296,0.011908767744898796,0.6700054407119751
1782968817458938600,10.915938720703124,0.9504179358482361,-0.0669919103384018,0.8953341841697693
1782968817468864800,10.92586474609375,0.9854708313941956,-0.13823728263378143,1.0048221349716187
1782968817478791700,10.935791748046874,0.9775702953338623,-0.17224052548408508,1.0027142763137817
1782968817488717600,10.945717529296875,0.9409093260765076,-0.18393796682357788,0.9154167175292969
1782968817498643700,10.955643798828126,0.8915098309516907,-0.14911048114299774,0.7805614471435547
1782968817508570600,10.965570556640625,0.8574951887130737,-0.06856651604175568,0.655549943447113
1782968817518496800,10.975496826171875,0.8475485444068909,0.012836993671953678,0.5956658124923706
1782968817528422700,10.985422607421874,0.8480737209320068,0.09933380037546158,0.607363760471344
1782968817538349600,10.995349609375,0.8842016458511353,0.18105076253414154,0.6913031339645386
1782968817548275700,11.005275634765624,0.9479007124900818,0.233070969581604,0.816005527973175
1782968817558201600,11.01520166015625,1.0416051149368286,0.26654133200645447,0.955133855342865
1782968817568128500,11.02512841796875,1.1419180631637573,0.2510690689086914,1.0771785974502563
1782968817578054700,11.0350546875,1.2304834127426147,0.16566656529903412,1.160820484161377
1782968817587980800,11.044980712890625,1.302480936050415,0.04900842532515526,1.1985180377960205
1782968817597907500,11.054907470703125,1.3354591131210327,-0.08509530872106552,1.1833326816558838
1782968817607833600,11.06483349609375,1.3216520547866821,-0.20208823680877686,1.138184666633606
1782968817617759700,11.074759765625,1.267500638961792,-0.2813708186149597,1.0797640085220337
1782968817627686700,11.084686767578125,1.1679694652557373,-0.3425925374031067,1.0005204677581787
1782968817637612500,11.094612548828126,1.0530164241790771,-0.37420159578323364,0.9033305644989014
1782968817647538700,11.10453857421875,0.9270898699760437,-0.369233638048172,0.7969729900360107
1782968817657465600,11.114465576171876,0.8074644207954407,-0.3394935727119446,0.7014994621276855
1782968817667391500,11.1243916015625,0.7015564441680908,-0.29006779193878174,0.6251038312911987
1782968817677317600,11.134317626953125,0.6097828149795532,-0.23652386665344238,0.5636580586433411
1782968817687244500,11.14424462890625,0.5391068458557129,-0.1894911825656891,0.526684582233429
1782968817697170700,11.154170654296875,0.48722073435783386,-0.16137540340423584,0.49521344900131226
1782968817707096600,11.1640966796875,0.4597538709640503,-0.1589023917913437,0.4579439163208008
1782968817717022700,11.174022705078125,0.43903765082359314,-0.16610437631607056,0.4233611822128296
1782968817726949600,11.18394970703125,0.4192715883255005,-0.1505751758813858,0.40192723274230957
1782968817736876300,11.193876220703125,0.401455819606781,-0.0998411625623703,0.3823396861553192
1782968817746802200,11.20380224609375,0.42883843183517456,-0.03533293306827545,0.3693171739578247
1782968817756729000,11.21372900390625,0.4472406208515167,0.04243616387248039,0.3506438732147217
1782968817766655200,11.2236552734375,0.40217697620391846,0.1734868586063385,0.3515378534793854
1782968817776581000,11.2335810546875,0.36197149753570557,0.32704874873161316,0.38762104511260986
1782968817786508000,11.243508056640625,0.38418248295783997,0.42589646577835083,0.4183623492717743
1782968817796434200,11.25343408203125,0.4412556290626526,0.4231821894645691,0.4389384686946869
1782968817806360300,11.2633603515625,0.48343294858932495,0.3548782467842102,0.47574716806411743
1782968817816287000,11.273286865234375,0.5041139721870422,0.2650945484638214,0.5212072730064392
1782968817826213000,11.283213134765624,0.5078154802322388,0.14171288907527924,0.5586016774177551
1782968817836139300,11.29313916015625,0.501073956489563,0.012592445127665997,0.565929114818573
1782968817846066200,11.303066162109374,0.4843459725379944,-0.09418662637472153,0.5470499396324158
1782968817855992000,11.312991943359375,0.4355238378047943,-0.1548164039850235,0.5095949769020081
1782968817865918200,11.322918212890626,0.41425150632858276,-0.18505725264549255,0.44566380977630615
1782968817875845000,11.33284521484375,0.3280212879180908,-0.1739867627620697,0.33093056082725525
1782968817885771000,11.34277099609375,0.29536017775535583,-0.1005469337105751,0.15983638167381287
1782968817895697200,11.352697265625,0.2028382122516632,-0.0656089261174202,-0.06782260537147522
1782968817905624000,11.3626240234375,0.0876040831208229,-0.06507343798875809,-0.271176278591156
1782968817915550200,11.37255029296875,-0.06419903039932251,-0.05108598619699478,-0.3794252574443817
1782968817925476000,11.38247607421875,-0.19085152447223663,0.003835660871118307,-0.3892887234687805
1782968817935403000,11.392403076171876,-0.2591365873813629,0.04655223339796066,-0.3508835434913635
1782968817945329200,11.4023291015625,-0.32247382402420044,0.181449756026268,-0.1394444704055786
1782968817955255000,11.412255126953125,-0.41166627407073975,0.11445260047912598,0.05817858874797821
1782968817965182000,11.422181884765624,-0.465781569480896,0.04181218519806862,0.14008338749408722
1782968817975108000,11.432108154296875,-0.45712894201278687,0.16555649042129517,0.16909347474575043
1782968817985034200,11.4420341796875,-0.44573646783828735,0.27314820885658264,0.13437624275684357
1782968817994960100,11.451960205078125,-0.4528351426124573,0.3017875850200653,0.056067321449518204
1782968818004887000,11.461886962890626,-0.4749894440174103,0.30051034688949585,-0.008577450178563595
1782968818014813200,11.471813232421875,-0.5371931791305542,0.2302795648574829,-0.01815364509820938
1782968818024739000,11.481739013671875,-0.6359184384346008,-0.006583083886653185,-0.041438452899456024
