time,seconds_elapsed,z,y,x
1782968806608225300,0.065225341796875,1.4428561925888062,-0.5040008425712585,0.5972799062728882
1782968806618151400,0.0751513671875,1.3368998765945435,-0.40357887744903564,0.5576099753379822
1782968806628077600,0.08507763671875,1.216774582862854,-0.22742623090744019,0.5583237409591675
1782968806638004500,0.09500439453125,1.0919256210327148,-0.02706916816532612,0.5888078808784485
1782968806647930400,0.104930419921875,0.9836233854293823,0.14301042258739471,0.6273800134658813
1782968806657856500,0.1148564453125,0.9129281640052795,0.27350157499313354,0.6774227023124695
1782968806667783400,0.124783447265625,0.8735698461532593,0.3804842233657837,0.7311484813690186
1782968806677709300,0.134709228515625,0.8649451732635498,0.4436996877193451,0.762336254119873
1782968806687635500,0.144635498046875,0.8597392439842224,0.430000364780426,0.7556727528572083
1782968806697562400,0.154562255859375,0.8482479453086853,0.30299368500709534,0.7317962050437927
1782968806707488500,0.164488525390625,0.818830668926239,0.16656048595905304,0.7390128374099731
1782968806717414400,0.174414306640625,0.7483623623847961,0.08847420662641525,0.747468113899231
1782968806727341300,0.18434130859375,0.6799795627593994,0.04017644748091698,0.7659024596214294
1782968806737267500,0.194267333984375,0.6533799171447754,0.008593488484621048,0.8187078833580017
1782968806747193300,0.204193359375,0.6526299715042114,0.015459117479622364,0.8886851072311401
1782968806757120300,0.214120361328125,0.6416513919830322,0.0191904716193676,0.935539186000824
1782968806767046400,0.22404638671875,0.5805752277374268,-0.005638711154460907,0.9018235802650452
1782968806776972500,0.23397265625,0.46949079632759094,-0.0419011116027832,0.7539110779762268
1782968806786899500,0.2438994140625,0.344668447971344,-0.06931941956281662,0.5519750118255615
1782968806796825300,0.253825439453125,0.20465247333049774,-0.11012410372495651,0.31458908319473267
1782968806806751500,0.26375146484375,0.04115569218993187,-0.14723099768161774,0.09673106670379639
1782968806816678400,0.273678466796875,-0.14258112013339996,-0.2017616182565689,-0.09602373093366623
1782968806826604300,0.283604248046875,-0.32958295941352844,-0.2731255292892456,-0.24780713021755219
1782968806836530400,0.293530517578125,-0.4929732084274292,-0.32015031576156616,-0.3276798725128174
1782968806846457600,0.30345751953125,-0.6294471621513367,-0.31008782982826233,-0.36640435457229614
1782968806856383200,0.31338330078125,-0.7332502603530884,-0.2662663161754608,-0.40869829058647156
1782968806866309400,0.323309326171875,-0.8142076730728149,-0.18551979959011078,-0.46373915672302246
1782968806876236500,0.333236572265625,-0.8538233041763306,-0.07630515843629837,-0.5152473449707031
1782968806886162400,0.343162353515625,-0.8648746013641357,0.0695125013589859,-0.5369728803634644
1782968806896088300,0.35308837890625,-0.8728063106536865,0.26983973383903503,-0.5084251165390015
1782968806906015500,0.363015380859375,-0.875533938407898,0.5055009722709656,-0.42442426085472107
1782968806915941400,0.37294140625,-0.8604212403297424,0.7148637771606445,-0.3186775743961334
1782968806925867300,0.3828671875,-0.8061617612838745,0.8233335614204407,-0.23365376889705658
1782968806935794400,0.39279443359375,-0.6181221008300781,0.6352211833000183,-0.27057263255119324
1782968806945720300,0.40272021484375,-0.5310172438621521,0.6090156435966492,-0.3302444815635681
1782968806955646500,0.412646484375,-0.5132920742034912,0.5778270959854126,-0.39850983023643494
1782968806965573400,0.422573486328125,-0.5952290296554565,0.5767986178398132,-0.42011258006095886
1782968806975499300,0.432499267578125,-0.6362936496734619,0.37666499614715576,-0.44916582107543945
1782968806985425400,0.44242529296875,-0.6695818305015564,0.09911459684371948,-0.478412926197052
1782968806995352600,0.4523525390625,-0.7351789474487305,-0.11922545731067657,-0.5203915238380432
1782968807005278500,0.462278564453125,-0.82173752784729,-0.2829209268093109,-0.5598108172416687
1782968807015204400,0.472204345703125,-0.9052201509475708,-0.36834821105003357,-0.590563952922821
1782968807025131500,0.482131591796875,-0.9462046027183533,-0.38546034693717957,-0.5992876887321472
1782968807035057700,0.4920576171875,-0.9670979380607605,-0.33899936079978943,-0.6085490584373474
1782968807044983300,0.5019833984375,-0.9565920233726501,-0.2309783548116684,-0.658267617225647
1782968807054910500,0.511910400390625,-0.9421430230140686,-0.058221228420734406,-0.7534064054489136
1782968807064836600,0.521836669921875,-0.9465428590774536,0.11398116499185562,-0.8743815422058105
1782968807074762200,0.53176220703125,-0.9827620983123779,0.28704482316970825,-0.9978834986686707
1782968807084689400,0.541689453125,-1.008983850479126,0.4315412938594818,-1.1149848699569702
1782968807094615600,0.551615478515625,-0.9996726512908936,0.49790218472480774,-1.2270456552505493
1782968807104541400,0.56154150390625,-0.9943172931671143,0.5271967053413391,-1.3136920928955078
1782968807114468400,0.57146826171875,-1.0174654722213745,0.571591854095459,-1.3835675716400146
1782968807124394500,0.58139453125,-1.0344711542129517,0.5021507143974304,-1.4378864765167236
1782968807134320400,0.5913203125,-1.0391473770141602,0.3714262843132019,-1.3923181295394897
1782968807144247600,0.60124755859375,-1.033853530883789,0.16433700919151306,-1.2733014822006226
1782968807154173400,0.61117333984375,-1.0232831239700317,-0.09698673337697983,-1.1577248573303223
1782968807164099300,0.621099365234375,-0.9539360404014587,-0.3124617636203766,-1.0376259088516235
1782968807174026500,0.631026611328125,-0.8170703053474426,-0.43970465660095215,-0.9438940286636353
1782968807183952400,0.640952392578125,-0.6550263166427612,-0.48254746198654175,-0.8659595847129822
1782968807193878500,0.65087841796875,-0.5110688805580139,-0.4388793706893921,-0.8143618702888489
1782968807203805400,0.660805419921875,-0.3954485356807709,-0.35133859515190125,-0.7818529605865479
1782968807213731600,0.670731689453125,-0.30384165048599243,-0.22227860987186432,-0.7578975558280945
1782968807223657500,0.680657470703125,-0.22739320993423462,-0.11250550299882889,-0.7469652891159058
1782968807233584400,0.69058447265625,-0.17205005884170532,-0.05188743397593498,-0.7076173424720764
1782968807243510500,0.700510498046875,-0.11848589777946472,-0.00842810608446598,-0.6232497096061707
1782968807253436400,0.7104365234375,-0.07876991480588913,0.16307280957698822,-0.5074624419212341
1782968807263363300,0.72036328125,0.020142817869782448,0.22442804276943207,-0.33648747205734253
1782968807273289500,0.73028955078125,0.13551601767539978,0.2822183668613434,-0.15693289041519165
1782968807283215600,0.740215576171875,0.1607249677181244,0.38650962710380554,-0.07431737333536148
1782968807293142300,0.750142333984375,0.16096358001232147,0.5125038027763367,-0.08694767951965332
1782968807303068400,0.760068359375,0.15731345117092133,0.6164051294326782,-0.16340996325016022
1782968807312994600,0.76999462890625,0.14213983714580536,0.6708806157112122,-0.2684069573879242
1782968807322921500,0.77992138671875,0.11859296262264252,0.6482320427894592,-0.3639521300792694
1782968807332847400,0.789847412109375,0.06803577393293381,0.46973714232444763,-0.42615798115730286
1782968807342773500,0.7997734375,0.02545369416475296,0.23329930007457733,-0.39853885769844055
1782968807352700400,0.809700439453125,0.08992668986320496,0.17343516647815704,-0.34722480177879333
1782968807362626300,0.819626220703125,0.15461833775043488,0.025430524721741676,-0.23738858103752136
1782968807372552400,0.829552490234375,0.20315951108932495,-0.022826751694083214,-0.08497614413499832
1782968807382479400,0.839479248046875,0.30469226837158203,0.03238537162542343,0.08949898928403854
1782968807392405500,0.849405517578125,0.44055554270744324,0.1385355144739151,0.2825582027435303
1782968807402331400,0.859331298828125,0.5728267431259155,0.23619548976421356,0.44939351081848145
1782968807412258300,0.86925830078125,0.691287100315094,0.31033921241760254,0.5714619159698486
1782968807422184400,0.879184326171875,0.7752384543418884,0.35900741815567017,0.6374944448471069
1782968807432110600,0.889110595703125,0.7875223159790039,0.4188755452632904,0.6149433255195618
1782968807442037200,0.899037353515625,0.7839427590370178,0.43966472148895264,0.6263613700866699
1782968807451963400,0.90896337890625,0.739486575126648,0.4225379228591919,0.6458075046539307
1782968807461889500,0.9188896484375,0.6224308013916016,0.3432239294052124,0.6105169057846069
1782968807471816400,0.92881640625,0.5389391183853149,0.2389955371618271,0.5714099407196045
1782968807481742300,0.938742431640625,0.6037077307701111,0.15403936803340912,0.562923789024353
1782968807491668500,0.94866845703125,0.7467663288116455,0.047038882970809937,0.5921245813369751
1782968807501595400,0.958595458984375,0.9261835217475891,-0.005115932319313288,0.6777387857437134
1782968807511521300,0.968521240234375,1.1165978908538818,0.000005858954409632133,0.8142487406730652
1782968807521447400,0.978447509765625,1.302467942237854,0.01540452241897583,0.9816584587097168
1782968807531373600,0.98837353515625,1.4433696269989014,-0.002716158051043749,1.1394803524017334
1782968807541300500,0.998300537109375,1.5176284313201904,-0.03338805213570595,1.26995849609375
1782968807551226400,1.008226318359375,1.5517650842666626,-0.10140864551067352,1.345435619354248
1782968807561153500,1.018153564453125,1.5335026979446411,-0.21387261152267456,1.3605713844299316
1782968807571079400,1.028079345703125,1.4572564363479614,-0.39699769020080566,1.2986699342727661
1782968807581005300,1.03800537109375,1.3118982315063477,-0.6356544494628906,1.1746132373809814
1782968807590931500,1.047931396484375,1.1306400299072266,-0.8654426336288452,1.0217018127441406
1782968807600858400,1.0578583984375,0.9779942631721497,-1.012569546699524,0.8895562291145325
1782968807610784500,1.067784423828125,0.8800503611564636,-1.0490529537200928,0.8008071780204773
1782968807620710400,1.07771044921875,0.8129714727401733,-0.9882751107215881,0.7448278069496155
1782968807630637300,1.08763720703125,0.7824804186820984,-0.8420390486717224,0.7276102304458618
1782968807640563500,1.0975634765625,0.769889235496521,-0.636519730091095,0.7260347008705139
1782968807650489300,1.1074892578125,0.7440669536590576,-0.4357679784297943,0.7278429865837097
1782968807660416300,1.117416259765625,0.7083960771560669,-0.2676985561847687,0.7177602648735046
1782968807670342400,1.12734228515625,0.6536492109298706,-0.13319240510463715,0.69659423828125
1782968807680268500,1.1372685546875,0.5843662619590759,-0.04909777268767357,0.6495484709739685
1782968807690195200,1.1471953125,0.48658135533332825,-0.024895230308175087,0.5851207375526428
1782968807700121300,1.157121337890625,0.3833295404911041,-0.035415779799222946,0.5136086940765381
1782968807710047500,1.167047607421875,0.269546240568161,-0.06999852508306503,0.4365496337413788
1782968807719975400,1.176975341796875,0.16227678954601288,-0.11429408192634583,0.33284133672714233
1782968807729901300,1.1869013671875,0.08884864300489426,-0.1767904907464981,0.2214362472295761
1782968807739827500,1.196827392578125,0.0813734158873558,-0.20560802519321442,0.1445143073797226
1782968807749754400,1.20675439453125,0.1390441656112671,-0.2164529412984848,0.11461099982261658
1782968807759680300,1.21668017578125,0.22485122084617615,-0.17758703231811523,0.07845885306596756
1782968807769606400,1.2266064453125,0.2807895839214325,-0.2769296169281006,0.06883738934993744
1782968807779533300,1.236533203125,0.4047173857688904,-0.4257124364376068,0.0000929443194763735
1782968807789459500,1.24645947265625,0.5222821235656738,-0.06836307793855667,0.18843728303909302
1782968807799385300,1.25638525390625,0.5099580883979797,0.014072675257921219,0.43578609824180603
1782968807809312300,1.266312255859375,0.44826647639274597,-0.1486121118068695,0.6054715514183044
1782968807819238400,1.27623828125,0.35665640234947205,-0.25163328647613525,0.7055009007453918
1782968807829164500,1.28616455078125,0.23407800495624542,-0.269278347492218,0.6781721115112305
1782968807839091200,1.29609130859375,0.0563168004155159,-0.2774209678173065,0.5494948029518127
1782968807849017300,1.306017333984375,-0.09427616745233536,-0.2014625370502472,0.3510019779205322
1782968807858943500,1.315943603515625,-0.25024205446243286,-0.08553913235664368,0.07733739912509918
1782968807868870400,1.325870361328125,-0.43118947744369507,0.05476231500506401,-0.2657312750816345
1782968807878796300,1.33579638671875,-0.5935046076774597,0.18327873945236206,-0.5743849873542786
1782968807888722400,1.345722412109375,-0.702117383480072,0.3141621947288513,-0.7698271870613098
1782968807898649300,1.3556494140625,-0.7760917544364929,0.4179897904396057,-0.8233245015144348
1782968807908575200,1.3655751953125,-0.7888794541358948,0.4999224841594696,-0.7570701241493225
1782968807918501400,1.37550146484375,-0.7422118186950684,0.5633549690246582,-0.6438215970993042
1782968807928428300,1.38542822265625,-0.6441254615783691,0.5044000148773193,-0.5267003178596497
1782968807938354400,1.3953544921875,-0.521602988243103,0.4758911728858948,-0.3597105145454407
1782968807948280300,1.4052802734375,-0.4202324450016022,0.3486562669277191,-0.192324697971344
1782968807958207500,1.41520751953125,-0.35928839445114136,0.0929882600903511,-0.14096644520759583
1782968807968133400,1.42513330078125,-0.3483225703239441,-0.142617866396904,-0.1741182655096054
1782968807978059300,1.435059326171875,-0.3943779468536377,-0.335929811000824,-0.2425553798675537
1782968807987986400,1.444986328125,-0.4743920862674713,-0.4216199517250061,-0.3003297448158264
1782968807997912300,1.454912353515625,-0.5608976483345032,-0.38376790285110474,-0.32460257411003113
1782968808007838500,1.46483837890625,-0.6487526893615723,-0.23728418350219727,-0.33371832966804504
1782968808017765400,1.474765380859375,-0.7157005667686462,0.0006908240029588342,-0.3544691205024719
1782968808027691300,1.484691162109375,-0.7699901461601257,0.27320438623428345,-0.3817684054374695
1782968808037617400,1.494617431640625,-0.8131104707717896,0.5089937448501587,-0.3912697732448578
1782968808047544600,1.504544677734375,-0.8304215669631958,0.6563330888748169,-0.36000877618789673
1782968808057470200,1.51447021484375,-0.8214815855026245,0.6794594526290894,-0.33333829045295715
1782968808067396400,1.524396240234375,-0.795664370059967,0.5695225596427917,-0.33871787786483765
1782968808077323500,1.534323486328125,-0.7726157903671265,0.36942625045776367,-0.38317108154296875
1782968808087249200,1.544249267578125,-0.7698953747749329,0.1222529411315918,-0.45723599195480347
1782968808097175300,1.55417529296875,-0.7878847718238831,-0.1604682356119156,-0.5702152848243713
1782968808107102500,1.5641025390625,-0.8163110613822937,-0.44893786311149597,-0.709967315196991
1782968808117028400,1.5740283203125,-0.8298566937446594,-0.6876420378684998,-0.8507907390594482
1782968808126954200,1.583954345703125,-0.8103581070899963,-0.8329656720161438,-0.9765670299530029
1782968808136881400,1.59388134765625,-0.7890629172325134,-0.8572862148284912,-1.09125554561615
1782968808146807600,1.6038076171875,-0.7988577485084534,-0.7417556047439575,-1.1777307987213135
1782968808156733200,1.613733154296875,-0.8306140899658203,-0.5104169249534607,-1.2137868404388428
1782968808166660400,1.623660400390625,-0.8693782687187195,-0.21693524718284607,-1.1989833116531372
1782968808176586500,1.63358642578125,-0.9121673107147217,0.08887554705142975,-1.1961054801940918
1782968808186512400,1.643512451171875,-0.9373043179512024,0.30495962500572205,-1.0898486375808716
1782968808196439600,1.653439453125,-0.9766240119934082,0.4513320326805115,-0.9445617198944092
1782968808206365400,1.663365478515625,-1.0035896301269531,0.521223247051239,-0.8080645799636841
1782968808216291300,1.673291259765625,-1.0102882385253906,0.5322428345680237,-0.7075875401496887
1782968808226217200,1.68321728515625,-0.9804190397262573,0.5006476640701294,-0.650262176990509
1782968808236144400,1.693144287109375,-0.938143789768219,0.4549592435359955,-0.6322181820869446
1782968808246070300,1.7030703125,-0.918199360370636,0.4567052125930786,-0.696807861328125
1782968808255996400,1.712996337890625,-0.870832085609436,0.47162264585494995,-0.707274854183197
1782968808265923600,1.722923583984375,-0.8772865533828735,0.465490460395813,-0.6844670176506042
1782968808275849200,1.73284912109375,-1.0121830701828003,0.49657168984413147,-0.6866068840026855
1782968808285775400,1.742775390625,-1.2379437685012817,0.500598669052124,-0.6599339842796326
1782968808295702500,1.75270263671875,-1.4366995096206665,0.4849965274333954,-0.632854163646698
1782968808305628400,1.76262841796875,-1.4290496110916138,0.6077703833580017,-0.6806102395057678
1782968808315554300,1.77255419921875,-1.2346028089523315,0.881516695022583,-0.7863150835037231
1782968808325481500,1.7824814453125,-0.8648027181625366,1.2081142663955688,-0.8647563457489014
1782968808335407600,1.79240771484375,-0.48120737075805664,1.413117527961731,-0.8578907251358032
1782968808345333200,1.802333251953125,-0.18964529037475586,1.2262924909591675,-0.6845386624336243
1782968808355260400,1.812260498046875,0.032654084265232086,0.7332188487052917,-0.38881590962409973
1782968808365186600,1.8221865234375,0.2194330245256424,0.15540450811386108,0.026873959228396416
1782968808375112200,1.8321123046875,0.37721386551856995,-0.36764219403266907,0.40542393922805786
1782968808385039400,1.842039306640625,0.5188716650009155,-0.6508025527000427,0.6119608283042908
1782968808394965500,1.851965576171875,0.6762426495552063,-0.7372942566871643,0.7004420161247253
1782968808404891400,1.861891357421875,0.8106318712234497,-0.6931635737419128,0.720806360244751
1782968808414818300,1.871818359375,0.8963472843170166,-0.542892336845398,0.7295135855674744
1782968808424744400,1.881744384765625,0.9406077265739441,-0.32181692123413086,0.7359209060668945
1782968808434670300,1.89167041015625,0.9199762344360352,-0.07932624965906143,0.745902419090271
1782968808444597500,1.901597412109375,0.8743243217468262,0.11794687807559967,0.7600656151771545
1782968808454523400,1.9115234375,0.8441821336746216,0.2358202487230301,0.7611122727394104
1782968808464449300,1.92144921875,0.839754045009613,0.24829688668251038,0.7424240708351135
1782968808474376400,1.93137646484375,0.8805733919143677,0.17260026931762695,0.7308560609817505
1782968808484302300,1.94130224609375,0.9685330986976624,0.048651959747076035,0.748209536075592
1782968808494228500,1.951228515625,1.0829105377197266,-0.10255220532417297,0.7909098267555237
1782968808504155400,1.9611552734375,1.1995761394500732,-0.24372078478336334,0.8578284382820129
1782968808514081500,1.97108154296875,1.2923942804336548,-0.33069056272506714,0.9291028380393982
1782968808524007400,1.98100732421875,1.3569937944412231,-0.3680160939693451,0.9868862628936768
1782968808533934300,1.990934326171875,1.4179474115371704,-0.39100930094718933,1.042099952697754
1782968808543860500,2.000860595703125,1.4746367931365967,-0.4360950291156769,1.0868000984191895
1782968808553786400,2.010786376953125,1.5486021041870117,-0.4744884967803955,1.1512261629104614
1782968808563713300,2.02071337890625,1.6480695009231567,-0.5122965574264526,1.2312952280044556
1782968808573639400,2.030639404296875,1.737624168395996,-0.5384437441825867,1.2714788913726807
1782968808583565600,2.040565673828125,1.774390697479248,-0.5304760932922363,1.2313274145126343
1782968808593492200,2.0504921875,1.741292953491211,-0.4910655915737152,1.0970183610916138
1782968808603418400,2.06041845703125,1.64408540725708,-0.4307505786418915,0.905735194683075
1782968808613344500,2.070344482421875,1.4998608827590942,-0.3727298974990845,0.7084141373634338
1782968808623271400,2.080271484375,1.3336495161056519,-0.27191832661628723,0.5421996116638184
1782968808633197300,2.090197265625,1.1799931526184082,-0.1516481190919876,0.4064982533454895
1782968808643123500,2.10012353515625,1.0495408773422241,-0.02774640917778015,0.32290855050086975
1782968808653050400,2.11005029296875,0.9503751397132874,0.09582825750112534,0.29169362783432007
1782968808662976500,2.1199765625,0.8751245737075806,0.2012191265821457,0.29078763723373413
1782968808672902400,2.12990234375,0.8285126090049744,0.27525821328163147,0.2990269064903259
1782968808682829300,2.139829345703125,0.7985919713973999,0.30717992782592773,0.28957587480545044
1782968808692755500,2.14975537109375,0.7690644860267639,0.27424725890159607,0.2777152359485626
1782968808702681300,2.159681396484375,0.739400327205658,0.20489269495010376,0.2798963785171509
1782968808712607500,2.169607421875,0.7242327928543091,0.1037098839879036,0.28802087903022766
1782968808722533600,2.17953369140625,0.7259153723716736,-0.028130970895290375,0.29437676072120667
1782968808732459500,2.18945947265625,0.7545462250709534,-0.16346561908721924,0.30238357186317444
1782968808742385700,2.1993857421875,0.7930757999420166,-0.2532849907875061,0.31704214215278625
1782968808752312600,2.2093125,0.8328918814659119,-0.30338889360427856,0.3310239911079407
1782968808762238700,2.21923876953125,0.8613184690475464,-0.3198397755622864,0.34809166193008423
1782968808772164600,2.22916455078125,0.8644993901252747,-0.29795151948928833,0.3695996105670929
1782968808782091500,2.239091552734375,0.8221228718757629,-0.2539404034614563,0.4100370705127716
1782968808792017700,2.249017578125,0.7359909415245056,-0.20947785675525665,0.4588128626346588
1782968808801943600,2.258943603515625,0.6105691194534302,-0.17052672803401947,0.46151623129844666
1782968808811870500,2.268870361328125,0.45522797107696533,-0.15283694863319397,0.398611843585968
1782968808821796600,2.278796630859375,0.2785634398460388,-0.16169914603233337,0.2533204257488251
1782968808831722800,2.28872265625,0.09637527167797089,-0.2036772221326828,0.060867078602313995
1782968808841649400,2.2986494140625,-0.06766799092292786,-0.254675954580307,-0.14299017190933228
1782968808851575600,2.308575439453125,-0.21890677511692047,-0.27434632182121277,-0.3213393986225128
1782968808861501700,2.318501708984375,-0.3558103144168854,-0.22397556900978088,-0.44626855850219727
1782968808871428600,2.3284287109375,-0.4548324942588806,-0.09444394707679749,-0.4928176999092102
1782968808881354500,2.3383544921875,-0.5166375637054443,0.09155628085136414,-0.4519016742706299
1782968808891280600,2.34828076171875,-0.5353994965553284,0.28170305490493774,-0.34839552640914917
1782968808901207800,2.358207763671875,-0.5135146975517273,0.41932642459869385,-0.20518404245376587
1782968808911133400,2.368133544921875,-0.47775617241859436,0.4569646120071411,-0.07252267003059387
1782968808921059600,2.3780595703125,-0.4530697464942932,0.38045254349708557,0.025849707424640656
1782968808930986800,2.38798681640625,-0.4328092038631439,0.21187523007392883,0.07530754059553146
1782968808940912600,2.39791259765625,-0.42858996987342834,-0.0033931334037333727,0.08957862108945847
1782968808950838500,2.407838623046875,-0.4607873260974884,-0.21495571732521057,0.055085889995098114
1782968808960765700,2.417765625,-0.5263473987579346,-0.40211814641952515,-0.04152773693203926
1782968808970691600,2.427691650390625,-0.6132599711418152,-0.5637922883033752,-0.18153490126132965
1782968808980617500,2.437617431640625,-0.6970571279525757,-0.6526910066604614,-0.3335478603839874
1782968808990544600,2.447544677734375,-0.7804806232452393,-0.6396446824073792,-0.4732937812805176
1782968809000470500,2.457470458984375,-0.8625813722610474,-0.5284353494644165,-0.6018107533454895
1782968809010396700,2.467396728515625,-0.9479529857635498,-0.33720651268959045,-0.7146920561790466
1782968809020323800,2.47732373046875,-1.0237486362457275,-0.09530894458293915,-0.7959469556808472
1782968809030249500,2.48724951171875,-1.1077064275741577,0.1610615849494934,-0.8518053889274597
1782968809040175600,2.497175537109375,-1.185996651649475,0.3620050847530365,-0.8660330772399902
1782968809050102800,2.507102783203125,-1.244475245475769,0.5165467262268066,-0.8425021767616272
1782968809060028700,2.517028564453125,-1.2758173942565918,0.5891455411911011,-0.8059723973274231
1782968809069954600,2.52695458984375,-1.276553750038147,0.5681267976760864,-0.7792366743087769
1782968809079881700,2.5368818359375,-1.2564927339553833,0.48185107111930847,-0.7791668772697449
1782968809089808000,2.546807861328125,-1.2273143529891968,0.3505231440067291,-0.7987397909164429
1782968809099733500,2.5567333984375,-1.2037773132324219,0.19810137152671814,-0.8333113789558411
1782968809109660700,2.56666064453125,-1.176574945449829,0.045525673776865005,-0.8867008090019226
1782968809119586800,2.5765869140625,-1.1402838230133057,-0.07922983914613724,-0.9604330658912659
1782968809129512400,2.586512451171875,-1.0940518379211426,-0.16121338307857513,-1.0250896215438843
1782968809139439600,2.596439697265625,-1.054551601409912,-0.20024308562278748,-1.0659387111663818
1782968809149365800,2.60636572265625,-1.013153314590454,-0.21981172263622284,-1.0556775331497192
1782968809159291600,2.616291748046875,-0.9663857817649841,-0.2117956131696701,-1.0123682022094727
1782968809169217500,2.626217529296875,-0.9223229885101318,-0.20533157885074615,-0.9648395776748657
1782968809179144700,2.636144775390625,-0.8745858073234558,-0.21091942489147186,-0.9071688055992126
1782968809189070600,2.646070556640625,-0.8322359919548035,-0.2222951203584671,-0.8484812378883362
1782968809198996500,2.65599658203125,-0.7947988510131836,-0.22886274755001068,-0.7950185537338257
1782968809208923600,2.665923583984375,-0.7616997361183167,-0.2067880630493164,-0.7594749331474304
1782968809218849500,2.675849609375,-0.7436379194259644,-0.16265521943569183,-0.7440112829208374
1782968809228775700,2.685775634765625,-0.7336151003837585,-0.10994567722082138,-0.7348217964172363
1782968809238702600,2.69570263671875,-0.7336691617965698,-0.06726852059364319,-0.7248655557632446
1782968809248628700,2.705628662109375,-0.7113897204399109,-0.0393063947558403,-0.6715664267539978
1782968809258554600,2.7155546875,-0.6526023149490356,-0.01769058033823967,-0.588697075843811
1782968809268481800,2.725481689453125,-0.5678397417068481,-0.003260508179664612,-0.48623114824295044
1782968809278407700,2.73540771484375,-0.4915598928928375,0.008422247134149075,-0.3870182931423187
1782968809288333600,2.74533349609375,-0.4449862539768219,0.021938055753707886,-0.2830444872379303
1782968809298260700,2.7552607421875,-0.42402878403663635,0.07125101238489151,-0.1912969946861267
1782968809308186600,2.7651865234375,-0.41420650482177734,0.14312173426151276,-0.15628308057785034
1782968809318112500,2.775112548828125,-0.3811851739883423,0.2378370612859726,-0.20437151193618774
1782968809328039700,2.785039794921875,-0.30594635009765625,0.31958040595054626,-0.281648188829422
1782968809337965800,2.7949658203125,-0.2399183213710785,0.33494362235069275,-0.2910915017127991
1782968809347891500,2.804891357421875,-0.1873517781496048,0.27244722843170166,-0.19682811200618744
1782968809357818600,2.814818603515625,-0.1400708258152008,0.16050978004932404,-0.0524219274520874
1782968809367744800,2.824744873046875,-0.07601114362478256,0.05260701850056648,0.11159496754407883
1782968809377670400,2.83467041015625,0.02280811034142971,-0.009868609718978405,0.25676229596138
1782968809387597600,2.84459765625,0.14559395611286163,-0.0255168117582798,0.3747919797897339
1782968809397523700,2.854523681640625,0.26799923181533813,0.02189704217016697,0.456782728433609
1782968809407449600,2.86444970703125,0.37254855036735535,0.09551852941513062,0.5021728277206421
1782968809417376800,2.874376708984375,0.4593127369880676,0.15857233107089996,0.5282680988311768
1782968809427302700,2.884302734375,0.5197574496269226,0.17746107280254364,0.5445189476013184
1782968809437228800,2.894228759765625,0.5609727501869202,0.15899710357189178,0.5464622974395752
1782968809447155700,2.90415576171875,0.5808037519454956,0.13435913622379303,0.5391271114349365
1782968809457081600,2.91408154296875,0.5861090421676636,0.1059434786438942,0.5330356955528259
1782968809467007700,2.9240078125,0.5901927351951599,0.09921739995479584,0.5461863875389099
1782968809476934700,2.9339345703125,0.6084417700767517,0.10471682250499725,0.5667837858200073
1782968809486860800,2.94386083984375,0.6497372388839722,0.12820057570934296,0.5917075276374817
1782968809496786700,2.95378662109375,0.7057419419288635,0.16840419173240662,0.6215277314186096
1782968809506713600,2.963713623046875,0.7729129791259766,0.1959359496831894,0.6424024105072021
1782968809516639700,2.9736396484375,0.8405405282974243,0.20573531091213226,0.6615827679634094
1782968809526565600,2.983565673828125,0.900569498538971,0.19482141733169556,0.7102946043014526
1782968809536492500,2.993492431640625,0.9535259008407593,0.16379186511039734,0.7837786674499512
1782968809546418700,3.003418701171875,1.0050759315490723,0.10438179969787598,0.8585221767425537
1782968809556344800,3.0133447265625,1.063623070716858,0.028306739404797554,0.9137585163116455
1782968809566270500,3.0232705078125,1.121130108833313,-0.05312420427799225,0.9451957941055298
1782968809576197600,3.03319775390625,1.1707112789154053,-0.14873221516609192,0.9484483003616333
1782968809586123800,3.043123779296875,1.2049912214279175,-0.23864160478115082,0.914766788482666
1782968809596049700,3.053049560546875,1.2070093154907227,-0.31589698791503906,0.852601170539856
1782968809605976600,3.0629765625,1.1827481985092163,-0.35583239793777466,0.7686614990234375
1782968809615902700,3.07290283203125,1.1249953508377075,-0.3898814618587494,0.6597867012023926
1782968809625828900,3.082828857421875,1.05448579788208,-0.41656285524368286,0.5452558398246765
1782968809635755500,3.092755615234375,0.989702582359314,-0.4247843027114868,0.45237040519714355
1782968809645681700,3.102681640625,0.9334344863891602,-0.40609318017959595,0.37702396512031555
1782968809655607800,3.11260791015625,0.8964663743972778,-0.37705913186073303,0.31754812598228455
1782968809665534700,3.12253466796875,0.8597773313522339,-0.3422095477581024,0.2642095386981964
1782968809675460600,3.132460693359375,0.8211963772773743,-0.3015159070491791,0.23026515543460846
1782968809685386800,3.14238671875,0.774515688419342,-0.2521129250526428,0.2181863933801651
1782968809695313700,3.152313720703125,0.7323498725891113,-0.20563438534736633,0.22962680459022522
1782968809705239600,3.162239501953125,0.6926708817481995,-0.16669417917728424,0.24279853701591492
1782968809715165700,3.172165771484375,0.6531850099563599,-0.11547413468360901,0.2533734142780304
1782968809725092900,3.1820927734375,0.6180770993232727,-0.06631457805633545,0.25287488102912903
1782968809735019000,3.19201904296875,0.5940313935279846,-0.03262638673186302,0.23402048647403717
1782968809744945000,3.20194482421875,0.5719255805015564,-0.03364371508359909,0.22175902128219604
1782968809754871800,3.211871826171875,0.5669952630996704,-0.05007541924715042,0.2264091670513153
1782968809764798000,3.2217978515625,0.5639855861663818,-0.10128134489059448,0.24058623611927032
1782968809774724000,3.23172412109375,0.5619717240333557,-0.19122855365276337,0.26158446073532104
1782968809784650800,3.241650634765625,0.5478929281234741,-0.2994554042816162,0.2981230318546295
1782968809794577000,3.251576904296875,0.5223689079284668,-0.3860185444355011,0.33342936635017395
1782968809804503000,3.2615029296875,0.46261557936668396,-0.43509793281555176,0.3396925926208496
1782968809814430000,3.271429931640625,0.370819091796875,-0.4313356876373291,0.2856743633747101
1782968809824355800,3.28135595703125,0.2405281811952591,-0.3826829195022583,0.1885821670293808
1782968809834282000,3.291281982421875,0.07115593552589417,-0.28459444642066956,0.08068232983350754
1782968809844209000,3.301208984375,-0.10683190822601318,-0.13616636395454407,-0.010275807231664658
1782968809854134800,3.311134765625,-0.2652553617954254,0.06630658358335495,-0.05858874320983887
1782968809864061000,3.32106103515625,-0.3759605884552002,0.28470417857170105,-0.06753882765769958
1782968809873987800,3.33098779296875,-0.4364827871322632,0.4763321876525879,-0.05462915822863579
1782968809883914000,3.3409140625,-0.44391751289367676,0.5766974091529846,-0.015689214691519737
1782968809893840000,3.35083984375,-0.4189482629299164,0.5644000172615051,0.018701516091823578
1782968809903766800,3.360766845703125,-0.3728281557559967,0.43849772214889526,0.03784910961985588
1782968809913693000,3.37069287109375,-0.3208499252796173,0.25797829031944275,0.043960534036159515
1782968809923618800,3.380618896484375,-0.28867998719215393,0.0799904391169548,0.019478626549243927
1782968809933545700,3.390545654296875,-0.2773013710975647,-0.07716882228851318,-0.037762824445962906
1782968809943471900,3.400471923828125,-0.3003142774105072,-0.20717449486255646,-0.12118900567293167
1782968809953398000,3.41039794921875,-0.36118295788764954,-0.28493931889533997,-0.2099473774433136
1782968809963324700,3.42032470703125,-0.44266796112060547,-0.29095566272735596,-0.302234947681427
1782968809973250800,3.430250732421875,-0.54850172996521,-0.21539060771465302,-0.3917882740497589
1782968809983177000,3.440177001953125,-0.6753225326538086,-0.08408664911985397,-0.47645869851112366
1782968809993104000,3.450103759765625,-0.7959266901016235,0.07076418399810791,-0.5345073342323303
1782968810003029800,3.46002978515625,-0.8946791291236877,0.24767690896987915,-0.5446638464927673
1782968810012956000,3.469955810546875,-0.963922917842865,0.43025949597358704,-0.5280795693397522
1782968810022882000,3.479882080078125,-1.0077987909317017,0.5716081261634827,-0.492836594581604
1782968810032808700,3.48980859375,-1.019887924194336,0.6694797873497009,-0.4594346880912781
1782968810042734800,3.49973486328125,-1.0017967224121094,0.7048958539962769,-0.4370918571949005
1782968810052661000,3.509660888671875,-0.9671261310577393,0.6606847047805786,-0.443816602230072
1782968810062588000,3.519587890625,-0.9124847650527954,0.5499933362007141,-0.4796006977558136
1782968810072513800,3.529513671875,-0.8647167086601257,0.3964807689189911,-0.529889702796936
1782968810082440000,3.53943994140625,-0.8274129629135132,0.2470071166753769,-0.5689423084259033
1782968810092366800,3.549366943359375,-0.8098528981208801,0.1280679553747177,-0.6150496006011963
1782968810102292700,3.559292724609375,-0.8238427639007568,0.024765800684690475,-0.6821820139884949
1782968810112219000,3.569218994140625,-0.8544893264770508,-0.07443295419216156,-0.7488617300987244
1782968810122145800,3.579145751953125,-0.8801332116127014,-0.14673005044460297,-0.7916925549507141
1782968810132072000,3.589072021484375,-0.8868659138679504,-0.17725467681884766,-0.7983517646789551
1782968810141997800,3.598997802734375,-0.8718613982200623,-0.17182981967926025,-0.7872655391693115
1782968810151924700,3.6089248046875,-0.8355675935745239,-0.12588974833488464,-0.7722520232200623
1782968810161851000,3.618850830078125,-0.779079020023346,-0.06493798643350601,-0.7584853172302246
1782968810171776800,3.62877685546875,-0.7235379815101624,0.003495931625366211,-0.7302517890930176
1782968810181703700,3.63870361328125,-0.676344096660614,0.0712166577577591,-0.7039661407470703
1782968810191629800,3.6486298828125,-0.6487974524497986,0.10895098745822906,-0.6698481440544128
1782968810201556000,3.658555908203125,-0.6461151242256165,0.10786174982786179,-0.616489589214325
1782968810211483000,3.66848291015625,-0.6314200162887573,0.08037020266056061,-0.5525113940238953
1782968810221408800,3.67840869140625,-0.5937219262123108,0.0427224300801754,-0.4862633943557739
1782968810231335000,3.6883349609375,-0.5463272333145142,0.002246642718091607,-0.4454938471317291
1782968810241262000,3.698261962890625,-0.4893079102039337,-0.046725694090127945,-0.4280618727207184
1782968810251187700,3.708187744140625,-0.46259400248527527,-0.09539443254470825,-0.4258570373058319
1782968810261113900,3.71811376953125,-0.4701017141342163,-0.12950313091278076,-0.43728306889533997
1782968810271041000,3.728041015625,-0.49421000480651855,-0.12471822649240494,-0.4532313942909241
1782968810280967000,3.737966796875,-0.5226658582687378,-0.06955031305551529,-0.44926169514656067
1782968810290892800,3.747892822265625,-0.5661134719848633,0.026491794735193253,-0.4266170859336853
1782968810300820000,3.757820068359375,-0.6254870295524597,0.15100416541099548,-0.39178189635276794
1782968810310745900,3.767745849609375,-0.7023067474365234,0.28539207577705383,-0.3738159239292145
1782968810320671700,3.777671630859375,-0.7626049518585205,0.4021351933479309,-0.40266409516334534
1782968810330599000,3.787598876953125,-0.7146366238594055,0.5709133148193359,-0.5403697490692139
1782968810340524800,3.79752490234375,-0.5858035683631897,0.6722542643547058,-0.6417379379272461
1782968810350451000,3.807450927734375,-0.42992979288101196,0.6251296401023865,-0.6075149774551392
1782968810360377900,3.8173779296875,-0.27347469329833984,0.4436594545841217,-0.4407632648944855
1782968810370303700,3.8273037109375,-0.11368688195943832,0.19227224588394165,-0.20055361092090607
1782968810380230000,3.83722998046875,0.060505688190460205,-0.032047681510448456,0.029922744259238243
1782968810390155800,3.84715576171875,0.24326911568641663,-0.1944269984960556,0.20120927691459656
1782968810400083000,3.8570830078125,0.43346676230430603,-0.284638375043869,0.3050403296947479
1782968810410008800,3.8670087890625,0.59609055519104,-0.30752718448638916,0.368470162153244
1782968810419935000,3.87693505859375,0.7134411334991455,-0.2874448299407959,0.40238311886787415
1782968810429862000,3.88686181640625,0.7921921610832214,-0.2611527740955353,0.44009214639663696
1782968810439787800,3.896787841796875,0.8193712830543518,-0.22963398694992065,0.4729744791984558
1782968810449714000,3.9067138671875,0.8146764039993286,-0.183489128947258,0.49071672558784485
1782968810459641000,3.91664111328125,0.7857374548912048,-0.10297005623579025,0.4909486770629883
1782968810469566700,3.926566650390625,0.7375302314758301,0.017794709652662277,0.46750539541244507
1782968810479492900,3.936492919921875,0.6932234764099121,0.14152278006076813,0.4523070156574249
1782968810489420000,3.946419921875,0.6809921264648438,0.23141297698020935,0.45623651146888733
1782968810499345700,3.956345703125,0.6952855587005615,0.2781123220920563,0.4894956648349762
1782968810509271800,3.966271728515625,0.736264705657959,0.3077881932258606,0.5398941040039062
1782968810519199000,3.976198974609375,0.7805253863334656,0.31187108159065247,0.6014125943183899
1782968810529124900,3.986124755859375,0.8488476872444153,0.2878895699977875,0.6798499226570129
1782968810539049000,3.996049072265625,0.9272692799568176,0.2363550066947937,0.7707960605621338
1782968810548975000,4.00597509765625,1.0189377069473267,0.1693757176399231,0.8654354810714722
1782968810558901800,4.01590185546875,1.1102449893951416,0.09321223199367523,0.9585877656936646
1782968810568828000,4.025827880859375,1.182163119316101,-0.015871373936533928,1.0248762369155884
1782968810578754000,4.035754150390625,1.218636393547058,-0.16373780369758606,1.0607658624649048
1782968810588681000,4.045680908203125,1.2078663110733032,-0.36177632212638855,1.06325101852417
1782968810598606800,4.05560693359375,1.1293967962265015,-0.5843726396560669,1.040947675704956
1782968810608533000,4.065532958984375,0.9796683192253113,-0.7952761054039001,0.9968262314796448
1782968810618460000,4.0754599609375,0.7689558267593384,-0.9576034545898438,0.9057578444480896
1782968810628385800,4.0853857421875,0.5621871948242188,-1.0395934581756592,0.7566871643066406
1782968810638312000,4.09531201171875,0.3846195936203003,-0.9845756888389587,0.576067328453064
1782968810648238800,4.10523876953125,0.2397172600030899,-0.8133065104484558,0.4063701629638672
1782968810658165000,4.1151650390625,0.12333258986473083,-0.5565729737281799,0.2842109501361847
1782968810668091000,4.1250908203125,0.06440162658691406,-0.2796766459941864,0.23929141461849213
1782968810678017800,4.135017822265625,0.05812695249915123,0.009289904497563839,0.24411652982234955
1782968810687944000,4.14494384765625,0.06966110318899155,0.27224668860435486,0.26857686042785645
1782968810697869800,4.154869873046875,0.07244224101305008,0.5011424422264099,0.2794305682182312
1782968810707796700,4.164796630859375,0.05350077524781227,0.6486603021621704,0.2749498188495636
1782968810717723000,4.174722900390625,0.014414358884096146,0.7375022768974304,0.26898059248924255
1782968810727649000,4.18464892578125,-0.031504396349191666,0.765106737613678,0.2638116776943207
1782968810737575200,4.1945751953125,-0.06399363279342651,0.7477309107780457,0.26742371916770935
1782968810747502000,4.204502197265625,-0.06656517833471298,0.6821340918540955,0.29837045073509216
1782968810757428200,4.21442822265625,-0.017350761219859123,0.5742161273956299,0.3516989052295685
1782968810767354000,4.22435400390625,0.08641930669546127,0.43177005648612976,0.43055272102355957
1782968810777281000,4.234281005859375,0.2181278020143509,0.2707497477531433,0.5260257124900818
1782968810787207200,4.244207275390625,0.33644673228263855,0.10923940688371658,0.6309635639190674
1782968810797133000,4.254133056640625,0.4209275245666504,-0.03952024504542351,0.7291516661643982
1782968810807060000,4.26406005859375,0.46895575523376465,-0.1554684191942215,0.7971045970916748
1782968810816986000,4.273986083984375,0.47112011909484863,-0.2207598090171814,0.8241665959358215
1782968810826912300,4.283912353515625,0.420693963766098,-0.2471245676279068,0.7962316274642944
1782968810836839000,4.2938388671875,0.3381540775299072,-0.2413918524980545,0.7076037526130676
1782968810846765000,4.30376513671875,0.24767877161502838,-0.21967962384223938,0.5523353219032288
1782968810856691200,4.313691162109375,0.15659840404987335,-0.20486606657505035,0.3399791419506073
1782968810866618000,4.3236181640625,0.0642935037612915,-0.1939750611782074,0.09935455024242401
1782968810876544000,4.3335439453125,-0.03979215398430824,-0.21689289808273315,-0.1619817167520523
1782968810886470100,4.34347021484375,-0.1476520448923111,-0.24952301383018494,-0.4144778847694397
1782968810896397000,4.35339697265625,-0.26189711689949036,-0.2336636185646057,-0.6225895285606384
1782968810906323000,4.363322998046875,-0.3740207254886627,-0.15679840743541718,-0.7493495941162109
1782968810916249000,4.3732490234375,-0.5194764733314514,-0.15420767664909363,-0.807918906211853
1782968810926176000,4.383176025390625,-0.5112220048904419,0.12677711248397827,-0.7250741124153137
1782968810936102100,4.39310205078125,-0.4352414906024933,0.30341634154319763,-0.6130807399749756
1782968810946029000,4.403029052734375,-0.3460186719894409,0.40420445799827576,-0.504725456237793
1782968810955955000,4.412954833984375,-0.25250309705734253,0.4592200517654419,-0.36311057209968567
1782968810965882000,4.422882080078125,-0.14992345869541168,0.3208794891834259,-0.17899984121322632
1782968810975808300,4.432808349609375,-0.07523350417613983,0.11269991844892502,-0.006449377164244652
1782968810985734000,4.44273388671875,-0.03032541461288929,-0.08863106369972229,0.12344523519277573
1782968810995661000,4.4526611328125,-0.010659834370017052,-0.3046376705169678,0.1928381621837616
1782968811005587200,4.462587158203125,-0.014784272760152817,-0.4744506776332855,0.20641176402568817
1782968811015512800,4.472512939453125,-0.042158372700214386,-0.5800442099571228,0.16574741899967194
1782968811025440000,4.48243994140625,-0.08980951458215714,-0.6173388361930847,0.07270589470863342
1782968811035366100,4.4923662109375,-0.14491137862205505,-0.5928281545639038,-0.04999072849750519
1782968811045292000,4.5022919921875,-0.2047472894191742,-0.5051670074462891,-0.1947854608297348
1782968811055219200,4.51221923828125,-0.2827259600162506,-0.35457301139831543,-0.34259676933288574
1782968811065145000,4.52214501953125,-0.3968943655490875,-0.16962072253227234,-0.5090131759643555
1782968811075071000,4.532071044921875,-0.556877076625824,0.01829192228615284,-0.6844728589057922
1782968811084998100,4.541998046875,-0.7183634638786316,0.20425006747245789,-0.8652415871620178
1782968811094924000,4.551924072265625,-0.8770527243614197,0.35683587193489075,-1.0439857244491577
1782968811104850200,4.56185009765625,-1.0128546953201294,0.47004127502441406,-1.1993935108184814
1782968811114777000,4.571777099609375,-1.1191010475158691,0.5490471124649048,-1.299785852432251
1782968811124703200,4.581703125,-1.1930506229400635,0.6189745664596558,-1.3511486053466797
1782968811134629000,4.591629150390625,-1.2482930421829224,0.6638437509536743,-1.3651208877563477
1782968811144556000,4.60155615234375,-1.2643541097640991,0.6875131130218506,-1.3363438844680786
1782968811154482200,4.611482177734375,-1.2236777544021606,0.6882630586624146,-1.2641146183013916
1782968811164408000,4.621407958984375,-1.1278431415557861,0.6575930714607239,-1.1602535247802734
1782968811174335000,4.6313349609375,-0.997398853302002,0.5756366848945618,-1.0213984251022339
1782968811184261000,4.64126123046875,-0.8500090837478638,0.4516843557357788,-0.8632609844207764
1782968811194187300,4.651187255859375,-0.7119777202606201,0.30728989839553833,-0.6931982040405273
1782968811204114000,4.661114013671875,-0.5913591980934143,0.15446573495864868,-0.5378554463386536
1782968811214040000,4.6710400390625,-0.49050021171569824,0.009646502323448658,-0.41953176259994507
1782968811223966200,4.68096630859375,-0.4076410233974457,-0.09378348290920258,-0.34904879331588745
1782968811233893000,4.69089306640625,-0.35596904158592224,-0.1423821747303009,-0.3216443359851837
1782968811243819000,4.700819091796875,-0.3296719193458557,-0.1474035680294037,-0.312019407749176
1782968811253745200,4.7107451171875,-0.3193838596343994,-0.1194574236869812,-0.3169233500957489
1782968811263672000,4.720672119140625,-0.3286234140396118,-0.08007139712572098,-0.32181504368782043
1782968811273598000,4.730597900390625,-0.3667638897895813,-0.046607181429862976,-0.3198949098587036
1782968811283524000,4.740524169921875,-0.4278053939342499,-0.00827737059444189,-0.37161457538604736
1782968811293451000,4.750450927734375,-0.5257138609886169,0.03416303172707558,-0.42964884638786316
1782968811303377200,4.760377197265625,-0.6523964405059814,0.01347772590816021,-0.4292179346084595
1782968811313303000,4.770302978515625,-0.8190738558769226,0.0669603943824768,-0.4772096872329712
1782968811323229200,4.780229248046875,-0.9799010753631592,0.26657602190971375,-0.611933171749115
1782968811333156000,4.790156005859375,-1.047075629234314,0.5821390748023987,-0.8577203154563904
1782968811343082000,4.80008203125,-1.0148990154266357,0.8477073311805725,-1.0280240774154663
1782968811353008000,4.810008056640625,-0.9014163613319397,0.9639700055122375,-1.0258978605270386
1782968811362935000,4.81993505859375,-0.7336979508399963,0.845198392868042,-0.82076096534729
1782968811372861200,4.829861083984375,-0.5600654482841492,0.4525935649871826,-0.42478030920028687
1782968811382787000,4.839787109375,-0.3997838795185089,-0.036491699516773224,0.03353399038314819
1782968811392714000,4.8497138671875,-0.21540366113185883,-0.44976022839546204,0.43146830797195435
1782968811402640100,4.85964013671875,-0.0017933726776391268,-0.6740673780441284,0.6848385334014893
1782968811412566000,4.86956591796875,0.20535022020339966,-0.7242652773857117,0.7948601245880127
1782968811422493000,4.879492919921875,0.3688832223415375,-0.6220124363899231,0.8210943937301636
1782968811432419000,4.889419189453125,0.4793308973312378,-0.43694591522216797,0.799029529094696
1782968811442345200,4.89934521484375,0.5270459651947021,-0.2279985398054123,0.7327905893325806
1782968811452271900,4.90927197265625,0.5059435963630676,-0.010476876050233841,0.6377514600753784
1782968811462198000,4.919197998046875,0.43887296319007874,0.17703735828399658,0.5356197357177734
1782968811472124200,4.929124267578125,0.376949667930603,0.30136969685554504,0.44190603494644165
1782968811482051000,4.939051025390625,0.36061811447143555,0.34918490052223206,0.3817172646522522
1782968811491977000,4.94897705078125,0.38885053992271423,0.3321361243724823,0.3630032241344452
1782968811501903000,4.958903076171875,0.45093202590942383,0.2892906665802002,0.3902766704559326
1782968811511830000,4.968830078125,0.5390147566795349,0.2418198138475418,0.45414724946022034
1782968811521756200,4.978756103515625,0.6382835507392883,0.19926996529102325,0.5303735733032227
1782968811531682000,4.98868212890625,0.7381970882415771,0.1711062341928482,0.6230912804603577
1782968811541609000,4.99860888671875,0.8331196308135986,0.16810618340969086,0.7325791716575623
1782968811551535000,5.00853515625,0.9173088073730469,0.19291485846042633,0.8405562043190002
1782968811561461000,5.0184609375,0.9685773253440857,0.2359030693769455,0.9279806017875671
1782968811571388000,5.028387939453125,1.0202860832214355,0.2668364942073822,0.9997711777687073
1782968811581314000,5.03831396484375,1.0900472402572632,0.2649155557155609,1.0493746995925903
1782968811591240200,5.048240234375,1.1697133779525757,0.21514905989170074,1.074589729309082
1782968811601166800,5.058166748046875,1.239556908607483,0.11149536818265915,1.0637123584747314
1782968811611093000,5.068093017578125,1.2780286073684692,-0.038731418550014496,1.0082730054855347
1782968811621019100,5.07801904296875,1.281252145767212,-0.2230519950389862,0.9178478121757507
1782968811630946000,5.087946044921875,1.2437005043029785,-0.3952498435974121,0.8165352940559387
1782968811640872000,5.097871826171875,1.171195149421692,-0.5249969363212585,0.7288470268249512
1782968811650798000,5.107798095703125,1.0606073141098022,-0.5751977562904358,0.6612647771835327
1782968811660725000,5.11772509765625,0.9195128083229065,-0.5277886986732483,0.5819931030273438
1782968811670651000,5.12765087890625,0.7679211497306824,-0.41171324253082275,0.4938797652721405
1782968811680577000,5.137576904296875,0.6259560585021973,-0.23942643404006958,0.40192320942878723
1782968811690504200,5.147504150390625,0.5148904919624329,-0.025584988296031952,0.30643850564956665
1782968811700430000,5.15743017578125,0.4284093976020813,0.18767695128917694,0.22057604789733887
1782968811710356000,5.16735595703125,0.36043354868888855,0.34513023495674133,0.14568476378917694
1782968811720282000,5.1772822265625,0.31002309918403625,0.40662023425102234,0.07910547405481339
1782968811730208800,5.187208740234375,0.2922923266887665,0.37476855516433716,0.06204259768128395
1782968811740135000,5.197135009765625,0.32235008478164673,0.2692117691040039,0.12098021805286407
1782968811750060800,5.207060791015625,0.3875506520271301,0.12792468070983887,0.2421407252550125
1782968811759987700,5.21698779296875,0.46773019433021545,-0.04276876896619797,0.3944106996059418
1782968811769913900,5.226913818359375,0.5477842688560486,-0.2257268726825714,0.5426462292671204
1782968811779840000,5.236840087890625,0.6154690384864807,-0.4137215316295624,0.6609789729118347
1782968811789767000,5.246766845703125,0.661472499370575,-0.5626090168952942,0.730292558670044
1782968811799692800,5.25669287109375,0.667893648147583,-0.6275193095207214,0.7422515153884888
1782968811809619000,5.266618896484375,0.6315683722496033,-0.6215519905090332,0.6958280801773071
1782968811819546000,5.276546142578125,0.5572757720947266,-0.5799376964569092,0.6074995398521423
1782968811829471700,5.2864716796875,0.4618035852909088,-0.5143818259239197,0.49934855103492737
1782968811839398000,5.29639794921875,0.3527527153491974,-0.44525575637817383,0.3946911096572876
1782968811849325000,5.306324951171875,0.24712802469730377,-0.39925551414489746,0.28154832124710083
1782968811859250700,5.316250732421875,0.1484864056110382,-0.36865925788879395,0.16113482415676117
1782968811869176800,5.3261767578125,0.03822861239314079,-0.3655715882778168,0.028728583827614784
1782968811879104000,5.33610400390625,-0.07294265180826187,-0.37490251660346985,-0.0999646782875061
1782968811889030000,5.34602978515625,-0.17043671011924744,-0.3826003670692444,-0.20861126482486725
1782968811898955800,5.355955810546875,-0.24979466199874878,-0.3377380967140198,-0.2816527187824249
1782968811908883000,5.365883056640625,-0.3056637644767761,-0.21215593814849854,-0.3003523647785187
1782968811918808800,5.375808837890625,-0.3437584340572357,-0.036067456007003784,-0.24406646192073822
1782968811928734700,5.385734619140625,-0.3541642129421234,0.15052053332328796,-0.12543275952339172
1782968811938662000,5.395661865234375,-0.32196497917175293,0.2978820204734802,0.008972189389169216
1782968811948587800,5.405587890625,-0.28201356530189514,0.36084499955177307,0.11788855493068695
1782968811958514000,5.415513916015625,-0.228578582406044,0.3098936676979065,0.18373388051986694
1782968811968440800,5.42544091796875,-0.18425878882408142,0.1785457730293274,0.20030540227890015
1782968811978367000,5.435366943359375,-0.15414029359817505,-0.005995308049023151,0.161912739276886
1782968811988292900,5.44529296875,-0.1516726166009903,-0.1950451284646988,0.08938048034906387
1782968811998220000,5.455219970703125,-0.1918027251958847,-0.3524304926395416,-0.003065032185986638
1782968812008146000,5.46514599609375,-0.24827665090560913,-0.4545946717262268,-0.09212193638086319
1782968812018071800,5.47507177734375,-0.31673774123191833,-0.4924949109554291,-0.15951482951641083
1782968812027999000,5.4849990234375,-0.3780152201652527,-0.4489772617816925,-0.2019011676311493
1782968812037925000,5.494925048828125,-0.40505826473236084,-0.3447323441505432,-0.2248847782611847
1782968812047850800,5.504850830078125,-0.4161655306816101,-0.21788546442985535,-0.2222043126821518
1782968812057778000,5.51477783203125,-0.43726202845573425,-0.1061922162771225,-0.21833553910255432
1782968812067704000,5.5247041015625,-0.4697571098804474,-0.03406715765595436,-0.2361384928226471
1782968812077629700,5.534629638671875,-0.5039646029472351,-0.026030268520116806,-0.2882261872291565
1782968812087556900,5.544556884765625,-0.5383026003837585,-0.10636958479881287,-0.3624224066734314
1782968812097483000,5.55448291015625,-0.5690626502037048,-0.2568424344062805,-0.44777563214302063
1782968812107409000,5.564408935546875,-0.6127281188964844,-0.43364518880844116,-0.5298652052879333
1782968812117335800,5.574335693359375,-0.6722471117973328,-0.5837484002113342,-0.6070523858070374
1782968812127262000,5.584261962890625,-0.7414653301239014,-0.6571911573410034,-0.6984224915504456
1782968812137187800,5.594187744140625,-0.8103463649749756,-0.6286112070083618,-0.8057662844657898
1782968812147115000,5.604114990234375,-0.8763653635978699,-0.5171051621437073,-0.9210510849952698
1782968812157041000,5.614041015625,-0.9370889067649841,-0.3429411053657532,-1.0189871788024902
1782968812166967000,5.623967041015625,-0.9916141629219055,-0.14138641953468323,-1.0813360214233398
1782968812176893000,5.633892822265625,-1.035737156867981,0.0450042262673378,-1.0976951122283936
1782968812186819800,5.64381982421875,-1.0619785785675049,0.20096959173679352,-1.0669597387313843
1782968812196746000,5.65374609375,-1.063551425933838,0.31394729018211365,-0.9954398274421692
1782968812206672000,5.663671875,-1.0295239686965942,0.3447411358356476,-0.8980519771575928
1782968812216599000,5.67359912109375,-0.9529397487640381,0.2842937707901001,-0.7970276474952698
1782968812226525000,5.68352490234375,-0.8449680209159851,0.17816361784934998,-0.719307541847229
1782968812236450800,5.693450927734375,-0.7322853803634644,0.06129291653633118,-0.6629058122634888
1782968812246378000,5.7033779296875,-0.6374276280403137,-0.03858920559287071,-0.6389280557632446
1782968812256303900,5.713303955078125,-0.5718496441841125,-0.09733134508132935,-0.6522640585899353
1782968812266229800,5.723229736328125,-0.5205659866333008,-0.10308350622653961,-0.6751837730407715
1782968812276157000,5.733156982421875,-0.5073489546775818,-0.08030149340629578,-0.6867802143096924
1782968812286083000,5.7430830078125,-0.5233891606330872,-0.02556954137980938,-0.6779499650001526
1782968812296008700,5.7530087890625,-0.5659246444702148,0.038178808987140656,-0.6446855068206787
1782968812305936000,5.762935791015625,-0.6187505722045898,0.10326407104730606,-0.5820785760879517
1782968812315862000,5.772862060546875,-0.6674456596374512,0.20096533000469208,-0.5068389773368835
1782968812325788000,5.782787841796875,-0.7054508328437805,0.36574628949165344,-0.4552609920501709
1782968812335714800,5.79271484375,-0.6911049485206604,0.6400545239448547,-0.5188183784484863
1782968812345641000,5.802640869140625,-0.5749402642250061,0.9107068181037903,-0.6314541101455688
1782968812355567000,5.812567138671875,-0.4404253363609314,0.9313865303993225,-0.6316722631454468
1782968812365493800,5.82249365234375,-0.3009595572948456,0.6459907293319702,-0.501349925994873
1782968812375420000,5.832419921875,-0.16413408517837524,0.1413925439119339,-0.30692532658576965
1782968812385346000,5.842345947265625,-0.039435822516679764,-0.3682693839073181,-0.08610106259584427
1782968812395273000,5.85227294921875,0.10117188841104507,-0.7125173211097717,0.12366947531700134
1782968812405198800,5.86219873046875,0.24801406264305115,-0.8338759541511536,0.30502673983573914
1782968812415125000,5.872125,0.38007861375808716,-0.7688702940940857,0.4501109719276428
1782968812425052000,5.882052001953125,0.48936277627944946,-0.5618106126785278,0.571284830570221
1782968812434977800,5.891977783203125,0.5788689255714417,-0.2582288980484009,0.6520861983299255
1782968812444904000,5.901904052734375,0.631666898727417,0.055511463433504105,0.6941063404083252
1782968812454830800,5.911830810546875,0.6505878567695618,0.29931506514549255,0.6967801451683044
1782968812464757000,5.921757080078125,0.6506139636039734,0.42975351214408875,0.6780937910079956
1782968812474683000,5.931682861328125,0.6193987727165222,0.46399828791618347,0.6459752917289734
1782968812484609800,5.94160986328125,0.5690709352493286,0.43475571274757385,0.5991859436035156
1782968812494536000,5.951535888671875,0.5561918616294861,0.36852023005485535,0.550665557384491
1782968812504462000,5.961462158203125,0.586079478263855,0.31502559781074524,0.5201616883277893
1782968812514388000,5.971387939453125,0.655644953250885,0.26568493247032166,0.522937536239624
1782968812524315000,5.98131494140625,0.7316552996635437,0.23944801092147827,0.5526669025421143
1782968812534241000,5.991240966796875,0.8399114608764648,0.23589268326759338,0.6135675311088562
1782968812544168000,6.00116796875,0.9377245903015137,0.24257242679595947,0.6862210035324097
1782968812554093800,6.01109375,1.012269377708435,0.24955417215824127,0.769374430179596
1782968812564020000,6.02102001953125,1.0670000314712524,0.28451454639434814,0.8684400320053101
1782968812573946000,6.030946044921875,1.0987643003463745,0.3234875202178955,0.9441564083099365
1782968812583872800,6.040872802734375,1.139901876449585,0.33623579144477844,0.9696295261383057
1782968812593799000,6.050798828125,1.1894651651382446,0.34923896193504333,0.9508877992630005
1782968812603725000,6.06072509765625,1.23344886302948,0.334845632314682,0.8992514610290527
1782968812613652000,6.07065185546875,1.2639268636703491,0.28234487771987915,0.8199068903923035
1782968812623577900,6.080577880859375,1.2654966115951538,0.18318606913089752,0.7410200238227844
1782968812633504000,6.09050390625,1.2461979389190674,0.06696651875972748,0.6607731580734253
1782968812643431000,6.100430908203125,1.2275267839431763,-0.024509603157639503,0.592138946056366
1782968812653356800,6.110356689453125,1.2095342874526978,-0.09067823737859726,0.5346934795379639
1782968812663283000,6.120282958984375,1.1891919374465942,-0.12796488404273987,0.48746925592422485
1782968812673209900,6.1302099609375,1.1679476499557495,-0.12508174777030945,0.4565315842628479
1782968812683136000,6.140135986328125,1.1521484851837158,-0.07087710499763489,0.4271121919155121
1782968812693062000,6.150061767578125,1.121652603149414,0.022000640630722046,0.38419613242149353
1782968812702988800,6.15998876953125,1.070620059967041,0.11680624634027481,0.3294609785079956
1782968812712915000,6.1699150390625,0.9692183136940002,0.18376237154006958,0.277087539434433
1782968812722840800,6.1798408203125,0.8367257714271545,0.2053811103105545,0.2338883876800537
1782968812732768300,6.189768310546875,0.6781409382820129,0.17663495242595673,0.1867709457874298
1782968812742694400,6.1996943359375,0.537663996219635,0.10264834761619568,0.10855710506439209
1782968812752620300,6.209620361328125,0.44879350066185,-0.017372066155076027,0.01377946138381958
1782968812762547200,6.219547119140625,0.4394095838069916,-0.1670859307050705,-0.05916452035307884
1782968812772473300,6.229473388671875,0.4790014624595642,-0.3232009708881378,-0.09027743339538574
1782968812782399200,6.239399169921875,0.5455895662307739,-0.4840042293071747,-0.06764455884695053
1782968812792326100,6.249326171875,0.6158378720283508,-0.600365161895752,0.009126120246946812
1782968812802252300,6.259252197265625,0.671332061290741,-0.6333652138710022,0.12995080649852753
1782968812812178400,6.269178466796875,0.6908926963806152,-0.5823819041252136,0.24316391348838806
1782968812822105000,6.27910498046875,0.6698122024536133,-0.47216087579727173,0.3253946006298065
1782968812832031200,6.28903125,0.5928955674171448,-0.3505268692970276,0.3488016724586487
1782968812841957400,6.298957275390625,0.4804028272628784,-0.265245258808136,0.3076007068157196
1782968812851884300,6.30888427734375,0.3417554795742035,-0.22272415459156036,0.1852172613143921
1782968812861810200,6.31881005859375,0.18926845490932465,-0.19943134486675262,0.005425391718745232
1782968812871736300,6.328736328125,0.05102536827325821,-0.1733241081237793,-0.2073095142841339
1782968812881663200,6.338663330078125,-0.06756599247455597,-0.14153023064136505,-0.3976927697658539
1782968812891589000,6.348589111328125,-0.17956629395484924,-0.08546563237905502,-0.5184397101402283
1782968812901515300,6.358515380859375,-0.2752020061016083,0.04301724210381508,-0.5497640371322632
1782968812911442200,6.368442138671875,-0.3472522497177124,0.22713728249073029,-0.4788789749145508
1782968812921368300,6.378368408203125,-0.36830079555511475,0.4187013804912567,-0.3366720378398895
1782968812931294200,6.388294189453125,-0.34013599157333374,0.5831204056739807,-0.15167927742004395
1782968812941221000,6.39822119140625,-0.2738557755947113,0.6892023682594299,0.04844822734594345
1782968812951147300,6.408147216796875,-0.21771368384361267,0.7164891362190247,0.2077031284570694
1782968812961073200,6.4180732421875,-0.1895401030778885,0.6505460739135742,0.2958979606628418
1782968812970999300,6.427999267578125,-0.2006276398897171,0.5282744765281677,0.28901928663253784
1782968812980926200,6.43792626953125,-0.24732324481010437,0.3805665075778961,0.1904333233833313
1782968812990852400,6.447852294921875,-0.3156775236129761,0.23143775761127472,0.018367022275924683
1782968813000778200,6.4577783203125,-0.3925776481628418,0.12117622792720795,-0.15469184517860413
1782968813010705200,6.467705078125,-0.4739571809768677,0.08317877352237701,-0.27321237325668335
1782968813020631300,6.47763134765625,-0.5554730892181396,0.12326014786958694,-0.32762446999549866
1782968813030557200,6.48755712890625,-0.6362006664276123,0.22056646645069122,-0.32776081562042236
1782968813040484000,6.497484130859375,-0.7261723875999451,0.34762507677078247,-0.298641562461853
1782968813050410200,6.50741015625,-0.7967005968093872,0.45762667059898376,-0.2623807489871979
1782968813060336400,6.51733642578125,-0.8310263752937317,0.551701009273529,-0.22147539258003235
1782968813070263000,6.527262939453125,-0.8149664402008057,0.6252963542938232,-0.1799180954694748
1782968813080189200,6.537189208984375,-0.792982816696167,0.6498078107833862,-0.17804057896137238
1782968813090115300,6.547115234375,-0.7735979557037354,0.6232444047927856,-0.2256339192390442
1782968813100042200,6.557042236328125,-0.7762917280197144,0.5272781848907471,-0.3004423975944519
1782968813109968100,6.566968017578125,-0.8004077076911926,0.3581714630126953,-0.383710116147995
1782968813119894300,6.576894287109375,-0.835178792476654,0.14056244492530823,-0.47347062826156616
1782968813129821200,6.5868212890625,-0.8672128915786743,-0.08255159854888916,-0.5623325705528259
1782968813139747300,6.596747314453125,-0.8914700150489807,-0.28332147002220154,-0.6457539796829224
1782968813149673200,6.606673095703125,-0.9105052351951599,-0.44138458371162415,-0.7180817127227783
1782968813159600400,6.616600341796875,-0.9429212212562561,-0.5813952088356018,-0.7797892689704895
1782968813169526300,6.6265263671875,-0.9854795932769775,-0.6990116238594055,-0.8307227492332458
1782968813179452200,6.6364521484375,-1.0278749465942383,-0.7790260314941406,-0.880020797252655
1782968813189379300,6.64637939453125,-1.0480412244796753,-0.7949098944664001,-0.9161180853843689
1782968813199305200,6.65630517578125,-1.0512330532073975,-0.739250659942627,-0.9538732171058655
1782968813209231400,6.6662314453125,-1.0507560968399048,-0.6163012981414795,-0.9827980399131775
1782968813219158300,6.676158203125,-1.0496740341186523,-0.45055171847343445,-0.9857856035232544
1782968813229084200,6.686084228515625,-1.0609745979309082,-0.27715811133384705,-0.9691956639289856
1782968813239010300,6.69601025390625,-1.0697978734970093,-0.1391291320323944,-0.9283214807510376
1782968813248937500,6.7059375,-1.0585987567901611,-0.05180007964372635,-0.8716204166412354
1782968813258863000,6.715863037109375,-1.0279724597930908,-0.0024767396971583366,-0.796046257019043
1782968813268789200,6.725789306640625,-0.9612154960632324,-0.0001603222917765379,-0.7091273665428162
1782968813278716400,6.73571630859375,-0.8833222985267639,-0.004040548112243414,-0.6392156481742859
1782968813288642000,6.74564208984375,-0.8358882069587708,0.011891280300915241,-0.605208158493042
1782968813298568200,6.755568115234375,-0.810080885887146,0.09175761789083481,-0.6355130672454834
1782968813308495400,6.765495361328125,-0.8557695150375366,0.25259655714035034,-0.738422155380249
1782968813318421200,6.775421142578125,-0.973201334476471,0.5036961436271667,-0.9331284761428833
1782968813328347100,6.78534716796875,-1.1581363677978516,0.7797805070877075,-1.1764788627624512
1782968813338274300,6.7952744140625,-1.3804668188095093,1.0141074657440186,-1.3893705606460571
1782968813348200400,6.805200439453125,-1.4800422191619873,1.1585853099822998,-1.4885478019714355
1782968813358126000,6.8151259765625,-1.4473828077316284,1.156036138534546,-1.423195719718933
1782968813368053200,6.82505322265625,-1.215424656867981,1.0019941329956055,-1.1095751523971558
1782968813377979400,6.8349794921875,-0.8488040566444397,0.7264445424079895,-0.7504881024360657
1782968813387905300,6.8449052734375,-0.43372640013694763,0.35701459646224976,-0.2849081754684448
1782968813397832200,6.854832275390625,-0.02760952338576317,-0.061586134135723114,0.26372432708740234
1782968813407758300,6.86475830078125,0.2846764624118805,-0.34326255321502686,0.6642293930053711
1782968813417684200,6.874684326171875,0.48083746433258057,-0.49948784708976746,0.888545036315918
1782968813427610000,6.884610107421875,0.596534788608551,-0.5531162023544312,0.9730572700500488
1782968813437537300,6.894537353515625,0.6455752849578857,-0.5360423922538757,0.9343469142913818
1782968813447463200,6.904463134765625,0.632333517074585,-0.4629948139190674,0.800072193145752
1782968813457389300,6.914389404296875,0.5768481492996216,-0.3744308650493622,0.6234361529350281
1782968813467316200,6.924316162109375,0.4969559609889984,-0.3068360984325409,0.4474011957645416
1782968813477242000,6.9342421875,0.43525052070617676,-0.23254215717315674,0.3163246810436249
1782968813487168300,6.944168212890625,0.4233536720275879,-0.16605448722839355,0.25801050662994385
1782968813497095400,6.954095458984375,0.4412623643875122,-0.11061439663171768,0.267412006855011
1782968813507021300,6.964021240234375,0.48768019676208496,-0.06485223025083542,0.34000125527381897
1782968813516947200,6.973947265625,0.547382116317749,-0.02238520048558712,0.4606882631778717
1782968813526874400,6.983874267578125,0.6065008640289307,0.027332289144396782,0.5824660658836365
1782968813536800300,6.99380029296875,0.6840441226959229,0.04993906244635582,0.6986533999443054
1782968813546726100,7.00372607421875,0.8037081956863403,0.056645169854164124,0.8223021030426025
1782968813556653300,7.0136533203125,0.9769191145896912,0.03538089245557785,0.9508105516433716
1782968813566579500,7.023579345703125,1.164705753326416,-0.03880172595381737,1.0634061098098755
1782968813576505000,7.033505126953125,1.3275442123413086,-0.16748300194740295,1.133750319480896
1782968813586432300,7.043432373046875,1.4519295692443848,-0.3833082318305969,1.158424973487854
1782968813596358400,7.0533583984375,1.5063542127609253,-0.6461625099182129,1.1464370489120483
1782968813606284300,7.0632841796875,1.502425193786621,-0.8782466053962708,1.1038792133331299
1782968813616211200,7.073211181640625,1.4617528915405273,-1.028096318244934,1.0422443151474
1782968813626137300,7.083137451171875,1.3957598209381104,-1.0859321355819702,0.9691339135169983
1782968813636063200,7.093063232421875,1.3216890096664429,-1.035200834274292,0.8871452808380127
1782968813645990400,7.102990478515625,1.2320046424865723,-0.8861879110336304,0.7661173939704895
1782968813655916300,7.112916259765625,1.1288788318634033,-0.7018728852272034,0.6150338649749756
1782968813665842200,7.12284228515625,1.0121862888336182,-0.5072317719459534,0.4499863386154175
1782968813675769300,7.132769287109375,0.8850049376487732,-0.34323564171791077,0.30596739053726196
1782968813685695200,7.1426953125,0.7643027305603027,-0.22174490988254547,0.2094176709651947
1782968813695621400,7.152621337890625,0.6614735722541809,-0.14248071610927582,0.1643732339143753
1782968813705548300,7.16254833984375,0.6039998531341553,-0.10689502209424973,0.16714851558208466
1782968813715474400,7.172474365234375,0.5883886814117432,-0.084056556224823,0.20788715779781342
1782968813725400300,7.182400390625,0.6081876754760742,-0.08083892613649368,0.2770931124687195
1782968813735326200,7.192326171875,0.6416380405426025,-0.09469588100910187,0.3330805003643036
1782968813745252400,7.20225244140625,0.6800136566162109,-0.11436519026756287,0.365591824054718
1782968813755178200,7.21217822265625,0.7032029032707214,-0.12792015075683594,0.3690778911113739
1782968813765105200,7.222105224609375,0.7004646062850952,-0.10753631591796875,0.3438599109649658
1782968813775031300,7.23203125,0.6644549369812012,-0.05831576883792877,0.3012394607067108
1782968813784957200,7.241957275390625,0.60857093334198,0.02305738255381584,0.2525393068790436
1782968813794884000,7.251884033203125,0.53579181432724,0.11709333211183548,0.2239348292350769
1782968813804810200,7.261810302734375,0.47148844599723816,0.20448310673236847,0.21069972217082977
1782968813814736400,7.271736328125,0.4278717041015625,0.28835535049438477,0.2113703042268753
1782968813824663000,7.2816630859375,0.393500417470932,0.33885902166366577,0.22465068101882935
1782968813834589200,7.291589111328125,0.36620354652404785,0.34418800473213196,0.24984152615070343
1782968813844515300,7.301515380859375,0.33595722913742065,0.3117983639240265,0.29015645384788513
1782968813854441200,7.311441162109375,0.3031289875507355,0.24338336288928986,0.31745120882987976
1782968813864368000,7.3213681640625,0.2633775770664215,0.1450147181749344,0.30841296911239624
1782968813874294300,7.331294189453125,0.21153275668621063,0.027944816276431084,0.24459829926490784
1782968813884220400,7.341220458984375,0.14101757109165192,-0.07741622626781464,0.1347879022359848
1782968813894147000,7.35114697265625,0.04964558407664299,-0.1368023157119751,-0.0034756914246827364
1782968813904073200,7.3610732421875,-0.06259919703006744,-0.1280895322561264,-0.145811527967453
1782968813913999400,7.370999267578125,-0.1863134205341339,-0.05543263256549835,-0.2579314112663269
1782968813923926300,7.38092626953125,-0.3062185049057007,0.0438513420522213,-0.3082755506038666
1782968813933852200,7.39085205078125,-0.39601364731788635,0.15286198258399963,-0.2832953631877899
1782968813943778300,7.4007783203125,-0.4403347671031952,0.2525574266910553,-0.18476851284503937
1782968813953705200,7.410705322265625,-0.4554695188999176,0.32305794954299927,-0.057130396366119385
1782968813963631000,7.420631103515625,-0.4587111175060272,0.327372282743454,0.04798057675361633
1782968813973557200,7.43055712890625,-0.4586024582386017,0.28603893518447876,0.10861063003540039
1782968813983484200,7.440484130859375,-0.47380831837654114,0.2172745317220688,0.11115501821041107
1782968813993410300,7.450410400390625,-0.5136156678199768,0.13208240270614624,0.04312749579548836
1782968814003336200,7.460336181640625,-0.592738687992096,0.04489397257566452,-0.07530434429645538
1782968814013263000,7.47026318359375,-0.694198489189148,0.001113201375119388,-0.20766398310661316
1782968814023189200,7.480189208984375,-0.8111503720283508,0.01486656442284584,-0.29837682843208313
1782968814033115100,7.490115234375,-0.9178789854049683,0.06790421903133392,-0.3490813076496124
1782968814043042300,7.500042236328125,-1.0157972574234009,0.14755403995513916,-0.37694835662841797
1782968814052968200,7.50996826171875,-1.0882070064544678,0.2573106288909912,-0.36931970715522766
1782968814062894300,7.519894287109375,-1.141250491142273,0.40575069189071655,-0.31859394907951355
1782968814072821500,7.529821533203125,-1.1641860008239746,0.5162615180015564,-0.2661323547363281
1782968814082747100,7.5397470703125,-1.1614810228347778,0.5400152802467346,-0.23613503575325012
1782968814092673300,7.54967333984375,-1.1455345153808594,0.48230087757110596,-0.23923921585083008
1782968814102600400,7.559600341796875,-1.132344126701355,0.3587070107460022,-0.2767961919307709
1782968814112526000,7.569526123046875,-1.1140239238739014,0.20618192851543427,-0.33866408467292786
1782968814122452200,7.5794521484375,-1.0898888111114502,0.056711483746767044,-0.4078332781791687
1782968814132379400,7.58937939453125,-1.0773797035217285,-0.08335774391889572,-0.47451353073120117
1782968814142305300,7.59930517578125,-1.0791213512420654,-0.1889030784368515,-0.5389851927757263
1782968814152231200,7.609231201171875,-1.090436339378357,-0.24288348853588104,-0.6241759657859802
1782968814162158300,7.619158447265625,-1.1136384010314941,-0.25029265880584717,-0.7458710074424744
1782968814172084200,7.629084228515625,-1.1497888565063477,-0.20603466033935547,-0.8635486364364624
1782968814182010000,7.639010009765625,-1.1784164905548096,-0.10930118709802628,-0.9382204413414001
1782968814191937300,7.648937255859375,-1.1925818920135498,0.0031619712244719267,-0.9148229956626892
1782968814201863200,7.65886328125,-1.1710811853408813,0.1269315779209137,-0.8138518929481506
1782968814211789300,7.668789306640625,-1.115828275680542,0.21050024032592773,-0.6959670782089233
1782968814221716200,7.67871630859375,-1.0245598554611206,0.21603189408779144,-0.6152517199516296
1782968814231642400,7.688642333984375,-0.9097408652305603,0.18549609184265137,-0.5688008666038513
1782968814241568300,7.698568359375,-0.7991365790367126,0.11574630439281464,-0.5459551811218262
1782968814251495400,7.708495361328125,-0.7053163647651672,-0.003859453136101365,-0.539840042591095
1782968814261421300,7.71842138671875,-0.6358699202537537,-0.14765231311321259,-0.5273189544677734
1782968814271347200,7.72834716796875,-0.5844578742980957,-0.3038043677806854,-0.5057492256164551
1782968814281273300,7.7382734375,-0.5319246053695679,-0.42881473898887634,-0.45864880084991455
1782968814291200300,7.7482001953125,-0.48532968759536743,-0.47722327709198,-0.3883993923664093
1782968814301126100,7.758126220703125,-0.45142099261283875,-0.43952569365501404,-0.32197245955467224
1782968814311052300,7.76805224609375,-0.4463900029659271,-0.32243824005126953,-0.267299622297287
1782968814320979500,7.7779794921875,-0.460226446390152,-0.15255971252918243,-0.23733718693256378
1782968814330905000,7.787905029296875,-0.474154531955719,0.03199867904186249,-0.22469063103199005
1782968814340831200,7.797831298828125,-0.5016846656799316,0.20811085402965546,-0.21931451559066772
1782968814350758400,7.80775830078125,-0.5165334343910217,0.33118805289268494,-0.1992393285036087
1782968814360684000,7.81768408203125,-0.5099737644195557,0.38695383071899414,-0.16195107996463776
1782968814370610200,7.827610107421875,-0.40337303280830383,0.5118467807769775,-0.2187826782464981
1782968814380537300,7.837537353515625,-0.27536046504974365,0.6672914624214172,-0.3271384537220001
1782968814390463200,7.847463134765625,-0.21212583780288696,0.642721951007843,-0.33848750591278076
1782968814400389000,7.85738916015625,-0.14563949406147003,0.4552338421344757,-0.255013644695282
1782968814410316300,7.86731640625,-0.04104889929294586,0.17849783599376678,-0.11932320147752762
1782968814420242400,7.877242431640625,0.09720084816217422,-0.10756321251392365,0.05162617564201355
1782968814430168000,7.88716796875,0.24710486829280853,-0.3073681890964508,0.21732433140277863
1782968814440095200,7.89709521484375,0.4020281434059143,-0.3881831467151642,0.3469369113445282
1782968814450021400,7.907021484375,0.5350143909454346,-0.37465617060661316,0.463542103767395
1782968814459947300,7.916947265625,0.6111509799957275,-0.28125616908073425,0.5671164393424988
1782968814469874400,7.92687451171875,0.6325377821922302,-0.12504446506500244,0.6313033699989319
1782968814479800300,7.93680029296875,0.6119693517684937,0.07566440105438232,0.6299923062324524
1782968814489726200,7.946726318359375,0.5548078417778015,0.23775024712085724,0.5564461946487427
1782968814499653400,7.9566533203125,0.4753481447696686,0.31997400522232056,0.44545844197273254
1782968814509579300,7.966579345703125,0.4270772933959961,0.3046203553676605,0.34329503774642944
1782968814519505200,7.976505126953125,0.4333948493003845,0.19444724917411804,0.2677784562110901
1782968814529432300,7.986432373046875,0.5156633257865906,0.05014572665095329,0.2615754008293152
1782968814539357200,7.996357177734375,0.6125006675720215,-0.06537847220897675,0.3426590859889984
1782968814549283300,8.006283447265625,0.6979026794433594,-0.10141211003065109,0.46351784467697144
1782968814559210200,8.016210205078124,0.7503682971000671,-0.055212121456861496,0.5911341309547424
1782968814569136400,8.026136474609375,0.7769796252250671,-0.02081633172929287,0.688083827495575
1782968814579062300,8.036062255859376,0.8297190070152283,0.05498895049095154,0.7952566742897034
1782968814588989200,8.0459892578125,0.9072250127792358,0.11232973635196686,0.9811141490936279
1782968814598915300,8.055915283203126,0.962438702583313,0.07651980966329575,1.1310783624649048
1782968814608841200,8.06584130859375,0.9716676473617554,-0.011631621979176998,1.1897469758987427
1782968814618768100,8.07576806640625,0.9634565711021423,-0.09117598086595535,1.186814308166504
1782968814628694300,8.0856943359375,0.9478176832199097,-0.14217312633991241,1.1662368774414062
1782968814638620400,8.095620361328125,0.903855562210083,-0.14458301663398743,1.1322886943817139
1782968814648547000,8.105547119140626,0.8323307633399963,-0.0994538888335228,1.0669856071472168
1782968814658473200,8.11547314453125,0.7588461637496948,-0.057791393250226974,0.9626845121383667
1782968814668399400,8.1253994140625,0.709665060043335,-0.039385754615068436,0.8559998869895935
1782968814678326300,8.135326171875,0.6903579235076904,-0.04856593906879425,0.7589479088783264
1782968814688252200,8.145252197265625,0.6830587387084961,-0.09690816700458527,0.7226461172103882
1782968814698178300,8.15517822265625,0.6725049018859863,-0.17899665236473083,0.7574384212493896
1782968814708105200,8.165105224609375,0.6575978398323059,-0.2400626689195633,0.8131781220436096
1782968814718031000,8.175031005859376,0.6387985944747925,-0.29335570335388184,0.8586252331733704
1782968814727957200,8.184957275390625,0.6243720054626465,-0.31563544273376465,0.8567937612533569
1782968814737884400,8.194884521484376,0.6052390336990356,-0.26952654123306274,0.7964404225349426
1782968814747810600,8.204810546875,0.5831899046897888,-0.20787890255451202,0.6898359656333923
1782968814757736400,8.214736328125,0.5421152114868164,-0.13729846477508545,0.566431999206543
1782968814767663400,8.224663330078124,0.48723357915878296,-0.03452708572149277,0.46430134773254395
1782968814777589500,8.234589599609375,0.4119872748851776,0.04535603150725365,0.3970320522785187
1782968814787515600,8.244515625,0.3308032155036926,0.07086218893527985,0.35680684447288513
1782968814797442600,8.254442626953125,0.2548767626285553,0.045475073158741,0.33874237537384033
1782968814807368400,8.264368408203126,0.19900524616241455,-0.01781468279659748,0.3393501043319702
1782968814817294600,8.274294677734375,0.15412752330303192,-0.13044002652168274,0.3390486240386963
1782968814827221800,8.2842216796875,0.12981897592544556,-0.25308045744895935,0.3412036597728729
1782968814837147400,8.2941474609375,0.13873711228370667,-0.3241434395313263,0.363799512386322
1782968814847073500,8.304073486328125,0.1710718870162964,-0.3156120181083679,0.39861103892326355
1782968814857000700,8.314000732421874,0.20121459662914276,-0.27630162239074707,0.4134299159049988
1782968814866926600,8.323926513671875,0.22488531470298767,-0.2511073350906372,0.3947358727455139
1782968814876852500,8.3338525390625,0.2145453244447708,-0.2504063844680786,0.3314189314842224
1782968814886779600,8.343779541015625,0.16929608583450317,-0.280040979385376,0.2157250940799713
1782968814896705500,8.35370556640625,0.084067203104496,-0.32784977555274963,0.052499692887067795
1782968814906631400,8.36363134765625,-0.03292625769972801,-0.3627595603466034,-0.1330922693014145
1782968814916559400,8.373559326171875,-0.18213944137096405,-0.33486613631248474,-0.29955634474754333
1782968814926485500,8.383485595703124,-0.3330698311328888,-0.22310444712638855,-0.43102115392684937
1782968814936412700,8.39341259765625,-0.45599550008773804,-0.057852379977703094,-0.5156663060188293
1782968814946338600,8.403338623046874,-0.520098865032196,0.11861027032136917,-0.5439402461051941
1782968814956264400,8.413264404296875,-0.5244379043579102,0.26187315583229065,-0.5217633247375488
1782968814966191600,8.423191650390624,-0.4863012135028839,0.3447994589805603,-0.4715630114078522
1782968814976117500,8.433117431640625,-0.4313870966434479,0.3428734540939331,-0.41568082571029663
1782968814986043400,8.44304345703125,-0.39075496792793274,0.26582396030426025,-0.36767175793647766
1782968814995970600,8.452970458984375,-0.35296258330345154,0.151808962225914,-0.3280194103717804
1782968815005896400,8.462896484375,-0.34030938148498535,0.01805995963513851,-0.32115352153778076
1782968815015822600,8.472822509765624,-0.35411545634269714,-0.12972284853458405,-0.36354172229766846
1782968815025749500,8.48274951171875,-0.3843998610973358,-0.2676250636577606,-0.44006818532943726
1782968815035675600,8.492675537109376,-0.4139050245285034,-0.37045663595199585,-0.5019805431365967
1782968815045601500,8.5026015625,-0.4500816762447357,-0.4097060263156891,-0.5409721732139587
1782968815055528700,8.51252880859375,-0.4738815426826477,-0.4028606414794922,-0.5791696310043335
1782968815065454600,8.52245458984375,-0.4849129021167755,-0.32188910245895386,-0.5807294249534607
1782968815075380500,8.53238037109375,-0.46058306097984314,-0.17066574096679688,-0.5425572991371155
1782968815085307600,8.5423076171875,-0.4238109290599823,0.010495251044631004,-0.4706186354160309
1782968815095233500,8.552233642578125,-0.41159847378730774,0.19378916919231415,-0.39778944849967957
1782968815105159400,8.562159423828126,-0.43419644236564636,0.3479110896587372,-0.3480450510978699
1782968815115086600,8.572086669921875,-0.490479975938797,0.46199265122413635,-0.323749303817749
1782968815125012700,8.5820126953125,-0.5641310214996338,0.5473394989967346,-0.31650790572166443
1782968815134938400,8.5919384765625,-0.6267603039741516,0.5632055401802063,-0.3579203188419342
1782968815144865500,8.601865478515625,-0.6928397417068481,0.5005075931549072,-0.49101579189300537
1782968815154791700,8.611791748046874,-0.7702852487564087,0.3788498342037201,-0.6756447553634644
1782968815164717300,8.62171728515625,-0.84139084815979,0.24052605032920837,-0.8355329632759094
1782968815174644500,8.63164453125,-0.9010968208312988,0.07121878862380981,-1.0079537630081177
1782968815184570600,8.641570556640625,-0.9163910746574402,-0.13359135389328003,-1.1431623697280884
1782968815194496500,8.65149658203125,-0.8986645340919495,-0.3104255199432373,-1.2227767705917358
1782968815204423700,8.661423583984375,-0.8768079876899719,-0.43494561314582825,-1.240466594696045
1782968815214349600,8.671349609375,-0.8481829762458801,-0.4786323606967926,-1.1944053173065186
1782968815224275700,8.681275634765624,-0.8439458608627319,-0.4575534462928772,-1.0723189115524292
1782968815234202600,8.69120263671875,-0.8107842206954956,-0.43200626969337463,-0.9507719278335571
1782968815244128500,8.70112841796875,-0.7619602084159851,-0.3536917567253113,-0.8636913895606995
1782968815254054700,8.7110546875,-0.7082844376564026,-0.2349294275045395,-0.8235870599746704
1782968815263980500,8.72098046875,-0.6707578897476196,-0.09516939520835876,-0.8436601161956787
1782968815273907700,8.73090771484375,-0.6509228944778442,0.05096730962395668,-0.9239616394042969
1782968815283833600,8.74083349609375,-0.62165367603302,0.1702399104833603,-1.023171305656433
1782968815293759500,8.750759521484374,-0.5652703046798706,0.23078954219818115,-1.0146324634552002
1782968815303686700,8.760686767578125,-0.5205014944076538,0.23439785838127136,-0.954585075378418
1782968815313612500,8.770612548828124,-0.4979456067085266,0.28226178884506226,-0.8171869516372681
1782968815323538400,8.780538330078125,-0.49310797452926636,0.28711485862731934,-0.6669144034385681
1782968815333465600,8.790465576171876,-0.45862990617752075,0.2542322874069214,-0.5238757133483887
1782968815343391700,8.800391845703125,-0.4114610552787781,0.25060611963272095,-0.4144326150417328
1782968815353317400,8.8103173828125,-0.38042324781417847,0.3113720118999481,-0.32601726055145264
1782968815363244500,8.82024462890625,-0.3645550608634949,0.42632919549942017,-0.30375003814697266
1782968815373170700,8.830170654296875,-0.318779319524765,0.6510520577430725,-0.4394141137599945
1782968815383096600,8.8400966796875,-0.21534986793994904,0.8822187185287476,-0.6428521871566772
1782968815393023500,8.8500234375,-0.06528952717781067,0.9570136070251465,-0.7247843742370605
1782968815402949600,8.85994970703125,0.07642526924610138,0.7868903279304504,-0.680519700050354
1782968815412875800,8.869875732421875,0.26776620745658875,0.38819193840026855,-0.41286054253578186
1782968815422802400,8.879802490234376,0.4324986934661865,-0.04728016257286072,-0.04067419096827507
1782968815432728600,8.889728515625,0.586151123046875,-0.34367507696151733,0.303914874792099
1782968815442654700,8.89965478515625,0.778258204460144,-0.4303535223007202,0.5978724956512451
1782968815452581600,8.90958154296875,0.9657306671142578,-0.3410228490829468,0.8118017911911011
1782968815462507500,8.919507568359375,1.1158192157745361,-0.1611979454755783,0.9223759770393372
1782968815472433700,8.92943359375,1.2172327041625977,0.04723648726940155,0.947939395904541
1782968815482360600,8.939360595703125,1.2728838920593262,0.21822261810302734,0.8986701369285583
1782968815492286500,8.949286376953125,1.2598848342895508,0.30800923705101013,0.8017840385437012
1782968815502212600,8.959212646484374,1.193389654159546,0.31841471791267395,0.7047624588012695
1782968815512139500,8.969139404296875,1.1046602725982666,0.2449767291545868,0.6434996128082275
1782968815522065700,8.979065673828124,1.0310654640197754,0.1341484785079956,0.6134706139564514
1782968815531991600,8.988991455078125,0.9843248128890991,0.03853034973144531,0.6222020387649536
1782968815541918500,8.99891845703125,0.9547650814056396,-0.01919686421751976,0.6633814573287964
1782968815551844600,9.0088447265625,0.9477284550666809,-0.030176810920238495,0.7251686453819275
1782968815561770500,9.0187705078125,0.9576109647750854,0.011772236786782742,0.7783056497573853
1782968815571697400,9.028697509765625,1.039031744003296,0.1895342469215393,0.8494666218757629
1782968815581623600,9.03862353515625,1.1243799924850464,0.3116185963153839,0.8933504819869995
1782968815591549700,9.0485498046875,1.1543519496917725,0.2650074362754822,0.9164544343948364
1782968815601476600,9.0584765625,1.2174081802368164,0.2706591784954071,0.9848321676254272
1782968815611402500,9.068402587890626,1.2874261140823364,0.15052825212478638,1.0635101795196533
1782968815621328600,9.07832861328125,1.3423575162887573,-0.09729059785604477,1.1382092237472534
1782968815631254800,9.0882548828125,1.4036939144134521,-0.3482232093811035,1.1836280822753906
1782968815641181400,9.098181396484375,1.4174150228500366,-0.6022312641143799,1.1655257940292358
1782968815651107600,9.108107666015625,1.3904463052749634,-0.7888876795768738,1.0981390476226807
1782968815661033700,9.11803369140625,1.3150732517242432,-0.8650400042533875,0.9925177693367004
1782968815670960600,9.127960693359375,1.183375597000122,-0.8292883634567261,0.869181215763092
1782968815680886500,9.137886474609376,1.0031520128250122,-0.7170390486717224,0.7480430603027344
1782968815690812700,9.147812744140625,0.7975192666053772,-0.520039439201355,0.6327084898948669
1782968815700739600,9.157739501953126,0.6185774803161621,-0.2828894853591919,0.5202850103378296
1782968815710665500,9.16766552734375,0.45394912362098694,-0.10837201029062271,0.3972941040992737
1782968815720591600,9.177591552734375,0.2853800654411316,-0.02274099923670292,0.24014335870742798
1782968815730519000,9.18751904296875,0.14405038952827454,0.012031895108520985,0.05550054460763931
1782968815740445200,9.197445068359375,0.08163893967866898,0.03238670155405998,-0.10343237966299057
1782968815750371300,9.207371337890624,0.08959805965423584,0.041492581367492676,-0.17169852554798126
1782968815760298200,9.21729833984375,0.10375009477138519,0.021698104217648506,-0.13847558200359344
1782968815770224000,9.22722412109375,0.10231705009937286,-0.0009885653853416443,-0.017464743927121162
1782968815780150300,9.237150390625,0.10187815874814987,0.0014391721924766898,0.14087216556072235
1782968815790077200,9.2470771484375,0.10041981190443039,0.0183465164154768,0.316953182220459
1782968815800003000,9.257003173828124,0.08891895413398743,0.039503466337919235,0.4598187208175659
1782968815809929200,9.26692919921875,0.06347351521253586,0.08702971041202545,0.5401420593261719
1782968815819856100,9.276856201171874,0.033901240676641464,0.14657080173492432,0.555452287197113
1782968815829782300,9.2867822265625,-0.006607302464544773,0.16909953951835632,0.5092427134513855
1782968815839708200,9.296708251953126,-0.04692329838871956,0.14418700337409973,0.4249076247215271
1782968815849635000,9.306635009765625,-0.08646644651889801,0.10238895565271378,0.33844995498657227
1782968815859561200,9.316561279296875,-0.09613478928804398,0.04507267102599144,0.2664969265460968
1782968815869487000,9.326487060546874,-0.08169246464967728,-0.016033029183745384,0.21365901827812195
1782968815879414000,9.3364140625,-0.06185324862599373,-0.07782209664583206,0.14109587669372559
1782968815889340200,9.346340087890624,-0.04241190478205681,-0.1202092319726944,0.0675569400191307
1782968815899266300,9.356266357421875,-0.056230783462524414,-0.14668184518814087,0.0068235513754189014
1782968815909193000,9.36619287109375,-0.22392337024211884,-0.24490828812122345,-0.09525168687105179
1782968815919119000,9.376119140625,-0.43814805150032043,-0.2629578709602356,-0.23279543220996857
1782968815929045200,9.386045166015625,-0.5626550912857056,-0.09501306712627411,-0.3407706320285797
1782968815938972200,9.39597216796875,-0.6569909453392029,0.15017938613891602,-0.3826826512813568
1782968815948898000,9.40589794921875,-0.6745760440826416,0.4077073335647583,-0.32825830578804016
1782968815958824200,9.41582421875,-0.6404460072517395,0.5784668326377869,-0.2242394983768463
1782968815968750300,9.425750244140625,-0.6491657495498657,0.6115725636482239,-0.11170762032270432
1782968815978677000,9.435677001953126,-0.5909474492073059,0.5702741146087646,-0.012475311756134033
1782968815988603100,9.44560302734375,-0.5603839755058289,0.4146336615085602,0.05553862452507019
1782968815998529300,9.455529296875,-0.5533667802810669,0.17331932485103607,0.08915038406848907
1782968816008456200,9.465456298828125,-0.548952579498291,-0.11403575539588928,0.0821601152420044
1782968816018382000,9.475382080078125,-0.6299608945846558,-0.4018648862838745,-0.024508539587259293
1782968816028308200,9.48530810546875,-0.6706779599189758,-0.5863260626792908,-0.2239105999469757
1782968816038235100,9.495235107421875,-0.6954232454299927,-0.6076252460479736,-0.4534132778644562
1782968816048161000,9.5051611328125,-0.7414810061454773,-0.546777069568634,-0.660737156867981
1782968816058087200,9.515087158203125,-0.8075639009475708,-0.435075044631958,-0.8089730143547058
1782968816068014000,9.52501416015625,-0.9044273495674133,-0.27160966396331787,-0.9290897846221924
1782968816077940200,9.534940185546875,-0.9873887896537781,-0.07847536355257034,-0.9851650595664978
1782968816087866000,9.5448662109375,-1.0336146354675293,0.10555332154035568,-0.9607548117637634
1782968816097793000,9.55479296875,-1.0324082374572754,0.20688261091709137,-0.8800314664840698
1782968816107719200,9.56471923828125,-1.0321166515350342,0.22795113921165466,-0.7788984179496765
1782968816117645000,9.57464501953125,-1.0494425296783447,0.1960134506225586,-0.698153018951416
1782968816127572000,9.584572021484375,-1.1032341718673706,0.13765905797481537,-0.6552329659461975
1782968816137498000,9.594498046875,-1.187246561050415,0.08647816628217697,-0.6674259901046753
1782968816147424300,9.60442431640625,-1.264207124710083,0.047568053007125854,-0.7169879674911499
1782968816157351200,9.61435107421875,-1.320638656616211,0.013891047798097134,-0.7881473302841187
1782968816167277000,9.624277099609374,-1.3351677656173706,-0.02377030998468399,-0.8983686566352844
1782968816177203200,9.634203125,-1.335198163986206,-0.041542116552591324,-1.0329506397247314
1782968816187130000,9.644130126953126,-1.3235859870910645,-0.04506175220012665,-1.1494171619415283
1782968816197056000,9.654055908203125,-1.295655608177185,-0.06185271590948105,-1.2226572036743164
1782968816206982100,9.663982177734376,-1.2319716215133667,-0.10191038250923157,-1.2320164442062378
1782968816216909000,9.673908935546875,-1.1500624418258667,-0.17995671927928925,-1.1644130945205688
1782968816226835200,9.683835205078125,-1.0559947490692139,-0.26175063848495483,-1.0092573165893555
1782968816236761000,9.693760986328124,-0.9832904934883118,-0.29778802394866943,-0.7935271859169006
1782968816246688000,9.70368798828125,-0.9513295888900757,-0.2749175727367401,-0.5742084383964539
1782968816256614100,9.7136142578125,-0.9747723340988159,-0.23355603218078613,-0.40474483370780945
1782968816266540000,9.7235400390625,-1.0251511335372925,-0.1984901875257492,-0.2945344150066376
1782968816276467200,9.73346728515625,-1.049716591835022,-0.16616714000701904,-0.2610774040222168
1782968816286393000,9.74339306640625,-1.0237149000167847,-0.043465450406074524,-0.2718461751937866
1782968816296319200,9.7533193359375,-0.9445784687995911,0.03530579432845116,-0.29018521308898926
1782968816306246100,9.76324609375,-0.8363202214241028,0.03563788905739784,-0.3087975084781647
1782968816316172000,9.773172119140625,-0.7106115221977234,-0.0049825082533061504,-0.3248153626918793
1782968816326098200,9.78309814453125,-0.5772073864936829,-0.031868983060121536,-0.32339563965797424
1782968816336025300,9.793025390625,-0.44162294268608093,-0.024395620450377464,-0.3057282269001007
1782968816345951000,9.802950927734376,-0.44593754410743713,-0.20494063198566437,-0.38447684049606323
1782968816355877000,9.812877197265625,-0.3603091835975647,-0.2884219288825989,-0.405643105506897
1782968816365803300,9.82280322265625,-0.13091060519218445,-0.14382082223892212,-0.3115203380584717
1782968816375730000,9.83272998046875,0.06181489676237106,-0.03359045088291168,-0.17683789134025574
1782968816385656000,9.842656005859375,0.11345013231039047,-0.0791611298918724,-0.05536871775984764
1782968816395582200,9.852582275390626,0.13479402661323547,-0.10786734521389008,0.0931728184223175
1782968816405509000,9.862509033203125,0.20912179350852966,-0.045399971306324005,0.27021390199661255
1782968816415435000,9.87243505859375,0.28077173233032227,-0.0504719614982605,0.4081270396709442
1782968816425361200,9.882361083984375,0.35640978813171387,-0.01005343347787857,0.5116292238235474
1782968816435288000,9.8922880859375,0.4384106397628784,0.0749080628156662,0.5870179533958435
1782968816445214000,9.9022138671875,0.5229185819625854,0.174687922000885,0.6308202743530273
1782968816455140000,9.91214013671875,0.5965685844421387,0.2177291363477707,0.6263994574546814
1782968816465067300,9.9220673828125,0.5799792408943176,0.12161058932542801,0.502774715423584
1782968816474993200,9.9319931640625,0.5943874716758728,0.11191774904727936,0.3726494610309601
1782968816484919000,9.9419189453125,0.707581639289856,0.24925749003887177,0.2926715612411499
1782968816494846200,9.95184619140625,0.8370035886764526,0.32828840613365173,0.2440536767244339
1782968816504772000,9.961772216796875,0.8664421439170837,0.23888342082500458,0.20206628739833832
1782968816514698000,9.971697998046874,0.8484631180763245,0.12303245067596436,0.21978935599327087
1782968816524625200,9.981625244140625,0.8686749339103699,0.07082942873239517,0.31522879004478455
1782968816534551000,9.991551025390624,0.9173558950424194,0.04194425418972969,0.4722631573677063
1782968816544477200,10.001477294921875,0.979621946811676,0.05402115732431412,0.659085214138031
1782968816554404000,10.011404052734376,1.1045223474502563,0.14957191050052643,0.832206666469574
1782968816564330000,10.021330078125,1.189119577407837,0.1335149109363556,0.9183341264724731
1782968816574256000,10.031256103515625,1.2561278343200684,0.1720236986875534,0.9599087238311768
1782968816584183300,10.041183349609375,1.315381646156311,0.28413745760917664,0.9609598517417908
1782968816594109200,10.051109130859375,1.3514940738677979,0.3707128167152405,0.9315191507339478
1782968816604035000,10.06103515625,1.3440358638763428,0.41197556257247925,0.8643278479576111
1782968816613962200,10.070962158203125,1.2902498245239258,0.44734156131744385,0.7698705792427063
1782968816623888100,10.08088818359375,1.203033447265625,0.4634912312030792,0.6783012747764587
1782968816633814000,10.09081396484375,1.1293268203735352,0.4000094532966614,0.6437342166900635
1782968816643741200,10.1007412109375,1.1505018472671509,0.2805006206035614,0.7009775638580322
1782968816653667300,10.110667236328124,1.2272684574127197,0.07222279906272888,0.803662896156311
1782968816663593000,10.120593017578125,1.2722021341323853,-0.2338806688785553,0.8985872864723206
1782968816673520000,10.13052001953125,1.2708237171173096,-0.5465965270996094,0.9520755410194397
1782968816683446300,10.1404462890625,1.2589081525802612,-0.8158905506134033,0.9800600409507751
1782968816693372200,10.1503720703125,1.1941875219345093,-0.9805753827095032,0.9611098170280457
1782968816703298000,10.160298095703125,1.1174898147583008,-1.1012394428253174,0.883898913860321
1782968816713225200,10.17022509765625,1.080127477645874,-1.1555447578430176,0.8164194822311401
1782968816723151000,10.180151123046874,1.0446808338165283,-1.0662873983383179,0.763390839099884
1782968816733076500,10.190076416015625,0.9994925856590271,-0.8529857397079468,0.7108190059661865
1782968816743003600,10.200003662109374,0.9096506237983704,-0.5541651844978333,0.6356821656227112
1782968816752929800,10.2099296875,0.7998111844062805,-0.19042028486728668,0.5542179346084595
1782968816762855400,10.21985546875,0.7711411714553833,0.14684456586837769,0.4842233955860138
1782968816772782600,10.229782470703125,0.76009601354599,0.3700539469718933,0.4175277352333069
1782968816782708700,10.239708740234375,0.740373969078064,0.45980700850486755,0.3596718907356262
1782968816792634600,10.249634521484374,0.7309554219245911,0.45375898480415344,0.340671569108963
1782968816802561500,10.2595615234375,0.74462890625,0.39742380380630493,0.35866761207580566
1782968816812487700,10.26948779296875,0.7764877676963806,0.3178354799747467,0.4278639853000641
1782968816822413600,10.27941357421875,0.7718458771705627,0.24774456024169922,0.5112307667732239
1782968816832340700,10.2893408203125,0.7358545660972595,0.15727297961711884,0.5715519189834595
1782968816842266600,10.2992666015625,0.6930328011512756,0.06539924442768097,0.6230795383453369
1782968816852192800,10.30919287109375,0.6524587273597717,-0.01883121207356453,0.6393842101097107
1782968816862119700,10.31911962890625,0.6111502051353455,-0.10535944253206253,0.5968857407569885
1782968816872045800,10.3290458984375,0.5510216355323792,-0.19959193468093872,0.48646578192710876
1782968816881971700,10.3389716796875,0.45771801471710205,-0.29469847679138184,0.30114811658859253
1782968816891898600,10.348898681640625,0.3102811574935913,-0.3620964288711548,0.06058797985315323
1782968816901824800,10.35882470703125,0.1318989098072052,-0.3902212679386139,-0.17563201487064362
1782968816911750700,10.368750732421875,-0.05685369670391083,-0.32151785492897034,-0.3441251516342163
1782968816921677600,10.378677490234375,-0.21734564006328583,-0.17350760102272034,-0.4163926839828491
1782968816931603700,10.388603759765624,-0.3356618881225586,0.007165235001593828,-0.40124091506004333
1782968816941529900,10.39852978515625,-0.38057050108909607,0.2176218032836914,-0.29498448967933655
1782968816951456500,10.40845654296875,-0.3630620837211609,0.4198601245880127,-0.12961046397686005
1782968816961382700,10.418382568359375,-0.31080394983291626,0.5532317757606506,0.0068094367161393166
1782968816971308800,10.428308837890626,-0.250901460647583,0.5465024709701538,0.10657650977373123
1782968816981235700,10.438235595703125,-0.21101050078868866,0.42440295219421387,0.15065449476242065
1782968816991161600,10.44816162109375,-0.22579585015773773,0.22670984268188477,0.10318896919488907
1782968817001087700,10.458087646484374,-0.31604239344596863,0.01703730598092079,-0.029215410351753235
1782968817011014700,10.4680146484375,-0.47578224539756775,-0.13221369683742523,-0.20708315074443817
1782968817020940500,10.4779404296875,-0.6732737421989441,-0.21662205457687378,-0.38089966773986816
1782968817030866700,10.48786669921875,-0.869782030582428,-0.2054349184036255,-0.511738121509552
1782968817040792600,10.49779248046875,-1.0422009229660034,-0.10210506618022919,-0.5918707847595215
1782968817050719700,10.5077197265625,-1.1718227863311768,0.04391073063015938,-0.6385805010795593
1782968817060645600,10.517645751953125,-1.2356747388839722,0.16930966079235077,-0.6362124085426331
1782968817070571800,10.52757177734375,-1.2326483726501465,0.26179325580596924,-0.5885378122329712
1782968817080498700,10.537498779296875,-1.1982510089874268,0.2958870530128479,-0.521303117275238
1782968817090424600,10.547424560546874,-1.179864764213562,0.27386829257011414,-0.48948073387145996
1782968817100350700,10.557350830078125,-1.185909390449524,0.2272147834300995,-0.5200535655021667
1782968817110277600,10.567277587890626,-1.218052625656128,0.16886144876480103,-0.6010270118713379
1782968817120203800,10.577203857421875,-1.258678913116455,0.11587733030319214,-0.7249265313148499
1782968817130129700,10.587129638671875,-1.2978167533874512,0.08091562241315842,-0.8731722235679626
1782968817140056600,10.597056640625,-1.340856909751892,0.02502865344285965,-1.039908766746521
1782968817149982700,10.606982666015625,-1.3861894607543945,-0.05084427073597908,-1.188673973083496
1782968817159908600,10.61690869140625,-1.4315649271011353,-0.1470688134431839,-1.2914685010910034
1782968817169835500,10.62683544921875,-1.4483559131622314,-0.2563324570655823,-1.3537057638168335
1782968817179761700,10.63676171875,-1.443410873413086,-0.3700092136859894,-1.3854306936264038
1782968817189687800,10.646687744140625,-1.408037781715393,-0.43606331944465637,-1.407614827156067
1782968817199614500,10.656614501953126,-1.3520243167877197,-0.43497195839881897,-1.4102338552474976
1782968817209540600,10.66654052734375,-1.2797199487686157,-0.3766673803329468,-1.3893932104110718
1782968817219466800,10.676466796875,-1.195475459098816,-0.30458226799964905,-1.3454313278198242
1782968817229393700,10.6863935546875,-1.0970662832260132,-0.21901729702949524,-1.286238670349121
1782968817239319600,10.696319580078125,-1.0009530782699585,-0.13940583169460297,-1.2210811376571655
1782968817249245700,10.70624560546875,-0.9159796237945557,-0.07648305594921112,-1.162063717842102
1782968817259172600,10.716172607421875,-0.8374277949333191,-0.03377128019928932,-1.1057828664779663
1782968817269098500,10.726098388671875,-0.7610248923301697,-0.021867215633392334,-1.051264762878418
1782968817279024600,10.736024658203124,-0.6844262480735779,-0.015421832911670208,-1.0007133483886719
1782968817288951600,10.74595166015625,-0.6156405210494995,0.0010178601369261742,-0.9685160517692566
1782968817298877700,10.755877685546874,-0.5698757171630859,0.01919393427670002,-0.9548074007034302
1782968817308803600,10.765803466796875,-0.5300196409225464,0.04754887521266937,-0.9492440819740295
1782968817318730500,10.77573046875,-0.48918700218200684,0.10323504358530045,-0.9375836849212646
1782968817328656600,10.78565673828125,-0.45336854457855225,0.17923526465892792,-0.9223743677139282
1782968817338582800,10.795582763671876,-0.416847825050354,0.2630199193954468,-0.9016001224517822
1782968817348508700,10.8055087890625,-0.41508615016937256,0.33135104179382324,-0.8652083277702332
1782968817358435600,10.815435546875,-0.4574911296367645,0.35601162910461426,-0.7893326878547668
1782968817368361700,10.82536181640625,-0.5119530558586121,0.36158430576324463,-0.735965371131897
1782968817378287600,10.83528759765625,-0.5050660967826843,0.4044766426086426,-0.7754626870155334
1782968817388214500,10.845214599609376,-0.40708282589912415,0.47519129514694214,-0.8729972243309021
1782968817398140700,10.855140625,-0.22719693183898926,0.48628920316696167,-0.9151963591575623
1782968817408066800,10.86506689453125,0.0003605920064728707,0.40014901757240295,-0.8130596280097961
1782968817417993500,10.874993408203125,0.24958986043930054,0.28732365369796753,-0.5495195984840393
1782968817427919600,10.884919677734375,0.4755609333515167,0.2068604975938797,-0.16915307939052582
1782968817437845800,10.894845703125,0.6813039779663086,0.11848536878824234,0.2578565776348114
1782968817447772700,10.904772705078125,0.8460721373558044,0.02708008699119091,0.6357164978981018
1782968817457698600,10.914698486328126,0.9423816204071045,-0.05323232710361481,0.8768726587295532
1782968817467624700,10.924624755859375,0.9816811084747314,-0.12526097893714905,0.998077929019928
1782968817477551600,10.934551513671876,0.9822502136230469,-0.16729897260665894,1.0109620094299316
1782968817487477500,10.9444775390625,0.9460040926933289,-0.17905017733573914,0.9356486201286316
1782968817497403600,10.954403564453125,0.897128164768219,-0.15094397962093353,0.8024282455444336
1782968817507330600,10.96433056640625,0.8572158813476562,-0.0777515172958374,0.6717965006828308
1782968817517256700,10.974256591796875,0.8435293436050415,0.009729326702654362,0.5997529029846191
1782968817527182600,10.9841826171875,0.8503656983375549,0.09092245250940323,0.6024685502052307
1782968817537109500,10.994109619140625,0.875389814376831,0.1778128743171692,0.680762529373169
1782968817547035600,11.00403564453125,0.9396974444389343,0.2312537282705307,0.7998873591423035
1782968817556961500,11.01396142578125,1.0285413265228271,0.2675797641277313,0.939493715763092
1782968817566888400,11.023888427734375,1.1274425983428955,0.2610318660736084,1.0660582780838013
1782968817576814600,11.033814697265624,1.219610333442688,0.182608962059021,1.1566239595413208
1782968817586740700,11.04374072265625,1.2933154106140137,0.06960251182317734,1.198028326034546
1782968817596667600,11.053667724609374,1.335578203201294,-0.06409189850091934,1.1885535717010498
1782968817606593500,11.063593505859375,1.3271466493606567,-0.18619251251220703,1.1456652879714966
1782968817616519700,11.073519775390626,1.2758818864822388,-0.2669941484928131,1.0911740064620972
1782968817626446800,11.08344677734375,1.1803934574127197,-0.33025220036506653,1.0107505321502686
1782968817636372500,11.09337255859375,1.0673062801361084,-0.3674347400665283,0.9170227646827698
1782968817646298600,11.103298583984374,0.9427393078804016,-0.3681231737136841,0.8116880655288696
1782968817656225800,11.113225830078125,0.8212459087371826,-0.3379833698272705,0.7139309048652649
1782968817666151400,11.1231513671875,0.7142810821533203,-0.29040226340293884,0.6322530508041382
1782968817676077600,11.13307763671875,0.6220385432243347,-0.23546871542930603,0.5747463703155518
1782968817686004700,11.143004638671876,0.5457109808921814,-0.18778881430625916,0.5335816144943237
1782968817695930600,11.1529306640625,0.4927945137023926,-0.15898218750953674,0.5028570294380188
1782968817705856500,11.1628564453125,0.46091169118881226,-0.15431393682956696,0.4624560475349426
1782968817715782700,11.17278271484375,0.44293826818466187,-0.1621982306241989,0.42872074246406555
1782968817725709600,11.18270947265625,0.42420694231987,-0.14960627257823944,0.4049307107925415
1782968817735636200,11.19263623046875,0.40242254734039307,-0.1007860004901886,0.38513943552970886
1782968817745562000,11.20256201171875,0.4191674292087555,-0.0386163666844368,0.3751954436302185
1782968817755489000,11.212489013671876,0.44551676511764526,0.03705628961324692,0.3517170250415802
1782968817765415200,11.222415283203125,0.40948259830474854,0.15965251624584198,0.35268881916999817
1782968817775341000,11.232341064453125,0.36316248774528503,0.31339412927627563,0.3838139772415161
1782968817785268000,11.24226806640625,0.3746764063835144,0.42517605423927307,0.4164515435695648
1782968817795194000,11.252194091796875,0.4350489377975464,0.4317287802696228,0.43750250339508057
1782968817805120300,11.262120361328124,0.4781588613986969,0.37130483984947205,0.4689485728740692
1782968817815047000,11.272046875,0.5003001093864441,0.28526291251182556,0.5152297616004944
1782968817824973000,11.28197314453125,0.50815349817276,0.16624489426612854,0.5549183487892151
1782968817834899200,11.291899169921875,0.5060150027275085,0.03122023679316044,0.5688520073890686
1782968817844826000,11.301826171875,0.4833669364452362,-0.07728653401136398,0.5544618964195251
1782968817854752000,11.311751953125,0.4399731159210205,-0.14525572955608368,0.518157958984375
1782968817864678100,11.32167822265625,0.4203365743160248,-0.17449191212654114,0.4560628831386566
1782968817874605000,11.33160498046875,0.33351990580558777,-0.17207136750221252,0.3493175208568573
1782968817884531000,11.341531005859375,0.3009662330150604,-0.10380176454782486,0.18549741804599762
1782968817894457000,11.35145703125,0.21482788026332855,-0.06502347439527512,-0.035302065312862396
1782968817904384300,11.36138427734375,0.10589074343442917,-0.05968330428004265,-0.2505693733692169
1782968817914310100,11.37131005859375,-0.042867839336395264,-0.05161898583173752,-0.3727458715438843
1782968817924236000,11.381236083984374,-0.17955990135669708,0.001073786523193121,-0.3913933336734772
1782968817934163200,11.3911630859375,-0.2533198893070221,0.0459163598716259,-0.3546201288700104
1782968817944089000,11.401089111328124,-0.31197839975357056,0.16844254732131958,-0.1730996072292328
1782968817954015200,11.41101513671875,-0.40217140316963196,0.14473187923431396,0.04385880008339882
1782968817963942100,11.420942138671874,-0.46317777037620544,0.0404861718416214,0.13364194333553314
1782968817973868000,11.430867919921875,-0.46129730343818665,0.15283694863319397,0.17098292708396912
1782968817983794200,11.440794189453126,-0.4483170807361603,0.27237027883529663,0.14318165183067322
1782968817993720000,11.450719970703124,-0.4505871534347534,0.30602172017097473,0.06831647455692291
1782968818003647000,11.46064697265625,-0.4687959849834442,0.3050094544887543,0.00015712650201749057
1782968818013573000,11.470572998046874,-0.5282683372497559,0.25437742471694946,-0.020395552739501
1782968818023499300,11.480499267578125,-0.6217450499534607,0.03271693363785744,-0.03635294735431671
