time,seconds_elapsed,z,y,x
1782969683584089000,0.082089111328125,0.12286533216834068,-0.048607232911139726,0.07560059990733861
1782969683594015200,0.09201513671875,0.15292027869224548,-0.011661942351609467,0.14846782932803035
1782969683603941000,0.101941162109375,0.0648591334015131,-0.0038943770900368687,0.05958674595654011
1782969683613868300,0.111868408203125,-0.07012158397436141,-0.11280454140305518,0.12690956605784595
1782969683623794200,0.121794189453125,-0.1056149221599102,0.0540185904353857,-0.1459940596256405
1782969683633720000,0.131719970703125,-0.19838205318450927,0.17785130633115767,-0.37868484432101246
1782969683643646200,0.141646240234375,-0.3358025649279356,-0.09706935826316475,-0.39226292249225075
1782969683653573000,0.151572998046875,-0.33904198524057866,-0.25997502439692616,-0.45003282828517255
1782969683663499000,0.1614990234375,-0.25173896484076974,-0.2589351599551737,-0.4278719229467213
1782969683673425200,0.171425048828125,-0.10674714106023311,-0.15473668046444652,-0.2473134034834802
1782969683683352300,0.181352294921875,-0.09893851313591003,-0.029498043293505905,0.14046148687452076
1782969683693278000,0.19127783203125,-0.13824176499843596,0.19113295883908868,0.4751509029287845
1782969683703204000,0.2012041015625,-0.027931963020563125,0.2690057414621115,0.5733709655970335
1782969683713131300,0.21113134765625,0.14176760103702543,0.050600160294026135,0.4477916252296418
1782969683723057200,0.22105712890625,0.27434710249006744,-0.23322277268022298,0.4365968619983643
1782969683732983000,0.230983154296875,0.4282271661251783,-0.35324265228956936,0.3512283167924732
1782969683742909200,0.2409091796875,0.5872258879482746,-0.24123101482987402,-0.18700594203695653
1782969683752836400,0.25083642578125,0.5131827466160058,-0.10033391301706433,-0.4531337899751961
1782969683762762000,0.260761962890625,0.3674596859514713,0.008722527898848056,-0.3478386743541807
1782969683772688100,0.270688232421875,0.18614158029258251,0.027122692464292046,0.021813260944560167
1782969683782615300,0.280615234375,-0.2585907304316759,0.0052465223513543605,0.4394163763985037
1782969683792541000,0.290541015625,-0.658226008322835,0.0257850141197443,0.5054994986370206
1782969683802467000,0.300467041015625,-0.8014104904204606,0.06999357368052006,0.2814168216805905
1782969683812394200,0.310394287109375,-0.6900859584420919,-0.009919044207036494,0.03276961231008172
1782969683822320000,0.320320068359375,-0.3214677501052618,-0.11283990497738122,-0.11910334928631781
1782969683832246000,0.33024609375,0.06971651030480862,-0.16170374299809337,-0.12585172756798566
1782969683842172200,0.340172119140625,0.2984124532103538,-0.17244973954856394,0.002373451133072376
1782969683852099000,0.35009912109375,0.3734457746237516,-0.08764759605377911,0.125963444314152
1782969683862025200,0.360025146484375,0.470408603772521,-0.021559797640144825,0.023952684126049277
1782969683871951000,0.369951171875,0.42056057702004906,0.0028711715221405028,0.023964082302898166
1782969683881878000,0.3798779296875,0.2319043835580349,-0.020239216560870407,-0.009462824872136115
1782969683891804200,0.38980419921875,0.008723989203572273,-0.07532543622776866,-0.09197166979797183
1782969683901730000,0.39972998046875,-0.13009294533431529,-0.06748875125274062,-0.08798676488026975
1782969683911657200,0.4096572265625,-0.11208733304440975,-0.008919511775672436,-0.032327202304825185
1782969683921583000,0.4195830078125,-0.05401917495727539,0.0005992810674011707,0.06640197892934084
1782969683931509200,0.42950927734375,-0.029153613770008087,-0.00993994086459279,0.14371617782153187
1782969683941435100,0.43943505859375,-0.038766660767793656,-0.042789194282144304,0.15754114342592657
1782969683951362000,0.449362060546875,-0.03552256428003311,-0.0482674795627594,0.08572941440753638
1782969683961288200,0.4592880859375,0.006123451316356659,-0.056364276778697965,-0.03130984195582569
1782969683971214000,0.469214111328125,0.14219722462594508,0.07922609692811966,-0.012755655872449279
1782969683981141000,0.47914111328125,0.35373861911296844,0.06021642216220498,0.03950345060974359
1782969683991067100,0.489067138671875,0.39090719703435894,-0.10874956692382692,0.08403020927421748
1782969684000993300,0.4989931640625,0.38029461760520933,-0.24753581406250594,0.30048436411358415
1782969684010920000,0.508919921875,0.3336597076803446,-0.12551423924192787,0.376208078943938
1782969684020846000,0.51884619140625,0.17409458414614198,0.06492547663599252,0.23302958819568156
1782969684030772200,0.528772216796875,0.09083177904784678,0.07846767977625131,0.0024290537778288127
1782969684040698000,0.538697998046875,0.07959317667484284,-0.02046133487895131,-0.18993907287940381
1782969684050625000,0.548625,0.009747487032413482,-0.08057984962463378,-0.25257147014215586
1782969684060551200,0.55855126953125,-0.0082435122102499,-0.07386427763402462,-0.18944449429549276
1782969684070477300,0.568477294921875,-0.06271218450069427,-0.11899813534617423,-0.1048318089582026
1782969684080404000,0.578404052734375,-0.1464583892017603,-0.20164485437273977,-0.10440773832723498
1782969684090330000,0.588330078125,-0.17876199143528937,-0.1465476749204099,0.02196618648394942
1782969684100256300,0.59825634765625,-0.15615502282977103,-0.043609424623847,0.1882438132688403
1782969684110183200,0.60818310546875,-0.038481998607516284,-0.00090104049295187,0.24857085619866848
1782969684120109000,0.618109130859375,0.12651450232565403,-0.06034867023974657,0.24519619213379917
1782969684130035200,0.62803515625,0.23845687394142148,-0.1270018474511802,0.12640811934173107
1782969684139961300,0.63796142578125,0.2794698523312807,-0.16804259063079952,-0.026255115849524734
1782969684149888000,0.647887939453125,0.25509295144379135,-0.15546543313041328,-0.10606873034201562
1782969684159814100,0.657814208984375,0.13665654163360594,-0.03706204880699515,-0.0642239042378962
1782969684169740300,0.667740234375,0.009506664013862609,0.05969064472243189,0.14088519217930734
1782969684179667200,0.677667236328125,-0.010844050097465514,0.012868395531922578,0.1334974200155586
1782969684189593000,0.687593017578125,0.051630818516016,-0.07703530888557433,0.015414865144342184
1782969684199519200,0.697519287109375,0.16310381905436516,-0.15652634036019444,-0.13866298608519137
1782969684209446100,0.707446044921875,0.24974516067504882,-0.19292042677775023,-0.2604142195317894
1782969684219372000,0.7173720703125,0.23710779742002486,-0.18793036340549588,-0.2109394830711186
1782969684229298200,0.727298095703125,0.22423253375589847,-0.1278286536641419,-0.09694302846975623
1782969684239225000,0.73722509765625,0.2824023986518383,-0.059953533442318435,0.026360768181085584
1782969684249151200,0.747151123046875,0.29748423244953154,-0.02381634439527988,0.12503493129238485
1782969684259077000,0.7570771484375,0.26946517566740513,-0.05347045503333211,0.1718392064347863
1782969684269003300,0.767003173828125,0.16132979511916637,-0.10718202534615993,0.1386097945932299
1782969684278930200,0.77693017578125,0.04488017521202564,-0.132691437394917,0.0697116879992187
1782969684288856000,0.78685595703125,-0.08026011615097522,-0.14796221789345143,0.0524962762389332
1782969684298782200,0.7967822265625,-0.21353695221841335,-0.12309694896712899,0.009491320314258336
1782969684308709000,0.806709228515625,-0.22622341531217097,-0.07957388745248317,-0.002719488091766834
1782969684318635300,0.81663525390625,-0.1568926894545555,0.06158040399178862,0.14813311748094857
1782969684328561200,0.82656103515625,-0.23199849158227442,-0.08409165713787078,0.23564006295502185
1782969684338488000,0.836488037109375,-0.42918402845859527,-0.17926482639089225,0.07035692710019648
1782969684348414200,0.846414306640625,-0.4334592215597629,-0.018896569780260324,0.013657938474416731
1782969684358340400,0.85634033203125,-0.2642752058088779,-0.01040872742012143,0.020582696236297486
1782969684368266000,0.866265869140625,-0.08834054675400256,-0.16941504802778362,0.05419453152418136
1782969684378193200,0.876193115234375,0.07320201433300971,-0.19739274988621472,0.033778497091680765
1782969684388119300,0.886119384765625,0.1386754802405834,-0.14181436278820037,0.027736805774644015
1782969684398045200,0.896045166015625,0.1527753172636032,-0.05510755471587181,0.11944587911367416
1782969684407972000,0.90597216796875,0.13817629854679106,-0.01189823532551527,0.215835292288661
1782969684417898200,0.915898193359375,0.04039280066490173,-0.04846943187564611,0.12994813003614544
1782969684427824400,0.925824462890625,-0.061897945508360856,-0.08539177995100616,0.052667833413556214
1782969684437751000,0.9357509765625,-0.09442892675697803,-0.09048837243765592,0.03753514621146023
1782969684447677200,0.94567724609375,-0.10310732325315475,-0.08326236670687794,0.03839132464937865
1782969684457603300,0.955603271484375,-0.08669687120020389,-0.0605528145097196,0.03624422961808741
1782969684467529000,0.965529052734375,-0.034818215402960775,-0.06191825764402747,0.03564144141934812
1782969684477456100,0.9754560546875,0.021671733582019806,-0.08258286001011729,0.039136370863020416
1782969684487382300,0.98538232421875,0.014347089782357216,-0.1360458623893559,0.04171002074331045
1782969684497308200,0.99530810546875,0.05005319393575191,-0.1226250936716795,0.03592734568864107
1782969684507235000,1.005235107421875,0.024536475363373753,-0.07550941449254751,0.031726532997936006
1782969684517161200,1.0151611328125,-0.043562662872672075,-0.03791267428696155,0.08037117531001567
1782969684527087000,1.025087158203125,-0.09759703539907932,-0.009184007930755614,0.13207761634550988
1782969684537013000,1.035012939453125,-0.09138765936493873,-0.0045788522228598595,0.134818001094833
1782969684546940200,1.044940185546875,-0.019691957941651343,-0.004910568395256996,0.11057846285142003
1782969684556866000,1.054865966796875,0.042183775734901424,-0.03488806576877832,0.05889569495245814
1782969684566792200,1.064792236328125,0.14130465970039366,-0.06399681748375297,0.01458542858287692
1782969684576719000,1.074718994140625,0.10558101989030838,-0.10898746733292937,-0.006113587509468198
1782969684586645200,1.084645263671875,0.11371756459474563,-0.0908420081809163,-0.061393576182797546
1782969684596571100,1.094571044921875,0.07850304335057735,-0.12796937730908392,-0.09940167366825044
1782969684606498300,1.104498291015625,0.05505903939902782,-0.16489844738617537,-0.11391403701491654
1782969684616424200,1.114424072265625,0.057680035552382464,-0.15149901371747254,-0.09559753214493394
1782969684626350000,1.12435009765625,0.06588906097114086,-0.029322248335182665,-0.01525382936373353
1782969684636276200,1.134276123046875,0.10623626892864703,0.029958792673051356,0.08355608895644545
1782969684646203100,1.144203125,0.110490419241786,0.04505158625617623,0.2675458980426192
1782969684656129000,1.15412890625,0.036597500035166736,0.04719634319990873,0.3251058874119073
1782969684666055200,1.16405517578125,-0.004304419195652008,0.02110211700052023,0.2491726214841008
1782969684675982300,1.173982421875,-0.022349194452166557,0.01507291983887553,0.17580314162969587
1782969684685908000,1.183907958984375,-0.009457564175128936,-0.04510419322624802,0.04366707309521734
1782969684695834000,1.193834228515625,0.035329672056436535,-0.08671206876933574,-0.04665244558155537
1782969684705761300,1.20376123046875,0.03300093684792518,-0.12376184261664748,-0.13005129814967512
1782969684715687000,1.21368701171875,0.07772270662784576,-0.09504062891453505,-0.16868432260043917
1782969684725613000,1.223613037109375,0.08440262278318404,-0.05427110389173031,-0.13283486445359885
1782969684735539200,1.233539306640625,0.0967348656117916,-0.023700462930649518,-0.07986183754839003
1782969684745466000,1.243466064453125,0.11398352205455302,-0.012520166616141795,-0.018186156488582492
1782969684755392000,1.25339208984375,0.10034604184627532,-0.0011503390789031982,0.11539989165849983
1782969684765318100,1.263318115234375,0.06520049418509007,0.04006166901439428,0.18793116712309418
1782969684775245300,1.273245361328125,-0.04266659081578254,0.02189882033616304,0.13320077515654266
1782969684785171000,1.2831708984375,-0.11453005002140998,-0.038991555564850566,0.05130195188783109
1782969684795097000,1.29309716796875,-0.12518822215795516,-0.05816869585216045,-0.06075918726939707
1782969684805024300,1.303024169921875,-0.030813655936717987,-0.07718231614083051,-0.12413085859213023
1782969684814950100,1.3129501953125,0.08178162662982941,-0.09056348350048064,-0.10477602365035563
1782969684824876000,1.3228759765625,0.1709960336089134,-0.0853083394512534,-0.02241780270896852
1782969684834802200,1.33280224609375,0.19347674548625945,-0.03904956936240196,0.11774338604472577
1782969684844729000,1.34272900390625,0.1750093609035015,-0.0228024911776185,0.1406850664973259
1782969684854655000,1.352655029296875,0.12910159620940684,-0.022393179724365473,0.1107408868715167
1782969684864581000,1.3625810546875,0.10571429088115691,-0.03973272932097315,0.08852101788744329
1782969684874508000,1.372508056640625,0.08603168528974056,-0.05902794302999973,0.06441679646149277
1782969684884434200,1.38243408203125,0.05204582905769348,-0.05540682992339134,0.03559873478878289
1782969684894360000,1.392360107421875,0.03977320746183395,-0.07886661596596241,0.014569938752800226
1782969684904287000,1.402286865234375,0.0679524232417345,-0.07373670573160052,0.05392729542274028
1782969684914213000,1.412213134765625,0.06698328594863415,-0.03750950031355023,0.11390216391403227
1782969684924139300,1.42213916015625,-0.01953822868466377,-0.00013224807754158972,0.13824969257656483
1782969684934065200,1.432065185546875,-0.13696049301624297,-0.027983693207800385,0.11436521484851836
1782969684943992000,1.441991943359375,-0.1678507213205099,-0.03900660700351,0.003266344852186739
1782969684953918200,1.451918212890625,-0.11972001987993716,-0.06934475438296794,-0.0925925051100552
1782969684963844000,1.461843994140625,-0.03539981468319893,-0.11199088693261146,-0.11548577984366565
1782969684973771000,1.47177099609375,0.06708382371366024,-0.08438347969129681,-0.12351524744443594
1782969684983697200,1.481697265625,0.1653407843261957,-0.057424453356117004,-0.0515707223592326
1782969684993623300,1.491623291015625,0.2046902134180069,-0.01453925135359168,0.07249664254263043
1782969685003550000,1.501550048828125,0.16736965980529783,0.027312662078440186,0.1605022582538426
1782969685013476000,1.51147607421875,-0.0690764588356018,0.002810819637030363,0.10735968346800655
1782969685023402200,1.52140234375,-0.2921218286335468,-0.03754895554110407,0.009206621621362864
1782969685033328000,1.531328125,-0.29885785889029504,-0.05967427810952067,-0.05049556740839034
1782969685043255000,1.541255126953125,-0.17199907317161559,-0.08872852315828203,-0.046051082154922186
1782969685053181200,1.55118115234375,-0.02631049929857254,-0.06430602956339716,0.010984116155281663
1782969685063107300,1.561107421875,0.11709317850768565,-0.04806786533743143,0.06601604835167527
1782969685073034000,1.571033935546875,0.2105278335303068,-0.05450052873343229,0.06958981518521905
1782969685082960100,1.580960205078125,0.251902630969882,-0.1329243693679571,0.013167451543733477
1782969685092886300,1.59088623046875,0.26724282344281675,-0.2808038774140179,-0.17300335484333335
1782969685102812400,1.6008125,0.19786358226835726,0.10822583531066775,-0.008923566896282136
1782969685112739000,1.610739013671875,0.17853168981075285,0.18319135218486188,0.20878559297285973
1782969685122665200,1.620665283203125,0.05232406147718429,-0.11363324731215833,0.047969848323054606
1782969685132591400,1.63059130859375,-0.033086861565709114,-0.033234599473327395,0.05201101347263902
1782969685142518300,1.640518310546875,-0.019193360769748688,0.02797141824811697,0.12015647506844251
1782969685152444200,1.650444091796875,-0.07004267351925372,-0.09235328952670097,0.05416895869150758
1782969685162370300,1.660370361328125,-0.06400105526745319,-0.12045169515535235,0.03626403029710054
1782969685172297200,1.670297119140625,-0.048481414574384686,-0.12792773012444375,0.03996003527082503
1782969685182223000,1.68022314453125,-0.023891163197159764,-0.10901596277505159,0.05715805750489235
1782969685192149200,1.690149169921875,-0.021648937228322028,-0.07491130246892572,0.10385832428354769
1782969685202075100,1.7000751953125,-0.06268237388432026,-0.037602000902593136,0.10475640563443303
1782969685212002300,1.710002197265625,-0.07567688001394271,-0.025724662234634158,0.040103571927361185
1782969685221928200,1.71992822265625,-0.018100304836034774,-0.04543371744155884,-0.028506292309798297
1782969685231854000,1.72985400390625,0.05312193385660648,-0.07349193719029426,-0.04165562367495149
1782969685241781200,1.73978125,0.14123159446418285,-0.0874132027760148,-0.01749777236562222
1782969685251707100,1.74970703125,0.20606617794632912,-0.06354059814885259,0.00004712707735598087
1782969685261633300,1.75963330078125,0.24046353758871553,-0.05260886976793408,0.023864019461907447
1782969685271560200,1.769560302734375,0.21852058584988115,-0.05325067480280995,0.05744355991538614
1782969685281486300,1.779486328125,0.14840601613819598,-0.07069368477389217,0.055812232386507094
1782969685291412200,1.789412109375,0.12506781064867972,-0.036963849129527805,0.08419953795913607
1782969685301338000,1.799338134765625,0.06228548352122307,-0.027897622359544037,0.07035963051393627
1782969685311265300,1.809265380859375,-0.024795418560504913,-0.03836450970768928,0.00900927241835743
1782969685321191200,1.819191162109375,-0.11297639083862304,-0.06152253632470965,0.00722973205782473
1782969685331117000,1.829116943359375,-0.16786241175830363,-0.07543532634302973,0.0038933907093480226
1782969685341044200,1.839044189453125,-0.16217618281543253,-0.09640256491750478,0.03568480563703924
1782969685350970400,1.848970458984375,-0.06472995406389236,-0.07245908701121807,0.10537183411903679
1782969685360896000,1.85889599609375,-0.04760170913040638,-0.056931263011693954,0.15100235277432947
1782969685370822100,1.868822265625,-0.09104746762514114,-0.02159662251919508,0.1806321326887235
1782969685380749300,1.878749267578125,-0.12660218060910702,-0.007926262954622506,0.09612298079114406
1782969685390675000,1.888675048828125,-0.1719680935114622,-0.07332929397448897,-0.021087138627097008
1782969685400601000,1.89860107421875,-0.1450894389361143,-0.1123880695566535,-0.050304282619990405
1782969685410528300,1.9085283203125,-0.06459200689792632,-0.11224763817265629,-0.05824475676305592
1782969685420454100,1.9184541015625,0.03237900555729866,-0.09704086282104253,-0.03413973161950707
1782969685430380000,1.928380126953125,0.14867255811989308,-0.07635302570983767,0.03437288278825581
1782969685440307200,1.93830712890625,0.23267653697431087,-0.049397360375523565,0.07775109247211366
1782969685450233300,1.9482333984375,0.26918811229169365,-0.03712999947667121,0.0919660803074017
1782969685460159200,1.9581591796875,0.24773440537452696,-0.04832330140322447,0.07628083725646138
1782969685470085000,1.968085205078125,0.1931084966957569,-0.0654471624225378,0.0587030219245702
1782969685480012300,1.97801220703125,0.12512275570631026,-0.06128200556710362,0.03365731839742511
1782969685489938200,1.987938232421875,0.06301905849277972,-0.04988645906671881,0.07637918306440114
1782969685499864000,1.997864013671875,-0.0347866512209177,-0.053115065724402666,0.09429258702620863
1782969685509791200,2.007791259765625,-0.0640402182340622,-0.07115399576202035,0.060992776829563077
1782969685519717000,2.017717041015625,-0.038328853872418404,-0.0849416980959475,0.06008523353058844
1782969685529643300,2.027643310546875,-0.033168110108375545,-0.0965418272577226,0.03164619777072221
1782969685539569200,2.037569091796875,-0.044054245781898496,-0.08035086317434907,0.0038071006653830407
1782969685549496000,2.04749609375,0.010227964025735855,-0.07487710793837904,-0.015689042443223295
1782969685559422200,2.057422119140625,0.08649053497314453,-0.08198913190066814,0.010870938104391097
1782969685569348000,2.06734814453125,0.17053309227228164,-0.07303951724767685,0.11420078153442591
1782969685579275000,2.07727490234375,0.17149463078081606,-0.07512012291401625,0.0937225685859099
1782969685589201200,2.087201171875,0.09567921907901764,-0.04304842974022031,0.0677518957009539
1782969685599127300,2.097127197265625,-0.0004196867167949676,-0.013018471527099609,0.09713409406244754
1782969685609054200,2.10705419921875,-0.028006781822443007,-0.0059871115855872625,0.06135010236725211
1782969685618980000,2.11697998046875,-0.03514788574874401,-0.014373977789282798,0.05169778280500322
1782969685628906200,2.12690625,-0.04608545934855938,-0.009954261650890112,0.08220376103203743
1782969685638832000,2.13683203125,0.015996610555052755,-0.037438919295370576,0.053196095071360465
1782969685648759000,2.146759033203125,0.01849485711157322,-0.09937851198837161,0.0428499114934355
1782969685658685200,2.156685302734375,-0.0032698154509067535,-0.09984481432586907,0.017489004537276923
1782969685668611300,2.166611328125,0.022219430592656134,-0.08983502309545874,0.02465506024174392
1782969685678538000,2.1765380859375,0.06736673230826855,-0.07209887539669871,0.07570048008523882
1782969685688464100,2.186464111328125,0.13866963502168655,-0.045715018600970506,0.08413191608302295
1782969685698390300,2.196390380859375,0.14430617960393427,-0.006108546008169651,0.11723284270670264
1782969685708317200,2.206317138671875,0.10561375311613082,0.01709039714112878,0.1606872959645465
1782969685718243000,2.2162431640625,0.03420446741878986,0.04860971712917089,0.1755286720698699
1782969685728169200,2.226169189453125,-0.02495148590505123,0.04139598635807633,0.14605802823994307
1782969685738095400,2.236095458984375,-0.02608428932726383,-0.0036430326774716374,0.09717870038915424
1782969685748022000,2.24602197265625,-0.07464987505376339,-0.03360606313422322,0.051073001970164476
1782969685757948200,2.2559482421875,-0.10933365042209625,-0.06761062406674027,0.004510280498676002
1782969685767874300,2.265874267578125,-0.08596271170675754,-0.0826018569715321,-0.05823449109736829
1782969685777801200,2.27580126953125,-0.06437573379874229,-0.1018392030134797,-0.12681564069669693
1782969685787727000,2.28572705078125,-0.02683598447740078,-0.10603694696426391,-0.1254145051945001
1782969685797653200,2.2956533203125,0.03960954133272171,-0.09501111055910587,-0.0878783360697329
1782969685807579400,2.305579345703125,0.09340776701569557,-0.07325199095457792,-0.0218614109352231
1782969685817506000,2.315506103515625,0.12743863143324852,-0.056954059365391725,0.037475707641802726
1782969685827432200,2.32543212890625,0.14991583617925644,-0.05994564239680767,0.08047781402226536
1782969685837358300,2.3353583984375,0.16637655711472032,-0.05729425110518932,0.135226253102161
1782969685847285200,2.34528515625,0.1645528488188982,-0.062266048168390986,0.18208613088931888
1782969685857211100,2.355211181640625,0.12746844204962252,-0.06793342628031969,0.2113304186174646
1782969685867137300,2.36513720703125,0.01869827072918415,-0.06494798072874546,0.24275201385207473
1782969685877064200,2.375064208984375,-0.060140872707962985,-0.057003305334597826,0.19012104185018688
1782969685886990000,2.384989990234375,-0.11160334891974925,-0.07255553312301635,0.12158449857756495
1782969685896916200,2.394916259765625,-0.11069383285939693,-0.10226225073114037,0.03904277429543435
1782969685906842000,2.404842041015625,-0.059687868243455885,-0.0729683517076075,0.009446275596134365
1782969685916769300,2.414769287109375,0.019274609312415123,-0.04733545940965414,0.014996384003944693
1782969685926695200,2.424695068359375,0.05431143590211868,-0.025873130794614552,-0.0036676556620746847
1782969685936621300,2.434621337890625,0.04998363583087921,0.025669278785586357,0.009376352165080606
1782969685946548200,2.44454833984375,0.005851064115762711,-0.022767858255654572,0.003494637182727456
1782969685956474400,2.454474365234375,-0.03477496078312397,-0.03593377542942762,0.001853226651251316
1782969685966400300,2.464400146484375,-0.003456277933716774,-0.03410743678510189,0.012111183956451714
1782969685976326100,2.474326171875,0.005412672698497772,-0.06778188898041844,-0.034426622269488866
1782969685986253300,2.48425341796875,0.04394727827608585,-0.08029270324632524,-0.07773735620770603
1782969685996179200,2.49417919921875,0.07472703194320202,-0.07804711627662181,-0.05332100009266287
1782969686006105000,2.50410498046875,0.08822013524472713,-0.041797845157235856,-0.03014562048204243
1782969686016032300,2.5140322265625,0.07050503033399581,-0.024168811094760892,-0.012122582133300601
1782969686025958400,2.52395849609375,0.025369419056177137,-0.008721797246485948,0.038914946664683515
1782969686035884000,2.533884033203125,-0.021295301485061643,-0.001231733752042055,0.06915668446496129
1782969686045811200,2.543811279296875,-0.05297112720906734,0.04359934162124991,0.055865643074177206
1782969686055737300,2.5537373046875,-0.10981646550297737,0.025187778878957033,0.007142419100552797
1782969686065663000,2.5636630859375,-0.12029577394127845,-0.019807839406281707,-0.023896606557257474
1782969686075589000,2.573589111328125,-0.027703999483585356,0.0023242051638662814,0.00568721532355994
1782969686085516300,2.583516357421875,0.10180442396104335,0.018367139078676698,0.03850917887538671
1782969686095441700,2.593441650390625,0.23801263730525968,-0.021104747349023817,0.06329403950925916
1782969686105367600,2.603367431640625,0.3215864080488682,-0.03286503550857305,0.06626034196894616
1782969686115294700,2.613294677734375,0.27919571156501766,-0.04503229703381657,0.031646124705486
1782969686125220600,2.623220703125,0.15258943930268287,-0.04884118779748678,0.022509937971830367
1782969686135146500,2.633146484375,0.040113399201631546,-0.03619257249608636,-0.01621569666583091
1782969686145073700,2.64307373046875,-0.06814239285588264,-0.052715691143274304,-0.058579395544901484
1782969686154999800,2.652999755859375,-0.1532715763479471,-0.07534238736256957,-0.08976067921761423
1782969686164925700,2.66292578125,-0.15597674365341663,-0.10730550559535622,-0.07272566552553325
1782969686174851600,2.6728515625,-0.0508989971101284,-0.10268602910116315,-0.036836679085902865
1782969686184778800,2.68277880859375,0.04513970293104648,-0.0610726006001234,0.021704649470932782
1782969686194704600,2.69270458984375,0.08457096508741378,-0.05804141621068119,0.08238901793844998
1782969686204630500,2.702630615234375,0.04352466894984245,-0.05949833702072501,0.0757463285209611
1782969686214557700,2.7125576171875,0.02561725633740425,-0.06282412044256926,0.0626117198009044
1782969686224483800,2.72248388671875,0.008949614652991295,-0.07833776978626847,0.03623995530176907
1782969686234409500,2.732409423828125,-0.010655834048986434,-0.07787263649255037,0.018312486281991003
1782969686244335600,2.742335693359375,0.02655015327334404,-0.060756958779692644,0.012083601829782128
1782969686254262800,2.7522626953125,0.02501286070346832,-0.06697802525162697,0.060195233243703836
1782969686264188400,2.7621884765625,0.02709726576209068,-0.030672640030831096,0.12095321493670344
1782969686274114600,2.772114501953125,0.05357727640867233,-0.0007953881613910198,0.10572119554597884
1782969686284041700,2.782041748046875,0.11349077010154723,-0.0168738317809999,0.09029124243035912
1782969686293967600,2.791967529296875,0.09400690195262432,-0.053106297896057364,0.0603367240736261
1782969686303893500,2.8018935546875,0.09523615148663521,-0.047005642933398484,0.01761690523326397
1782969686313820700,2.811820556640625,0.08917933566570281,-0.06729658968150615,0.0013536430986598133
1782969686323746600,2.82174658203125,0.08630231892466544,-0.06901610695049167,0.007595204369351267
1782969686333672700,2.831672607421875,0.041053894922137256,-0.08234013729542493,-0.002094305398128927
1782969686343598600,2.8415986328125,-0.04075929588973522,-0.08987973902001976,-0.034935192846134305
1782969686353525800,2.85152587890625,-0.08197510337531566,-0.07407017546966671,-0.041416335026361044
1782969686363451600,2.86145166015625,-0.04833177697062492,-0.07133154428601264,-0.025591281645931302
1782969686373377500,2.87137744140625,0.020202245551347732,-0.09527224571332335,0.0006469561340287327
1782969686383304700,2.8813046875,0.05216097986996174,-0.06491846237331629,0.016691935875453055
1782969686393230600,2.891230712890625,0.06277063668966293,-0.125122317314893,-0.004380881965346634
1782969686403156700,2.90115673828125,0.03928396264016628,-0.08295388527959585,-0.0008242489296942948
1782969686413082600,2.91108251953125,0.05548574037849903,0.05687646408453583,0.060061560394056135
1782969686423009500,2.921009521484375,0.02239303359389305,-0.06659720924049616,-0.013531535615772009
1782969686432935700,2.930935791015625,-0.051953474599123,-0.10083031823188066,-0.04417564367186278
1782969686442861600,2.940861572265625,-0.04589665877819061,-0.11088760186582804,-0.08184135746043175
1782969686452788500,2.95078857421875,-0.014319617253541946,-0.1403220784038305,-0.100665117732808
1782969686462714600,2.960714599609375,0.06357610785365105,-0.10616802599802613,0.005499583796970546
1782969686472640800,2.970640869140625,0.12224398539960384,-0.060183104414492844,0.1081370610486716
1782969686482567400,2.9805673828125,0.08910860851705074,-0.03179726014658808,0.16683632011357694
1782969686492493600,2.99049365234375,-0.030731238350272177,-0.02515299982652068,0.18189166776314378
1782969686502419700,3.000419677734375,-0.12594342443943024,-0.028115795154869554,0.1299783059787005
1782969686512345600,3.010345703125,-0.15838029766380787,-0.054795712287724015,0.07831289107333868
1782969686522272500,3.0202724609375,-0.10325579181313514,-0.07675166963860391,0.04226944472435862
1782969686532198700,3.03019873046875,0.021823709273338317,-0.06820318313241004,0.04173584930431098
1782969686542124800,3.040124755859375,0.0704880791991949,-0.07708864650800824,0.019477146147191524
1782969686552051500,3.050051513671875,0.1171300033867359,-0.08521846921071409,-0.025687691225111484
1782969686561977600,3.0599775390625,0.12463701801598072,-0.08385930968672037,-0.04406940681841224
1782969686571903700,3.06990380859375,0.11310673922002315,-0.07008782783523201,0.0010674465684220194
1782969686581830700,3.07983056640625,0.09220599001049995,-0.07189882277995348,0.007108297635242343
1782969686591756500,3.089756591796875,0.09145604842603205,-0.06403583431988955,0.018182685889862476
1782969686601682700,3.0996826171875,0.043885318955779073,-0.08558657187074423,0.026359964463487266
1782969686611608800,3.10960888671875,-0.026640754166245458,-0.1133332414522767,0.009894457755051553
1782969686621535500,3.119535400390625,-0.013771920242905616,-0.16906638072058558,-0.06693005792405456
1782969686631461600,3.129461669921875,-0.011012976923584937,-0.17414426850676534,-0.12736816001292317
1782969686641387800,3.1393876953125,-0.08311375201642512,-0.20060192119106648,-0.14602003431711344
1782969686651314700,3.149314697265625,-0.18971710069179534,-0.23238895220458505,-0.1595368838204071
1782969686661240600,3.159240478515625,-0.2934294041007757,-0.2134057270541787,-0.1594836192632094
1782969686671166700,3.169166748046875,-0.26740824313759803,-0.1426126735590398,-0.08330638851169496
1782969686681092900,3.1790927734375,-0.22581483451128004,-0.08292845857739448,0.019988858528994024
1782969686691019500,3.18901953125,-0.1529576880931854,-0.04175985123440623,0.08653444718010724
1782969686700945700,3.198945556640625,-0.012296586993336677,-0.0106191553004086,0.09119348849970847
1782969686710871800,3.208871826171875,0.1659375811755657,-0.04682195692956447,0.1191721036735922
1782969686720798700,3.218798828125,0.3169330292850733,0.0001911386579275131,0.2089460076989606
1782969686730724600,3.228724609375,0.3474538397550583,0.04729205865934491,0.26578816765509544
1782969686740650800,3.238650634765625,0.2841185549199581,0.037356209447979925,0.2794505265763029
1782969686750577700,3.24857763671875,0.24883622913658618,-0.0021206454157829285,0.2428180648256093
1782969686760503600,3.258503662109375,0.2148199777662754,-0.014054390446096658,0.12690423229560255
1782969686770429700,3.2684296875,0.17573124543726443,-0.07749737343937158,0.05870247393529862
1782969686780355600,3.27835546875,0.2066103678256273,-0.0926316680766642,0.04018219012152403
1782969686790282800,3.28828271484375,0.262281401643157,-0.06928264893218875,0.08874960247892887
1782969686800208600,3.298208740234375,0.20825521242320535,-0.04919219319224357,0.1375426402857527
1782969686810134500,3.308134521484375,0.07191606617569923,-0.008709083895385265,0.15097309014722704
1782969686820061700,3.318061767578125,-0.04398468767702579,-0.0074240125209093085,0.14067962313722818
1782969686829987800,3.32798779296875,-0.06701075847744942,0.005939473051577806,0.15416615056749433
1782969686839913700,3.337913818359375,0.00911444982588291,-0.010834405486285685,0.17645375102553515
1782969686849839600,3.347839599609375,0.09665186350345611,-0.027317776644974947,0.16639073177054522
1782969686859766800,3.357766845703125,0.15115326901972292,-0.05559957601651549,0.06566570054404437
1782969686869692700,3.367692626953125,0.15688275258243084,-0.11214140131920576,-0.06470536761190741
1782969686879618600,3.37761865234375,0.08174947792589664,-0.12646467183455823,-0.17080953459348527
1782969686889545700,3.387545654296875,-0.03968611370027065,-0.11214680814668536,-0.1373589542819187
1782969686899472000,3.397471923828125,-0.1347726275831461,-0.07967354843467474,-0.04617602370884269
1782969686909397500,3.4073974609375,-0.1468587866961956,-0.05608604435920715,0.021006474606320262
1782969686919324700,3.41732470703125,-0.10158113659918308,-0.1408458100169897,-0.008774185020849107
1782969686929250800,3.427250732421875,-0.07027765131890773,-0.1946167093016207,-0.05102543650139123
1782969686939176400,3.437176513671875,-0.04662614209651947,-0.11975742928087711,-0.05120656522195786
1782969686949102600,3.4471025390625,0.021309914532303808,-0.04094765806868672,0.049429180285893375
1782969686959029800,3.45702978515625,0.08434007894098758,-0.03222191529944539,0.15604093146342785
1782969686968955600,3.46695556640625,0.13819909490048884,-0.03377279800325632,0.19082476967275142
1782969686978881500,3.476881591796875,0.16591478482186794,-0.07679419360607861,0.18455091356765477
1782969686988808700,3.48680859375,0.14714344885647296,-0.13073767297863959,0.09512165826149284
1782969686998734600,3.496734619140625,0.09504676639437674,-0.10276450116485357,-0.01910736298672855
1782969687008660500,3.506660400390625,0.04643441891670227,-0.09673603465557098,-0.04332304543051869
1782969687018586600,3.516586669921875,0.040341947260499,-0.09039207245633006,-0.02177311159726232
1782969687028513800,3.526513671875,0.039030280140042305,-0.0828799432605505,0.005393273878283799
1782969687038439700,3.536439697265625,0.054233694490790366,-0.08952434971109031,0.04588493180777877
1782969687048365600,3.546365478515625,0.05191548067629337,-0.10328092625439167,0.030173421804420647
1782969687058292700,3.556292724609375,0.001527355697751045,-0.11917524547874926,0.0001289966745302081
1782969687068218600,3.566218505859375,-0.0964478653639555,-0.08030190946608781,-0.012721607472375034
1782969687078144500,3.57614453125,-0.1411339793086052,-0.04958367672786116,-0.01265595835763961
1782969687088071700,3.58607177734375,-0.0857248112976551,-0.02501432200819254,0.02336023465823382
1782969687097998000,3.595998046875,0.00963993500471115,-0.011768033074587583,0.059769299449212845
1782969687107924000,3.605924072265625,0.12360709044635296,-0.03587327741384506,0.07036711970064789
1782969687117850000,3.61585009765625,0.2195166111499071,-0.052988370604813095,0.11050715118087827
1782969687127777000,3.625777099609375,0.2053910551637411,-0.07619359736442566,0.09999887237641959
1782969687137703200,3.635703125,0.14360942951142788,-0.09992357865050434,0.0349891880556941
1782969687147629000,3.645629150390625,0.05899520980417728,-0.12989698437079786,-0.04298376700617373
1782969687157556000,3.655555908203125,-0.0076852938055992125,-0.15980112424716353,-0.09068948450032621
1782969687167482000,3.665482177734375,-0.007816811230778693,-0.1581368442967534,-0.061651021542586386
1782969687177408000,3.675407958984375,0.02984451864361763,-0.11192498208954929,0.0021090280432254074
1782969687187334100,3.685334228515625,0.05523030431270599,-0.07057122743800281,0.1010412210362032
1782969687197261000,3.695260986328125,0.12128069332540034,-0.07697013469487428,0.1748783184023574
1782969687207187200,3.705187255859375,0.11481938835680484,-0.07502499197646975,0.19872630004491657
1782969687217113000,3.715113037109375,0.06481178712844848,-0.11836407522633671,0.17887049331106245
1782969687227040000,3.7250400390625,-0.041456630504131314,-0.08346446515023707,0.13593374378439038
1782969687236966100,3.734966064453125,-0.1858154170781374,-0.08706190512031316,0.09596293139122426
1782969687246892000,3.74489208984375,-0.2381558451682329,-0.07837196431681513,0.04826466655116528
1782969687256819000,3.75481884765625,-0.19250643914937973,-0.026649229733645915,0.04168612841106951
1782969687266745000,3.7647451171875,-0.06690963619053364,-0.04153597935065627,0.0885034822307527
1782969687276671200,3.774671142578125,0.04654255546629429,-0.09299246421307325,0.10389938694629818
1782969687286597000,3.78459716796875,0.11460720691084861,-0.078130702906847,0.0673130293596536
1782969687296524000,3.79452392578125,0.11696283012628554,-0.09584317746907473,-0.043562297546491026
1782969687306450200,3.8044501953125,0.10363397747576236,-0.15627601886093614,-0.13316698248479514
1782969687316376000,3.8143759765625,0.08399930267930031,-0.1681187246069312,-0.18614651219602674
1782969687326303000,3.824302978515625,0.06966799498796462,-0.10379369808211922,-0.17272318619508295
1782969687336229000,3.83422900390625,0.05321370379328728,-0.01969692637771368,-0.05260974655076861
1782969687346155300,3.8441552734375,0.08516893098056316,0.021408406470716,0.09766093094814568
1782969687356081000,3.854080810546875,0.08034136469364166,0.04148746403381228,0.18629289839677513
1782969687366008000,3.864008056640625,0.06985328842699527,-0.0034261750563979146,0.19633867425601928
1782969687375934200,3.873934326171875,0.0490863947302103,-0.02581248664855957,0.1638506553662941
1782969687385859800,3.88385986328125,-0.005535422295331955,-0.05325944263115525,0.11444551354311407
1782969687395787000,3.893787109375,-0.09281564634144306,-0.08877265456095337,0.047964295365102584
1782969687405713200,3.903713134765625,-0.11545885530412196,-0.07395107913464308,-0.024042335170879958
1782969687415639000,3.91363916015625,-0.047265024521946905,-0.09822042799443007,-0.013864420831948518
1782969687425566000,3.92356591796875,0.02651215935051441,-0.08878682921677827,-0.003613514322042465
1782969687435492000,3.9334921875,0.10384265179038048,-0.03859232711419463,0.05987823971640318
1782969687445418200,3.943418212890625,0.1576981606185436,-0.04705298920646309,0.09200458568688481
1782969687455343900,3.95334375,0.20366203941404817,-0.06351473305523395,0.10574483214989304
1782969687465271000,3.96327099609375,0.19786708939969538,-0.10258403003141284,0.08687865750789642
1782969687475197200,3.973197265625,0.15481705222427844,-0.10302008336111902,0.039796442206948994
1782969687485123000,3.983123046875,0.07812719577550888,-0.10463365603759885,0.009027940586209296
1782969687495050000,3.993050048828125,0.024469839867949483,-0.11891601002067327,-0.016737492050230503
1782969687504976100,4.00297607421875,-0.07379764213860035,-0.13151055704727768,0.004444777514412999
1782969687514902000,4.012902099609375,-0.19214345105588435,-0.08061755128651857,0.020619411517493427
1782969687524828000,4.022827880859375,-0.270830618801713,-0.017611206144839523,0.053239568886905904
1782969687534755000,4.032755126953125,-0.29500878224670884,-0.022264000386744736,0.11346106908302754
1782969687544681000,4.042680908203125,-0.251432675370574,0.015641951898485423,0.1396861551204696
1782969687554607000,4.052607177734375,-0.13483867855668066,0.038465047472715376,0.08560545923430472
1782969687564534000,4.062533935546875,0.0837906283646822,0.015836597687751055,0.10486048706341534
1782969687574460000,4.0724599609375,0.28178455901443955,-0.028734657705575227,0.1078664274137467
1782969687584386000,4.082385986328125,0.38831308888792987,-0.06559358515590429,0.04406312320809811
1782969687594313200,4.092313232421875,0.3677852646440267,-0.12168240599408744,-0.07805953736677765
1782969687604239000,4.102239013671875,0.296127557143569,-0.12640928838551044,-0.10518412952721118
1782969687614165000,4.1121650390625,0.23446225134730336,-0.08570099203065037,-0.07109309588763862
1782969687624091100,4.122091064453125,0.14560089558959005,-0.01104337206184864,0.013651289537921546
1782969687634018000,4.13201806640625,-0.021423896300792694,0.007191226678341627,0.049677675154246384
1782969687643944000,4.14194384765625,-0.10336042123138904,-0.005900456215441227,0.08416052112299949
1782969687653870000,4.1518701171875,-0.07587269484698772,-0.01887669603601098,0.04202036533411592
1782969687663797200,4.16179736328125,-0.06593290011286736,-0.03551598840877414,0.010550218250043689
1782969687673723000,4.171722900390625,-0.07590308998525143,-0.034000761540234084,-0.016266878863796592
1782969687683649000,4.18164892578125,-0.09999299062490463,-0.042301556895673276,-0.02579535285066813
1782969687693575200,4.1915751953125,-0.043866614255309105,-0.04758724221363663,0.029809593460708855
1782969687703502000,4.201502197265625,0.04083294564783573,-0.05019114110171795,0.09800214560125023
1782969687713428000,4.211427978515625,0.10914192724227904,-0.04350874072834849,0.13859722737260163
1782969687723354000,4.22135400390625,0.09015665626525879,-0.06318944662362337,0.07882171737831085
1782969687733281000,4.231281005859375,0.07283961076140404,-0.07570552158653736,0.01809022183343768
1782969687743207000,4.24120703125,0.08569967685639858,-0.08297171319723129,-0.00453409976568073
1782969687753133000,4.251133056640625,0.08232873911857605,-0.09200769095942378,-0.01520056480653584
1782969687763060000,4.26106005859375,0.08019815683066844,-0.08017477595508098,-0.024317937241867184
1782969687772986000,4.270986083984375,0.09338964683711529,-0.06594795155152679,-0.011775047337263821
1782969687782912000,4.280912109375,0.10955226160883903,-0.07187777999192475,-0.0012293225992470978
1782969687792838100,4.290838134765625,0.09561258358359337,-0.053783174244314426,0.02893270102832466
1782969687802765000,4.30076513671875,0.03831307178139686,-0.05135901583731174,0.0008714125396683812
1782969687812691000,4.31069091796875,-0.001219312661886215,-0.08983166209459305,-0.02724098508171737
1782969687822617000,4.3206171875,-0.02953939821720123,-0.14504808401241898,-0.06252086317967623
1782969687832544000,4.3305439453125,-0.08717208749651909,-0.15780746621191502,-0.1001973540905863
1782969687842470100,4.34047021484375,-0.12852525762617587,-0.1385544842094183,-0.1029705451309681
1782969687852396000,4.35039599609375,-0.11811726085841655,-0.10940466983169317,-0.0794957076497376
1782969687862322200,4.360322265625,-0.06773381205499172,-0.09415887764394283,0.0007274374917149543
1782969687872249000,4.3702490234375,0.0073871876418590545,-0.060892860119044774,0.1110142604527995
1782969687882176300,4.38017626953125,0.07119535068571567,0.0015159575209021568,0.16900153532344847
1782969687892102000,4.390101806640625,0.11578501851856708,0.020357728374004364,0.1951445325680077
1782969687902028000,4.400028076171875,0.11871931840479373,-0.01623743357360363,0.16938538354188204
1782969687911955200,4.409955078125,0.12745032187104224,-0.0379541753411293,0.0959395505156368
1782969687921881000,4.419881103515625,0.10482523308694362,-0.06985270390510559,0.03445288922190666
1782969687931807000,4.429806884765625,0.07366963184475898,-0.10054141828790307,-0.015095752725191413
1782969687941734100,4.439734130859375,0.06637362961769104,-0.10552212930992245,-0.028066622250899672
1782969687951660000,4.449659912109375,0.0599181698679924,-0.09932911988869308,0.011582264711521566
1782969687961586000,4.4595859375,0.04345043466985225,-0.08680252353176474,0.08436064680498093
1782969687971512000,4.469511962890625,0.0011725509107112884,-0.07119462003335356,0.13484755598288028
1782969687981439200,4.479439208984375,-0.07137596794962883,-0.03742985920608043,0.10909341192543506
1782969687991364900,4.48936474609375,-0.13992168090939522,-0.017717004606872797,0.08581822520215064
1782969688001291000,4.499291015625,-0.12906594037413596,-0.01586290117278695,0.0724357061356306
1782969688011218200,4.50921826171875,-0.06790683053433895,-0.05235504113733768,0.04451678525973111
1782969688021144000,4.51914404296875,-0.005412672698497772,-0.07847937021404504,0.00678410718217492
1782969688031070000,4.529070068359375,0.07671265280246733,-0.08249342816099524,0.019490261357091365
1782969688040997000,4.5389970703125,0.13965806153714655,-0.07829422290548682,0.07326291420739144
1782969688050923000,4.548923095703125,0.13059621868133545,-0.05649798616096377,0.08915949845407158
1782969688060849000,4.558848876953125,0.07478489961028098,-0.05596358702331781,0.0833106262953952
1782969688070775000,4.568775146484375,0.0421457818120718,-0.053840165128558874,0.041667752504162485
1782969688080702000,4.578701904296875,0.036893852633237835,-0.09366101112440228,-0.01786521743852645
1782969688090628000,4.588628173828125,0.08751929349899291,-0.09046250734403728,-0.023685192296281455
1782969688100553700,4.5985537109375,0.15293372269570826,-0.058120472796261306,-0.015332374492660164
1782969688110481000,4.60848095703125,0.15733400348126889,-0.03294277691990137,0.016522022668644786
1782969688120406800,4.61840673828125,0.10633680669367312,-0.01750876868367195,0.057364174536243075
1782969688130332700,4.628332763671875,0.06377893694937228,-0.025826222912967205,0.1076239604273811
1782969688140258800,4.6382587890625,0.00036415713727474213,-0.06961144249513745,0.10235705287512391
1782969688150185700,4.648185791015625,-0.07006839248239993,-0.09334785352200269,0.013334661336801945
1782969688160111900,4.65811181640625,-0.1620645391345024,-0.08655819338187574,-0.006981675580888986
1782969688170037800,4.668037841796875,-0.28229367758035656,-0.08953340980038046,-0.07200144290421158
1782969688179964700,4.677964599609375,-0.19805530544817446,-0.060574003428220745,-0.1320418143797666
1782969688189890800,4.687890869140625,-0.03679799104332924,-0.0393691567055881,-0.08128997065536678
1782969688199816700,4.697816650390625,0.11119359907507896,-0.05343085367530584,0.02087568783350289
1782969688209743600,4.70774365234375,0.21096213329434393,-0.03288929316699505,0.09833941473159938
1782969688219669800,4.717669677734375,0.26236265018582344,0.027683102826029062,0.16860168581828475
1782969688229596000,4.727595947265625,0.2507674894601106,0.011862579490244388,0.1945167925911024
1782969688239521800,4.737521728515625,0.1590852310627699,-0.02830795672610402,0.13423497704248874
1782969688249448700,4.74744873046875,0.05380348637998104,-0.046778702309727666,0.05654924142416566
1782969688259374800,4.757374755859375,-0.06847790842056274,-0.09049421765655279,-0.033874504812061786
1782969688269300700,4.76730078125,-0.11148527549803257,-0.1169226442463696,-0.08741305664554237
1782969688279227600,4.7772275390625,-0.07152502103149891,-0.13841960578337312,-0.08649451702851801
1782969688289153800,4.78715380859375,0.007639701098203658,-0.12765271257534622,-0.0665306833429262
1782969688299080000,4.797079833984375,0.04795066869854927,-0.16567980702221394,-0.0693269629979506
1782969688309005800,4.807005859375,-0.006954056921601295,-0.16041896388456225,-0.011258001193217933
1782969688318932700,4.8169326171875,-0.07090542782843112,-0.12842457373067737,-0.013772504764795303
1782969688328859000,4.82685888671875,0.012187865921854972,-0.10560966146290302,0.07749770223293453
1782969688338784800,4.83678466796875,0.1266933660238981,-0.0287979322001338,0.19734080050326883
1782969688348711700,4.846711669921875,0.13899112206101416,-0.01295914255529642,0.2072051553810015
1782969688358637800,4.856637939453125,0.1483843888282776,0.004727466913312673,0.24932419531662015
1782969688368564000,4.86656396484375,0.14128420143425463,0.02134381680190563,0.22852950029745697
1782969688378491000,4.876490966796875,0.12476502830982207,0.013452479030191897,0.1648628280835226
1782969688388416800,4.886416748046875,0.06085808106660843,-0.04817527123466134,0.13810337944105266
1782969688398343000,4.896343017578125,-0.030087095227837563,-0.08605550455674528,0.09179631323106587
1782969688408269000,4.90626904296875,-0.135073071834445,-0.09469298452064394,-0.03943294265680015
1782969688418195700,4.91619580078125,-0.16788520811200142,-0.09926146147996187,-0.1800110051156953
1782969688428121900,4.926121826171875,-0.1039542954713106,-0.06418167253136635,-0.2075372368795797
1782969688438048000,4.936048095703125,0.023142975178360937,-0.030914047571271655,-0.09709993606451899
1782969688447975000,4.945974853515625,0.1368944420427084,0.0004822305589914322,-0.040562896534800524
1782969688457900800,4.95590087890625,0.22993571383357048,-0.010572539679706096,-0.014911518732085823
1782969688467827000,4.965826904296875,0.23438100280463695,-0.04685512854680419,0.040864984753914174
1782969688477753900,4.97575390625,0.20018004251718519,-0.05307648727968335,0.05839665938913822
1782969688487679700,4.9856796875,0.11033844355046749,-0.015949848803877828,0.0795179925467819
1782969688497606000,4.99560595703125,0.01175181259214878,-0.02139613151103258,0.08496489630844443
1782969688507531800,5.00553173828125,-0.03737725223600864,-0.07063567097634077,0.08525872815586626
1782969688517459000,5.015458984375,-0.09999065253734588,-0.1091888351239264,0.028494309611059723
1782969688527384800,5.025384765625,-0.09667056820392608,-0.10412819073349237,-0.030458157029934225
1782969688537310700,5.035310791015625,-0.067751932233572,-0.13061580016463994,-0.034003209225647146
1782969688547238000,5.04523779296875,0.03767009770274162,-0.11585399210155009,-0.03795340815614909
1782969688557163800,5.055163818359375,0.13587211325764656,-0.10128171526119112,-0.006850633079744875
1782969688567090000,5.06508984375,0.14085223975777625,-0.09599646833464502,0.0424860100844875
1782969688577015800,5.075015869140625,0.10074293220937251,-0.05719108299165964,0.05856112923584878
1782969688586943000,5.08494287109375,0.013750292932987213,-0.02638268775194883,0.09797379628960043
1782969688596868900,5.094868896484375,-0.10323884067833423,-0.020607903742790222,0.11469711368400602
1782969688606794800,5.104794677734375,-0.14083528862297534,-0.06831877233609557,0.043628969574533404
1782969688616722000,5.114721923828125,-0.09258008401989937,-0.12044614219740032,0.009765607210993767
1782969688626647800,5.124647705078125,-0.024827567264437675,-0.10869579090997576,0.0021027079002931713
1782969688636573700,5.13457373046875,-0.015659341424703595,-0.04783741758242249,0.03478562830761075
1782969688646500900,5.1445009765625,0.01579261241555214,-0.0023798808738589284,0.07272676150407642
1782969688656427000,5.154427001953125,0.08293021214306354,0.02524725398123264,0.10583291229214518
1782969688666352600,5.1643525390625,0.13268120826184748,0.009395166463404893,0.1821856822736561
1782969688676278800,5.17427880859375,0.16072481496334076,0.03607055355161428,0.20760255720075219
1782969688686206000,5.1842060546875,0.11732757178544997,0.023344342969357966,0.11954141191001981
1782969688696131600,5.194131591796875,0.11787877592742442,-0.040007162348181004,0.03467128121294081
1782969688706057700,5.2040576171875,0.11278875931203365,-0.08478022392392158,-0.01695548218246549
1782969688715985000,5.21398486328125,0.0731546680599451,-0.10777063888907432,-0.059967781163379544
1782969688725910800,5.223910888671875,0.03142857296466827,-0.08821107515543698,-0.07162946778666228
1782969688735836700,5.233836669921875,0.011862871751189231,-0.09246449481621384,-0.05011997556164861
1782969688745762800,5.2437626953125,0.019391513690352438,-0.0779085845887661,0.005458155808039009
1782969688755690000,5.25368994140625,0.058980596756935115,-0.05472440061718225,0.06318407632876187
1782969688765615600,5.26361572265625,0.04768588028252124,-0.03141249861270189,0.09492668367866426
1782969688775541800,5.273541748046875,0.008668459624052048,-0.021945289826393127,0.08676493146773427
1782969688785469000,5.283468994140625,-0.05303600913882255,-0.027803222074359653,0.09331150356698781
1782969688795394800,5.293394775390625,-0.10828910980522632,-0.03084711981490254,0.05656962662506848
1782969688805320700,5.30332080078125,-0.03840425719618797,-0.10213029491454362,-0.016797369011305272
1782969688815248000,5.313247802734375,0.09333996247649193,-0.10566592169478535,0.02783789152894169
1782969688825173800,5.323173828125,0.055579263880848884,-0.05047375743538141,0.032744112542644144
1782969688835099600,5.333099609375,0.04282908790111541,-0.02141469008103013,0.01840608284957707
1782969688845025800,5.34302587890625,0.049830491095781325,-0.009128916742652654,0.05784593017119914
1782969688854952700,5.35295263671875,0.05316168134510517,0.015869769304990768,0.09271960208844393
1782969688864878800,5.36287890625,0.07407762812376022,0.020890520076453683,0.07210724136624484
1782969688874804700,5.3728046875,0.09435293891131877,-0.009662877488881349,0.039255174937099215
1782969688884731600,5.382731689453125,0.07293488782942295,-0.049691082625091074,-0.020359153146110472
1782969688894657800,5.39265771484375,0.058598903962969774,-0.05778641853630542,-0.06489033225737512
1782969688904584000,5.402583984375,0.05391279197335243,-0.05940525190979242,-0.06824406313207
1782969688914509800,5.412509765625,0.021541385200619698,-0.05877396826893091,-0.046443917397409676
1782969688924436700,5.422436767578125,-0.02155599824786186,-0.04927051912546158,-0.018134828160144386
1782969688934363000,5.43236279296875,-0.09305062414109706,-0.026011662482470273,0.02143920346777886
1782969688944288800,5.442288818359375,-0.07714753708839416,-0.006694236941635608,0.03530274751689285
1782969688954215700,5.452215576171875,-0.029599603971838948,-0.021461159571260213,0.05917575400285423
1782969688964141800,5.462141845703125,0.05437105713486671,-0.022812281919270753,0.057106473448127505
1782969688974068000,5.47206787109375,0.12292027722597121,-0.003950198930501938,0.08069715586137026
1782969688983994600,5.48199462890625,0.13386661865413188,-0.008689648542553186,0.08812463898099958
1782969688993920800,5.491920654296875,0.13552666082084178,-0.01403057117909193,0.08113879868164658
1782969689003847000,5.501846923828125,0.1040156702697277,-0.03156944274008274,0.07736698852535337
1782969689013772800,5.511772705078125,0.007582417953014373,-0.050767918076366186,0.058591816635057324
1782969689023699700,5.52169970703125,-0.040458267116546626,-0.05981748597249388,-0.012808116712048649
1782969689033625900,5.5316259765625,-0.043595980620384216,-0.12770356597974897,-0.11059804433472453
1782969689043552000,5.541552001953125,0.01023205567896366,-0.1649362951785326,-0.12322594564165919
1782969689053478700,5.551478759765625,0.05013853413164615,-0.15004019321128725,-0.09972045729383826
1782969689063404800,5.56140478515625,0.08145370984971523,-0.07018821946978569,-0.04809742022547871
1782969689073331000,5.5713310546875,0.04986497788727283,0.007282850484549999,0.061515083670616144
1782969689083256800,5.5812568359375,-0.03809738320410251,0.05125146380960941,0.19346611449439077
1782969689093183700,5.591183837890625,-0.1098807629108429,0.07647694435045123,0.19570581971257925
1782969689103110000,5.60110986328125,-0.07085282085835934,0.053123102900385855,0.1748668106276542
1782969689113036000,5.6110361328125,0.04675590595602989,-0.00010156067833304404,0.14193393404725937
1782969689122962700,5.620962646484375,0.11083294906914233,-0.05937456451058387,0.13651486814059316
1782969689132888800,5.630888916015625,0.18526245937049388,-0.08022972101271152,0.10516206382587552
1782969689142815000,5.64081494140625,0.15298106896877287,-0.13238339435905216,0.051970864125341174
1782969689152742000,5.650741943359375,0.03415361401438713,-0.15421075689420102,-0.03702515086270869
1782969689162667800,5.660667724609375,-0.09488193122148514,-0.11690160145834087,-0.05837737016677856
1782969689172594000,5.670593994140625,-0.1834609629064798,-0.04263619567751884,-0.03470288192760199
1782969689182519800,5.680519775390625,-0.1384668059259653,0.013123247075825928,0.001615581970475614
1782969689192446700,5.69044677734375,-0.04292319592535496,0.026729309232532975,0.041331140960939226
1782969689202372900,5.700372802734375,0.1295130996197462,-0.004838233811408281,0.04940788176953792
1782969689212298800,5.710298828125,0.2405436170876026,-0.025008769050240517,0.05207812389209866
1782969689222226000,5.720225830078125,0.2675403450846672,-0.07770765518918633,0.06769410109911114
1782969689232151800,5.73015185546875,0.19087386951148508,-0.05707125600427389,0.06765018889214842
1782969689242078000,5.740077880859375,0.10804010348021983,-0.03871054666638374,0.04196852554902434
1782969689252003800,5.75000390625,-0.01018938558101654,-0.07571151293590664,0.008930983017757535
1782969689261930800,5.7599306640625,-0.10655249527096748,-0.10380831112936138,-0.03370137673486024
1782969689271857000,5.76985693359375,-0.1270382339388132,-0.12005948096737265,-0.061799709298275406
1782969689281782800,5.77978271484375,-0.07655249380469321,-0.10327902655825018,-0.01999148887749761
1782969689291710000,5.7897099609375,-0.03992927480638027,-0.04488295169100165,0.060247255691885944
1782969689301635800,5.7996357421875,0.017316460981965064,-0.024383184497803446,0.12390483128391205
1782969689311561700,5.809561767578125,0.04552373381257057,-0.005061082781851292,0.16938297238908706
1782969689321488000,5.81948779296875,0.02668167069852352,-0.006037234337627887,0.17860143057871608
1782969689331414800,5.829414794921875,-0.04927987147569656,-0.0292009600430727,0.1029037635050714
1782969689341340700,5.839340576171875,-0.05000409409701824,-0.05374781066998839,-0.007396320796385407
1782969689351266800,5.849266845703125,0.02078969005048275,-0.09841200504377484,-0.07481624459661543
1782969689361194000,5.859194091796875,0.11654957315027713,-0.11420885524302721,-0.11193937594108283
1782969689371119600,5.86911962890625,0.20772797367870807,-0.08535407828912138,-0.07162128448020666
1782969689381045800,5.879045654296875,0.2344692656099796,-0.05407251257970929,-0.004210566899739206
1782969689390973000,5.888972900390625,0.1720031648248434,-0.040783553548157214,0.08105217984411865
1782969689400898800,5.89889892578125,0.06006663842797279,-0.025326456697285175,0.12107771809920669
1782969689410824700,5.90882470703125,-0.04793488660752773,-0.041474312291294335,0.11900354217365383
1782969689420750800,5.918750732421875,-0.1536024157375097,-0.0511791292257607,0.10818740299642085
1782969689430678000,5.928677978515625,-0.22276070763766764,-0.05620338712856173,0.06890957783609629
1782969689440603600,5.938603759765625,-0.2116957082659006,-0.1112215099953115,-0.019662549184076488
1782969689450529800,5.94852978515625,-0.14771861839592457,-0.13920271898508071,-0.07983012723587453
1782969689460457000,5.95845703125,-0.0765624306768179,-0.11011544844955205,-0.08563874044939875
1782969689470382800,5.9683828125,0.04038461735844612,-0.08291179970353842,-0.009816168354451656
1782969689480308700,5.978308837890625,0.1743862605690956,-0.04641074578016996,0.04774827799424529
1782969689490235000,5.98823486328125,0.266313433638215,0.0005870061077177524,0.0979425974337384
1782969689500161800,5.998161865234375,0.2868973719835281,0.010917553725093603,0.15440814262982458
1782969689510087700,6.008087646484375,0.26261107198894024,0.003388327264040708,0.15017810384463517
1782969689520013800,6.018013916015625,0.2185930665642023,-0.02525850602760911,0.13285864718798548
1782969689529940700,6.027940673828125,0.1122591824799776,-0.05414236294552684,0.07360142544675619
1782969689539867000,6.037866943359375,-0.01023205567896366,-0.07576601960211991,0.041693398402072486
1782969689549792800,6.047792724609375,-0.12458265748023986,-0.07627060812339186,-0.009537095684744416
1782969689559719000,6.057718994140625,-0.1900070235490799,-0.09469517647773026,-0.05036686299480497
1782969689569645800,6.067645751953125,-0.17875906882584094,-0.08456877313032746,-0.028699695990048346
1782969689579571700,6.07757177734375,-0.12039455814063549,-0.08293240410014986,-0.020926504705287514
1782969689589497900,6.087497802734375,-0.04160159193277359,-0.038544542449712754,0.035938707332871855
1782969689599424800,6.0974248046875,0.043051790741086005,-0.005399520955979824,0.07338102416172623
1782969689609351000,6.107350830078125,0.13185118717849253,-0.008405278643220663,0.07208944998122752
1782969689619276800,6.11727685546875,0.20125264018476008,-0.01071326332464814,0.0818808857532218
1782969689629203700,6.12720361328125,0.24934651674628255,-0.01384410869628191,0.08819145713951439
1782969689639129900,6.1371298828125,0.2455973933458328,-0.0051864627271890635,0.0958592518210411
1782969689649055700,6.1470556640625,0.21812311096489428,-0.0473284451469779,0.04166439150329679
1782969689658982000,6.15698193359375,0.12575988456606865,-0.07207783260867,0.026209559674747286
1782969689668908800,6.16690869140625,-0.009466332003474236,-0.09478490058779716,-0.010036131248064338
1782969689678835000,6.1768349609375,-0.09277999050617218,-0.12642960052117705,-0.08235862280018627
1782969689688760800,6.1867607421875,-0.13823533525764942,-0.1491521583303809,-0.12137374190371483
1782969689698687700,6.196687744140625,-0.16335750155448914,-0.1340827456228435,-0.08030424755364655
1782969689708614000,6.20661376953125,-0.11937456744313239,-0.10070654572173952,-0.05088420139979571
1782969689718539800,6.216539794921875,-0.02564940504133701,-0.07617518492490052,0.0022729864332824944
1782969689728466000,6.2264658203125,0.041858197042346,-0.025273557466268536,0.06575758007857949
1782969689738392800,6.236392822265625,0.05732698433101177,0.008082330299168824,0.1549917146714404
1782969689748319000,6.246319091796875,0.058632221710681914,0.023051935894042253,0.18493381193801758
1782969689758244900,6.256244873046875,0.05130523982346057,0.02058846838995814,0.13800733518805355
1782969689768171800,6.266171875,0.06768938839137553,-0.03391819782331586,0.0434331912741065
1782969689778098000,6.276097900390625,0.11440028616189955,-0.0704509620591998,-0.030364596994966266
1782969689788023800,6.28602392578125,0.1314519587278366,-0.10100435962453484,-0.07771784778963774
1782969689797950700,6.29595068359375,0.10758768353760242,-0.08684694719538093,-0.10180325491726398
1782969689807876900,6.305876953125,0.0749497347831726,-0.044425124920904634,-0.01782930587492883
1782969689817803000,6.315802978515625,-0.006400514692068099,0.009751140294224024,0.045587848557345566
1782969689827728600,6.325728759765625,-0.07632394574582577,0.008687748846411705,0.09345482102781534
1782969689837655800,6.33565576171875,-0.058196752902865405,-0.0010085925206542014,0.08347352523952722
1782969689847582000,6.34558203125,-0.01452770704627037,-0.0185338739477098,0.056404097332432866
1782969689857507600,6.355507568359375,0.07302958037555217,-0.05073650002479553,0.0260834125444293
1782969689867434800,6.365434814453125,0.12836977480351924,-0.06504238101392984,-0.02142287338748574
1782969689877361000,6.37536083984375,0.14177169269025325,-0.09635098086073994,-0.06469937626253813
1782969689887286800,6.385286865234375,0.09764204358458518,-0.12098010294362901,-0.09980945075154304
1782969689897212700,6.395212646484375,0.0023211364239454266,-0.10888546826317906,-0.12262845467254518
1782969689907139800,6.405139892578125,-0.09566694411933421,-0.08701032106354832,-0.10154858603645116
1782969689917066000,6.41506591796875,-0.06668985596001148,-0.06654241031333803,0.008262326508574187
1782969689926991600,6.42499169921875,-0.08027648276388645,-0.009508125318586826,0.008704480785503984
1782969689936918800,6.434918701171875,0.004239537265896797,-0.06386676136329769,0.0583634877718985
1782969689946845000,6.444844970703125,0.05199789826273918,-0.022204086893051863,0.11577544697262346
1782969689956770800,6.454770751953125,0.0714385117918253,-0.03155804456323385,0.05215312535706907
1782969689966696700,6.46469677734375,0.156056238630414,-0.09575754501223564,0.028166173635236918
1782969689976623900,6.474623779296875,0.16899813778996467,-0.13267477852106094,-0.021049108171649275
1782969689986549800,6.4845498046875,0.13066460774242877,-0.1473664439573884,-0.11157773955445736
1782969689996475600,6.4944755859375,-0.0033919805258512494,-0.13012553242966532,-0.18084924603812397
1782969690006402800,6.50440283203125,-0.08059154006242751,-0.12846651317626237,-0.20195940021462738
1782969690016328700,6.51432861328125,-0.09572247369885444,-0.09730755093321204,-0.1302907694613561
1782969690026254800,6.5242548828125,-0.07385492528378963,-0.05947203353568911,-0.07893756231032312
1782969690036182000,6.53418212890625,-0.027803952726721762,-0.04364581111148,-0.027775566882453858
1782969690046107600,6.544107666015625,0.006767594438791275,-0.027311639165133236,0.07187248276229947
1782969690056033800,6.55403369140625,-0.012314707171916961,-0.044290392625331874,0.07953914493266492
1782969690065960000,6.5639599609375,-0.045728316473960876,-0.07829013125225902,0.01572769395317882
1782969690075886800,6.573886962890625,-0.09651157824993133,-0.10128814500197768,-0.03879340264424681
1782969690085812700,6.583812744140625,-0.1134966153204441,-0.10045067126452922,-0.06932385772541165
1782969690095738400,6.59373828125,-0.03760872290432453,-0.07005158747807144,-0.05531856711804867
1782969690105665500,6.60366552734375,0.12154606626331806,-0.04719634319990873,0.010983385502919553
1782969690115591400,6.61359130859375,0.25727438713610173,-0.054285132417082785,0.06687588005140424
1782969690125517300,6.623517333984375,0.3053109805524349,-0.07101444116085767,0.12448854945600032
1782969690135443500,6.633443359375,0.2535714409649372,-0.08200973629727959,0.0893743467811495
1782969690145370400,6.643370361328125,0.11359072334468365,-0.11674801833182573,0.005870718664303422
1782969690155296300,6.653296142578125,-0.018989947152137754,-0.15079086544811723,-0.0696529435493052
1782969690165222400,6.663222412109375,-0.1110959839195013,-0.15845511646568775,-0.021418051081895827
1782969690175149600,6.673149658203125,-0.1292570790320635,-0.11300284045413136,0.06684961309898645
1782969690185075500,6.683075439453125,-0.1139104568183422,-0.06445902816802263,0.1405265514673665
1782969690195001300,6.69300146484375,-0.09061609047055244,-0.020093524479866027,0.16400865893959998
1782969690204928500,6.702928466796875,-0.04868599723577499,-0.008787409828603267,0.14378087708819656
1782969690214854400,6.7128544921875,0.05252630605101585,-0.01641673566326499,0.0990949458066374
1782969690224780300,6.7227802734375,0.07849544456601143,-0.07122574582397938,0.05226571888606995
1782969690234706400,6.73270654296875,0.019541151294112203,-0.08926014581695199,0.02151771206408739
1782969690244633300,6.74263330078125,-0.029803602111339568,-0.1108212586313486,-0.07625351085811853
1782969690254559500,6.7525595703125,-0.03245616244673729,-0.12181392341926693,-0.12173618200793862
1782969690264485400,6.7624853515625,0.04798632453382015,-0.08407543665543198,-0.0651014542574063
1782969690274412300,6.772412353515625,0.13136603401005267,-0.08726648778170347,-0.016940065417625008
1782969690284338400,6.78233837890625,0.14371055179834366,-0.061203387372940773,0.004374525289796293
1782969690294264600,6.7922646484375,0.13820494011938572,-0.04915317635610699,0.029137649015896022
1782969690304190500,6.8021904296875,0.1320358960956335,-0.07180909866988658,0.08197258262466639
1782969690314117400,6.812117431640625,0.10139525863826274,-0.04049377682134509,0.1162212545113638
1782969690324043500,6.82204345703125,0.04770341593921184,-0.00046951720789074897,0.17580588157605379
1782969690333969400,6.831969482421875,-0.023574936854839322,0.012105886726826429,0.2434152635337785
1782969690343896300,6.841896240234375,-0.06021276890039444,0.02751695247888565,0.21380090038422495
1782969690353822500,6.851822509765625,-0.030322657549381255,-0.006111614748090505,0.14576653448008
1782969690363748600,6.86174853515625,0.013438158243894577,-0.026991759561002252,0.11132164590153842
1782969690373674500,6.871674560546875,0.017985738545656202,-0.05727145475149154,0.027898097283579407
1782969690383601400,6.881601318359375,0.0635737697660923,-0.06046659753099084,-0.018261340616643428
1782969690393527600,6.891527587890625,0.11576397573053836,-0.03926613472253084,-0.016311996647156775
1782969690403453400,6.901453369140625,0.13249416125714777,0.003821604114770889,0.04301281043756753
1782969690413380400,6.91138037109375,0.1339180565804243,0.034305297444760796,0.06666892276983707
1782969690423306500,6.921306396484375,0.16329729579985142,0.031159985156357286,0.0629081089315936
1782969690433232600,6.931232666015625,0.18539397679567335,-0.02859919475764036,0.015269319193810223
1782969690443159300,6.9411591796875,0.1485398716509342,-0.05082987739667296,0.014114851929061114
1782969690453085400,6.95108544921875,0.002623334240913391,-0.020611557004600763,0.007029167984426021
1782969690463011600,6.961011474609375,-0.08977262538373469,0.01257379649952054,0.007802307781390845
1782969690472937500,6.9709375,-0.11633563813865185,-0.04216171003356576,-0.007976093445718289
1782969690482864400,6.980864501953125,-0.11236614998579024,-0.05285232313498854,0.013009119176864623
1782969690492790500,6.99079052734375,-0.09851064311265945,-0.016497107423096895,0.03015000439621508
1782969690502716400,7.00071630859375,-0.03847849147617817,-0.01255786827802658,0.006902984321489929
1782969690512643300,7.010643310546875,0.07439619255363941,-0.031898236303031444,0.01056399104706943
1782969690522569500,7.020569580078125,0.12016834816932677,-0.05428220980763435,0.055591977231949564
1782969690532495600,7.03049560546875,0.04656242921054363,-0.05512085258886218,0.05447349459603428
1782969690542421200,7.040421142578125,0.01780629032552242,-0.04412278097346425,0.0020486396254971624
1782969690552348400,7.050348388671875,0.04174538431763649,-0.08746829396411776,-0.03309847893826663
1782969690562274600,7.060274658203125,0.049527124235033984,-0.09566913607642054,-0.04745952418074011
1782969690572200400,7.070200439453125,0.03651274436116218,-0.0880875949062407,-0.06716039608120918
1782969690582127400,7.08012744140625,0.013619944551587104,-0.07497296952828765,-0.06193878897540271
1782969690592053500,7.090053466796875,0.056740124353766436,-0.06255874750465154,-0.03740030431803316
1782969690601979400,7.0999794921875,0.09706979665458201,-0.05431655046865344,0.03569748245552182
1782969690611905300,7.1099052734375,0.07880056499242782,-0.024321663568913934,0.062232949616387485
1782969690621832400,7.11983251953125,0.0286257905036211,-0.012019231356680392,0.04624689698796719
1782969690631758300,7.12975830078125,-0.03760696933865547,-0.04299114659503102,0.04861508742403239
1782969690641684500,7.1396845703125,-0.06953355495333671,-0.05542904175519943,0.04231989626996219
1782969690651611400,7.149611328125,-0.08437748834192753,-0.048325201099365944,0.015204437264055013
1782969690661537500,7.15953759765625,-0.0801870509147644,-0.06898775763884187,0.00178567784037441
1782969690671463400,7.16946337890625,-0.019203882163763047,-0.10449249400123953,-0.018871654534712432
1782969690681390600,7.179390625,0.041076106753945345,-0.11297434501200913,-0.03441628353856504
1782969690691316500,7.18931640625,0.04479249692857265,-0.0887977890022099,-0.03104421328958124
1782969690701242400,7.199242431640625,0.047806291791796685,-0.04710924943834543,-0.0028569603336974976
1782969690711168500,7.20916845703125,0.02331248652637005,-0.03713715986981988,0.06475739006008953
1782969690721095400,7.219095458984375,0.01958849756717682,-0.044255759703367946,0.0944591392321512
1782969690731021300,7.229021240234375,0.03917290348112583,-0.03589271276667714,0.0947223932782188
1782969690740947500,7.238947509765625,0.08724749082028865,-0.06877879106327892,0.07060662754494697
1782969690750874600,7.24887451171875,0.09636018708050251,-0.061444648782908916,0.08978979571424424
1782969690760800300,7.25880029296875,0.12275310396552085,-0.06872238470092415,0.04020012763701379
1782969690770726400,7.268726318359375,0.09965572149455547,-0.09661255440637469,-0.007742723081260919
1782969690780652500,7.278652587890625,0.04654313998818397,-0.08440671443641186,-0.017958083353750407
1782969690790579200,7.2885791015625,0.02122106720507145,-0.06939531552642583,0.0073255571151152245
1782969690800505300,7.29850537109375,-0.016733692657947538,-0.05366393177881837,0.0442574767364189
1782969690810431500,7.308431396484375,-0.056576458224654194,-0.06514569525793194,0.05961513180080801
1782969690820358400,7.3183583984375,-0.05430792877078056,-0.049246407597512004,0.067102455348894
1782969690830284300,7.3282841796875,-0.014393851533532141,-0.05542261201441288,0.023238982898741958
1782969690840210400,7.33821044921875,0.04394727827608585,-0.09120558079630135,-0.005701243848912418
1782969690850136600,7.348136474609375,0.06301379779577256,-0.08514496558308601,0.03113178197517991
1782969690860063500,7.3580634765625,0.06492986055016517,-0.05546820472180843,0.06392320425827056
1782969690869989400,7.3679892578125,0.07077624849081039,-0.05259732546061277,0.07997567318640648
1782969690879915500,7.37791552734375,0.04463233793079853,-0.044749242308735844,0.06789338653087616
1782969690889842400,7.387842529296875,0.013504209217429161,-0.03789119310751557,0.05398406711127609
1782969690899768300,7.397768310546875,-0.0076268416166305536,-0.018760960701853034,0.01669960772525519
1782969690909694500,7.407694580078125,0.04698971471190452,-0.04661985848620534,-0.026122356315329668
1782969690919621400,7.417621337890625,0.11474106242358684,-0.05914294771179557,-0.01276288933083415
1782969690929547500,7.427547607421875,0.12818331232070923,-0.034090193389356135,0.05112506095096469
1782969690939473400,7.437473388671875,0.10236965662837028,-0.023067425724118948,0.10457348681557924
1782969690949399600,7.447399658203125,0.058657940673828124,-0.03467091588675975,0.12756901634726672
1782969690959326500,7.457326416015625,-0.05718143838047981,-0.06787234374284744,0.11762385131828486
1782969690969252400,7.46725244140625,-0.1852747343301773,-0.06563976238518952,0.07097860266249627
1782969690979178500,7.477178466796875,-0.24051263742744922,-0.06640694736540317,0.0010319368636235594
1782969690989105400,7.48710546875,-0.18539280775189398,-0.06384615696668625,-0.018031038992106913
1782969690999031600,7.497031494140625,-0.05075988090038299,-0.04967164727225899,-0.013676204783469438
1782969691008957400,7.50695751953125,0.12226619723141192,-0.06448123999983071,0.012160247262567281
1782969691018883600,7.516883544921875,0.2678285143762827,-0.09406243153214454,0.00481331856586039
1782969691028810500,7.526810546875,0.2957756749659777,-0.09593947745040059,0.03283453077245504
1782969691038736400,7.536736328125,0.2807417719632387,-0.050316813308000564,0.05850125227477401
1782969691048662500,7.54666259765625,0.18300503583252428,-0.057127808497101064,0.08333590686712414
1782969691058589400,7.55658935546875,0.07800970687568187,-0.0658488750912249,0.09839176597334444
1782969691068515600,7.566515625,-0.006788052704930305,-0.03372632851302623,0.14269267999269067
1782969691078441500,7.57644140625,-0.04079261363744736,-0.02005041599050164,0.1333835113123059
1782969691088367400,7.586367431640625,-0.07907821289002895,-0.056445233060419556,0.08002586900368332
1782969691098294800,7.596294677734375,-0.07436404384970664,-0.06904737887158989,0.03978259634468704
1782969691108221000,7.606220947265625,-0.0988438205897808,-0.07887041535824536,0.007899667208641768
1782969691118146600,7.616146484375,-0.16983108148276804,-0.09553937221691011,0.005746142436563968
1782969691128073700,7.62607373046875,-0.19185586628615856,-0.06496800060346722,0.022783494216203688
1782969691138000000,7.635999755859375,-0.15405951185524464,-0.041502077081054446,0.02911065141111612
1782969691147925800,7.64592578125,-0.05497662181258201,-0.0656213499456644,-0.011043518192321062
1782969691157853000,7.65585302734375,0.08535130181014537,-0.0502333728082478,-0.018529672696627676
1782969691167778800,7.66577880859375,0.23790859240889548,-0.032645693669468165,0.012448343488946556
1782969691177704700,7.67570458984375,0.3330927214473486,-0.03713482178226113,0.05212236489262431
1782969691187630600,7.685630615234375,0.3404939376145601,-0.044127895539999004,0.09002006080616265
1782969691197557800,7.695557861328125,0.24320903690457343,-0.06572437192872166,0.0932385844612494
1782969691207483600,7.705483642578125,0.09660977792739868,-0.05847995375841856,0.08566592071726918
1782969691217409800,7.715409912109375,-0.06629121203124523,-0.04776595978140831,0.0696644513240084
1782969691227337000,7.7253369140625,-0.19550620548725128,-0.04872442955002188,0.03705105248894542
1782969691237262800,7.735262939453125,-0.20498598149418829,-0.07296952075138688,0.04588193613309413
1782969691247188700,7.745188720703125,-0.18177870890796183,-0.06038681029304862,0.06091525461394339
1782969691257115000,7.755114990234375,-0.07775660889744758,-0.057609600664675235,0.04461882086209953
1782969691267041800,7.765041748046875,0.05605448017716407,-0.053688627828657624,0.04561422510761767
1782969691276967700,7.7749677734375,0.1740197653442621,-0.04977393860295415,0.033047735131718214
1782969691286893800,7.784893798828125,0.217987501886487,-0.05325447419509291,-0.004185907382518053
1782969691296821000,7.794821044921875,0.20018705677986143,-0.055880584914982316,0.00499174387268722
1782969691306746600,7.80474658203125,0.11348434036076069,-0.0315361249923706,0.04000449546705931
1782969691316672800,7.8146728515625,0.008237082469463348,-0.02378667990937829,0.07207154899835586
1782969691326599000,7.824598876953125,-0.043193829560279846,-0.015861732129007575,0.12575250497721135
1782969691336525600,7.834525634765625,-0.0358890595048666,-0.022889000417292117,0.1210886778846383
1782969691346451700,7.84445166015625,-0.01142155772447586,-0.048516047496348615,0.07631715067885815
1782969691356377900,7.8543779296875,0.023791794475913047,-0.08163885715827346,0.03211030815113336
1782969691366304800,7.8643046875,-0.006722586253285407,-0.0917903949469328,-0.005905753445066511
1782969691376230700,7.874230712890625,-0.03642857320904731,-0.060517304804921145,-0.02861673041433096
1782969691386156800,7.88415673828125,-0.02821370257139206,-0.04472162364944816,-0.017257387738488613
1782969691396083000,7.8940830078125,0.027791093245148658,-0.06419175553396343,0.026990809712931513
1782969691406009600,7.904009521484375,0.06514788721501827,-0.051112347599864,0.04206628683507442
1782969691415935700,7.913935791015625,0.13466449103355407,-0.05137567471116781,0.04689063825160265
1782969691425862000,7.92386181640625,0.15520166762769222,-0.05555602913573384,0.05472714056354016
1782969691435788800,7.933788818359375,0.09009118981361389,-0.07181523614972829,0.023595212457887826
1782969691445714700,7.943714599609375,-0.0012163900524377821,-0.07604235232546926,0.015088811527751385
1782969691455640800,7.953640869140625,-0.0868009160965681,-0.08818769427984953,0.0436249144539237
1782969691465567700,7.963567626953125,-0.14688158304989338,-0.07692775685787201,0.0497885151175782
1782969691475493600,7.97349365234375,-0.1553589040160179,-0.05992825287058949,0.056933710697107016
1782969691485419800,7.983419677734375,-0.08358078500628471,-0.036315029831975695,0.08330620584860443
1782969691495346000,7.993345947265625,0.04041793510615825,-0.0337092312477529,0.12245850493311881
1782969691505271600,8.003271484375,0.13774492139220237,-0.035625732393562794,0.1103959824239835
1782969691515197700,8.01319775390625,0.17220599392056465,-0.05654504017308354,0.05819116341229528
1782969691525123800,8.023123779296874,0.11637070945203304,-0.056390580263733864,0.015770400583744047
1782969691535050800,8.03305078125,0.04635083228647709,-0.04313756932839751,-0.0034015155391767618
1782969691544976600,8.0429765625,0.01762333497405052,-0.05417144290953874,0.004348806326650083
1782969691554902800,8.05290283203125,0.03647884209156036,-0.07146203879788518,0.02358483719434589
1782969691564830000,8.062829833984376,0.07076981875002383,-0.10062252070009708,-0.0034309608293697238
1782969691574755600,8.072755615234374,0.11860533663630485,-0.10155307954847811,-0.012635280895791946
1782969691584681700,8.082681640625,0.10501987887620925,-0.10193462621197104,-0.016980689688958227
1782969691594609000,8.09260888671875,0.0497574258595705,-0.09545505493432282,-0.013398703016340732
1782969691604534800,8.10253466796875,-0.042704584738612175,-0.07264657240733503,0.05892192537225782
1782969691614460700,8.112460693359376,-0.08672083659768104,-0.053153205777704715,0.12673673024158924
1782969691624386800,8.12238671875,-0.12249532981216907,-0.040310821469873186,0.1530068609971553
1782969691634313700,8.132313720703126,-0.115195820453763,-0.033432606263458724,0.152495915800333
1782969691644239600,8.142239501953124,-0.067761284583807,-0.04084712030366063,0.13445833746958524
1782969691654165800,8.152165771484375,0.0097118311971426,-0.06343947586193681,0.06916494083665312
1782969691664092700,8.1620927734375,0.10105682046413421,-0.06384235757440328,0.036075558520294725
1782969691674018800,8.172018798828125,0.13580138610899448,-0.08732567062303423,0.0035992666009813544
1782969691683944700,8.18194482421875,0.12934417279362678,-0.08322247308790683,-0.037378348214551806
1782969691693870800,8.191870849609375,0.07628478277921676,-0.09844707635715604,-0.057939124879986044
1782969691703797800,8.2017978515625,0.0341851781964302,-0.08506985452026128,-0.08480634474586694
1782969691713723600,8.2117236328125,0.012245733588933943,-0.040824323949962854,-0.028543044123612343
1782969691723649800,8.22164990234375,-0.004645195457339287,-0.04034267791286111,0.04946786832846701
1782969691733576700,8.23157666015625,-0.01995616183578968,-0.042605654408782716,0.03644998132325709
1782969691743502800,8.2415029296875,-0.028245266753435132,-0.08150164064466953,-0.0364521002151072
1782969691753428700,8.2514287109375,0.013715221619606017,-0.11023644448071718,-0.03604238690305501
1782969691763355000,8.26135498046875,0.03401625137031078,-0.0983591058127582,0.0069909548658877605
1782969691773281800,8.27128173828125,0.05505787035524845,-0.050460751823335884,0.06705463415179401
1782969691783207700,8.281207763671874,0.08059621623754501,-0.0160785897500813,0.11978544979896395
1782969691793133800,8.2911337890625,0.0961643722474575,-0.028564854096621274,0.10465411430373787
1782969691803060700,8.301060791015624,0.09073007223904132,-0.05107552272081375,0.07701543514132499
1782969691812987000,8.31098681640625,0.09213935451507568,-0.0703530546426773,0.04071947533600032
1782969691822912800,8.320912841796876,0.11085691446661948,-0.053972851597517725,0.02719689021166414
1782969691832839700,8.330839599609375,0.13091361406743526,-0.026412790629267692,0.04937237206473946
1782969691842765800,8.340765869140625,0.08553834881484508,-0.003307517112791538,0.07321841747853905
1782969691852692000,8.35069189453125,0.02518938631415367,0.02179126830846071,0.08602960293050856
1782969691862617900,8.360617919921875,-0.05858370639383793,0.015467764375358819,0.11520013130269945
1782969691872544800,8.370544677734374,-0.16597849770784376,-0.015584668753296137,0.06472564321495593
1782969691882471000,8.380470947265625,-0.2683195127636194,-0.03259323282986879,-0.004197086363658308
1782969691892397800,8.390397705078126,-0.2885924854636192,-0.02389057867527008,-0.05129570481013506
1782969691902323700,8.40032373046875,-0.18507248975634574,-0.02857596001252532,-0.09925842927265911
1782969691912251000,8.4102509765625,0.0001397007316350937,-0.041025837871432304,-0.09494144285637884
1782969691922176800,8.4201767578125,0.21206395705640316,-0.05993599778562784,-0.051095506062917406
1782969691932102700,8.4301025390625,0.37187107265293595,-0.08092617884427308,0.011558810770697892
1782969691942028800,8.44002880859375,0.4250158028632402,-0.07452259541228413,0.039315563354827464
1782969691951955700,8.449955810546875,0.3531125961691141,-0.08329860706403851,0.05134495077934116
1782969691961881900,8.4598818359375,0.2158995896965265,-0.08921981380656362,0.02055968068689108
1782969691971807700,8.469807861328125,0.05051029005348682,-0.07529621013328433,0.015550108896568417
1782969691981734700,8.479734619140626,-0.05092471607327461,-0.07985431182906032,0.03909410262387246
1782969691991660800,8.489660888671875,-0.12786533241271972,-0.02865852372944355,0.12717764240950347
1782969692001586700,8.499586669921875,-0.19952479347884655,0.004406418265402317,0.17028112680520863
1782969692011513600,8.509513671875,-0.21131576903760432,-0.022423574862629175,0.1458881515657529
1782969692021439700,8.519439697265625,-0.17037234875261784,-0.07981441821008921,0.0946204307410866
1782969692031366000,8.529365966796876,-0.10562953520715236,-0.09619462125524877,0.030833091289550064
1782969692041291800,8.539291748046875,-0.0718301414579153,-0.13125219837203622,0.0006537877336144447
1782969692051218700,8.54921875,-0.08472820147573948,-0.13562208401933312,-0.023786314583197233
1782969692061144800,8.559144775390624,-0.046847091370821,-0.11212664214149116,-0.06385437680575996
1782969692071070700,8.56907080078125,0.07261749244332313,-0.08190554527044296,-0.04736117837280035
1782969692080997600,8.57899755859375,0.2101578311741352,-0.059024582029134035,-0.018823066152632236
1782969692090923800,8.588923828125,0.30727906575500963,-0.04307371031194925,0.037813232500478626
1782969692100850000,8.598849853515626,0.27940087874829767,-0.05707827026695013,0.07155552576761692
1782969692110775800,8.60877587890625,0.19663900890946387,-0.03594327391013503,0.11773133028075099
1782969692120702700,8.61870263671875,0.05390753127634525,-0.04234992608204484,0.1381022469298914
1782969692130628900,8.62862890625,-0.0630284108430147,-0.06948650094121694,0.09419793101269751
1782969692140555000,8.638554931640625,-0.09680325467288493,-0.10978066353723406,0.062361836693063374
1782969692150481700,8.648481689453124,-0.08930442335009574,-0.1377728323124349,0.026025581409968433
1782969692160407800,8.65840771484375,-0.07534077992737293,-0.13027049385830758,-0.014689144685678184
1782969692170334000,8.668333984375,-0.06118365975916385,-0.0880957782126963,-0.014952325666509567
1782969692180260900,8.6782607421875,-0.01131225213110447,-0.04062266389802098,0.041325880263932045
1782969692190186800,8.688186767578125,0.008594809865951538,-0.02036035872250795,0.07803812925256788
1782969692200113000,8.69811279296875,0.036920156118273734,0.0005737082347273826,0.09535648993067443
1782969692210038800,8.708038818359375,0.11323007333874702,0.015457535242289305,0.0914940788814798
1782969692219965700,8.717965576171874,0.15394026938974856,-0.014918606059998273,0.053750660214200614
1782969692229891800,8.727891845703125,0.1603834541797638,-0.05881751514971256,0.009151457368023693
1782969692239818000,8.73781787109375,0.11336977407038211,-0.07510945538952946,-0.048422779722325504
1782969692249745000,8.747744873046875,0.03759644794464111,-0.09878127674758434,-0.09348828490599989
1782969692259670800,8.7576708984375,-0.029755671316385266,-0.08364595919698477,-0.09354016122370958
1782969692269597000,8.767596923828124,-0.06966682594418526,-0.06827756354287266,-0.07010470590479671
1782969692279522800,8.777522705078125,-0.09042553633451461,-0.061864043238759034,-0.04194134528115392
1782969692289450000,8.787449951171874,-0.056990884244441986,-0.04372764417603612,-0.0023030893106013536
1782969692299375900,8.7973759765625,0.002749006447196007,-0.02980827828645706,0.05474303225241601
1782969692309301800,8.8073017578125,0.09698679454624652,-0.027963381072133777,0.08046930192224681
1782969692319229000,8.81722900390625,0.157171506395936,-0.029075141706317663,0.10909735744819045
1782969692329154800,8.82715478515625,0.1819195786833763,-0.02925722027495503,0.09973525300417095
1782969692339080700,8.837080810546874,0.1431681154847145,-0.06564136982038617,0.049619844019785524
1782969692349006800,8.8470068359375,0.04506605317294597,-0.09788900408297777,0.0019083909045904874
1782969692358934000,8.85693408203125,-0.035166005927324294,-0.09927607452720404,-0.013911036452651022
1782969692368859600,8.866859619140625,-0.0760264241039753,-0.07274667178094386,-0.014760419823601842
1782969692378785800,8.876785888671876,-0.07315700614750385,-0.07326908821985124,0.02220529246944934
1782969692388713000,8.886712890625,-0.043599487751722336,-0.022430004603415727,0.05431373745705932
1782969692398638800,8.896638916015625,0.0017699322819709777,-0.008445756784081458,0.05322097378429025
1782969692408564700,8.906564697265624,0.034440614262223244,0.012194880184531211,0.04808784867953509
1782969692418491000,8.916490966796875,0.048121933612227434,-0.003961450976878405,0.013466178761981426
1782969692428418000,8.92641796875,0.07397241418361664,-0.04172784866094589,-0.04030044620633125
1782969692438343700,8.93634375,0.0733943220347166,-0.06773761144727468,-0.06845971517674625
1782969692448269800,8.946269775390626,0.08274725679159164,-0.07624079750701784,-0.06458144897129386
1782969692458197000,8.956197021484375,0.07345803492069244,-0.07567293449118732,-0.02701145064216107
1782969692468122600,8.96612255859375,0.06717150199711322,-0.030001170510053632,0.020821984884887932
1782969692478048800,8.976048828125,0.08380991758704184,-0.016825024203211067,0.04569982103183865
1782969692487976000,8.985975830078125,0.06726736358702183,-0.013658230735361576,0.07445771348252891
1782969692497901800,8.99590185546875,0.05465571929514408,-0.03898205708414316,0.06611063129995018
1782969692507827700,9.00582763671875,0.062439797300100325,-0.04406783591583371,0.06847926012743263
1782969692517753900,9.01575390625,0.08975216711759566,-0.06546908199340104,0.059713477608747775
1782969692527680800,9.0256806640625,0.06471241840720177,-0.0793147981248796,0.05032422942947596
1782969692537606700,9.035606689453125,-0.013466799816489218,-0.0902472571581602,0.017110490081086754
1782969692547532800,9.04553271484375,-0.05010930803716183,-0.07931289842873811,-0.031145445174351333
1782969692557459700,9.055459716796875,-0.05170446827411651,-0.0855789730861783,-0.005525595021061599
1782969692567385900,9.0653857421875,-0.03334638928472996,-0.08692761121615766,0.013032755780778825
1782969692577311700,9.075311767578125,0.008481997141242027,-0.05052139596939086,0.026349077743291854
1782969692587238000,9.08523779296875,0.04954056823849678,-0.027209493964910507,0.06214563665911555
1782969692597164800,9.095164794921875,0.095915365922451,-0.03035056846961379,0.0709201139409095
1782969692607090700,9.105090576171875,0.13778876053392886,-0.07016045468002557,0.035669717665761706
1782969692617016800,9.115016845703124,0.19975041892826556,-0.06994374318942427,0.0059396557146683335
1782969692626943700,9.12494384765625,0.18397358860373497,-0.05946282731592655,-0.019765826895460484
1782969692636870000,9.134869873046876,0.10816694473028182,-0.04746668457388878,-0.03042341451011598
1782969692646795800,9.144795654296875,0.060924716562032695,-0.055015200257301326,-0.03918229236397892
1782969692656722000,9.154721923828125,0.008231821772456169,-0.058992141064256425,-0.005242357632890343
1782969692666648800,9.16464892578125,-0.03422843281626701,-0.05120806305930018,0.011014182499982416
1782969692676574700,9.17457470703125,-0.05254091909825802,-0.047313832099735734,0.019922186500951646
1782969692686500900,9.1845009765625,-0.07924772423803805,-0.08029387229010462,-0.014529351014085113
1782969692696427800,9.194427734375,-0.06956687270104885,-0.08685980667695403,-0.021236995426565406
1782969692706354000,9.20435400390625,-0.05232230791151523,-0.09198036456108093,-0.029780221235752104
1782969692716279800,9.21427978515625,0.001869301003217697,-0.06682312695086003,-0.03161127258781343
1782969692726206700,9.224206787109376,0.05009644855558872,-0.04960384273305535,0.0240736801572144
1782969692736132900,9.2341328125,0.08208616253435612,-0.04173325548842549,0.07540726929232477
1782969692746058800,9.244058837890625,0.07234744333028793,-0.04415405289456248,0.11589633340593426
1782969692755985000,9.25398486328125,0.004947393274307251,-0.06702478700280189,0.1197829655809328
1782969692765911800,9.263911865234375,-0.08913725008964538,-0.0882186739400029,0.06918638548348098
1782969692775838000,9.273837890625,-0.14395429742634294,-0.09398834338262677,-0.003348908569104969
1782969692785763800,9.283763916015625,-0.12396306427717207,-0.09333192530050873,-0.030403394635394213
1782969692795690800,9.293690673828126,0.006117606097459793,-0.0773611798390746,-0.055429955070652064
1782969692805617000,9.303616943359375,0.16147884820103645,-0.06886939195618033,-0.04590699750911444
1782969692815542800,9.313542724609375,0.2832785969644785,-0.05981339431926608,-0.01099639111496508
1782969692825468700,9.32346875,0.33133331055939197,-0.06565335251912474,0.01954063983745873
1782969692835395800,9.333395751953125,0.30861586731672286,-0.09780673262700437,0.01539952144473791
1782969692845322000,9.343322021484376,0.18131635209321975,-0.10653262152671814,0.0552371359122917
1782969692855247600,9.35324755859375,0.042678281253576276,-0.09229147633686662,0.10449209214244037
1782969692865174800,9.3631748046875,-0.06359656611979007,-0.08752937650159001,0.1288649744419381
1782969692875101000,9.373100830078124,-0.1323456926971674,-0.06371303210631013,0.09334339654259383
1782969692885026800,9.38302685546875,-0.13860709117949008,-0.06497033869102598,-0.0042932767471298575
1782969692894952700,9.39295263671875,-0.11027005448937416,-0.12015797290578484,0.038523170868121084
1782969692904879900,9.4028798828125,-0.09228606950938702,-0.058983811627328395,0.11711436742618679
1782969692914806000,9.412805908203126,-0.06914893954992293,-0.04243687371313572,0.05514401426874101
1782969692924731600,9.422731689453125,-0.03442658573687076,-0.0856701585009694,0.05013626910932362
1782969692934658800,9.432658935546876,0.003119593325257301,-0.10460077668130398,0.06789813577122986
1782969692944585000,9.4425849609375,0.02629647077322006,-0.05593406866788864,0.05652881969064474
1782969692954510800,9.4525107421875,0.08325579083561897,-0.03853168296813965,0.028573585392348468
1782969692964436700,9.462436767578126,0.13973521842658518,-0.05852423129156231,0.03764379421770572
1782969692974364000,9.472364013671875,0.14303192188441752,-0.08674173325523733,0.04198642653189599
1782969692984289800,9.482289794921876,0.11828151150941849,-0.11762918508052825,0.0030197862125933166
1782969692994215700,9.492215576171875,0.08311258297264576,-0.12921280149891973,0.009508709840476512
1782969693004142800,9.502142822265625,0.05227203902900219,-0.09201236713454126,0.06632379912659525
1782969693014068700,9.51206884765625,-0.0016734861701726913,-0.025951310597360132,0.1176437250625342
1782969693023995000,9.521994873046875,-0.008968319353461264,-0.001897796445339918,0.11330463641230017
1782969693033920800,9.531920654296876,-0.0031482348978519436,-0.025670886220782993,0.13912530636731535
1782969693043847700,9.54184765625,0.013001520392298698,-0.05823606199994683,0.09053429393861442
1782969693053773800,9.55177392578125,0.009985387441515921,-0.08557634273767471,0.022036036849766967
1782969693063699700,9.56169970703125,0.007982230925559997,-0.08779840270131826,-0.03659771923087537
1782969693073627000,9.571626953125,0.019381576818227768,-0.09736205759942532,-0.04590802042242139
1782969693083552800,9.581552734375,0.03256663708388805,-0.09935118559002876,-0.033156565801054236
1782969693093479000,9.59147900390625,0.06147475166022777,-0.06586641074791551,-0.028592947679944334
1782969693103405300,9.6014052734375,0.09799158767461776,-0.04200242781862616,-0.0408691860049963
1782969693113331200,9.611331298828125,0.14420622636079788,-0.03110167909786105,0.01901778500713408
1782969693123257000,9.621257080078125,0.11059095700681208,-0.02979059649929404,0.02386730739753693
1782969693133183200,9.631183349609374,0.018932079485058782,-0.04860854808539152,0.004395458479970693
1782969693143110100,9.641110107421875,-0.03254150264263153,-0.0596380377523601,0.017636742444895208
1782969693153036000,9.6510361328125,-0.06013327392339706,-0.061978317268192765,0.05296436867471784
1782969693162962200,9.660962158203125,-0.07665420061349869,-0.04016907491162419,0.0753683255214244
1782969693172889300,9.670889404296876,-0.05467734660506248,-0.03281520501747727,0.047305210401862856
1782969693182815000,9.68081494140625,-0.009000468057394026,-0.04667129641249776,0.006836312293447553
1782969693192741000,9.6907412109375,0.0705272421658039,-0.0860987591765821,-0.020859869209863244
1782969693202667300,9.700667236328124,0.07182780337035656,-0.07342208682447672,-0.027609197339601814
1782969693212594000,9.710593994140625,0.046971010011434555,-0.061138651573657984,-0.048999081772938366
1782969693222520000,9.72052001953125,-0.007820318362116814,-0.044680122595280404,-0.03801770556401461
1782969693232446200,9.7304462890625,-0.019983634364604947,-0.03499561779648065,-0.043291444715857504
1782969693242373000,9.740373046875,0.021996727752685546,-0.027055910838395356,0.007433072610199451
1782969693252299000,9.750299072265625,0.06652911244034766,-0.02872340565919876,0.031131270518526433
1782969693262225200,9.76022509765625,0.12314765624105929,-0.04804506898373365,-0.003377111750282347
1782969693272151300,9.7701513671875,0.1484311505794525,-0.037907559720426795,-0.019183022038824854
1782969693282078000,9.780077880859375,0.13883388567268848,-0.03567541675418615,0.0033460224922746418
1782969693292004000,9.790004150390626,0.09624211365878581,-0.04791618190705776,0.03357778688780963
1782969693301930200,9.79993017578125,0.06493395220339297,-0.07739756632670759,0.05435797845758497
1782969693311857200,9.809857177734376,0.013731003710627555,-0.08125760275572538,0.0807561195069924
1782969693321783000,9.819782958984375,-0.04532558089196682,-0.05695435162633657,0.09768515207394957
1782969693331709200,9.829709228515625,-0.05902443589866161,-0.062175301145017146,0.0810544813990593
1782969693341635300,9.83963525390625,-0.0754249510794878,-0.07534881710335611,0.07772544657420366
1782969693351562200,9.849562255859375,-0.0857990455776453,-0.0584606645360589,0.08148753905408083
1782969693361488100,9.859488037109376,-0.03966097925901413,-0.043135377371311186,0.08374050561264157
1782969693371414300,9.869414306640625,0.03971300170719623,-0.06023907238543033,0.07807550212088972
1782969693381341200,9.879341064453126,0.06671089874804019,-0.05962459374889731,0.08153210884816944
1782969693391267000,9.88926708984375,0.08674947817027569,-0.030004823771864173,0.0707695630216971
1782969693401193200,9.899193115234375,0.11256371838450431,-0.015912731663882733,0.05219031556230038
1782969693411120000,9.9091201171875,0.10791384675204753,-0.03885200096368789,0.030695509449765086
1782969693421046300,9.91904638671875,0.08045651550590992,-0.04526259865835309,-0.0040414208779111505
1782969693430972200,9.92897216796875,0.06574468406438827,-0.057156450069695705,-0.012065006727166473
1782969693440898300,9.938898193359375,0.014816460859775542,-0.07366554019153118,-0.016460099880956112
1782969693450825200,9.9488251953125,-0.04053483948409557,-0.07307590373530984,-0.02024414846431464
1782969693460751000,9.958751220703125,-0.04418167155385017,-0.06871580882966517,-0.02784139866027981
1782969693470677200,9.96867724609375,0.00481236871778965,-0.08887655332684516,-0.05301116695851087
1782969693480604200,9.978604248046874,0.08166472225189209,-0.08278057453930378,-0.044196467264182866
1782969693490530300,9.9885302734375,0.10081249031424522,-0.08468816172629594,-0.04073368652444333
1782969693500456200,9.998456298828126,0.05667407338023185,-0.07551642875522374,-0.015512918691337108
1782969693510382000,10.008382080078125,-0.035302784049510955,-0.04341536335647106,0.013102350418269633
1782969693520309200,10.018309326171876,-0.05540916801095008,-0.027880817355215547,0.034042920181527735
1782969693530235100,10.028235107421875,-0.03561491873860359,-0.03457710012346506,0.06701477706544101
1782969693540161000,10.0381611328125,-0.04070668891966343,-0.04560542074665427,0.06104278998374939
1782969693550088200,10.048088134765624,0.004169979161024093,-0.03648950961604714,-0.02880845359414816
1782969693560014300,10.058014404296875,0.12158932088315486,-0.06050327627956867,-0.07254515785947442
1782969693569940000,10.06793994140625,0.24313947879970071,-0.08908362020626663,-0.02548062434569001
1782969693579866000,10.0778662109375,0.24852234088182448,-0.07945844437927008,0.026355836277641355
1782969693589793300,10.087793212890626,0.166826638969779,-0.07246390931680798,0.04364416714366525
1782969693599719200,10.09771923828125,0.03543371695280075,-0.07268266663402319,0.1014308048756793
1782969693609645000,10.10764501953125,-0.131473586037755,-0.06799100168645382,0.10776855652984231
1782969693619572200,10.117572265625,-0.23148820397257802,-0.026326135259121655,0.10684870173856616
1782969693629498400,10.127498291015625,-0.24830256065130232,-0.028048429007083178,0.05432224955707788
1782969693639424000,10.137424072265626,-0.1480827755331993,-0.07663944143578409,0.02073251650314778
1782969693649350100,10.14735009765625,0.013496025910973548,-0.10978913910463452,-0.034056875641644
1782969693659277300,10.15727734375,0.1677121896326542,-0.12290493352636694,-0.05863781120125204
1782969693669203000,10.167202880859374,0.24944822355508803,-0.11832768873870372,-0.023474033763632177
1782969693679129000,10.177129150390625,0.27836101430654525,-0.08074103153571487,0.03328801016099751
1782969693689056300,10.18705615234375,0.22643793484568595,-0.027145634948462245,0.0655112771673128
1782969693698982100,10.196982177734375,0.15658172380924223,-0.036332711619138716,0.07344144911207258
1782969693708908000,10.206907958984376,0.08848492366075515,-0.046798283793032164,0.09619918783251195
1782969693718835200,10.216835205078125,0.05753682768940925,-0.051774903161823746,0.11250650830455124
1782969693728761000,10.226760986328125,0.019856208592653274,-0.07814984599873423,0.10975158357322215
1782969693738687000,10.23668701171875,0.022579496076703072,-0.09338497066199779,0.07247267714515328
1782969693748613000,10.246613037109375,-0.009466332003474236,-0.09936389894112944,0.07319138334114104
1782969693758540000,10.2565400390625,-0.06291209098696708,-0.08668152750059961,0.07903236445430666
1782969693768466200,10.266466064453125,-0.15450316396951674,-0.06824731453508139,0.07988496269565075
1782969693778392000,10.27639208984375,-0.2020931826621294,-0.06085194358676672,0.021784144447930157
1782969693788319200,10.2863193359375,-0.1764040301322937,-0.031013708553463217,-0.009677563601359724
1782969693798245000,10.2962451171875,-0.07611994760632515,-0.035368688892573115,0.004210713030211627
1782969693808171000,10.3061708984375,0.04395721514821052,-0.024829466960579156,0.07421447931118309
1782969693818097200,10.31609716796875,0.16746902852654455,-0.02040624369084835,0.08708298444095998
1782969693828024000,10.326024169921874,0.20423603990972042,-0.053825698211789126,0.08179678766634314
1782969693837950200,10.3359501953125,0.1831301235169172,-0.06295826821625232,0.04510963658634573
1782969693847876000,10.3458759765625,0.123696522295475,-0.08428776423186063,-0.01000920670852065
1782969693857803000,10.355802978515625,0.07632686835527419,-0.08973053980767727,-0.06055591978225856
1782969693867729200,10.365729248046875,0.006249123522639274,-0.07814443917125463,-0.06575783580690622
1782969693877655000,10.375655029296874,-0.0235585702419281,-0.056742462441325185,-0.02769307623077184
1782969693887581200,10.385581298828125,-0.05180617508292198,-0.03386705215796828,-0.033225685514509676
1782969693897508000,10.395508056640624,-0.05800269163548946,-0.03220920194834471,-0.004997114167548716
1782969693907434200,10.405434326171875,-0.05097206234633922,-0.043524522819370026,0.03921959216706455
1782969693917360000,10.415360107421876,0.003601239362359047,-0.02020560655221343,0.06352737334109843
1782969693927287000,10.425287109375,0.0356231020450592,-0.021499884146451948,0.07510605785604565
1782969693937213200,10.435213134765625,0.047180853369832035,-0.05494871089234948,0.047158349277079105
1782969693947139300,10.445139404296874,0.08140811714231967,-0.06166413675248623,0.04069558300375938
1782969693957065200,10.455065185546875,0.1320972708940506,-0.06340761941894889,0.04677066513374448
1782969693966992100,10.4649921875,0.10842881053686142,-0.05166837404742837,0.035772118594311175
1782969693976918300,10.474918212890625,0.12864040843844413,-0.10852145725637674,0.012851700125448406
1782969693986844200,10.48484423828125,0.03826397194266319,-0.08767053853794932,0.02507989805769175
1782969693996771000,10.49477099609375,-0.0674643474638462,-0.06041019116863608,-0.01867843351755291
1782969694006697200,10.504697265625,-0.14496259768605232,-0.051275575337558985,0.011554499921761453
1782969694016623400,10.514623291015624,-0.169105689817667,-0.004482406111061573,0.05299052602928132
1782969694026550000,10.524550048828125,-0.15873334888517857,0.026348931612819433,0.10127919451054185
1782969694036476200,10.53447607421875,-0.0662970572501421,0.005208966819941997,0.11530870624370872
1782969694046402300,10.54440234375,0.0770586897611618,-0.025014906530082225,0.1053247070416808
1782969694056328000,10.554327880859375,0.1377659641802311,-0.04839534372612834,0.08272767530828713
1782969694066255000,10.564255126953125,0.14504735336005686,-0.05958440786898136,-0.0025721885755658146
1782969694076181200,10.57418115234375,0.16234510964155197,-0.0791784583941102,-0.07657302513606846
1782969694086107100,10.584107177734374,0.1523743352472782,-0.0963756769105792,-0.10146141920965164
1782969694096034000,10.594033935546875,0.10462591112256049,-0.0754533003911376,-0.11027162539195269
1782969694105961000,10.6039609375,0.05045651403963566,-0.07417962719351053,-0.07221355128493159
1782969694115886800,10.613886962890625,0.04138824144303799,-0.042042467568069695,-0.002351531562209129
1782969694125813000,10.62381298828125,0.07276829909086227,-0.001982405988872051,0.0824991637820378
1782969694135740200,10.633740234375,0.056145081070065495,0.0028280630327761173,0.16417879134211688
1782969694145666000,10.643666015625,0.028766660279035565,-0.021161738233268258,0.18208660581335423
1782969694155592000,10.653592041015624,0.015277648630738258,-0.06379033512622118,0.1286347093500197
1782969694165519000,10.66351904296875,-0.012463175731897353,-0.0707074210382998,0.07992887490261345
1782969694175445000,10.673445068359374,-0.09272504544854164,-0.06001870763301849,0.05576740686409175
1782969694185371000,10.683370849609375,-0.11852116548418998,-0.06703896165862679,0.006573861964978277
1782969694195297000,10.693297119140626,-0.06542611963450909,-0.10272212332785129,-0.0347009091662243
1782969694205224000,10.703223876953125,0.017129998499155044,-0.10360139038041233,-0.046884902630560096
1782969694215150000,10.713150146484375,0.06680909842550754,-0.09751651750877499,-0.02827237395606935
1782969694225076000,10.723075927734374,0.10176701456010341,-0.05143953372761607,0.006536489096656441
1782969694235003000,10.7330029296875,0.14346271451711654,-0.025420710851997135,0.029275486584007738
1782969694244929000,10.742928955078124,0.11415303340256214,-0.03259615543931722,0.054558761726692315
1782969694254855000,10.75285498046875,0.06677870328724383,-0.0183475575953722,0.0506897382736206
1782969694264781000,10.762781005859376,0.002626256850361824,-0.04684928332790732,0.015018047846481202
1782969694274708000,10.7727080078125,-0.008079846081137657,-0.06073094755560159,0.009708287533186375
1782969694284634000,10.782634033203125,-0.04460661896765232,-0.07555076941624284,0.013006781089305877
1782969694294560000,10.79256005859375,-0.05426350510716438,-0.06707637105956674,0.02025119925960898
1782969694304487000,10.80248681640625,0.007618658310174942,-0.08615209679901599,0.003382445512525737
1782969694314413000,10.8124130859375,0.05138473480045795,-0.08089797566309571,0.009929419470578432
1782969694324339000,10.8223388671875,0.0670592737942934,-0.06432371135056018,-0.003168218239955604
1782969694334265900,10.832265869140626,0.06605857231914997,-0.07207242578119039,-0.02992485387083143
1782969694344192000,10.84219189453125,0.04725859478116035,-0.04670154542028904,-0.009068857118487358
1782969694354118100,10.8521181640625,-0.012002572482824325,-0.003291004369407892,0.07775346709229052
1782969694364044000,10.8620439453125,-0.00037467853128910064,-0.0027037060007452964,0.07279767131581902
1782969694373971000,10.871970947265625,0.028314824858307837,-0.040935383109003305,0.05093268018402159
1782969694383897000,10.88189697265625,0.034707156243920324,-0.06257087633386255,0.007277516722306609
1782969694393823000,10.891822998046875,0.06338380015194416,-0.09004019027873873,-0.02704148045424372
1782969694403750000,10.90175,0.0931798034787178,-0.11079977745190261,-0.043375323607027526
1782969694413676000,10.911676025390625,0.07441957342922687,-0.061475774573534724,0.02200545904841274
1782969694423602200,10.921602294921875,0.01795417436361313,-0.02796367333307862,0.07863996760323644
1782969694433528000,10.931528076171874,0.0030862755775451656,-0.04549479997903108,0.0894080663876608
1782969694443455000,10.941455078125,-0.04571194986104965,-0.08131488590091467,0.09585643880944698
1782969694453381000,10.951381103515626,-0.083755557051301,-0.06803484082818032,0.07124320841543376
1782969694463307000,10.96130712890625,-0.11522095489501953,-0.059705988422036164,0.03157978147100657
1782969694473234000,10.97123388671875,-0.06364157430529593,-0.05056757319867611,0.01595565749015659
1782969694483160000,10.98116015625,0.00539747512936592,-0.048935003560781475,0.02449811611436307
1782969694493086200,10.991086181640625,0.09187164348959923,-0.053134062685817475,-0.01350508600026369
1782969694503011800,11.00101171875,0.2019090582668781,-0.07388415137827396,-0.019863588181510565
1782969694512939000,11.01093896484375,0.24065935242176054,-0.09499708203375339,-0.007124189324118196
1782969694522865200,11.020865234375,0.21586393386125563,-0.10161328530311584,-0.0019201178750023246
1782969694532791000,11.030791015625,0.13312602941989898,-0.09085267570540309,-0.0021707316352054477
1782969694542718000,11.040718017578126,0.01927519383430481,-0.07468450797572732,0.036510406273603434
1782969694552644000,11.05064404296875,-0.05246610029637813,-0.0486266682639718,0.08656009307801724
1782969694562570000,11.060570068359375,-0.04991933842301369,-0.03548880814090371,0.13132084316145629
1782969694572496000,11.070495849609374,-0.06018938802480697,-0.05175415263473987,0.14972900837026534
1782969694582423000,11.080423095703125,-0.0714993020683527,-0.05971943242549896,0.12263104848843068
1782969694592349000,11.090348876953126,-0.07066402028799057,-0.06193097099512815,0.07394059427324683
1782969694602275000,11.100275146484375,-0.09123802176117897,-0.06878902019634843,0.019976766232401133
1782969694612202000,11.110201904296876,-0.08530570910274982,-0.09758329913467169,0.010490998876094818
1782969694622128000,11.120128173828125,-0.06576748041808604,-0.08302797342911362,-0.02857544855587184
1782969694632054000,11.130053955078125,-0.0016407529443502424,-0.05480404172465205,-0.046357627353444696
1782969694641980000,11.13997998046875,0.07572422628700733,-0.04696063474789262,-0.03788333859462291
1782969694651907000,11.149906982421875,0.16732231353223323,-0.036125060217827555,-0.017940803425386547
1782969694661833000,11.1598330078125,0.22303075675070286,-0.03273541777953505,0.009077259620651602
1782969694671759000,11.169759033203125,0.2511655488669872,-0.049228579679876566,0.02767331208437681
1782969694681686000,11.17968603515625,0.19914134711921214,-0.036228812853246924,0.014225034305267035
1782969694691612000,11.18961181640625,0.1009913540124893,-0.04652881920188665,0.01121416205149144
1782969694701538000,11.1995380859375,0.04173895457684994,-0.053506549260020256,-0.010726707328110933
1782969694711464000,11.2094638671875,-0.026885668838024138,-0.03610474808216095,0.0239163707036525
1782969694721390800,11.219390869140625,-0.08576514330804348,-0.022160540012270212,0.082811846460402
1782969694731317000,11.22931689453125,-0.08895955543518066,-0.04171045913472771,0.12703432494867592
1782969694741243100,11.2392431640625,-0.08853460802137851,-0.06477876164168118,0.08521558313388376
1782969694751169800,11.249169677734375,-0.03602233049571514,-0.07259308865442872,0.027307145653106272
1782969694761096000,11.259095947265624,-0.010734744504094123,-0.10042875169366597,-0.04793386369422078
1782969694771022000,11.26902197265625,-0.02217909858226776,-0.08527516783401369,-0.07527955125942826
1782969694780949000,11.278948974609374,0.019664485412836073,-0.06486264053285122,-0.09299388898517937
1782969694790875000,11.288875,0.07112696162462234,-0.0517617514193058,-0.037054121228866276
1782969694800801000,11.298801025390626,0.1020943468183279,-0.028728520225733516,0.03762121705971658
1782969694810727200,11.30872705078125,0.1186421615153551,-0.01213175182044506,0.06486749937105923
1782969694820653800,11.31865380859375,0.09262684577107429,-0.017489625591784713,0.06242715701423585
1782969694830580000,11.328580078125,0.04069149135053157,-0.037558307891339064,0.05146079571135342
1782969694840506000,11.338506103515625,-0.0005254851788282394,-0.04801145897507667,0.05924428919441998
1782969694850433000,11.34843310546875,-0.04706219542622566,-0.05252805961668491,0.027272476198524236
1782969694860359000,11.35835888671875,-0.08667933554351329,-0.05011778360456228,0.020048772022686897
1782969694870285000,11.36828515625,-0.05146189168989658,-0.05444426850154996,0.0051873029774054885
1782969694880211200,11.378211181640625,-0.008043605723977089,-0.04643675700426102,0.0030723201174288985
1782969694890137900,11.388137939453125,0.06530746169090271,-0.046305093448609114,0.011915040329843758
1782969694900064000,11.39806396484375,0.10540449427962302,-0.045043256819248194,0.02103402020037174
1782969694909990100,11.407990234375,0.11296586944460868,-0.052755000240355725,0.06892481193784623
1782969694919917000,11.4179169921875,0.13203414252996443,-0.032279929096996784,0.07718271799962967
1782969694929843000,11.427843017578125,0.11110358270406723,-0.021939736868441105,0.11060695829354227
1782969694939769000,11.43776904296875,0.0761871676236391,-0.006308598624914884,0.0720414826536551
1782969694949695200,11.4476953125,0.02746726811826229,-0.04372852095887065,-0.010634352869540451
1782969694959622000,11.457621826171875,-0.018902853390574455,-0.09976853421926497,-0.051887423625588416
1782969694969548000,11.467548095703124,-0.01685176607966423,-0.11012085527703165,-0.07597670321073383
1782969694979474200,11.47747412109375,0.010161328530311584,-0.06692147275879978,-0.020925335661508143
1782969694989401000,11.487401123046874,0.05594225197434425,-0.032718758905678984,0.03014076164383441
1782969694999327000,11.497326904296875,0.08683891001939772,-0.006657558193057775,0.07886482586767524
1782969695009253000,11.507253173828126,0.08042495132386684,-0.027215777575224635,0.10802106998618692
1782969695019179000,11.517178955078125,0.07612929995656013,-0.03427183356657624,0.1013213166192174
1782969695029106000,11.52710595703125,0.04709317508637905,-0.052027855009585615,0.07873148181159048
1782969695039032000,11.537031982421874,0.009811199918389319,-0.08262728367373347,0.00548489768449217
1782969695048958000,11.5469580078125,-0.02049509101808071,-0.08649696471393108,-0.04048826039601117
1782969695058885000,11.556885009765624,-0.032735563910007474,-0.07048749467730522,-0.04074369646180421
1782969695068811000,11.56681103515625,-0.0235498024135828,-0.07971694918498397,-0.028690380172431466
1782969695078737000,11.57673681640625,0.0073036010116338725,-0.06121712363734841,0.018651655108481643
1782969695088663000,11.5866630859375,0.005641805279254913,-0.013239713062345981,0.07623959193062037
1782969695098590200,11.596590087890625,0.03394260161221027,-0.008472937051951885,0.11271317332517355
1782969695108515800,11.606515869140624,0.08760054204165935,-0.029408903705328702,0.10546013345699756
1782969695118441500,11.61644140625,0.10153729745745659,-0.04821341128796339,0.04985266639497131
1782969695128368600,11.62636865234375,0.0811503429889679,-0.06622063101306558,0.022593999526090917
1782969695138294800,11.636294677734375,0.0722568424373865,-0.08205547513514756,0.005508680418878794
1782969695148220400,11.646220458984375,0.0350654681622982,-0.09499255198910832,-0.0014033639919012785
1782969695158146600,11.656146484375,-0.03480769400894642,-0.08398995032906532,-0.031553843312151726
1782969695168073700,11.66607373046875,-0.04788695581257343,-0.0767630678154528,-0.04581698113810271
1782969695177999600,11.67599951171875,-0.026215222230553625,-0.06288140358775854,0.00007423427999019622
1782969695187925500,11.685925537109375,0.02116086145043373,-0.022064386161416767,0.0332630218502134
1782969695197852700,11.695852783203126,0.0750415047198534,-0.052296150556951755,0.04904507633913308
1782969695207778800,11.70577880859375,0.11227905622422694,-0.06766250038444996,0.0564968536498025
1782969695217704400,11.715704345703125,0.13292787649929522,-0.05166428239420056,0.04447985078282654
1782969695227630600,11.725630615234374,0.14768646969199178,-0.07168035772368311,0.06345186041947454
1782969695237557800,11.735557861328125,0.0584323152244091,-0.0730804337799549,0.0790684221483767
1782969695247483600,11.745483642578124,-0.025369419056177137,-0.050635962259769435,0.059883463880792256
1782969695257409500,11.755409423828125,-0.0993102690577507,-0.06300502996742725,0.03197363962680101
1782969695267336700,11.765336669921876,-0.11656477071940899,-0.07887611444666981,-0.022538908337987957
1782969695277262600,11.7752626953125,-0.0893061769157648,-0.1087054355211556,-0.08007336140722036
1782969695287188500,11.7851884765625,0.01818798311948776,-0.09638356795608997,-0.06830996797513217
1782969695297114600,11.795114501953124,0.11758066976368427,-0.049882805804908274,-0.0058655310325324535
1782969695307041500,11.80504150390625,0.1425228033185005,-0.008351210368424653,0.06973499580956995
1782969695316967700,11.8149677734375,0.11711129868626594,0.0030029812082648277,0.10549388959612696
1782969695326893600,11.8248935546875,0.07094809792637824,-0.020413842475414275,0.08575206463076174
1782969695336820500,11.834820556640626,-0.037709260669350625,-0.057417877484858035,0.06395264954846352
1782969695346746600,11.84474658203125,-0.1532417657315731,-0.05153524918705225,0.027716128312796354
1782969695356672800,11.8546728515625,-0.1835585780620575,-0.049810471221059555,-0.04370247320216149
1782969695366598700,11.8645986328125,-0.04962532391250133,-0.07607011711522936,-0.060889754846505814
1782969695376525600,11.874525634765625,0.08717734819352627,-0.09931757558137178,-0.0409400592841208
1782969695386451700,11.88445166015625,0.19156711247265337,-0.12642550886794923,-0.039782486746832726
1782969695396377600,11.894377685546875,0.2788555198252201,-0.09965645214691758,-0.004819492578320205
1782969695406304500,11.904304443359376,0.2676391292840242,-0.06651011547893286,0.06509001954793929
1782969695416230700,11.914230712890625,0.20367372985184193,-0.04600830245912075,0.09844915871638804
1782969695426156800,11.92415673828125,0.12008300797343253,-0.03568666880056262,0.11210483216848224
1782969695436082700,11.934082763671874,0.010578677159547805,-0.052037645751237864,0.11854520394690334
1782969695446009600,11.944009521484375,-0.09066752839684486,-0.06329772930368781,0.12544077214691787
1782969695455935700,11.953935791015626,-0.1430149707496166,-0.050430064424127334,0.08820742189362644
1782969695465861600,11.963861572265625,-0.15456921494305134,-0.059225511428713795,0.0852718433657661
1782969695475788500,11.97378857421875,-0.09838497090637684,-0.0892852802582085,0.04745484800562262
1782969695485714700,11.983714599609375,-0.056120531150698656,-0.11134791285395622,-0.013161094868183135
1782969695495640800,11.993640869140625,-0.024099837511777876,-0.10897300041615962,-0.040174920130521055
1782969695505567500,12.0035673828125,0.010431377643346786,-0.08363894493430853,-0.040887525379285215
1782969695515492600,12.01349267578125,0.06310907486379146,-0.0425629843108356,-0.011917597613111139
1782969695525418800,12.023418701171876,0.13463058876395226,0.002860796258598566,0.002000854961015284
1782969695535345700,12.033345703125,0.2018874309569597,0.0026370705053210255,-0.013054273492842912
1782969695545271600,12.043271484375,0.23226327999830246,-0.030164982769638297,0.003289762260392308
1782969695555197700,12.05319775390625,0.18080080378651617,-0.06822539496421813,-0.01236789866387844
1782969695565123600,12.06312353515625,0.10068331097662449,-0.0842686211399734,0.02617967599313706
