time,seconds_elapsed,z,y,x
1782969683565479200,0.063479248046875,-0.9802093505859375,-0.144317626953125,-0.06695556640625
1782969683575405000,0.073405029296875,-0.9748687744140625,-0.1512451171875,-0.070648193359375
1782969683585332200,0.083332275390625,-0.9730987548828125,-0.1477508544921875,-0.067779541015625
1782969683595258000,0.093258056640625,-0.97149658203125,-0.1432342529296875,-0.062408447265625
1782969683605184000,0.10318408203125,-0.9818878173828125,-0.1436614990234375,-0.069854736328125
1782969683615111200,0.113111083984375,-0.9940185546875,-0.1539306640625,-0.0633392333984375
1782969683625037300,0.123037353515625,-0.9982757568359375,-0.132659912109375,-0.0943145751953125
1782969683634963000,0.132962890625,-1.0091094970703125,-0.1263580322265625,-0.1118011474609375
1782969683644890000,0.14289013671875,-1.0230255126953125,-0.15582275390625,-0.1120147705078125
1782969683654816300,0.152816162109375,-1.0207672119140625,-0.17144775390625,-0.1157379150390625
1782969683664742100,0.1627421875,-1.0107421875,-0.169891357421875,-0.1113128662109375
1782969683674669000,0.1726689453125,-0.996734619140625,-0.161224365234375,-0.087646484375
1782969683684595200,0.18259521484375,-0.998077392578125,-0.148590087890625,-0.0452423095703125
1782969683694521000,0.19252099609375,-1.0001678466796875,-0.126617431640625,-0.013580322265625
1782969683704447000,0.202447021484375,-0.987457275390625,-0.1244659423828125,-0.005615234375
1782969683714374100,0.2123740234375,-0.969329833984375,-0.1492156982421875,-0.0203094482421875
1782969683724300000,0.222300048828125,-0.95794677734375,-0.1800384521484375,-0.01690673828125
1782969683734226200,0.23222607421875,-0.9390716552734375,-0.187835693359375,-0.0342559814453125
1782969683744153300,0.2421533203125,-0.9256134033203125,-0.1754913330078125,-0.0895233154296875
1782969683754079000,0.252078857421875,-0.936431884765625,-0.1602325439453125,-0.109954833984375
1782969683764005000,0.262005126953125,-0.9497528076171875,-0.1502685546875,-0.0969390869140625
1782969683773932300,0.271932373046875,-0.971405029296875,-0.148406982421875,-0.0559844970703125
1782969683783858200,0.281858154296875,-1.019500732421875,-0.1497344970703125,-0.0171051025390625
1782969683793784000,0.2917841796875,-1.0568695068359375,-0.147369384765625,-0.015411376953125
1782969683803710200,0.301710205078125,-1.067596435546875,-0.14373779296875,-0.0404510498046875
1782969683813637400,0.311637451171875,-1.0523681640625,-0.1547698974609375,-0.06561279296875
1782969683823563000,0.32156298828125,-1.0138397216796875,-0.16583251953125,-0.079498291015625
1782969683833489200,0.3314892578125,-0.9745025634765625,-0.17205810546875,-0.0786590576171875
1782969683843416300,0.341416259765625,-0.953216552734375,-0.1739959716796875,-0.064117431640625
1782969683853342000,0.351342041015625,-0.9456939697265625,-0.16534423828125,-0.055633544921875
1782969683863268000,0.36126806640625,-0.9364471435546875,-0.1595001220703125,-0.065093994140625
1782969683873195300,0.3711953125,-0.9435272216796875,-0.1581878662109375,-0.066192626953125
1782969683883121200,0.38112109375,-0.9640350341796875,-0.161102294921875,-0.071746826171875
1782969683893047000,0.391047119140625,-0.986907958984375,-0.1666259765625,-0.079681396484375
1782969683902973200,0.40097314453125,-0.998046875,-0.1646575927734375,-0.078338623046875
1782969683912900000,0.410900146484375,-0.9953765869140625,-0.159942626953125,-0.072418212890625
1782969683922826000,0.420825927734375,-0.9900970458984375,-0.16046142578125,-0.06298828125
1782969683932752100,0.430752197265625,-0.9874114990234375,-0.161895751953125,-0.055206298828125
1782969683942679000,0.440678955078125,-0.988861083984375,-0.1662445068359375,-0.0551605224609375
1782969683952605200,0.450605224609375,-0.9876556396484375,-0.16741943359375,-0.0627899169921875
1782969683962531000,0.460531005859375,-0.9823760986328125,-0.168243408203125,-0.0749053955078125
1782969683972458200,0.470458251953125,-0.9661407470703125,-0.15435791015625,-0.070037841796875
1782969683982384000,0.480384033203125,-0.9460601806640625,-0.16015625,-0.0660400390625
1782969683992310000,0.49031005859375,-0.94427490234375,-0.1786346435546875,-0.058502197265625
1782969684002236200,0.500236083984375,-0.94537353515625,-0.189727783203125,-0.036224365234375
1782969684012163000,0.5101630859375,-0.951263427734375,-0.1736602783203125,-0.0313262939453125
1782969684022089200,0.520089111328125,-0.967620849609375,-0.15533447265625,-0.048095703125
1782969684032015000,0.53001513671875,-0.97479248046875,-0.1553497314453125,-0.0716094970703125
1782969684041942000,0.53994189453125,-0.97711181640625,-0.1659393310546875,-0.0904541015625
1782969684051868200,0.5498681640625,-0.984039306640625,-0.1701812744140625,-0.0947113037109375
1782969684061794000,0.5597939453125,-0.9856414794921875,-0.167999267578125,-0.0868988037109375
1782969684071721000,0.569720947265625,-0.991790771484375,-0.17413330078125,-0.0788726806640625
1782969684081647000,0.579647216796875,-1.00042724609375,-0.1812591552734375,-0.077850341796875
1782969684091573200,0.5895732421875,-1.00262451171875,-0.1739501953125,-0.0629119873046875
1782969684101499100,0.5994990234375,-1.000823974609375,-0.1640625,-0.045989990234375
1782969684111426000,0.609426025390625,-0.98602294921875,-0.161041259765625,-0.041015625
1782969684121352200,0.619352294921875,-0.9697265625,-0.1682891845703125,-0.0439453125
1782969684131278000,0.629278076171875,-0.95849609375,-0.174102783203125,-0.0579071044921875
1782969684141205000,0.639205078125,-0.95697021484375,-0.1774444580078125,-0.07269287109375
1782969684151131100,0.649131103515625,-0.9600067138671875,-0.17431640625,-0.0809783935546875
1782969684161057300,0.659057373046875,-0.97198486328125,-0.1612701416015625,-0.0738983154296875
1782969684170984000,0.66898388671875,-0.98492431640625,-0.1524810791015625,-0.053619384765625
1782969684180910000,0.67891015625,-0.9858856201171875,-0.15728759765625,-0.0576171875
1782969684190836200,0.688836181640625,-0.978912353515625,-0.1658935546875,-0.0696258544921875
1782969684200762000,0.69876220703125,-0.967315673828125,-0.1731414794921875,-0.0861053466796875
1782969684210689000,0.70868896484375,-0.95953369140625,-0.17596435546875,-0.096954345703125
1782969684220615200,0.718615234375,-0.9617462158203125,-0.1738128662109375,-0.0895538330078125
1782969684230541300,0.728541259765625,-0.962677001953125,-0.1655120849609375,-0.07672119140625
1782969684240468200,0.73846826171875,-0.9566650390625,-0.1576385498046875,-0.06439208984375
1782969684250394000,0.74839404296875,-0.956146240234375,-0.1532745361328125,-0.0546722412109375
1782969684260320300,0.7583203125,-0.959625244140625,-0.1559295654296875,-0.0508880615234375
1782969684270247200,0.7682470703125,-0.97210693359375,-0.1582183837890625,-0.0545654296875
1782969684280173000,0.778173095703125,-0.9843597412109375,-0.159271240234375,-0.0617218017578125
1782969684290099200,0.78809912109375,-0.9968719482421875,-0.158782958984375,-0.0630950927734375
1782969684300025300,0.798025390625,-1.00946044921875,-0.1542816162109375,-0.067779541015625
1782969684309952300,0.8079521484375,-1.010040283203125,-0.1475830078125,-0.067840576171875
1782969684319878100,0.817878173828125,-1.0030517578125,-0.132476806640625,-0.0513916015625
1782969684329804300,0.82780419921875,-1.014251708984375,-0.149993896484375,-0.0467071533203125
1782969684339731200,0.837731201171875,-1.0333709716796875,-0.15509033203125,-0.06341552734375
1782969684349657000,0.847656982421875,-1.0308837890625,-0.13720703125,-0.0683135986328125
1782969684359583200,0.857583251953125,-1.0128326416015625,-0.1407012939453125,-0.06597900390625
1782969684369510100,0.86751025390625,-0.9947509765625,-0.1558685302734375,-0.06317138671875
1782969684379436300,0.877436279296875,-0.9788970947265625,-0.15765380859375,-0.066741943359375
1782969684389362200,0.887362060546875,-0.972808837890625,-0.1519775390625,-0.066192626953125
1782969684399288000,0.8972880859375,-0.9721221923828125,-0.142791748046875,-0.0550689697265625
1782969684409215200,0.90721533203125,-0.9746246337890625,-0.138763427734375,-0.047637939453125
1782969684419141000,0.91714111328125,-0.9854736328125,-0.1433563232421875,-0.05767822265625
1782969684429067000,0.92706689453125,-0.9955291748046875,-0.1463470458984375,-0.064788818359375
1782969684438994200,0.936994140625,-0.997772216796875,-0.1473846435546875,-0.065460205078125
1782969684448920300,0.94692041015625,-0.998077392578125,-0.1462249755859375,-0.0655670166015625
1782969684458846200,0.95684619140625,-0.9960174560546875,-0.144439697265625,-0.0662078857421875
1782969684468773000,0.966773193359375,-0.9910888671875,-0.1446685791015625,-0.06591796875
1782969684478699300,0.97669921875,-0.9851531982421875,-0.1476898193359375,-0.0644378662109375
1782969684488625200,0.986625244140625,-0.9862213134765625,-0.15301513671875,-0.0641021728515625
1782969684498551000,0.996551025390625,-0.983245849609375,-0.1517333984375,-0.0652923583984375
1782969684508478200,1.006478271484375,-0.98626708984375,-0.1468353271484375,-0.0646514892578125
1782969684518404400,1.016404296875,-0.9932708740234375,-0.1438446044921875,-0.0587005615234375
1782969684528330000,1.026330078125,-0.9977264404296875,-0.1420440673828125,-0.05450439453125
1782969684538257200,1.036257080078125,-0.9960784912109375,-0.141204833984375,-0.0548553466796875
1782969684548183300,1.046183349609375,-0.98809814453125,-0.14208984375,-0.057586669921875
1782969684558109000,1.05610888671875,-0.9813385009765625,-0.1470489501953125,-0.0623016357421875
1782969684568036000,1.0660361328125,-0.972259521484375,-0.14886474609375,-0.066497802734375
1782969684577962200,1.075962158203125,-0.9770965576171875,-0.1551361083984375,-0.067718505859375
1782969684587888000,1.08588818359375,-0.9751739501953125,-0.15313720703125,-0.0734100341796875
1782969684597814000,1.09581396484375,-0.9805450439453125,-0.1579437255859375,-0.075408935546875
1782969684607741200,1.1057412109375,-0.9819793701171875,-0.16180419921875,-0.0769805908203125
1782969684617667000,1.1156669921875,-0.9814910888671875,-0.1589202880859375,-0.0738525390625
1782969684627593000,1.125593017578125,-0.97943115234375,-0.146514892578125,-0.065216064453125
1782969684637520100,1.13552001953125,-0.976593017578125,-0.1417388916015625,-0.054046630859375
1782969684647446300,1.1454462890625,-0.97705078125,-0.1409454345703125,-0.03570556640625
1782969684657372200,1.1553720703125,-0.9841461181640625,-0.14068603515625,-0.0316619873046875
1782969684667299000,1.165299072265625,-0.988128662109375,-0.14300537109375,-0.039825439453125
1782969684677225200,1.17522509765625,-0.989715576171875,-0.14447021484375,-0.048370361328125
1782969684687151000,1.185151123046875,-0.987213134765625,-0.1516571044921875,-0.06219482421875
1782969684697077000,1.195076904296875,-0.9835662841796875,-0.155853271484375,-0.0713043212890625
1782969684707004200,1.205004150390625,-0.983673095703125,-0.15899658203125,-0.0795745849609375
1782969684716930000,1.214929931640625,-0.97882080078125,-0.1555023193359375,-0.08111572265625
1782969684726856200,1.224856201171875,-0.9786834716796875,-0.1512603759765625,-0.0774078369140625
1782969684736783000,1.234783203125,-0.97698974609375,-0.1486968994140625,-0.071136474609375
1782969684746709000,1.244708984375,-0.9754486083984375,-0.1475372314453125,-0.0646820068359375
1782969684756635100,1.25463525390625,-0.9770660400390625,-0.1466217041015625,-0.04998779296875
1782969684766562300,1.264562255859375,-0.98150634765625,-0.14239501953125,-0.0442657470703125
1782969684776488200,1.27448828125,-0.9919586181640625,-0.1446685791015625,-0.050567626953125
1782969684786414000,1.2844140625,-1.000396728515625,-0.1506805419921875,-0.059661865234375
1782969684796340200,1.29434033203125,-0.9996337890625,-0.1526947021484375,-0.069580078125
1782969684806267100,1.30426708984375,-0.9892730712890625,-0.1551513671875,-0.074005126953125
1782969684816193000,1.314193115234375,-0.977081298828125,-0.156829833984375,-0.0709075927734375
1782969684826119200,1.324119140625,-0.9691925048828125,-0.1563720703125,-0.0606231689453125
1782969684836046300,1.33404638671875,-0.9673309326171875,-0.1522216796875,-0.04656982421875
1782969684845972000,1.343971923828125,-0.969573974609375,-0.150482177734375,-0.0463714599609375
1782969684855898000,1.353898193359375,-0.9743499755859375,-0.150054931640625,-0.0485076904296875
1782969684865824300,1.36382421875,-0.976531982421875,-0.151824951171875,-0.0509490966796875
1782969684875751200,1.373751220703125,-0.978668212890625,-0.1533966064453125,-0.0524749755859375
1782969684885677000,1.383677001953125,-0.982513427734375,-0.1527252197265625,-0.0559234619140625
1782969684895603200,1.393603271484375,-0.9829864501953125,-0.1545257568359375,-0.0569610595703125
1782969684905530000,1.403530029296875,-0.980194091796875,-0.153076171875,-0.0523681640625
1782969684915456000,1.4134560546875,-0.98126220703125,-0.1489105224609375,-0.0463104248046875
1782969684925382100,1.423382080078125,-0.990814208984375,-0.1463623046875,-0.0436859130859375
1782969684935309000,1.43330908203125,-1.0023651123046875,-0.1485137939453125,-0.0484771728515625
1782969684945235200,1.443235107421875,-1.0043792724609375,-0.149383544921875,-0.059478759765625
1782969684955161000,1.4531611328125,-0.999267578125,-0.153594970703125,-0.0687408447265625
1782969684965087200,1.463087158203125,-0.99017333984375,-0.156707763671875,-0.069488525390625
1782969684975014100,1.47301416015625,-0.97900390625,-0.1534271240234375,-0.07098388671875
1782969684984940000,1.48293994140625,-0.9701080322265625,-0.151336669921875,-0.0615997314453125
1782969684994866200,1.4928662109375,-0.966766357421875,-0.1459197998046875,-0.048797607421875
1782969685004793000,1.50279296875,-0.9727630615234375,-0.1413116455078125,-0.041290283203125
1782969685014719200,1.51271923828125,-0.9983367919921875,-0.1448516845703125,-0.04876708984375
1782969685024645000,1.52264501953125,-1.018798828125,-0.148406982421875,-0.0582122802734375
1782969685034572000,1.532572021484375,-1.0165557861328125,-0.151611328125,-0.0630950927734375
1782969685044498200,1.542498291015625,-1.0027313232421875,-0.1544952392578125,-0.0619354248046875
1782969685054424000,1.552424072265625,-0.987762451171875,-0.1531829833984375,-0.056243896484375
1782969685064350200,1.56235009765625,-0.9737091064453125,-0.150634765625,-0.0501251220703125
1782969685074277000,1.572277099609375,-0.96563720703125,-0.1533355712890625,-0.050933837890625
1782969685084203300,1.582203369140625,-0.9620819091796875,-0.16351318359375,-0.057769775390625
1782969685094129200,1.592129150390625,-0.9610443115234375,-0.172698974609375,-0.0755615234375
1782969685104056000,1.60205615234375,-0.967132568359375,-0.1321563720703125,-0.053741455078125
1782969685113982200,1.611982177734375,-0.9703216552734375,-0.1313018798828125,-0.03582763671875
1782969685123908400,1.621908447265625,-0.983978271484375,-0.1588287353515625,-0.054168701171875
1782969685133835000,1.6318349609375,-0.9910736083984375,-0.1471405029296875,-0.048797607421875
1782969685143761200,1.64176123046875,-0.990142822265625,-0.143585205078125,-0.0441436767578125
1782969685153687300,1.651687255859375,-0.9951324462890625,-0.1553497314453125,-0.0505218505859375
1782969685163613200,1.66161328125,-0.994171142578125,-0.157501220703125,-0.0525360107421875
1782969685173540000,1.6715400390625,-0.992950439453125,-0.1585845947265625,-0.051055908203125
1782969685183466200,1.68146630859375,-0.98956298828125,-0.1556396484375,-0.0496826171875
1782969685193392400,1.691392333984375,-0.9902191162109375,-0.15264892578125,-0.0454559326171875
1782969685203319000,1.701319091796875,-0.994384765625,-0.149017333984375,-0.04571533203125
1782969685213245200,1.7112451171875,-0.994384765625,-0.14764404296875,-0.0535736083984375
1782969685223171300,1.72117138671875,-0.9886474609375,-0.150177001953125,-0.059478759765625
1782969685233097000,1.731096923828125,-0.9817352294921875,-0.154632568359375,-0.0606231689453125
1782969685243024100,1.741024169921875,-0.9727783203125,-0.1553192138671875,-0.0579681396484375
1782969685252950300,1.7509501953125,-0.96563720703125,-0.1522064208984375,-0.05523681640625
1782969685262876200,1.760876220703125,-0.9631195068359375,-0.1505889892578125,-0.0529937744140625
1782969685272803000,1.770802978515625,-0.96624755859375,-0.1507110595703125,-0.049530029296875
1782969685282729200,1.780729248046875,-0.972991943359375,-0.15191650390625,-0.050201416015625
1782969685292655000,1.790655029296875,-0.9755859375,-0.148101806640625,-0.04669189453125
1782969685302582300,1.800582275390625,-0.9829559326171875,-0.1469573974609375,-0.0490570068359375
1782969685312508200,1.810508056640625,-0.9912109375,-0.1483154296875,-0.05523681640625
1782969685322434300,1.820434326171875,-1.0003204345703125,-0.14990234375,-0.0555877685546875
1782969685332360200,1.830360107421875,-1.0055694580078125,-0.151336669921875,-0.055633544921875
1782969685342287400,1.840287353515625,-1.00347900390625,-0.1519317626953125,-0.0518798828125
1782969685352213200,1.850213134765625,-0.99395751953125,-0.150482177734375,-0.04443359375
1782969685362139100,1.86013916015625,-0.99359130859375,-0.1490325927734375,-0.0395050048828125
1782969685372066300,1.87006640625,-0.99725341796875,-0.14453125,-0.0379638671875
1782969685381992200,1.8799921875,-1.0019989013671875,-0.14520263671875,-0.048248291015625
1782969685391918000,1.88991796875,-1.0055084228515625,-0.1520538330078125,-0.059417724609375
1782969685401845200,1.89984521484375,-1.001800537109375,-0.155792236328125,-0.0623626708984375
1782969685411771400,1.909771484375,-0.9930877685546875,-0.1558380126953125,-0.061614990234375
1782969685421697000,1.919697021484375,-0.98309326171875,-0.1547698974609375,-0.058319091796875
1782969685431623200,1.929623046875,-0.971588134765625,-0.1534423828125,-0.052276611328125
1782969685441550300,1.93955029296875,-0.963348388671875,-0.1507568359375,-0.0479888916015625
1782969685451476200,1.949476318359375,-0.9599151611328125,-0.1505279541015625,-0.04638671875
1782969685461402000,1.959402099609375,-0.963226318359375,-0.151580810546875,-0.0473175048828125
1782969685471329300,1.969329345703125,-0.9691314697265625,-0.1538543701171875,-0.050537109375
1782969685481255200,1.979255126953125,-0.97552490234375,-0.1521148681640625,-0.051971435546875
1782969685491181000,1.98918115234375,-0.98248291015625,-0.15142822265625,-0.047119140625
1782969685501107200,1.999107177734375,-0.9922637939453125,-0.151397705078125,-0.046478271484375
1782969685511034400,2.009034423828125,-0.99462890625,-0.153564453125,-0.049713134765625
1782969685520960000,2.0189599609375,-0.991424560546875,-0.1558685302734375,-0.0490875244140625
1782969685530886100,2.02888623046875,-0.9913330078125,-0.1556396484375,-0.05242919921875
1782969685540813300,2.038813232421875,-0.990753173828125,-0.154022216796875,-0.0546417236328125
1782969685550739200,2.0487392578125,-0.9854888916015625,-0.1548614501953125,-0.056549072265625
1782969685560665000,2.0586650390625,-0.9777679443359375,-0.1543426513671875,-0.0517120361328125
1782969685570592300,2.06859228515625,-0.9696807861328125,-0.1546783447265625,-0.041717529296875
1782969685580518100,2.07851806640625,-0.9708709716796875,-0.15386962890625,-0.045501708984375
1782969685590444000,2.088444091796875,-0.9791259765625,-0.15008544921875,-0.046966552734375
1782969685600370200,2.0983701171875,-0.988800048828125,-0.14764404296875,-0.0446319580078125
1782969685610297000,2.108297119140625,-0.99114990234375,-0.1472930908203125,-0.0484771728515625
1782969685620223200,2.11822314453125,-0.9922027587890625,-0.1478118896484375,-0.048828125
1782969685630149000,2.128149169921875,-0.991546630859375,-0.1475372314453125,-0.045654296875
1782969685640076300,2.138076171875,-0.9861602783203125,-0.151336669921875,-0.0490570068359375
1782969685650002200,2.148002197265625,-0.9871368408203125,-0.15655517578125,-0.04925537109375
1782969685659928000,2.157927978515625,-0.9879608154296875,-0.1569976806640625,-0.0526885986328125
1782969685669854200,2.167854248046875,-0.9857025146484375,-0.1556549072265625,-0.050445556640625
1782969685679781000,2.177781005859375,-0.9799652099609375,-0.1539764404296875,-0.044952392578125
1782969685689707300,2.187707275390625,-0.972930908203125,-0.1514434814453125,-0.044586181640625
1782969685699633200,2.197633056640625,-0.972869873046875,-0.146942138671875,-0.0406036376953125
1782969685709560000,2.20756005859375,-0.9784393310546875,-0.1439666748046875,-0.0360870361328125
1782969685719486200,2.217486328125,-0.9853057861328125,-0.1410064697265625,-0.0364532470703125
1782969685729412000,2.227412109375,-0.9911651611328125,-0.1419525146484375,-0.03936767578125
1782969685739339000,2.237339111328125,-0.9901885986328125,-0.145843505859375,-0.0442352294921875
1782969685749265200,2.24726513671875,-0.9968719482421875,-0.14886474609375,-0.048858642578125
1782969685759191300,2.25719140625,-0.9993438720703125,-0.1524505615234375,-0.05401611328125
1782969685769117200,2.2671171875,-0.9964141845703125,-0.153839111328125,-0.0602569580078125
1782969685779044000,2.277044189453125,-0.9944305419921875,-0.1561279296875,-0.0678253173828125
1782969685788970200,2.28697021484375,-0.9904937744140625,-0.15576171875,-0.0664215087890625
1782969685798896000,2.296896240234375,-0.9833984375,-0.154571533203125,-0.0628814697265625
1782969685808823000,2.306822998046875,-0.9779815673828125,-0.153076171875,-0.055206298828125
1782969685818749200,2.316749267578125,-0.974365234375,-0.152069091796875,-0.049407958984375
1782969685828675300,2.32667529296875,-0.972686767578125,-0.1523590087890625,-0.0455474853515625
1782969685838602200,2.336602294921875,-0.9702911376953125,-0.15155029296875,-0.0383758544921875
1782969685848528100,2.346528076171875,-0.9711456298828125,-0.152313232421875,-0.034088134765625
1782969685858454300,2.356454345703125,-0.9763336181640625,-0.1531982421875,-0.03125
1782969685868380200,2.366380126953125,-0.9876556396484375,-0.1519317626953125,-0.028350830078125
1782969685878307000,2.37630712890625,-0.9952239990234375,-0.15185546875,-0.03533935546875
1782969685888233200,2.386233154296875,-0.9996795654296875,-0.1529083251953125,-0.0414581298828125
1782969685898159400,2.396159423828125,-0.9988861083984375,-0.1552734375,-0.050384521484375
1782969685908086300,2.406086181640625,-0.9925689697265625,-0.1527252197265625,-0.0522613525390625
1782969685918012200,2.41601220703125,-0.9851531982421875,-0.150390625,-0.0521087646484375
1782969685927938300,2.425938232421875,-0.9822540283203125,-0.147979736328125,-0.0539398193359375
1782969685937864200,2.4358642578125,-0.9832763671875,-0.1442108154296875,-0.052490234375
1782969685947791000,2.445791015625,-0.988555908203125,-0.14886474609375,-0.0533294677734375
1782969685957717200,2.45571728515625,-0.9909820556640625,-0.149658203125,-0.0528564453125
1782969685967643100,2.46564306640625,-0.98834228515625,-0.1504364013671875,-0.05291748046875
1782969685977570300,2.4755703125,-0.9873809814453125,-0.1535186767578125,-0.0579833984375
1782969685987496200,2.48549609375,-0.982635498046875,-0.1551513671875,-0.06170654296875
1782969685997422300,2.49542236328125,-0.9802093505859375,-0.1545257568359375,-0.0586700439453125
1782969686007349200,2.505349365234375,-0.979278564453125,-0.1503753662109375,-0.05731201171875
1782969686017275100,2.515275146484375,-0.9810791015625,-0.1494903564453125,-0.0548858642578125
1782969686027201300,2.525201171875,-0.9860687255859375,-0.14727783203125,-0.0497283935546875
1782969686037127200,2.535127197265625,-0.989837646484375,-0.1471099853515625,-0.04705810546875
1782969686047054300,2.545054443359375,-0.9942474365234375,-0.1426239013671875,-0.0482025146484375
1782969686056980200,2.554980224609375,-0.9991607666015625,-0.146148681640625,-0.0535430908203125
1782969686066906000,2.564906005859375,-0.99798583984375,-0.150146484375,-0.0560302734375
1782969686076833300,2.574833251953125,-0.9889373779296875,-0.148040771484375,-0.0524749755859375
1782969686086759200,2.58475927734375,-0.9755706787109375,-0.147247314453125,-0.049285888671875
1782969686096684800,2.594684814453125,-0.9618072509765625,-0.1510467529296875,-0.0463409423828125
1782969686106611700,2.60461181640625,-0.953765869140625,-0.1520538330078125,-0.046875
1782969686116537600,2.61453759765625,-0.9603729248046875,-0.1527099609375,-0.05035400390625
1782969686126463700,2.624463623046875,-0.9738922119140625,-0.152618408203125,-0.0513916015625
1782969686136389600,2.6343896484375,-0.9847869873046875,-0.151702880859375,-0.0558319091796875
1782969686146316500,2.644316650390625,-0.996002197265625,-0.1525726318359375,-0.0595703125
1782969686156242700,2.65424267578125,-1.0035247802734375,-0.1551513671875,-0.063079833984375
1782969686166168600,2.66416845703125,-1.0029449462890625,-0.1579132080078125,-0.0600738525390625
1782969686176095700,2.674095703125,-0.9911956787109375,-0.157379150390625,-0.056060791015625
1782969686186021600,2.684021728515625,-0.9822540283203125,-0.15374755859375,-0.0496368408203125
1782969686195947500,2.693947509765625,-0.97930908203125,-0.1528167724609375,-0.044281005859375
1782969686205873700,2.703873779296875,-0.9842529296875,-0.1526947021484375,-0.045928955078125
1782969686215800800,2.71380078125,-0.9846038818359375,-0.15338134765625,-0.0465545654296875
1782969686225726700,2.723726806640625,-0.9883270263671875,-0.1540679931640625,-0.04876708984375
1782969686235652600,2.733652587890625,-0.9881134033203125,-0.1544342041015625,-0.0520477294921875
1782969686245579800,2.743579833984375,-0.98468017578125,-0.153564453125,-0.05047607421875
1782969686255505700,2.753505615234375,-0.9854736328125,-0.153533935546875,-0.045989990234375
1782969686265431600,2.763431640625,-0.984771728515625,-0.1495361328125,-0.0400848388671875
1782969686275358700,2.773358642578125,-0.9808349609375,-0.1461334228515625,-0.041717529296875
1782969686285284900,2.783284912109375,-0.975921630859375,-0.1495208740234375,-0.0428466796875
1782969686295210500,2.79321044921875,-0.9781036376953125,-0.15203857421875,-0.0464324951171875
1782969686305136600,2.80313671875,-0.9790191650390625,-0.151702880859375,-0.05096435546875
1782969686315063800,2.813063720703125,-0.97845458984375,-0.1544189453125,-0.051605224609375
1782969686324989400,2.822989501953125,-0.97967529296875,-0.1538543701171875,-0.0514984130859375
1782969686334915600,2.83291552734375,-0.9845123291015625,-0.1549835205078125,-0.0520782470703125
1782969686344842800,2.8428427734375,-0.9927978515625,-0.15582275390625,-0.0559844970703125
1782969686354768600,2.8527685546875,-0.9964599609375,-0.1535797119140625,-0.0554046630859375
1782969686364694500,2.862694580078125,-0.9926300048828125,-0.15380859375,-0.0540313720703125
1782969686374620700,2.87262060546875,-0.9851531982421875,-0.154937744140625,-0.05108642578125
1782969686384547600,2.882547607421875,-0.9822845458984375,-0.15338134765625,-0.05035400390625
1782969686394473500,2.892473388671875,-0.9818267822265625,-0.1595001220703125,-0.0527191162109375
1782969686404399600,2.902399658203125,-0.9838714599609375,-0.1522674560546875,-0.05108642578125
1782969686414326800,2.912326904296875,-0.9818878173828125,-0.140594482421875,-0.045745849609375
1782969686424252700,2.922252685546875,-0.98724365234375,-0.153778076171875,-0.053863525390625
1782969686434178600,2.932178466796875,-0.993865966796875,-0.155120849609375,-0.056060791015625
1782969686444105700,2.942105712890625,-0.992401123046875,-0.157867431640625,-0.06097412109375
1782969686454031600,2.952031494140625,-0.989105224609375,-0.16064453125,-0.0600738525390625
1782969686463957500,2.96195751953125,-0.9803924560546875,-0.1563262939453125,-0.048431396484375
1782969686473883600,2.971883544921875,-0.975006103515625,-0.151763916015625,-0.04022216796875
1782969686483810600,2.981810546875,-0.9795379638671875,-0.1490020751953125,-0.0339202880859375
1782969686493736700,2.99173681640625,-0.99249267578125,-0.1480865478515625,-0.0330352783203125
1782969686503662600,3.00166259765625,-1.0016326904296875,-0.14947509765625,-0.0392608642578125
1782969686513589500,3.011589599609375,-1.0040435791015625,-0.15264892578125,-0.04449462890625
1782969686523515600,3.021515625,-0.9967041015625,-0.1544342041015625,-0.0474395751953125
1782969686533441500,3.031441650390625,-0.984893798828125,-0.15374755859375,-0.04754638671875
1782969686543367700,3.04136767578125,-0.980255126953125,-0.1554718017578125,-0.0501556396484375
1782969686553294600,3.051294677734375,-0.9752349853515625,-0.1560821533203125,-0.0550384521484375
1782969686563220700,3.061220703125,-0.9746246337890625,-0.1560821533203125,-0.055877685546875
1782969686573146600,3.071146728515625,-0.9761505126953125,-0.15478515625,-0.0509490966796875
1782969686583073500,3.081073486328125,-0.97808837890625,-0.1552581787109375,-0.051300048828125
1782969686592999700,3.090999755859375,-0.9784088134765625,-0.1551971435546875,-0.04962158203125
1782969686602925600,3.100925537109375,-0.984344482421875,-0.157135009765625,-0.0494384765625
1782969686612852500,3.1108525390625,-0.99041748046875,-0.16058349609375,-0.052947998046875
1782969686622778600,3.120778564453125,-0.988616943359375,-0.16571044921875,-0.0598907470703125
1782969686632704800,3.130704833984375,-0.9886016845703125,-0.1669921875,-0.0664825439453125
1782969686642630700,3.140630615234375,-0.9979705810546875,-0.1693115234375,-0.067901611328125
1782969686652557600,3.1505576171875,-1.0079193115234375,-0.1736907958984375,-0.0699462890625
1782969686662483700,3.160483642578125,-1.0169525146484375,-0.1719818115234375,-0.0686187744140625
1782969686672409600,3.17040966796875,-1.01422119140625,-0.16534423828125,-0.0603179931640625
1782969686682336500,3.18033642578125,-1.009307861328125,-0.160491943359375,-0.0501556396484375
1782969686692262700,3.1902626953125,-1.0005340576171875,-0.157318115234375,-0.043365478515625
1782969686702188800,3.200188720703125,-0.9859466552734375,-0.1563568115234375,-0.043243408203125
1782969686712114700,3.21011474609375,-0.967376708984375,-0.1605072021484375,-0.0382080078125
1782969686722041600,3.22004150390625,-0.9526519775390625,-0.156280517578125,-0.028839111328125
1782969686731967700,3.2299677734375,-0.9516448974609375,-0.1530914306640625,-0.024200439453125
1782969686741893600,3.2398935546875,-0.9577484130859375,-0.15496826171875,-0.02349853515625
1782969686751820500,3.249820556640625,-0.9612884521484375,-0.15911865234375,-0.0290069580078125
1782969686761746700,3.25974658203125,-0.964447021484375,-0.1614227294921875,-0.040924072265625
1782969686771672800,3.2696728515625,-0.968109130859375,-0.1676177978515625,-0.0468902587890625
1782969686781599700,3.279599853515625,-0.9634246826171875,-0.168609619140625,-0.0484771728515625
1782969686791525600,3.289525634765625,-0.95916748046875,-0.1664581298828125,-0.042236328125
1782969686801451800,3.29945166015625,-0.9663238525390625,-0.1641693115234375,-0.037933349609375
1782969686811377700,3.309377685546875,-0.9799041748046875,-0.161224365234375,-0.037017822265625
1782969686821304600,3.3193046875,-0.9910430908203125,-0.16082763671875,-0.03814697265625
1782969686831230700,3.329230712890625,-0.9921417236328125,-0.160064697265625,-0.0362701416015625
1782969686841156600,3.339156494140625,-0.9832611083984375,-0.16217041015625,-0.0337677001953125
1782969686851083800,3.349083740234375,-0.9755401611328125,-0.1628875732421875,-0.0354461669921875
1782969686861009700,3.359009765625,-0.9698486328125,-0.1669464111328125,-0.0461273193359375
1782969686870935600,3.368935546875,-0.970184326171875,-0.171875,-0.060699462890625
1782969686880861700,3.37886181640625,-0.9785614013671875,-0.1725921630859375,-0.069976806640625
1782969686890788600,3.38878857421875,-0.9912567138671875,-0.170623779296875,-0.064910888671875
1782969686900714800,3.39871484375,-1.0005645751953125,-0.166900634765625,-0.054962158203125
1782969686910640600,3.408640625,-1.0000457763671875,-0.1651458740234375,-0.0494232177734375
1782969686920567800,3.41856787109375,-0.995941162109375,-0.1739959716796875,-0.0523834228515625
1782969686930493700,3.42849365234375,-0.9936065673828125,-0.1782989501953125,-0.05694580078125
1782969686940419600,3.438419677734375,-0.989654541015625,-0.17010498046875,-0.0554962158203125
1782969686950346800,3.4483466796875,-0.9823150634765625,-0.1629638671875,-0.045745849609375
1782969686960272600,3.458272705078125,-0.976837158203125,-0.1634979248046875,-0.0345001220703125
1782969686970198500,3.468198486328125,-0.9709320068359375,-0.1640777587890625,-0.0323333740234375
1782969686980124700,3.478124755859375,-0.9688873291015625,-0.168853759765625,-0.0332489013671875
1782969686990051800,3.4880517578125,-0.9714202880859375,-0.1736907958984375,-0.0430755615234375
1782969686999977500,3.4979775390625,-0.976531982421875,-0.1702880859375,-0.0535125732421875
1782969687009903600,3.507903564453125,-0.9815216064453125,-0.170196533203125,-0.05633544921875
1782969687019830800,3.517830810546875,-0.9818878173828125,-0.1696014404296875,-0.0532989501953125
1782969687029756700,3.527756591796875,-0.9821014404296875,-0.167938232421875,-0.04986572265625
1782969687039682600,3.5376826171875,-0.98065185546875,-0.1688232421875,-0.046630859375
1782969687049609700,3.547609619140625,-0.9802093505859375,-0.16949462890625,-0.049285888671875
1782969687059535600,3.55753564453125,-0.9870147705078125,-0.17138671875,-0.052337646484375
1782969687069461500,3.56746142578125,-0.996551513671875,-0.1673583984375,-0.0532073974609375
1782969687079387600,3.5773876953125,-0.999664306640625,-0.1642913818359375,-0.052642822265625
1782969687089315000,3.587315185546875,-0.9942169189453125,-0.1618499755859375,-0.0487213134765625
1782969687099241000,3.597240966796875,-0.98284912109375,-0.16180419921875,-0.045654296875
1782969687109167000,3.6071669921875,-0.9715728759765625,-0.1645355224609375,-0.043975830078125
1782969687119094000,3.617093994140625,-0.9635162353515625,-0.1658172607421875,-0.041290283203125
1782969687129020000,3.62702001953125,-0.9654998779296875,-0.1674346923828125,-0.0427093505859375
1782969687138946000,3.636946044921875,-0.9718170166015625,-0.1696319580078125,-0.05035400390625
1782969687148872200,3.6468720703125,-0.9805908203125,-0.1732177734375,-0.057891845703125
1782969687158799000,3.656799072265625,-0.98724365234375,-0.175201416015625,-0.0610809326171875
1782969687168725000,3.66672509765625,-0.9859161376953125,-0.174591064453125,-0.0584716796875
1782969687178651100,3.676651123046875,-0.9824066162109375,-0.168914794921875,-0.0511474609375
1782969687188578000,3.686578125,-0.97930908203125,-0.1657257080078125,-0.03997802734375
1782969687198504000,3.69650390625,-0.97332763671875,-0.1663360595703125,-0.0335845947265625
1782969687208430000,3.70643017578125,-0.9743499755859375,-0.16644287109375,-0.03228759765625
1782969687218357000,3.71635693359375,-0.979888916015625,-0.1697540283203125,-0.0346832275390625
1782969687228283100,3.726283203125,-0.992279052734375,-0.1656341552734375,-0.038848876953125
1782969687238209000,3.736208984375,-1.0063323974609375,-0.16607666015625,-0.0438079833984375
1782969687248135200,3.74613525390625,-1.0110015869140625,-0.16436767578125,-0.048736572265625
1782969687258062000,3.75606201171875,-1.004119873046875,-0.16046142578125,-0.0477142333984375
1782969687267988000,3.765988037109375,-0.9917144775390625,-0.16375732421875,-0.043426513671875
1782969687277914000,3.7759140625,-0.9798431396484375,-0.168212890625,-0.042266845703125
1782969687287841000,3.785841064453125,-0.973114013671875,-0.167083740234375,-0.046722412109375
1782969687297767200,3.79576708984375,-0.9736328125,-0.1699371337890625,-0.058502197265625
1782969687307693000,3.805693115234375,-0.9749908447265625,-0.1763153076171875,-0.0673828125
1782969687317619200,3.815619140625,-0.976959228515625,-0.176666259765625,-0.0713043212890625
1782969687327546000,3.825546142578125,-0.979400634765625,-0.169219970703125,-0.06878662109375
1782969687337472000,3.835471923828125,-0.979156494140625,-0.16094970703125,-0.0557708740234375
1782969687347398100,3.845398193359375,-0.9766387939453125,-0.1564178466796875,-0.040252685546875
1782969687357325000,3.855324951171875,-0.97784423828125,-0.1558685302734375,-0.0338287353515625
1782969687367251200,3.865251220703125,-0.979034423828125,-0.1603546142578125,-0.033111572265625
1782969687377177000,3.875177001953125,-0.981353759765625,-0.162872314453125,-0.03692626953125
1782969687387103000,3.88510302734375,-0.986785888671875,-0.1655731201171875,-0.0420074462890625
1782969687397030100,3.895030029296875,-0.9962005615234375,-0.168853759765625,-0.0492706298828125
1782969687406956000,3.9049560546875,-0.997314453125,-0.1676177978515625,-0.0553131103515625
1782969687416882000,3.9148818359375,-0.989105224609375,-0.170074462890625,-0.0547637939453125
1782969687426809000,3.92480908203125,-0.9818115234375,-0.16912841796875,-0.0522918701171875
1782969687436735200,3.9347353515625,-0.9742431640625,-0.1646881103515625,-0.04583740234375
1782969687446661000,3.9446611328125,-0.968902587890625,-0.165191650390625,-0.0430450439453125
1782969687456588000,3.954588134765625,-0.9644622802734375,-0.16815185546875,-0.042205810546875
1782969687466514200,3.96451416015625,-0.965484619140625,-0.1713104248046875,-0.044342041015625
1782969687476440000,3.974440185546875,-0.9704742431640625,-0.17059326171875,-0.0487213134765625
1782969687486366000,3.984365966796875,-0.977935791015625,-0.1718902587890625,-0.053009033203125
1782969687496293000,3.994293212890625,-0.9849700927734375,-0.172637939453125,-0.054931640625
1782969687506217000,4.004217041015625,-0.99383544921875,-0.173187255859375,-0.0528411865234375
1782969687516143000,4.01414306640625,-1.006317138671875,-0.167083740234375,-0.051422119140625
1782969687526069200,4.0240693359375,-1.014007568359375,-0.161956787109375,-0.0474395751953125
1782969687535996000,4.033995849609375,-1.015289306640625,-0.16290283203125,-0.040008544921875
1782969687545922000,4.043922119140625,-1.0106353759765625,-0.1592864990234375,-0.0407257080078125
1782969687555848200,4.05384814453125,-0.9964447021484375,-0.1583709716796875,-0.044769287109375
1782969687565774000,4.063774169921875,-0.97344970703125,-0.162261962890625,-0.0421905517578125
1782969687575701000,4.073700927734375,-0.954833984375,-0.1673431396484375,-0.0422210693359375
1782969687585627100,4.083627197265625,-0.945159912109375,-0.172149658203125,-0.0500335693359375
1782969687595553300,4.09355322265625,-0.94781494140625,-0.1772003173828125,-0.0621185302734375
1782969687605480000,4.10347998046875,-0.9556121826171875,-0.176422119140625,-0.0641632080078125
1782969687615406000,4.113406005859375,-0.9625091552734375,-0.17218017578125,-0.0604705810546875
1782969687625332200,4.123332275390625,-0.9726409912109375,-0.1643218994140625,-0.052215576171875
1782969687635257900,4.1332578125,-0.988861083984375,-0.1623687744140625,-0.0479583740234375
1782969687645185000,4.14318505859375,-0.9958953857421875,-0.1643524169921875,-0.04632568359375
1782969687655111200,4.153111083984375,-0.9921875,-0.1654815673828125,-0.0498199462890625
1782969687665037000,4.163037109375,-0.99212646484375,-0.165771484375,-0.0533599853515625
1782969687674964000,4.1729638671875,-0.9942779541015625,-0.1664581298828125,-0.05560302734375
1782969687684890000,4.18289013671875,-0.995574951171875,-0.167266845703125,-0.055389404296875
1782969687694816000,4.19281591796875,-0.9890899658203125,-0.168182373046875,-0.0498809814453125
1782969687704743200,4.2027431640625,-0.97955322265625,-0.1674041748046875,-0.0424041748046875
1782969687714669000,4.2126689453125,-0.9740753173828125,-0.1681976318359375,-0.03924560546875
1782969687724595000,4.222594970703125,-0.97589111328125,-0.1702117919921875,-0.04632568359375
1782969687734521000,4.23252099609375,-0.9775848388671875,-0.1709747314453125,-0.0524139404296875
1782969687744448000,4.242447998046875,-0.976531982421875,-0.1716766357421875,-0.0544281005859375
1782969687754374100,4.2523740234375,-0.976806640625,-0.173370361328125,-0.0552520751953125
1782969687764300000,4.262300048828125,-0.9765777587890625,-0.171295166015625,-0.0554046630859375
1782969687774227200,4.272227294921875,-0.9751434326171875,-0.1700286865234375,-0.0550994873046875
1782969687784153000,4.282153076171875,-0.973480224609375,-0.170013427734375,-0.0537872314453125
1782969687794079000,4.292078857421875,-0.9759368896484375,-0.1677093505859375,-0.051361083984375
1782969687804005000,4.302005126953125,-0.9822845458984375,-0.1673126220703125,-0.05389404296875
1782969687813932300,4.311932373046875,-0.985382080078125,-0.1723785400390625,-0.0563507080078125
1782969687823858000,4.32185791015625,-0.9892120361328125,-0.177093505859375,-0.0612030029296875
1782969687833784000,4.3317841796875,-0.9952239990234375,-0.1772918701171875,-0.06439208984375
1782969687843711200,4.341711181640625,-0.99847412109375,-0.175933837890625,-0.0642242431640625
1782969687853636900,4.351636962890625,-0.9975738525390625,-0.17291259765625,-0.060638427734375
1782969687863563000,4.36156298828125,-0.9911651611328125,-0.17218017578125,-0.0518798828125
1782969687873490200,4.371490234375,-0.98309326171875,-0.1678314208984375,-0.0413970947265625
1782969687883416000,4.381416015625,-0.9764556884765625,-0.1617584228515625,-0.035614013671875
1782969687893342000,4.391342041015625,-0.9734344482421875,-0.1609649658203125,-0.0332183837890625
1782969687903268000,4.40126806640625,-0.9734649658203125,-0.165252685546875,-0.037017822265625
1782969687913195000,4.411195068359375,-0.97149658203125,-0.167266845703125,-0.0442352294921875
1782969687923121000,4.421120849609375,-0.9758148193359375,-0.170867919921875,-0.0505218505859375
1782969687933047000,4.431047119140625,-0.9782867431640625,-0.1735076904296875,-0.0553741455078125
1782969687942974200,4.44097412109375,-0.979095458984375,-0.17340087890625,-0.056488037109375
1782969687952900000,4.450900146484375,-0.979034423828125,-0.1722869873046875,-0.0514068603515625
1782969687962826000,4.460825927734375,-0.9801788330078125,-0.1705322265625,-0.04510498046875
1782969687972752100,4.470752197265625,-0.9859771728515625,-0.1691131591796875,-0.0398406982421875
1782969687982679000,4.480678955078125,-0.993560791015625,-0.1656036376953125,-0.042633056640625
1782969687992605000,4.49060498046875,-0.99951171875,-0.163726806640625,-0.045684814453125
1782969688002531000,4.500531005859375,-0.9974517822265625,-0.1644744873046875,-0.047119140625
1782969688012458000,4.5104580078125,-0.99151611328125,-0.16851806640625,-0.050018310546875
1782969688022384000,4.520384033203125,-0.9849395751953125,-0.1711883544921875,-0.0541534423828125
1782969688032310000,4.53031005859375,-0.9755859375,-0.1714630126953125,-0.05084228515625
1782969688042237000,4.54023681640625,-0.970367431640625,-0.1703033447265625,-0.046142578125
1782969688052163000,4.5501630859375,-0.97174072265625,-0.1692962646484375,-0.0451507568359375
1782969688062089000,4.5600888671875,-0.978240966796875,-0.1686248779296875,-0.0467987060546875
1782969688072015000,4.57001513671875,-0.98101806640625,-0.16900634765625,-0.051361083984375
1782969688081942000,4.57994189453125,-0.9812774658203125,-0.173492431640625,-0.0560302734375
1782969688091868200,4.5898681640625,-0.9749908447265625,-0.172760009765625,-0.0564727783203125
1782969688101793800,4.599793701171875,-0.9689483642578125,-0.169403076171875,-0.0546722412109375
1782969688111720700,4.609720703125,-0.969085693359375,-0.167694091796875,-0.05194091796875
1782969688121646800,4.619646728515625,-0.9748077392578125,-0.1647491455078125,-0.0476837158203125
1782969688131572700,4.62957275390625,-0.979034423828125,-0.1661224365234375,-0.04254150390625
1782969688141499000,4.639498779296875,-0.9864654541015625,-0.170501708984375,-0.0453643798828125
1782969688151425800,4.64942578125,-0.9930419921875,-0.1719512939453125,-0.0535430908203125
1782969688161352000,4.65935205078125,-1.003082275390625,-0.171661376953125,-0.05517578125
1782969688171277800,4.66927783203125,-1.013946533203125,-0.171630859375,-0.0635833740234375
1782969688181204700,4.679204833984375,-1.0027923583984375,-0.1687774658203125,-0.0680389404296875
1782969688191131000,4.689130859375,-0.9862823486328125,-0.16815185546875,-0.0614166259765625
1782969688201056800,4.699056884765625,-0.971771240234375,-0.17047119140625,-0.0512847900390625
1782969688210983700,4.708983642578125,-0.9621429443359375,-0.167388916015625,-0.0426788330078125
1782969688220909800,4.718909912109375,-0.9576568603515625,-0.1613616943359375,-0.0368194580078125
1782969688230836000,4.7288359375,-0.9607696533203125,-0.1641845703125,-0.0348358154296875
1782969688240761900,4.738761962890625,-0.970123291015625,-0.1669158935546875,-0.04180908203125
1782969688250688800,4.748688720703125,-0.981109619140625,-0.1690521240234375,-0.0494384765625
1782969688260615000,4.758614990234375,-0.9928131103515625,-0.173370361328125,-0.0589599609375
1782969688270540800,4.768540771484375,-0.996337890625,-0.17572021484375,-0.0636749267578125
1782969688280467700,4.7784677734375,-0.990692138671875,-0.1786041259765625,-0.063629150390625
1782969688290393900,4.788393798828125,-0.9834442138671875,-0.1768798828125,-0.0618743896484375
1782969688300320000,4.798320068359375,-0.98065185546875,-0.1816253662109375,-0.060516357421875
1782969688310245600,4.80824560546875,-0.986968994140625,-0.17926025390625,-0.0547637939453125
1782969688320172800,4.8181728515625,-0.99163818359375,-0.177276611328125,-0.0562744140625
1782969688330099000,4.828098876953125,-0.9828033447265625,-0.1745452880859375,-0.0431060791015625
1782969688340024800,4.83802490234375,-0.97137451171875,-0.166961669921875,-0.034149169921875
1782969688349951700,4.84795166015625,-0.9701995849609375,-0.16595458984375,-0.0320587158203125
1782969688359878000,4.8578779296875,-0.9699249267578125,-0.163970947265625,-0.0284423828125
1782969688369804000,4.867803955078125,-0.9703369140625,-0.1631011962890625,-0.031524658203125
1782969688379730700,4.877730712890625,-0.97296142578125,-0.1646881103515625,-0.0377960205078125
1782969688389656800,4.88765673828125,-0.979095458984375,-0.17047119140625,-0.0406036376953125
1782969688399583000,4.8975830078125,-0.989837646484375,-0.173309326171875,-0.046417236328125
1782969688409508600,4.907508544921875,-1.0000762939453125,-0.1752777099609375,-0.0606842041015625
1782969688419435800,4.917435791015625,-1.0016937255859375,-0.1745758056640625,-0.0735015869140625
1782969688429362000,4.92736181640625,-0.993682861328125,-0.1716156005859375,-0.0735626220703125
1782969688439287800,4.937287841796875,-0.98101806640625,-0.1673126220703125,-0.063568115234375
1782969688449214700,4.947214599609375,-0.969512939453125,-0.165069580078125,-0.057647705078125
1782969688459140900,4.957140869140625,-0.9613494873046875,-0.1669921875,-0.0539703369140625
1782969688469066800,4.967066650390625,-0.9612274169921875,-0.170989990234375,-0.0497283935546875
1782969688478994000,4.976993896484375,-0.9661407470703125,-0.169921875,-0.0472412109375
1782969688488919800,4.986919921875,-0.975830078125,-0.1661376953125,-0.0453033447265625
1782969688498845700,4.996845703125,-0.984466552734375,-0.1673583984375,-0.0450897216796875
1782969688508771800,5.006771728515625,-0.9890289306640625,-0.171630859375,-0.045684814453125
1782969688518699000,5.016698974609375,-0.9953460693359375,-0.1747283935546875,-0.0524444580078125
1782969688528625000,5.026625,-0.9955596923828125,-0.1743927001953125,-0.056610107421875
1782969688538550800,5.03655078125,-0.990814208984375,-0.177093505859375,-0.0573577880859375
1782969688548478000,5.04647802734375,-0.9800567626953125,-0.1751861572265625,-0.0571441650390625
1782969688558403800,5.05640380859375,-0.970611572265625,-0.17413330078125,-0.0535125732421875
1782969688568329700,5.066329833984375,-0.9716033935546875,-0.17254638671875,-0.0484161376953125
1782969688578256000,5.076255859375,-0.976043701171875,-0.1685638427734375,-0.0468902587890625
1782969688588183000,5.08618310546875,-0.98577880859375,-0.1655426025390625,-0.0426025390625
1782969688598108700,5.096108642578125,-0.9974212646484375,-0.164825439453125,-0.0419158935546875
1782969688608034800,5.106034912109375,-0.99871826171875,-0.1704254150390625,-0.0491943359375
1782969688617962000,5.1159619140625,-0.993988037109375,-0.1751861572265625,-0.053375244140625
1782969688627887600,5.1258876953125,-0.9871978759765625,-0.1729888916015625,-0.0525665283203125
1782969688637813800,5.135813720703125,-0.986846923828125,-0.167633056640625,-0.0494537353515625
1782969688647741000,5.145740966796875,-0.9819793701171875,-0.1630859375,-0.045806884765625
1782969688657666800,5.155666748046875,-0.9759674072265625,-0.1614837646484375,-0.0425567626953125
1782969688667592700,5.1655927734375,-0.9705047607421875,-0.162200927734375,-0.0349273681640625
1782969688677518800,5.175518798828125,-0.9687957763671875,-0.1595611572265625,-0.0330810546875
1782969688687445800,5.18544580078125,-0.9740753173828125,-0.162689208984375,-0.0427398681640625
1782969688697371600,5.19537158203125,-0.97174072265625,-0.1683349609375,-0.0506591796875
1782969688707297800,5.2052978515625,-0.97393798828125,-0.1728515625,-0.056427001953125
1782969688717225000,5.215224853515625,-0.9784698486328125,-0.173736572265625,-0.06024169921875
1782969688727150800,5.22515087890625,-0.9824371337890625,-0.1720428466796875,-0.061279296875
1782969688737076700,5.23507666015625,-0.9841766357421875,-0.1722412109375,-0.05902099609375
1782969688747003000,5.2450029296875,-0.9823150634765625,-0.17071533203125,-0.052459716796875
1782969688756929800,5.2549296875,-0.978485107421875,-0.1681671142578125,-0.04656982421875
1782969688766855700,5.264855712890625,-0.9808502197265625,-0.165740966796875,-0.0435791015625
1782969688776781800,5.27478173828125,-0.9845123291015625,-0.16485595703125,-0.045074462890625
1782969688786708700,5.284708740234375,-0.990936279296875,-0.1649627685546875,-0.04388427734375
1782969688796635000,5.294634765625,-0.9972991943359375,-0.166015625,-0.0499114990234375
1782969688806560800,5.304560791015625,-0.98712158203125,-0.1739959716796875,-0.05419921875
1782969688816487700,5.31448779296875,-0.9750518798828125,-0.1726837158203125,-0.0502777099609375
1782969688826413800,5.324413818359375,-0.9800262451171875,-0.168243408203125,-0.050537109375
1782969688836339700,5.334339599609375,-0.9800872802734375,-0.1644439697265625,-0.0504150390625
1782969688846265900,5.344265869140625,-0.98052978515625,-0.163421630859375,-0.0469970703125
1782969688856192800,5.35419287109375,-0.9795989990234375,-0.1605377197265625,-0.04443359375
1782969688866119000,5.364118896484375,-0.977508544921875,-0.1606597900390625,-0.0459442138671875
1782969688876044800,5.374044921875,-0.9753875732421875,-0.1646575927734375,-0.0507659912109375
1782969688885971700,5.3839716796875,-0.9784698486328125,-0.16815185546875,-0.056488037109375
1782969688895897900,5.39389794921875,-0.97894287109375,-0.16864013671875,-0.0604400634765625
1782969688905823700,5.40382373046875,-0.9797515869140625,-0.1675567626953125,-0.0600433349609375
1782969688915750000,5.41375,-0.9840545654296875,-0.16790771484375,-0.0577239990234375
1782969688925676800,5.4236767578125,-0.98919677734375,-0.165985107421875,-0.0557861328125
1782969688935603000,5.43360302734375,-0.994964599609375,-0.163787841796875,-0.0509796142578125
1782969688945528800,5.44352880859375,-0.991943359375,-0.16253662109375,-0.0504913330078125
1782969688955455700,5.453455810546875,-0.9868927001953125,-0.1641998291015625,-0.0479278564453125
1782969688965382000,5.4633818359375,-0.9788055419921875,-0.1642608642578125,-0.048248291015625
1782969688975307800,5.473307861328125,-0.972900390625,-0.1618804931640625,-0.0456390380859375
1782969688985234700,5.483234619140625,-0.9715728759765625,-0.162017822265625,-0.044891357421875
1782969688995160800,5.493160888671875,-0.9717254638671875,-0.1630096435546875,-0.045440673828125
1782969689005087000,5.5030869140625,-0.9756622314453125,-0.1639556884765625,-0.0462188720703125
1782969689015012900,5.513012939453125,-0.985076904296875,-0.16558837890625,-0.04803466796875
1782969689024939800,5.522939697265625,-0.9896240234375,-0.1667633056640625,-0.0563812255859375
1782969689034866000,5.532865966796875,-0.98931884765625,-0.173614501953125,-0.0652923583984375
1782969689044791800,5.542791748046875,-0.9837799072265625,-0.177398681640625,-0.0658111572265625
1782969689054718700,5.55271875,-0.9805450439453125,-0.17401123046875,-0.063232421875
1782969689064644900,5.562644775390625,-0.9780120849609375,-0.1654205322265625,-0.057647705078125
1782969689074571000,5.572571044921875,-0.981414794921875,-0.15814208984375,-0.046295166015625
1782969689084496600,5.58249658203125,-0.9906463623046875,-0.153717041015625,-0.033355712890625
1782969689094423800,5.592423828125,-0.99725341796875,-0.1513824462890625,-0.0345458984375
1782969689104350000,5.602349853515625,-0.992034912109375,-0.1541900634765625,-0.036895751953125
1782969689114275600,5.612275634765625,-0.979827880859375,-0.1596221923828125,-0.039581298828125
1782969689124202800,5.62220263671875,-0.9736480712890625,-0.164947509765625,-0.0404510498046875
1782969689134129000,5.63212890625,-0.9666748046875,-0.167510986328125,-0.0430755615234375
1782969689144054800,5.6420546875,-0.97100830078125,-0.1726226806640625,-0.0504913330078125
1782969689153982000,5.65198193359375,-0.9837493896484375,-0.17388916015625,-0.058624267578125
1782969689163907800,5.661907958984375,-0.9970703125,-0.169097900390625,-0.0600128173828125
1782969689173833700,5.671833740234375,-1.0049285888671875,-0.1615447998046875,-0.0567779541015625
1782969689183760000,5.681759765625,-0.9997100830078125,-0.1556243896484375,-0.0536651611328125
1782969689193686800,5.691686767578125,-0.98760986328125,-0.1558074951171875,-0.0488128662109375
1782969689203613000,5.701613037109375,-0.9707794189453125,-0.15924072265625,-0.0487823486328125
1782969689213538800,5.711538818359375,-0.960205078125,-0.1612091064453125,-0.0481109619140625
1782969689223466000,5.721466064453125,-0.9595489501953125,-0.165802001953125,-0.046417236328125
1782969689233391900,5.731391845703125,-0.96673583984375,-0.1638336181640625,-0.0468902587890625
1782969689243317800,5.74131787109375,-0.9763336181640625,-0.1616363525390625,-0.04974365234375
1782969689253244000,5.751243896484375,-0.9884490966796875,-0.1648101806640625,-0.05364990234375
1782969689263170800,5.7611708984375,-0.9973907470703125,-0.1678466796875,-0.0580291748046875
1782969689273096700,5.7710966796875,-0.99920654296875,-0.1681976318359375,-0.060516357421875
1782969689283022800,5.78102294921875,-0.993377685546875,-0.16571044921875,-0.0552978515625
1782969689292950000,5.790949951171875,-0.9894561767578125,-0.1599273681640625,-0.0469818115234375
1782969689302875600,5.800875732421875,-0.984222412109375,-0.158111572265625,-0.0404510498046875
1782969689312801800,5.8108017578125,-0.981719970703125,-0.15582275390625,-0.036041259765625
1782969689322728000,5.82072802734375,-0.9847259521484375,-0.15716552734375,-0.036651611328125
1782969689332654600,5.830654541015625,-0.991973876953125,-0.1600341796875,-0.04547119140625
1782969689342580700,5.840580810546875,-0.9902191162109375,-0.1626739501953125,-0.05584716796875
1782969689352507000,5.8505068359375,-0.9830322265625,-0.1660919189453125,-0.062530517578125
1782969689362433800,5.860433837890625,-0.973052978515625,-0.1674652099609375,-0.0655517578125
1782969689372359700,5.870359619140625,-0.9644927978515625,-0.1648712158203125,-0.0604248046875
1782969689382285800,5.880285888671875,-0.962860107421875,-0.161163330078125,-0.0530242919921875
1782969689392213000,5.890212890625,-0.970794677734375,-0.1595306396484375,-0.04486083984375
1782969689402138600,5.900138671875,-0.98114013671875,-0.15765380859375,-0.042633056640625
1782969689412064800,5.910064697265625,-0.9935455322265625,-0.1586761474609375,-0.0419769287109375
1782969689421991000,5.919990966796875,-1.0037994384765625,-0.15863037109375,-0.04327392578125
1782969689431917800,5.929917724609375,-1.0099945068359375,-0.160980224609375,-0.0489349365234375
1782969689441843700,5.93984375,-1.007537841796875,-0.1663665771484375,-0.0574951171875
1782969689451769900,5.949769775390625,-1.00140380859375,-0.168853759765625,-0.0638427734375
1782969689461696800,5.95969677734375,-0.9929351806640625,-0.1657562255859375,-0.063385009765625
1782969689471622700,5.96962255859375,-0.980926513671875,-0.1644439697265625,-0.054595947265625
1782969689481548800,5.979548828125,-0.966827392578125,-0.1604461669921875,-0.0487213134765625
1782969689491475000,5.989474853515625,-0.9580535888671875,-0.1561737060546875,-0.043853759765625
1782969689501401900,5.99940185546875,-0.957275390625,-0.15557861328125,-0.0389862060546875
1782969689511327700,6.00932763671875,-0.9599761962890625,-0.1556549072265625,-0.0394439697265625
1782969689521254000,6.01925390625,-0.9659423828125,-0.1577301025390625,-0.04168701171875
1782969689531180800,6.029180908203125,-0.976348876953125,-0.1607818603515625,-0.0478363037109375
1782969689541106700,6.039106689453125,-0.9889373779296875,-0.16229248046875,-0.0509185791015625
1782969689551032800,6.04903271484375,-1.0003204345703125,-0.1621246337890625,-0.05743408203125
1782969689560959000,6.058958984375,-1.0059967041015625,-0.1635284423828125,-0.0601348876953125
1782969689570886000,6.068885986328125,-1.0040740966796875,-0.1630401611328125,-0.0578155517578125
1782969689580811800,6.078811767578125,-0.997833251953125,-0.1629180908203125,-0.0567626953125
1782969689590738000,6.088738037109375,-0.99005126953125,-0.157867431640625,-0.0515594482421875
1782969689600664800,6.098664794921875,-0.980682373046875,-0.1552276611328125,-0.0467987060546875
1782969689610590700,6.1085908203125,-0.9721527099609375,-0.15655517578125,-0.04833984375
1782969689620516900,6.118516845703125,-0.96551513671875,-0.1561126708984375,-0.04638671875
1782969689630443800,6.12844384765625,-0.96124267578125,-0.156463623046875,-0.045989990234375
1782969689640370000,6.138369873046875,-0.961669921875,-0.15606689453125,-0.0454864501953125
1782969689650295800,6.1482958984375,-0.9647216796875,-0.159332275390625,-0.0508270263671875
1782969689660221700,6.1582216796875,-0.9756317138671875,-0.16192626953125,-0.0524749755859375
1782969689670148900,6.16814892578125,-0.9886474609375,-0.1638336181640625,-0.0561676025390625
1782969689680075000,6.178074951171875,-0.9967498779296875,-0.1671600341796875,-0.064178466796875
1782969689690001000,6.1880009765625,-1.0009918212890625,-0.1680908203125,-0.066650390625
1782969689699927800,6.197927734375,-1.0032806396484375,-0.16571044921875,-0.062896728515625
1782969689709854000,6.20785400390625,-0.9971160888671875,-0.162567138671875,-0.0601043701171875
1782969689719779800,6.21777978515625,-0.9888458251953125,-0.1601104736328125,-0.0545196533203125
1782969689729705700,6.227705810546875,-0.9814453125,-0.1547393798828125,-0.0464935302734375
1782969689739633000,6.2376328125,-0.981292724609375,-0.151885986328125,-0.0391082763671875
1782969689749559000,6.24755908203125,-0.9810638427734375,-0.149749755859375,-0.0363616943359375
1782969689759484700,6.257484619140625,-0.9810333251953125,-0.1513671875,-0.0417327880859375
1782969689769411800,6.267411865234375,-0.9786376953125,-0.156341552734375,-0.051727294921875
1782969689779338000,6.277337890625,-0.9742584228515625,-0.160614013671875,-0.0590057373046875
1782969689789263600,6.287263671875,-0.9730072021484375,-0.1622314453125,-0.06396484375
1782969689799190800,6.297190673828125,-0.975372314453125,-0.1609954833984375,-0.0646820068359375
1782969689809117000,6.307116943359375,-0.97943115234375,-0.1553955078125,-0.05535888671875
1782969689819042800,6.317042724609375,-0.9884185791015625,-0.1502532958984375,-0.050628662109375
1782969689828968700,6.32696875,-0.9945068359375,-0.1514434814453125,-0.0450286865234375
1782969689838895900,6.336895751953125,-0.9931640625,-0.1526031494140625,-0.0467376708984375
1782969689848821800,6.34682177734375,-0.9873809814453125,-0.154449462890625,-0.0499267578125
1782969689858747600,6.35674755859375,-0.9792022705078125,-0.1560516357421875,-0.0534820556640625
1782969689868674800,6.3666748046875,-0.9739990234375,-0.15777587890625,-0.0580596923828125
1782969689878601000,6.37660107421875,-0.973297119140625,-0.1612396240234375,-0.06231689453125
1782969689888526800,6.38652685546875,-0.9783935546875,-0.1623687744140625,-0.066375732421875
1782969689898452700,6.39645263671875,-0.988739013671875,-0.1613922119140625,-0.067626953125
1782969689908380000,6.4063798828125,-0.99713134765625,-0.1587982177734375,-0.065216064453125
1782969689918305800,6.416305908203125,-0.993743896484375,-0.155670166015625,-0.0539398193359375
1782969689928231700,6.426231689453125,-0.995391845703125,-0.15179443359375,-0.0547943115234375
1782969689938158800,6.436158935546875,-0.9853363037109375,-0.156463623046875,-0.047576904296875
1782969689948084700,6.446084716796875,-0.9818115234375,-0.1519622802734375,-0.044952392578125
1782969689958011000,6.456010986328125,-0.97906494140625,-0.153289794921875,-0.05047607421875
1782969689967936800,6.465936767578125,-0.970550537109375,-0.159576416015625,-0.0532379150390625
1782969689977863700,6.47586376953125,-0.9701080322265625,-0.162994384765625,-0.0585479736328125
1782969689987789800,6.485789794921875,-0.974945068359375,-0.164459228515625,-0.0687713623046875
1782969689997715700,6.4957158203125,-0.989227294921875,-0.1619415283203125,-0.0743560791015625
1782969690007642600,6.505642578125,-0.9966278076171875,-0.1613006591796875,-0.0752105712890625
1782969690017568800,6.51556884765625,-0.9966278076171875,-0.1572723388671875,-0.0682525634765625
1782969690027495000,6.525494873046875,-0.9944000244140625,-0.1540069580078125,-0.063323974609375
1782969690037421800,6.535421875,-0.9888763427734375,-0.152191162109375,-0.0572662353515625
1782969690047347700,6.54534765625,-0.9865570068359375,-0.1510467529296875,-0.0471038818359375
1782969690057273900,6.55527392578125,-0.9891815185546875,-0.15252685546875,-0.0485382080078125
1782969690067199700,6.56519970703125,-0.9925384521484375,-0.15631103515625,-0.0544281005859375
1782969690077126700,6.575126708984375,-0.9979400634765625,-0.1583404541015625,-0.0610198974609375
1782969690087052800,6.585052734375,-0.9990692138671875,-0.158172607421875,-0.06378173828125
1782969690096978400,6.594978515625,-0.9891204833984375,-0.1560516357421875,-0.0618438720703125
1782969690106905300,6.6049052734375,-0.9726715087890625,-0.154266357421875,-0.0548095703125
1782969690116831500,6.61483154296875,-0.9596099853515625,-0.156005859375,-0.0484771728515625
1782969690126757400,6.62475732421875,-0.9560546875,-0.156585693359375,-0.0437164306640625
1782969690136683500,6.63468359375,-0.962890625,-0.158355712890625,-0.047882080078125
1782969690146610400,6.6446103515625,-0.9776611328125,-0.1605377197265625,-0.05767822265625
1782969690156536300,6.654536376953125,-0.9903564453125,-0.1646728515625,-0.0643768310546875
1782969690166462500,6.66446240234375,-0.9998321533203125,-0.164215087890625,-0.0582275390625
1782969690176389400,6.674389404296875,-1.0001678466796875,-0.1589202880859375,-0.0485687255859375
1782969690186315500,6.6843154296875,-0.9983978271484375,-0.15472412109375,-0.0428314208984375
1782969690196241400,6.694241455078125,-0.995941162109375,-0.150604248046875,-0.0404815673828125
1782969690206168300,6.704168212890625,-0.9909820556640625,-0.150146484375,-0.0435028076171875
1782969690216094500,6.714094482421875,-0.98065185546875,-0.1522674560546875,-0.047698974609375
1782969690226020400,6.724020263671875,-0.9790496826171875,-0.1571502685546875,-0.0526123046875
1782969690235946500,6.733946533203125,-0.9868011474609375,-0.15966796875,-0.0561370849609375
1782969690245873400,6.743873291015625,-0.9902191162109375,-0.160858154296875,-0.0660858154296875
1782969690255799600,6.753799560546875,-0.98919677734375,-0.1629180908203125,-0.0701904296875
1782969690265725400,6.763725341796875,-0.9815673828125,-0.1593017578125,-0.0634307861328125
1782969690275652400,6.77365234375,-0.9730682373046875,-0.1598358154296875,-0.059417724609375
1782969690285578500,6.78357861328125,-0.972625732421875,-0.157318115234375,-0.056640625
1782969690295504400,6.79350439453125,-0.973602294921875,-0.156158447265625,-0.053985595703125
1782969690305430500,6.803430419921875,-0.973480224609375,-0.158172607421875,-0.049163818359375
1782969690315357400,6.813357421875,-0.97705078125,-0.1555023193359375,-0.045166015625
1782969690325283600,6.82328369140625,-0.98236083984375,-0.1518096923828125,-0.0389556884765625
1782969690335209500,6.83320947265625,-0.9901885986328125,-0.1503753662109375,-0.032684326171875
1782969690345136400,6.843136474609375,-0.9927978515625,-0.1487274169921875,-0.0369415283203125
1782969690355062500,6.8530625,-0.988433837890625,-0.152496337890625,-0.042877197265625
1782969690364988400,6.862988525390625,-0.985626220703125,-0.1550750732421875,-0.0467987060546875
1782969690374914300,6.872914306640625,-0.9848175048828125,-0.1584014892578125,-0.0554046630859375
1782969690384841500,6.882841552734375,-0.97943115234375,-0.158477783203125,-0.05950927734375
1782969690394767600,6.892767578125,-0.97412109375,-0.1552581787109375,-0.0576171875
1782969690404693200,6.902693359375,-0.973907470703125,-0.1511077880859375,-0.051055908203125
1782969690414620400,6.912620361328125,-0.97222900390625,-0.1493072509765625,-0.0492401123046875
1782969690424546600,6.922546630859375,-0.96954345703125,-0.149322509765625,-0.05010986328125
1782969690434472400,6.932472412109375,-0.9672393798828125,-0.155670166015625,-0.0546722412109375
1782969690444399400,6.9423994140625,-0.9734649658203125,-0.15655517578125,-0.05377197265625
1782969690454325500,6.952325439453125,-0.9887237548828125,-0.1518707275390625,-0.0549163818359375
1782969690464251400,6.96225146484375,-0.9972686767578125,-0.1492156982421875,-0.0545654296875
1782969690474177300,6.97217724609375,-0.9991607666015625,-0.1556243896484375,-0.0563201904296875
1782969690484104400,6.9821044921875,-0.998779296875,-0.154876708984375,-0.0534210205078125
1782969690494030600,6.992030517578125,-0.9965057373046875,-0.1517486572265625,-0.05224609375
1782969690503956200,7.001956298828125,-0.9900665283203125,-0.15252685546875,-0.0548858642578125
1782969690513883400,7.01188330078125,-0.977874755859375,-0.154205322265625,-0.0540313720703125
1782969690523809500,7.0218095703125,-0.975982666015625,-0.155426025390625,-0.0478363037109375
1782969690533735400,7.0317353515625,-0.982574462890625,-0.1551513671875,-0.049530029296875
1782969690543661300,7.041661376953125,-0.9850616455078125,-0.1552581787109375,-0.05511474609375
1782969690553588500,7.05158837890625,-0.9828338623046875,-0.1593017578125,-0.0583038330078125
1782969690563514400,7.061514404296875,-0.981781005859375,-0.1595916748046875,-0.059783935546875
1782969690573440500,7.0714404296875,-0.98388671875,-0.1584014892578125,-0.06158447265625
1782969690583367400,7.081367431640625,-0.9857635498046875,-0.1572723388671875,-0.06060791015625
1782969690593293300,7.091293212890625,-0.9806976318359375,-0.1562957763671875,-0.0575408935546875
1782969690603219500,7.101219482421875,-0.977203369140625,-0.1551666259765625,-0.0500030517578125
1782969690613145300,7.111145263671875,-0.9800567626953125,-0.151641845703125,-0.0478515625
1782969690623072500,7.121072509765625,-0.9849853515625,-0.151458740234375,-0.0490570068359375
1782969690632998400,7.130998291015625,-0.9920806884765625,-0.1549530029296875,-0.0486602783203125
1782969690642924500,7.140924560546875,-0.9945068359375,-0.1547698974609375,-0.0501708984375
1782969690652851500,7.1508515625,-0.9957427978515625,-0.1540679931640625,-0.053375244140625
1782969690662777300,7.16077734375,-0.9941253662109375,-0.1572723388671875,-0.0540008544921875
1782969690672703500,7.170703369140625,-0.988525390625,-0.1610870361328125,-0.0554656982421875
1782969690682630700,7.180630615234375,-0.9821319580078125,-0.1613616943359375,-0.0578460693359375
1782969690692556300,7.190556396484375,-0.9828033447265625,-0.15887451171875,-0.0569915771484375
1782969690702482400,7.200482421875,-0.98236083984375,-0.1541595458984375,-0.0532989501953125
1782969690712408600,7.21040869140625,-0.9851531982421875,-0.1533966064453125,-0.046783447265625
1782969690722335200,7.220335205078125,-0.9855499267578125,-0.15478515625,-0.04296875
1782969690732261400,7.230261474609375,-0.9828338623046875,-0.1552886962890625,-0.0445556640625
1782969690742187500,7.2401875,-0.9779815673828125,-0.15728759765625,-0.0455322265625
1782969690752114400,7.250114501953125,-0.9767913818359375,-0.1571502685546875,-0.0442657470703125
1782969690762040300,7.260040283203125,-0.9752960205078125,-0.1573638916015625,-0.0502166748046875
1782969690771966500,7.269966552734375,-0.977752685546875,-0.1601409912109375,-0.0543670654296875
1782969690781892600,7.279892578125,-0.98297119140625,-0.15899658203125,-0.054107666015625
1782969690791819300,7.2898193359375,-0.985870361328125,-0.1566009521484375,-0.0518646240234375
1782969690801745400,7.299745361328125,-0.989593505859375,-0.155670166015625,-0.0484619140625
1782969690811671600,7.309671630859375,-0.9924774169921875,-0.1563262939453125,-0.0467987060546875
1782969690821598500,7.319598388671875,-0.9923095703125,-0.15533447265625,-0.0463714599609375
1782969690831524400,7.3295244140625,-0.9877777099609375,-0.1563262939453125,-0.0506134033203125
1782969690841450500,7.339450439453125,-0.982025146484375,-0.1597137451171875,-0.052581787109375
1782969690851376600,7.349376708984375,-0.9816741943359375,-0.1591949462890625,-0.049102783203125
1782969690861303300,7.35930322265625,-0.9803009033203125,-0.1565093994140625,-0.0452880859375
1782969690871229400,7.3692294921875,-0.9808349609375,-0.155364990234375,-0.04437255859375
1782969690881155600,7.379155517578125,-0.9832611083984375,-0.155670166015625,-0.0456695556640625
1782969690891082500,7.38908251953125,-0.986572265625,-0.154693603515625,-0.046417236328125
1782969690901008400,7.39900830078125,-0.98699951171875,-0.153594970703125,-0.0517120361328125
1782969690910934500,7.4089345703125,-0.9814300537109375,-0.1564788818359375,-0.0557098388671875
1782969690920861400,7.418861328125,-0.9753265380859375,-0.1561126708984375,-0.0518798828125
1782969690930787300,7.428787353515625,-0.974884033203125,-0.1536102294921875,-0.0463409423828125
1782969690940713500,7.43871337890625,-0.9772491455078125,-0.1525115966796875,-0.04071044921875
1782969690950639400,7.448639404296875,-0.9822845458984375,-0.1539154052734375,-0.039031982421875
1782969690960566500,7.45856640625,-0.99432373046875,-0.157196044921875,-0.04022216796875
1782969690970492400,7.468492431640625,-1.00799560546875,-0.1568145751953125,-0.0464324951171875
1782969690980418600,7.47841845703125,-1.01239013671875,-0.15673828125,-0.05328369140625
1782969690990345500,7.488345458984375,-1.004913330078125,-0.1565704345703125,-0.0535125732421875
1782969691000271400,7.498271240234375,-0.9900665283203125,-0.155181884765625,-0.052703857421875
1782969691010197500,7.508197509765625,-0.9726104736328125,-0.158721923828125,-0.05078125
1782969691020123400,7.518123291015625,-0.9592742919921875,-0.1608734130859375,-0.0511627197265625
1782969691030050600,7.528050537109375,-0.9567413330078125,-0.1610260009765625,-0.0484466552734375
1782969691039976400,7.5379765625,-0.9593963623046875,-0.15606689453125,-0.0452728271484375
1782969691049902300,7.54790234375,-0.9694671630859375,-0.1571502685546875,-0.04248046875
1782969691059829500,7.55782958984375,-0.98077392578125,-0.1575775146484375,-0.0412139892578125
1782969691069755600,7.567755615234375,-0.988800048828125,-0.1542205810546875,-0.0370025634765625
1782969691079681300,7.577681396484375,-0.9912109375,-0.1525421142578125,-0.0391998291015625
1782969691089607400,7.587607421875,-0.9948577880859375,-0.1555328369140625,-0.0437469482421875
1782969691099534800,7.597534912109375,-0.9950714111328125,-0.1562652587890625,-0.0483856201171875
1782969691109460700,7.607460693359375,-0.997894287109375,-0.1583709716796875,-0.0509033203125
1782969691119386600,7.61738671875,-1.0048675537109375,-0.1600341796875,-0.0500030517578125
1782969691129313800,7.627313720703125,-1.0070037841796875,-0.155731201171875,-0.048492431640625
1782969691139239700,7.63723974609375,-1.00262451171875,-0.1555938720703125,-0.0487823486328125
1782969691149165800,7.647165771484375,-0.99102783203125,-0.1580657958984375,-0.05267333984375
1782969691159092700,7.6570927734375,-0.975982666015625,-0.15594482421875,-0.0530242919921875
1782969691169018600,7.6670185546875,-0.962005615234375,-0.154449462890625,-0.0495147705078125
1782969691178944800,7.67694482421875,-0.953216552734375,-0.1551513671875,-0.0455169677734375
1782969691188870700,7.68687060546875,-0.9532318115234375,-0.1571197509765625,-0.0413665771484375
1782969691198797800,7.6967978515625,-0.9642181396484375,-0.1583251953125,-0.0424957275390625
1782969691208723700,7.7067236328125,-0.9787750244140625,-0.156707763671875,-0.0426788330078125
1782969691218649900,7.71664990234375,-0.9963836669921875,-0.1553192138671875,-0.0449981689453125
1782969691228576800,7.72657666015625,-1.0085906982421875,-0.1562957763671875,-0.0477752685546875
1782969691238502700,7.736502685546875,-1.00872802734375,-0.15814208984375,-0.0459136962890625
1782969691248428800,7.7464287109375,-1.0047149658203125,-0.1573486328125,-0.0448760986328125
1782969691258354700,7.756354736328125,-0.993560791015625,-0.156494140625,-0.0469207763671875
1782969691268281600,7.766281494140625,-0.979766845703125,-0.1570587158203125,-0.0464630126953125
1782969691278207700,7.776207763671875,-0.9687652587890625,-0.15740966796875,-0.048736572265625
1782969691288134000,7.7861337890625,-0.964508056640625,-0.1567230224609375,-0.052032470703125
1782969691298060500,7.796060546875,-0.96795654296875,-0.1576995849609375,-0.049285888671875
1782969691307986700,7.805986572265625,-0.9774627685546875,-0.154205322265625,-0.0463409423828125
1782969691317912800,7.815912841796875,-0.9866180419921875,-0.152984619140625,-0.0425567626953125
1782969691327838700,7.825838623046875,-0.9915771484375,-0.1531219482421875,-0.0380859375
1782969691337765600,7.835765625,-0.99005126953125,-0.1533203125,-0.0391387939453125
1782969691347691800,7.84569189453125,-0.98748779296875,-0.1561279296875,-0.043701171875
1782969691357618000,7.855617919921875,-0.9842987060546875,-0.1597442626953125,-0.0479583740234375
1782969691367544600,7.865544677734375,-0.9890289306640625,-0.1602020263671875,-0.0519256591796875
1782969691377470700,7.875470703125,-0.99072265625,-0.1558074951171875,-0.0540313720703125
1782969691387396900,7.88539697265625,-0.9888916015625,-0.1555328369140625,-0.0520782470703125
1782969691397322800,7.89532275390625,-0.9836578369140625,-0.1571502685546875,-0.047332763671875
1782969691407249700,7.905249755859375,-0.979400634765625,-0.1564178466796875,-0.0467376708984375
1782969691417175800,7.91517578125,-0.9721832275390625,-0.1566925048828125,-0.0458831787109375
1782969691427102000,7.92510205078125,-0.9721527099609375,-0.156890869140625,-0.04638671875
1782969691437028900,7.93502880859375,-0.97894287109375,-0.15802001953125,-0.0495147705078125
1782969691446954800,7.944954833984375,-0.9886016845703125,-0.1584014892578125,-0.04925537109375
1782969691456881000,7.954880859375,-0.997100830078125,-0.1588134765625,-0.0466461181640625
1782969691466807800,7.964807861328125,-1.0029296875,-0.1575927734375,-0.045501708984375
1782969691476733700,7.974733642578125,-1.002044677734375,-0.15692138671875,-0.04547119140625
1782969691486659800,7.984659912109375,-0.993377685546875,-0.1545257568359375,-0.04193115234375
1782969691496585700,7.994585693359375,-0.9820709228515625,-0.15411376953125,-0.038299560546875
1782969691506513000,8.004512939453125,-0.971954345703125,-0.155548095703125,-0.0403594970703125
1782969691516438800,8.014438720703126,-0.9701690673828125,-0.1569366455078125,-0.046356201171875
1782969691526365000,8.024364990234375,-0.97650146484375,-0.156494140625,-0.049713134765625
1782969691536291800,8.034291748046876,-0.9835052490234375,-0.1551666259765625,-0.051116943359375
1782969691546217700,8.0442177734375,-0.9850921630859375,-0.1565704345703125,-0.05023193359375
1782969691556143900,8.054143798828125,-0.9827728271484375,-0.159393310546875,-0.0490570068359375
1782969691566069800,8.06406982421875,-0.9791717529296875,-0.1617584228515625,-0.051788330078125
1782969691575997000,8.073996826171875,-0.9749298095703125,-0.16094970703125,-0.0527496337890625
1782969691585922800,8.0839228515625,-0.97698974609375,-0.1614532470703125,-0.0529632568359375
1782969691595848700,8.0938486328125,-0.98248291015625,-0.16033935546875,-0.052825927734375
1782969691605776000,8.10377587890625,-0.9927825927734375,-0.158416748046875,-0.0439910888671875
1782969691615701800,8.11370166015625,-0.99615478515625,-0.1559600830078125,-0.037628173828125
1782969691625627600,8.123627685546875,-0.99932861328125,-0.154296875,-0.034942626953125
1782969691635554800,8.133554931640624,-0.9991607666015625,-0.1544342041015625,-0.0352325439453125
1782969691645481000,8.14348095703125,-0.993499755859375,-0.1554718017578125,-0.0376129150390625
1782969691655406600,8.153406494140626,-0.9852447509765625,-0.1589813232421875,-0.0451507568359375
1782969691665332700,8.163332763671875,-0.9759368896484375,-0.1591033935546875,-0.0480194091796875
1782969691675260000,8.173260009765626,-0.9729461669921875,-0.1603851318359375,-0.0510101318359375
1782969691685185800,8.183185791015624,-0.9746856689453125,-0.1609649658203125,-0.05523681640625
1782969691695111700,8.193111572265625,-0.9796905517578125,-0.1627960205078125,-0.056884765625
1782969691705037800,8.203037841796874,-0.9844207763671875,-0.16064453125,-0.05950927734375
1782969691714965000,8.212965087890625,-0.9860687255859375,-0.155975341796875,-0.0527496337890625
1782969691724890600,8.222890625,-0.9879150390625,-0.1566314697265625,-0.0458831787109375
1782969691734816800,8.232816650390625,-0.98944091796875,-0.1575927734375,-0.048370361328125
1782969691744744000,8.242743896484376,-0.9888153076171875,-0.162750244140625,-0.0553131103515625
1782969691754669600,8.252669677734374,-0.98541259765625,-0.1649017333984375,-0.054046630859375
1782969691764595700,8.262595703125,-0.983489990234375,-0.1623687744140625,-0.0489654541015625
1782969691774523000,8.27252294921875,-0.9805450439453125,-0.1581268310546875,-0.043304443359375
1782969691784448800,8.28244873046875,-0.9783935546875,-0.1558837890625,-0.0384368896484375
1782969691794374700,8.292374755859376,-0.9774627685546875,-0.1577911376953125,-0.04010009765625
1782969691804300800,8.30230078125,-0.97698974609375,-0.159210205078125,-0.0436248779296875
1782969691814227700,8.312227783203125,-0.97698974609375,-0.161163330078125,-0.0469970703125
1782969691824153600,8.322153564453124,-0.9752655029296875,-0.1591339111328125,-0.0476837158203125
1782969691834079700,8.332079833984375,-0.973724365234375,-0.1559295654296875,-0.0457763671875
1782969691844006700,8.342006591796874,-0.978759765625,-0.1528167724609375,-0.0431976318359375
1782969691853932800,8.351932861328125,-0.9850006103515625,-0.151031494140625,-0.0407867431640625
1782969691863858700,8.361858642578126,-0.9942474365234375,-0.1512298583984375,-0.0390167236328125
1782969691873784800,8.371784912109375,-1.0045318603515625,-0.1542510986328125,-0.04534912109375
1782969691883711700,8.381711669921875,-1.0153350830078125,-0.1561126708984375,-0.0520477294921875
1782969691893637600,8.3916376953125,-1.0152130126953125,-0.156158447265625,-0.056854248046875
1782969691903563800,8.401563720703125,-1.003936767578125,-0.157196044921875,-0.061614990234375
1782969691913490700,8.41149072265625,-0.984649658203125,-0.1586761474609375,-0.0605010986328125
1782969691923416800,8.421416748046875,-0.962249755859375,-0.1613311767578125,-0.0552520751953125
1782969691933342700,8.4313427734375,-0.947265625,-0.1637420654296875,-0.049407958984375
1782969691943268900,8.441268798828125,-0.943206787109375,-0.1625823974609375,-0.047088623046875
1782969691953195800,8.45119580078125,-0.952178955078125,-0.1626129150390625,-0.04632568359375
1782969691963121700,8.46112158203125,-0.967315673828125,-0.163177490234375,-0.049591064453125
1782969691973047800,8.4710478515625,-0.98321533203125,-0.1613922119140625,-0.048919677734375
1782969691982974700,8.480974609375,-0.99346923828125,-0.1609039306640625,-0.0452423095703125
1782969691992900900,8.49090087890625,-1.0015411376953125,-0.15509033203125,-0.036651611328125
1782969692002826800,8.50082666015625,-1.0076141357421875,-0.152374267578125,-0.0335845947265625
1782969692012753700,8.510753662109375,-1.0075225830078125,-0.155975341796875,-0.0361328125
1782969692022679800,8.5206796875,-1.004241943359375,-0.161285400390625,-0.0427703857421875
1782969692032606000,8.53060595703125,-0.9970703125,-0.1635284423828125,-0.0477447509765625
1782969692042531800,8.54053173828125,-0.9935760498046875,-0.1663818359375,-0.0506591796875
1782969692052458800,8.550458740234374,-0.9957733154296875,-0.1672821044921875,-0.0539398193359375
1782969692062385000,8.560385009765625,-0.9906768798828125,-0.1646881103515625,-0.0577850341796875
1782969692072310800,8.570310791015626,-0.97796630859375,-0.1632232666015625,-0.0554962158203125
1782969692082237700,8.58023779296875,-0.9632110595703125,-0.1609344482421875,-0.0527191162109375
1782969692092163800,8.590163818359375,-0.9553375244140625,-0.159820556640625,-0.0457000732421875
1782969692102090000,8.600090087890624,-0.9591217041015625,-0.1597900390625,-0.042755126953125
1782969692112015600,8.610015625,-0.96728515625,-0.1576690673828125,-0.03863525390625
1782969692121942800,8.61994287109375,-0.983734130859375,-0.1582183837890625,-0.03753662109375
1782969692131869000,8.629868896484375,-0.99468994140625,-0.16180419921875,-0.041961669921875
1782969692141794800,8.639794921875,-0.9961700439453125,-0.1656036376953125,-0.0453338623046875
1782969692151721700,8.6497216796875,-0.995574951171875,-0.168060302734375,-0.0485992431640625
1782969692161647900,8.65964794921875,-0.9943695068359375,-0.1676788330078125,-0.0530853271484375
1782969692171573800,8.66957373046875,-0.9920501708984375,-0.163818359375,-0.052703857421875
1782969692181501000,8.6795009765625,-0.9879913330078125,-0.158935546875,-0.04632568359375
1782969692191426800,8.6894267578125,-0.9858856201171875,-0.15740966796875,-0.0426025390625
1782969692201353000,8.69935302734375,-0.9817352294921875,-0.1551055908203125,-0.0404510498046875
1782969692211278800,8.70927880859375,-0.9741973876953125,-0.1547088623046875,-0.0423431396484375
1782969692221205800,8.719205810546875,-0.970458984375,-0.158721923828125,-0.0459747314453125
1782969692231132000,8.7291318359375,-0.97039794921875,-0.1623687744140625,-0.05010986328125
1782969692241057800,8.739057861328124,-0.975494384765625,-0.164215087890625,-0.0567474365234375
1782969692250985000,8.74898486328125,-0.9834747314453125,-0.16632080078125,-0.0607147216796875
1782969692260910800,8.758910888671876,-0.990325927734375,-0.1635284423828125,-0.060394287109375
1782969692270836700,8.768836669921875,-0.993682861328125,-0.1627044677734375,-0.0579833984375
1782969692280763000,8.778762939453125,-0.9954681396484375,-0.1624603271484375,-0.0554046630859375
1782969692290689800,8.788689697265625,-0.992218017578125,-0.160308837890625,-0.0507049560546875
1782969692300615700,8.79861572265625,-0.9849090576171875,-0.1588134765625,-0.0441741943359375
1782969692310541800,8.808541748046874,-0.9755706787109375,-0.15899658203125,-0.0418243408203125
1782969692320469000,8.818468994140625,-0.969696044921875,-0.15924072265625,-0.0397491455078125
1782969692330394600,8.82839453125,-0.967681884765625,-0.159637451171875,-0.041259765625
1782969692340320800,8.83832080078125,-0.9726715087890625,-0.1632537841796875,-0.046051025390625
1782969692350247000,8.848246826171875,-0.9827117919921875,-0.1660003662109375,-0.05096435546875
1782969692360173800,8.858173828125,-0.9912872314453125,-0.1663818359375,-0.0522003173828125
1782969692370099700,8.868099609375,-0.9946441650390625,-0.163848876953125,-0.05181884765625
1782969692380025900,8.87802587890625,-0.994110107421875,-0.16351318359375,-0.0482330322265625
1782969692389953000,8.887953125,-0.9906005859375,-0.1588134765625,-0.045166015625
1782969692399878700,8.897878662109376,-0.985321044921875,-0.157012939453125,-0.0449981689453125
1782969692409804800,8.9078046875,-0.982452392578125,-0.1564178466796875,-0.0460968017578125
1782969692419731000,8.91773095703125,-0.9814910888671875,-0.158416748046875,-0.0496063232421875
1782969692429657600,8.92765771484375,-0.978668212890625,-0.161956787109375,-0.0561065673828125
1782969692439583700,8.937583740234375,-0.978057861328125,-0.164154052734375,-0.05792236328125
1782969692449510000,8.947510009765624,-0.9775238037109375,-0.1656341552734375,-0.0570220947265625
1782969692459436800,8.957436767578125,-0.9790191650390625,-0.164642333984375,-0.0532379150390625
1782969692469362700,8.96736279296875,-0.9795989990234375,-0.1600341796875,-0.048736572265625
1782969692479288800,8.977288818359375,-0.977691650390625,-0.1587066650390625,-0.0457611083984375
1782969692489215700,8.9872158203125,-0.980377197265625,-0.1585845947265625,-0.043792724609375
1782969692499141600,8.9971416015625,-0.9808349609375,-0.16180419921875,-0.0452117919921875
1782969692509067800,9.00706787109375,-0.9797210693359375,-0.161468505859375,-0.0442962646484375
1782969692518994000,9.016993896484376,-0.9777679443359375,-0.1635894775390625,-0.0448455810546875
1782969692528920800,9.0269208984375,-0.981170654296875,-0.165435791015625,-0.046417236328125
1782969692538846700,9.0368466796875,-0.9889373779296875,-0.16510009765625,-0.0507659912109375
1782969692548772900,9.04677294921875,-0.9917755126953125,-0.1643218994140625,-0.054962158203125
1782969692558699800,9.05669970703125,-0.9915924072265625,-0.1657867431640625,-0.0519561767578125
1782969692568626000,9.0666259765625,-0.9895782470703125,-0.164703369140625,-0.0503997802734375
1782969692578551800,9.0765517578125,-0.9851531982421875,-0.1617431640625,-0.0477447509765625
1782969692588478000,9.08647802734375,-0.9807281494140625,-0.1595458984375,-0.0445098876953125
1782969692598404900,9.09640478515625,-0.976043701171875,-0.1602935791015625,-0.0448150634765625
1782969692608330800,9.106330810546876,-0.9719085693359375,-0.162994384765625,-0.049102783203125
1782969692618257000,9.1162568359375,-0.965789794921875,-0.162994384765625,-0.0515594482421875
1782969692628183800,9.126183837890625,-0.9683990478515625,-0.161651611328125,-0.05413818359375
1782969692638110000,9.13610986328125,-0.975677490234375,-0.1602935791015625,-0.0548095703125
1782969692648035800,9.146035888671875,-0.9811859130859375,-0.1606597900390625,-0.0553436279296875
1782969692657961700,9.155961669921876,-0.987457275390625,-0.159912109375,-0.05218505859375
1782969692667889000,9.165888916015625,-0.990936279296875,-0.1593170166015625,-0.0511016845703125
1782969692677814800,9.175814697265626,-0.9928741455078125,-0.158416748046875,-0.05047607421875
1782969692687741000,9.185740966796875,-0.9948883056640625,-0.162261962890625,-0.0537872314453125
1782969692697667800,9.195667724609375,-0.9934844970703125,-0.1626129150390625,-0.054351806640625
1782969692707594000,9.205593994140624,-0.99163818359375,-0.16229248046875,-0.055511474609375
1782969692717520000,9.215519775390625,-0.985595703125,-0.1601409912109375,-0.05499267578125
1782969692727446800,9.22544677734375,-0.98095703125,-0.158203125,-0.0484771728515625
1782969692737373000,9.235373046875,-0.9788818359375,-0.1576690673828125,-0.043243408203125
1782969692747298800,9.245298828125,-0.9799041748046875,-0.1584930419921875,-0.0397491455078125
1782969692757224700,9.255224609375,-0.9878997802734375,-0.159698486328125,-0.040557861328125
1782969692767151900,9.26515185546875,-0.996734619140625,-0.161712646484375,-0.045928955078125
1782969692777078000,9.275078125,-1.001678466796875,-0.16339111328125,-0.05401611328125
1782969692787003600,9.285003662109375,-0.997467041015625,-0.1624755859375,-0.0576629638671875
1782969692796930800,9.294930908203124,-0.9839324951171875,-0.161376953125,-0.0587921142578125
1782969692806857000,9.30485693359375,-0.9687347412109375,-0.1609649658203125,-0.0572967529296875
1782969692816782600,9.314782470703125,-0.9561767578125,-0.1609954833984375,-0.0531463623046875
1782969692826708700,9.324708740234374,-0.9526519775390625,-0.161224365234375,-0.05126953125
1782969692836636000,9.334635986328125,-0.956390380859375,-0.1636810302734375,-0.0522003173828125
1782969692846561800,9.344561767578124,-0.9702301025390625,-0.1638641357421875,-0.0469512939453125
1782969692856487700,9.35448779296875,-0.9845733642578125,-0.1621551513671875,-0.0420989990234375
1782969692866414800,9.364414794921874,-0.9945220947265625,-0.160980224609375,-0.0407867431640625
1782969692876341000,9.374341064453125,-1.0008697509765625,-0.1592559814453125,-0.044586181640625
1782969692886266600,9.3842666015625,-1.0010528564453125,-0.1600799560546875,-0.05462646484375
1782969692896192800,9.39419287109375,-0.9974822998046875,-0.1638641357421875,-0.0475616455078125
1782969692906120000,9.404119873046875,-0.99609375,-0.1580963134765625,-0.042144775390625
1782969692916045800,9.4140458984375,-0.9943389892578125,-0.1571044921875,-0.048736572265625
1782969692925971700,9.4239716796875,-0.9895172119140625,-0.1614532470703125,-0.0483245849609375
1782969692935899000,9.43389892578125,-0.985809326171875,-0.1627349853515625,-0.0470123291015625
1782969692945824800,9.44382470703125,-0.9833984375,-0.1575469970703125,-0.049560546875
1782969692955750700,9.453750732421875,-0.9776763916015625,-0.1566314697265625,-0.0516815185546875
1782969692965676800,9.4636767578125,-0.971923828125,-0.159423828125,-0.0494537353515625
1782969692975603700,9.473603759765625,-0.9722442626953125,-0.1619415283203125,-0.04962158203125
1782969692985529900,9.48352978515625,-0.974822998046875,-0.1648712158203125,-0.0536651611328125
1782969692995455700,9.493455810546875,-0.9789276123046875,-0.1657867431640625,-0.0521697998046875
1782969693005382700,9.503382568359376,-0.982025146484375,-0.1611328125,-0.0460968017578125
1782969693015308800,9.513308837890625,-0.9878082275390625,-0.1543426513671875,-0.0425262451171875
1782969693025234700,9.523234619140625,-0.988494873046875,-0.1525421142578125,-0.041595458984375
1782969693035160800,9.533160888671874,-0.9866790771484375,-0.1561431884765625,-0.0396728515625
1782969693045087700,9.543087646484375,-0.9847412109375,-0.1591033935546875,-0.045745849609375
1782969693055014000,9.553013916015624,-0.986236572265625,-0.1613616943359375,-0.05364990234375
1782969693064939800,9.562939697265625,-0.9866943359375,-0.161285400390625,-0.057220458984375
1782969693074866700,9.57286669921875,-0.985015869140625,-0.1634063720703125,-0.0584716796875
1782969693084792800,9.582792724609375,-0.98284912109375,-0.162628173828125,-0.0565643310546875
1782969693094718700,9.59271875,-0.9800872802734375,-0.15960693359375,-0.057647705078125
1782969693104645400,9.602645263671874,-0.9755706787109375,-0.1565704345703125,-0.057220458984375
1782969693114571000,9.612571044921875,-0.97247314453125,-0.155548095703125,-0.051727294921875
1782969693124497200,9.6224970703125,-0.976348876953125,-0.1563262939453125,-0.0517120361328125
1782969693134423300,9.63242333984375,-0.9849853515625,-0.1578826904296875,-0.0530853271484375
1782969693144350000,9.642349853515626,-0.9905242919921875,-0.158477783203125,-0.0522613525390625
1782969693154276000,9.652276123046875,-0.9933319091796875,-0.159149169921875,-0.0475006103515625
1782969693164202200,9.6622021484375,-0.9953155517578125,-0.15606689453125,-0.0468292236328125
1782969693174129200,9.672129150390624,-0.9923553466796875,-0.155609130859375,-0.0492706298828125
1782969693184055000,9.682054931640625,-0.9871826171875,-0.15887451171875,-0.054473876953125
1782969693193981200,9.691981201171876,-0.9793548583984375,-0.1616058349609375,-0.0558624267578125
1782969693203907300,9.7019072265625,-0.9797821044921875,-0.1598663330078125,-0.0570526123046875
1782969693213834000,9.711833984375,-0.983367919921875,-0.1590118408203125,-0.05859375
1782969693223760100,9.721760009765624,-0.987823486328125,-0.15814208984375,-0.058502197265625
1782969693233686300,9.731686279296875,-0.9883575439453125,-0.1568450927734375,-0.0576324462890625
1782969693243613200,9.74161328125,-0.983856201171875,-0.1563873291015625,-0.0519866943359375
1782969693253539000,9.7515390625,-0.9787750244140625,-0.1571044921875,-0.051788330078125
1782969693263465200,9.76146533203125,-0.974578857421875,-0.159271240234375,-0.055023193359375
1782969693273391400,9.771391357421875,-0.9720916748046875,-0.157989501953125,-0.0556488037109375
1782969693283318000,9.781318115234376,-0.972869873046875,-0.157135009765625,-0.052703857421875
1782969693293244200,9.791244140625,-0.9773712158203125,-0.159393310546875,-0.0511474609375
1782969693303170300,9.80117041015625,-0.9803314208984375,-0.16119384765625,-0.0476531982421875
1782969693313097200,9.81109716796875,-0.986907958984375,-0.1608428955078125,-0.045928955078125
1782969693323023000,9.821023193359375,-0.9917449951171875,-0.1590576171875,-0.04400634765625
1782969693332949200,9.83094921875,-0.9930572509765625,-0.1589508056640625,-0.0458526611328125
1782969693342875100,9.840875244140625,-0.9940338134765625,-0.1601104736328125,-0.0465240478515625
1782969693352802000,9.850802001953125,-0.99493408203125,-0.158966064453125,-0.0455474853515625
1782969693362728200,9.860728271484374,-0.989776611328125,-0.1578216552734375,-0.046112060546875
1782969693372654000,9.870654052734375,-0.981781005859375,-0.1596832275390625,-0.0457916259765625
1782969693382581200,9.880581298828124,-0.979339599609375,-0.1602630615234375,-0.0462188720703125
1782969693392507100,9.890507080078125,-0.9774169921875,-0.15679931640625,-0.0473175048828125
1782969693402433300,9.900433349609376,-0.975738525390625,-0.15570068359375,-0.0496826171875
1782969693412360200,9.910360107421875,-0.97607421875,-0.1580810546875,-0.0518951416015625
1782969693422286000,9.9202861328125,-0.978973388671875,-0.1587371826171875,-0.054046630859375
1782969693432212200,9.930212158203124,-0.9795989990234375,-0.1602630615234375,-0.05523681640625
1782969693442138000,9.94013818359375,-0.9858245849609375,-0.1619415283203125,-0.0562744140625
1782969693452065300,9.950065185546874,-0.9909515380859375,-0.1610260009765625,-0.0557403564453125
1782969693461991200,9.9599912109375,-0.9903564453125,-0.161590576171875,-0.056488037109375
1782969693471917000,9.9699169921875,-0.98553466796875,-0.1627655029296875,-0.0582733154296875
1782969693481844200,9.97984423828125,-0.9781951904296875,-0.1629638671875,-0.057708740234375
1782969693491770000,9.98977001953125,-0.976898193359375,-0.1626129150390625,-0.05682373046875
1782969693501696000,9.999696044921874,-0.9818572998046875,-0.1605072021484375,-0.0537567138671875
1782969693511622100,10.0096220703125,-0.99066162109375,-0.1586456298828125,-0.052032470703125
1782969693521549300,10.01954931640625,-0.992767333984375,-0.15728759765625,-0.0491485595703125
1782969693531475000,10.029474853515625,-0.9896240234375,-0.1584014892578125,-0.0463714599609375
1782969693541401000,10.039401123046876,-0.991455078125,-0.1598358154296875,-0.046966552734375
1782969693551328300,10.049328369140625,-0.9845428466796875,-0.159027099609375,-0.0576629638671875
1782969693561254100,10.059254150390625,-0.9723663330078125,-0.162078857421875,-0.0601959228515625
1782969693571180000,10.069179931640624,-0.961761474609375,-0.16339111328125,-0.054534912109375
1782969693581106200,10.079106201171875,-0.9618377685546875,-0.163421630859375,-0.049957275390625
1782969693591033300,10.089033447265624,-0.97021484375,-0.1623687744140625,-0.0475006103515625
1782969693600959000,10.098958984375,-0.985321044921875,-0.1615753173828125,-0.0419769287109375
1782969693610885000,10.108885009765626,-1.00152587890625,-0.1602630615234375,-0.0421295166015625
1782969693620812300,10.118812255859375,-1.011749267578125,-0.1567535400390625,-0.04193115234375
1782969693630738200,10.12873828125,-1.011199951171875,-0.1579437255859375,-0.0472412109375
1782969693640664000,10.1386640625,-1.0001373291015625,-0.162933349609375,-0.0515594482421875
1782969693650590200,10.148590087890625,-0.9834442138671875,-0.1663055419921875,-0.056671142578125
1782969693660517000,10.15851708984375,-0.9678955078125,-0.16839599609375,-0.058746337890625
1782969693670443000,10.168443115234375,-0.960662841796875,-0.1676788330078125,-0.055206298828125
1782969693680369200,10.178369140625,-0.9585723876953125,-0.162994384765625,-0.0483856201171875
1782969693690296000,10.188296142578125,-0.9639892578125,-0.1579742431640625,-0.045379638671875
1782969693700222200,10.19822216796875,-0.9716644287109375,-0.15924072265625,-0.045074462890625
1782969693710148000,10.208148193359374,-0.97784423828125,-0.1596527099609375,-0.042388916015625
1782969693720075000,10.218074951171875,-0.981597900390625,-0.160614013671875,-0.040130615234375
1782969693730001200,10.228001220703124,-0.98486328125,-0.1621856689453125,-0.04168701171875
1782969693739927000,10.237927001953125,-0.984649658203125,-0.1634521484375,-0.044525146484375
1782969693749853200,10.247853271484376,-0.98822021484375,-0.163055419921875,-0.0449066162109375
1782969693759780000,10.257780029296875,-0.9947967529296875,-0.1616973876953125,-0.0439453125
1782969693769706200,10.267706298828125,-1.003875732421875,-0.1599273681640625,-0.0442657470703125
1782969693779632000,10.277632080078124,-1.0079193115234375,-0.159515380859375,-0.04986572265625
1782969693789559000,10.28755908203125,-1.004638671875,-0.1568756103515625,-0.05255126953125
1782969693799485200,10.297485107421876,-0.9936676025390625,-0.1567535400390625,-0.050079345703125
1782969693809411000,10.3074111328125,-0.980560302734375,-0.1561126708984375,-0.0435791015625
1782969693819337200,10.317337158203125,-0.968841552734375,-0.156524658203125,-0.0424957275390625
1782969693829264100,10.32726416015625,-0.964996337890625,-0.1590118408203125,-0.04400634765625
1782969693839190300,10.337190185546875,-0.96881103515625,-0.160614013671875,-0.04754638671875
1782969693849116200,10.3471162109375,-0.974456787109375,-0.163604736328125,-0.0543670654296875
1782969693859043000,10.35704296875,-0.9804534912109375,-0.1625518798828125,-0.0577392578125
1782969693868969200,10.36696923828125,-0.9867095947265625,-0.1612701416015625,-0.059051513671875
1782969693878895000,10.37689501953125,-0.989044189453125,-0.1589813232421875,-0.0543670654296875
1782969693888821200,10.3868212890625,-0.9926910400390625,-0.156646728515625,-0.05487060546875
1782969693898748200,10.396748046875,-0.9926605224609375,-0.1568145751953125,-0.05206298828125
1782969693908674300,10.40667431640625,-0.9915008544921875,-0.1573486328125,-0.047821044921875
1782969693918600200,10.41660009765625,-0.985321044921875,-0.155792236328125,-0.04443359375
1782969693928527000,10.426527099609375,-0.98321533203125,-0.1561126708984375,-0.0443878173828125
1782969693938453200,10.436453369140626,-0.980926513671875,-0.1600799560546875,-0.047698974609375
1782969693948379100,10.446379150390625,-0.9776763916015625,-0.1603546142578125,-0.048126220703125
1782969693958305000,10.456304931640625,-0.9727630615234375,-0.1601104736328125,-0.046905517578125
1782969693968232200,10.466232177734375,-0.97589111328125,-0.15899658203125,-0.04888916015625
1782969693978158300,10.476158447265625,-0.9732818603515625,-0.165863037109375,-0.0495452880859375
1782969693988084000,10.486083984375,-0.9848175048828125,-0.1612396240234375,-0.0496826171875
1782969693998011100,10.49601123046875,-0.9953155517578125,-0.1598052978515625,-0.05328369140625
1782969694007937300,10.505937255859376,-1.001953125,-0.1576995849609375,-0.0506591796875
1782969694017863000,10.51586279296875,-1.0039825439453125,-0.1535186767578125,-0.0457916259765625
1782969694027790000,10.5257900390625,-1.0025787353515625,-0.15155029296875,-0.0414886474609375
1782969694037716200,10.53571630859375,-0.991607666015625,-0.1533203125,-0.0399017333984375
1782969694047642000,10.54564208984375,-0.977935791015625,-0.1566162109375,-0.040618896484375
1782969694057568000,10.555568115234376,-0.972503662109375,-0.159393310546875,-0.0446014404296875
1782969694067495200,10.5654951171875,-0.970947265625,-0.16046142578125,-0.0535430908203125
1782969694077421300,10.57542138671875,-0.96978759765625,-0.162445068359375,-0.0602874755859375
1782969694087347000,10.585346923828125,-0.971343994140625,-0.163726806640625,-0.063201904296875
1782969694097274000,10.595274169921876,-0.977203369140625,-0.162445068359375,-0.063934326171875
1782969694107201000,10.605200927734375,-0.981903076171875,-0.16131591796875,-0.0578460693359375
1782969694117127000,10.615126953125,-0.981964111328125,-0.158050537109375,-0.0512237548828125
1782969694127053000,10.625052978515624,-0.97857666015625,-0.1542205810546875,-0.042724609375
1782969694136980000,10.63497998046875,-0.980926513671875,-0.1530914306640625,-0.0343780517578125
1782969694146906000,10.644906005859376,-0.9848785400390625,-0.1554107666015625,-0.0346527099609375
1782969694156832000,10.65483203125,-0.9848175048828125,-0.1602783203125,-0.0399169921875
1782969694166759000,10.664759033203126,-0.9885406494140625,-0.161041259765625,-0.044708251953125
1782969694176685000,10.67468505859375,-0.9962158203125,-0.1595458984375,-0.0465240478515625
1782969694186611000,10.68461083984375,-0.9984130859375,-0.16033935546875,-0.052276611328125
1782969694196537000,10.694537109375,-0.99200439453125,-0.16357421875,-0.0561676025390625
1782969694206464000,10.704464111328125,-0.98419189453125,-0.1644287109375,-0.0561981201171875
1782969694216390100,10.71439013671875,-0.9797515869140625,-0.163055419921875,-0.0546875
1782969694226316000,10.72431591796875,-0.9759063720703125,-0.1579742431640625,-0.0512542724609375
1782969694236243000,10.734242919921876,-0.972015380859375,-0.155487060546875,-0.049407958984375
1782969694246169000,10.744169189453125,-0.975311279296875,-0.1562042236328125,-0.0455474853515625
1782969694256095000,10.754094970703125,-0.98065185546875,-0.15472412109375,-0.0477142333984375
1782969694266021000,10.764021240234374,-0.986358642578125,-0.157745361328125,-0.0505218505859375
1782969694275948000,10.773947998046875,-0.98822021484375,-0.1598052978515625,-0.0515594482421875
1782969694285874200,10.783874267578126,-0.99212646484375,-0.160247802734375,-0.050384521484375
1782969694295800000,10.793800048828125,-0.99163818359375,-0.16033935546875,-0.050628662109375
1782969694305727000,10.80372705078125,-0.985198974609375,-0.161651611328125,-0.0515289306640625
1782969694315653000,10.813653076171875,-0.9816741943359375,-0.1604156494140625,-0.050506591796875
1782969694325579000,10.8235791015625,-0.979827880859375,-0.1602783203125,-0.0533294677734375
1782969694335506000,10.833505859375,-0.980804443359375,-0.1605682373046875,-0.0557098388671875
1782969694345432000,10.84343212890625,-0.9829254150390625,-0.157257080078125,-0.053070068359375
1782969694355358200,10.853358154296876,-0.9881134033203125,-0.1525421142578125,-0.0439453125
1782969694365283800,10.863283935546875,-0.9864044189453125,-0.154144287109375,-0.0447998046875
1782969694375211000,10.8732109375,-0.983673095703125,-0.157379150390625,-0.048126220703125
1782969694385137200,10.88313720703125,-0.98309326171875,-0.1596221923828125,-0.05224609375
1782969694395063000,10.89306298828125,-0.9796142578125,-0.16253662109375,-0.0552825927734375
1782969694404990000,10.902989990234374,-0.977783203125,-0.1636505126953125,-0.0563812255859375
1782969694414916000,10.912916015625,-0.9802703857421875,-0.158782958984375,-0.0498809814453125
1782969694424842200,10.92284228515625,-0.9850921630859375,-0.15606689453125,-0.043426513671875
1782969694434768000,10.932767822265625,-0.9868621826171875,-0.1585540771484375,-0.0431976318359375
1782969694444695000,10.942695068359376,-0.992431640625,-0.1610107421875,-0.0426483154296875
1782969694454621200,10.95262109375,-0.9967041015625,-0.1605682373046875,-0.046234130859375
1782969694464546800,10.962546875,-0.9978485107421875,-0.1594085693359375,-0.0494384765625
1782969694474474000,10.972473876953124,-0.992828369140625,-0.1593780517578125,-0.0507965087890625
1782969694484400000,10.982400146484375,-0.9853515625,-0.15911865234375,-0.0502471923828125
1782969694494326000,10.992325927734376,-0.9760284423828125,-0.159637451171875,-0.054229736328125
1782969694504252000,11.002251953125,-0.9647064208984375,-0.162384033203125,-0.0546722412109375
1782969694514179000,11.012178955078125,-0.961700439453125,-0.1640625,-0.052947998046875
1782969694524105000,11.02210498046875,-0.9650421142578125,-0.1652984619140625,-0.0525054931640625
1782969694534030800,11.03203076171875,-0.974273681640625,-0.1634521484375,-0.0515594482421875
1782969694543958000,11.0419580078125,-0.9854583740234375,-0.161590576171875,-0.048187255859375
1782969694553884000,11.0518837890625,-0.99224853515625,-0.1578521728515625,-0.0434112548828125
1782969694563810000,11.06181005859375,-0.991851806640625,-0.157623291015625,-0.03851318359375
1782969694573736000,11.07173583984375,-0.9930419921875,-0.1592254638671875,-0.037017822265625
1782969694583663000,11.0816630859375,-0.9944915771484375,-0.1600494384765625,-0.0399932861328125
1782969694593589000,11.091589111328124,-0.9941253662109375,-0.160003662109375,-0.04583740234375
1782969694603515000,11.101514892578125,-0.9953460693359375,-0.16082763671875,-0.0514678955078125
1782969694613442000,11.111442138671874,-0.994659423828125,-0.163909912109375,-0.0517730712890625
1782969694623368000,11.121367919921875,-0.9928131103515625,-0.1622161865234375,-0.0565185546875
1782969694633294000,11.131294189453126,-0.986114501953125,-0.1599884033203125,-0.0573577880859375
1782969694643220000,11.141219970703125,-0.97723388671875,-0.1602935791015625,-0.056365966796875
1782969694653147000,11.15114697265625,-0.9684295654296875,-0.1596527099609375,-0.053802490234375
1782969694663073000,11.161072998046874,-0.9626922607421875,-0.1598663330078125,-0.05078125
1782969694672999000,11.1709990234375,-0.9610443115234375,-0.1604461669921875,-0.04962158203125
1782969694682925800,11.18092578125,-0.9670257568359375,-0.1593475341796875,-0.0513153076171875
1782969694692852000,11.19085205078125,-0.9768218994140625,-0.160552978515625,-0.052215576171875
1782969694702778000,11.200778076171876,-0.9830474853515625,-0.1612091064453125,-0.052520751953125
1782969694712704000,11.2107041015625,-0.989990234375,-0.1584625244140625,-0.049041748046875
1782969694722631000,11.220630859375,-0.9957427978515625,-0.158294677734375,-0.0431060791015625
1782969694732557000,11.23055712890625,-0.9956817626953125,-0.1598358154296875,-0.0398406982421875
1782969694742483200,11.240483154296875,-0.9949951171875,-0.1619720458984375,-0.044708251953125
1782969694752409900,11.250409912109374,-0.9893798828125,-0.163909912109375,-0.050537109375
1782969694762336000,11.2603359375,-0.9883270263671875,-0.1656951904296875,-0.0574493408203125
1782969694772262100,11.27026220703125,-0.9877471923828125,-0.1638946533203125,-0.0606536865234375
1782969694782189000,11.28018896484375,-0.9834442138671875,-0.1627197265625,-0.0615692138671875
1782969694792115000,11.290114990234375,-0.9784393310546875,-0.161590576171875,-0.055419921875
1782969694802041000,11.300041015625,-0.9746856689453125,-0.1595916748046875,-0.0487213134765625
1782969694811967200,11.30996728515625,-0.9747772216796875,-0.1576385498046875,-0.046112060546875
1782969694821894000,11.319893798828126,-0.978179931640625,-0.15936279296875,-0.0457916259765625
1782969694831820000,11.329820068359375,-0.98309326171875,-0.1603240966796875,-0.046630859375
1782969694841746200,11.33974609375,-0.986846923828125,-0.162322998046875,-0.0467681884765625
1782969694851673000,11.349673095703125,-0.9916229248046875,-0.1619415283203125,-0.0501556396484375
1782969694861599000,11.359598876953125,-0.9945220947265625,-0.1622772216796875,-0.0505218505859375
1782969694871525000,11.369525146484374,-0.9906463623046875,-0.1620635986328125,-0.0528106689453125
1782969694881451000,11.379450927734375,-0.985443115234375,-0.1620330810546875,-0.0529022216796875
1782969694891378000,11.3893779296875,-0.9781646728515625,-0.1624908447265625,-0.0517120361328125
1782969694901304000,11.399303955078125,-0.97528076171875,-0.1628570556640625,-0.049713134765625
1782969694911230200,11.409230224609376,-0.973388671875,-0.164031982421875,-0.0450286865234375
1782969694921157000,11.4191572265625,-0.9736175537109375,-0.16107177734375,-0.0444488525390625
1782969694931083000,11.4290830078125,-0.9752655029296875,-0.160064697265625,-0.0418701171875
1782969694941009200,11.439009033203124,-0.9792938232421875,-0.1587371826171875,-0.0464630126953125
1782969694950935000,11.44893505859375,-0.984100341796875,-0.1632843017578125,-0.0540924072265625
1782969694960862000,11.458862060546876,-0.9886016845703125,-0.168548583984375,-0.0589752197265625
1782969694970788000,11.4687880859375,-0.9874267578125,-0.16864013671875,-0.0610198974609375
1782969694980714000,11.4787138671875,-0.984832763671875,-0.1645660400390625,-0.05438232421875
1782969694990641200,11.48864111328125,-0.9791717529296875,-0.1609344482421875,-0.0491485595703125
1782969695000567000,11.498567138671875,-0.977142333984375,-0.1585845947265625,-0.043060302734375
1782969695010493000,11.508492919921874,-0.97747802734375,-0.1613006591796875,-0.0423583984375
1782969695020419000,11.518419189453125,-0.978363037109375,-0.1610565185546875,-0.0417633056640625
1782969695030346000,11.528345947265626,-0.981414794921875,-0.1631317138671875,-0.045623779296875
1782969695040272000,11.53827197265625,-0.9851531982421875,-0.1668548583984375,-0.0532684326171875
1782969695050198000,11.548197998046875,-0.9879913330078125,-0.166534423828125,-0.0561065673828125
1782969695060125200,11.558125244140625,-0.990142822265625,-0.164764404296875,-0.0566558837890625
1782969695070051000,11.568051025390625,-0.9882354736328125,-0.1654205322265625,-0.055328369140625
1782969695079977000,11.57797705078125,-0.985809326171875,-0.163543701171875,-0.0494537353515625
1782969695089903000,11.587903076171875,-0.9856109619140625,-0.1597137451171875,-0.0435028076171875
1782969695099830000,11.597830078125,-0.9818572998046875,-0.159027099609375,-0.04071044921875
1782969695109755600,11.607755615234375,-0.9767913818359375,-0.1610565185546875,-0.0430755615234375
1782969695119681500,11.617681640625,-0.97576904296875,-0.1634979248046875,-0.0484161376953125
1782969695129608700,11.627608642578124,-0.977294921875,-0.165313720703125,-0.050537109375
1782969695139534600,11.63753466796875,-0.9791107177734375,-0.166046142578125,-0.0513458251953125
1782969695149460500,11.64746044921875,-0.9835662841796875,-0.1669921875,-0.053863525390625
1782969695159386600,11.65738671875,-0.9898681640625,-0.1654052734375,-0.0565338134765625
1782969695169313800,11.667313720703126,-0.99139404296875,-0.165313720703125,-0.0562591552734375
1782969695179239700,11.67723974609375,-0.9888153076171875,-0.1636810302734375,-0.0521240234375
1782969695189165600,11.68716552734375,-0.982818603515625,-0.1608123779296875,-0.0493621826171875
1782969695199092700,11.6970927734375,-0.9769439697265625,-0.16375732421875,-0.04705810546875
1782969695209018600,11.7070185546875,-0.9741973876953125,-0.164764404296875,-0.047027587890625
1782969695218944500,11.716944580078126,-0.9714202880859375,-0.1637420654296875,-0.048370361328125
1782969695228870700,11.72687060546875,-0.9712677001953125,-0.1656036376953125,-0.0461578369140625
1782969695238797600,11.736797607421876,-0.9813385009765625,-0.16461181640625,-0.04437255859375
1782969695248723700,11.7467236328125,-0.990142822265625,-0.162994384765625,-0.0470733642578125
1782969695258649600,11.756649658203125,-0.996551513671875,-0.1640472412109375,-0.04986572265625
1782969695268576500,11.766576416015624,-0.9982147216796875,-0.1663360595703125,-0.056915283203125
1782969695278502700,11.776502685546875,-0.9938812255859375,-0.1688690185546875,-0.0614013671875
1782969695288428500,11.786428466796876,-0.9828948974609375,-0.167327880859375,-0.059326171875
1782969695298354700,11.796354736328125,-0.973663330078125,-0.162689208984375,-0.052398681640625
1782969695308281600,11.806281494140626,-0.9717254638671875,-0.1584930419921875,-0.045440673828125
1782969695318207700,11.816207763671875,-0.97467041015625,-0.157562255859375,-0.042236328125
1782969695328133600,11.826133544921875,-0.9797515869140625,-0.1608428955078125,-0.0442962646484375
1782969695338060500,11.836060546875,-0.9913787841796875,-0.1631317138671875,-0.0469818115234375
1782969695347986700,11.845986572265625,-1.0026397705078125,-0.162872314453125,-0.051361083984375
1782969695357912600,11.85591259765625,-1.00274658203125,-0.163360595703125,-0.0579071044921875
1782969695367838700,11.865838623046875,-0.9880218505859375,-0.1674652099609375,-0.0597381591796875
1782969695377765600,11.875765625,-0.97589111328125,-0.1702728271484375,-0.0576019287109375
1782969695387691800,11.88569189453125,-0.9646453857421875,-0.1715240478515625,-0.056640625
1782969695397617700,11.89561767578125,-0.9573822021484375,-0.16900634765625,-0.052703857421875
1782969695407544600,11.905544677734374,-0.958953857421875,-0.1658935546875,-0.04608154296875
1782969695417470700,11.915470703125,-0.9660797119140625,-0.1635894775390625,-0.0434112548828125
1782969695427396600,11.925396728515626,-0.9752044677734375,-0.1628265380859375,-0.0418701171875
1782969695437322500,11.935322509765625,-0.9859466552734375,-0.1636810302734375,-0.0413665771484375
1782969695447249700,11.945249755859376,-0.9954376220703125,-0.1639251708984375,-0.0413665771484375
1782969695457175800,11.95517578125,-1.0003204345703125,-0.163330078125,-0.0442657470703125
1782969695467101700,11.965101806640625,-1.0008544921875,-0.163909912109375,-0.0447845458984375
1782969695477028600,11.975028564453124,-0.996185302734375,-0.1678619384765625,-0.0494232177734375
1782969695486954800,11.984954833984375,-0.9907989501953125,-0.1706085205078125,-0.055450439453125
1782969695496880600,11.994880615234376,-0.9874267578125,-0.1696014404296875,-0.058441162109375
1782969695506807600,12.0048076171875,-0.983978271484375,-0.167205810546875,-0.057861328125
1782969695516733700,12.014733642578125,-0.978973388671875,-0.16326904296875,-0.0545196533203125
1782969695526659800,12.024659912109374,-0.971343994140625,-0.1590728759765625,-0.0536651611328125
1782969695536585500,12.03458544921875,-0.9646759033203125,-0.159881591796875,-0.0549163818359375
1782969695546512600,12.0445126953125,-0.96295166015625,-0.1639556884765625,-0.05291748046875
1782969695556438800,12.054438720703125,-0.968017578125,-0.1671142578125,-0.054962158203125
1782969695566364400,12.064364501953126,-0.976593017578125,-0.167510986328125,-0.05078125
1782969695576290600,12.07429052734375,-0.9870147705078125,-0.1674957275390625,-0.0487060546875
1782969695586217700,12.0842177734375,-0.9954071044921875,-0.1663818359375,-0.0454254150390625
1782969695596143600,12.0941435546875,-1.0004425048828125,-0.16522216796875,-0.0427703857421875
1782969695606069500,12.104069580078125,-0.998443603515625,-0.1624603271484375,-0.0410614013671875
1782969695615996700,12.11399658203125,-0.9921112060546875,-0.16510009765625,-0.0460968017578125
1782969695625922600,12.123922607421875,-0.9846649169921875,-0.1669921875,-0.0582275390625
1782969695635848700,12.1338486328125,-0.9817962646484375,-0.1670989990234375,-0.058685302734375
1782969695645775600,12.143775634765625,-0.972503662109375,-0.164398193359375,-0.05230712890625
1782969695655701800,12.15370166015625,-0.970306396484375,-0.162933349609375,-0.0518646240234375
1782969695665627600,12.163627685546874,-0.97064208984375,-0.162811279296875,-0.054718017578125
1782969695675553500,12.173553466796875,-0.974945068359375,-0.1630859375,-0.0561676025390625
1782969695685480700,12.183480712890624,-0.9738616943359375,-0.16265869140625,-0.0531768798828125
1782969695695406600,12.193406494140625,-0.9748382568359375,-0.1652069091796875,-0.0521240234375
1782969695705332700,12.203332763671876,-0.9788665771484375,-0.16729736328125,-0.054412841796875
1782969695715258600,12.213258544921874,-0.97747802734375,-0.1642913818359375,-0.0560302734375
1782969695725185500,12.223185546875,-0.9720916748046875,-0.1630859375,-0.049652099609375
1782969695735111700,12.233111572265624,-0.99212646484375,-0.1651153564453125,-0.046478271484375
1782969695745037600,12.24303759765625,-0.9990386962890625,-0.1602783203125,-0.0547332763671875
1782969695754964500,12.252964599609374,-1.0061492919921875,-0.15997314453125,-0.0590362548828125
1782969695764890600,12.262890625,-1.0027618408203125,-0.16363525390625,-0.05548095703125
1782969695774816800,12.272816650390626,-0.993377685546875,-0.1631622314453125,-0.049407958984375
1782969695784743400,12.282743408203125,-0.985809326171875,-0.1638641357421875,-0.050018310546875
1782969695794669600,12.292669677734375,-0.9835357666015625,-0.165802001953125,-0.05364990234375
1782969695804595700,12.302595703125,-0.981475830078125,-0.168701171875,-0.05615234375
1782969695814521600,12.312521484375,-0.9855804443359375,-0.1676025390625,-0.058807373046875
1782969695824448500,12.322448486328126,-0.984222412109375,-0.1666107177734375,-0.057830810546875
1782969695834374700,12.332374755859375,-0.9791107177734375,-0.1632843017578125,-0.050201416015625
1782969695844300800,12.34230078125,-0.9728240966796875,-0.161712646484375,-0.0434722900390625
1782969695854227500,12.3522275390625,-0.969970703125,-0.1609039306640625,-0.0420989990234375
1782969695864153600,12.362153564453125,-0.9727935791015625,-0.1637420654296875,-0.04449462890625
1782969695874079700,12.372079833984374,-0.982818603515625,-0.1627349853515625,-0.044586181640625
1782969695884008700,12.3820087890625,-0.9908905029296875,-0.166717529296875,-0.0487060546875
1782969695893934800,12.391934814453125,-0.9935150146484375,-0.1684417724609375,-0.0513916015625
1782969695903860500,12.401860595703125,-0.9922332763671875,-0.1696319580078125,-0.0516204833984375
1782969695913787600,12.41178759765625,-0.988006591796875,-0.1687774658203125,-0.0486297607421875
1782969695923713800,12.4217138671875,-0.9864654541015625,-0.1692962646484375,-0.047576904296875
1782969695933639400,12.431639404296876,-0.984039306640625,-0.168670654296875,-0.0472412109375
1782969695943565600,12.441565673828125,-0.98004150390625,-0.1688079833984375,-0.050079345703125
1782969695953492700,12.45149267578125,-0.9792633056640625,-0.16973876953125,-0.0479736328125
1782969695963418600,12.461418701171874,-0.98211669921875,-0.170440673828125,-0.0442657470703125
1782969695973344500,12.471344482421875,-0.98223876953125,-0.1712646484375,-0.0441741943359375
1782969695983271700,12.481271728515624,-0.984130859375,-0.170806884765625,-0.0401458740234375
1782969695993197600,12.491197509765625,-0.9852752685546875,-0.16998291015625,-0.0374755859375
1782969696003123700,12.501123779296876,-0.9856109619140625,-0.1705322265625,-0.0392303466796875
1782969696013049600,12.511049560546875,-0.9856414794921875,-0.1704254150390625,-0.0442962646484375
1782969696022976500,12.5209765625,-0.981842041015625,-0.1726531982421875,-0.052154541015625
1782969696032902700,12.530902587890624,-0.9798126220703125,-0.1761016845703125,-0.05841064453125
1782969696042828500,12.54082861328125,-0.97454833984375,-0.17431640625,-0.0484619140625
1782969696052755700,12.550755615234374,-0.97021484375,-0.172271728515625,-0.0398406982421875
1782969696062681600,12.560681640625,-0.975494384765625,-0.1708526611328125,-0.0394744873046875
1782969696072607700,12.570607666015626,-0.983673095703125,-0.1690826416015625,-0.03912353515625
1782969696082533600,12.58053369140625,-0.9840240478515625,-0.170166015625,-0.036224365234375
1782969696092460500,12.59046044921875,-0.9919281005859375,-0.17132568359375,-0.036285400390625
1782969696102386700,12.60038671875,-0.988189697265625,-0.1704559326171875,-0.039825439453125
1782969696112312600,12.6103125,-0.9906158447265625,-0.16717529296875,-0.0418853759765625
1782969696122239500,12.620239501953124,-0.9913787841796875,-0.1678009033203125,-0.058013916015625
1782969696132165600,12.63016552734375,-0.9865570068359375,-0.18072509765625,-0.0692901611328125
1782969696142091800,12.640091796875,-0.9790496826171875,-0.1853179931640625,-0.05914306640625
1782969696152017700,12.650017578125,-0.9678192138671875,-0.1862030029296875,-0.0598907470703125
1782969696161944600,12.659944580078125,-0.963287353515625,-0.1780242919921875,-0.046234130859375
1782969696171870700,12.66987060546875,-0.9598846435546875,-0.1742401123046875,-0.044830322265625
1782969696181796600,12.679796630859375,-0.9556884765625,-0.171783447265625,-0.0381317138671875
1782969696191723500,12.6897236328125,-0.9579925537109375,-0.164306640625,-0.031951904296875
