time,seconds_elapsed,z,y,x
1782969683565479200,0.063479248046875,0.018433069810271263,0.03388392925262451,-0.01684715785086155
1782969683575405000,0.073405029296875,0.025733059272170067,0.037646710872650146,-0.024747423827648163
1782969683585332200,0.083332275390625,0.024775920435786247,0.09611082077026367,-0.02936214953660965
1782969683595258000,0.093258056640625,0.036140426993370056,0.028113659471273422,-0.048524390906095505
1782969683605184000,0.10318408203125,0.04115329682826996,0.057920824736356735,-0.031317174434661865
1782969683615111200,0.113111083984375,0.015782691538333893,0.1185080036520958,-0.01950392685830593
1782969683625037300,0.123037353515625,-0.011745339259505272,0.13776159286499023,0.0067899953573942184
1782969683634963000,0.132962890625,-0.030782146379351616,0.1457148641347885,0.03471723571419716
1782969683644890000,0.14289013671875,-0.06161356344819069,0.1607220321893692,0.07014100253582001
1782969683654816300,0.152816162109375,-0.10069359093904495,0.1649964153766632,0.10762020200490952
1782969683664742100,0.1627421875,-0.1328374147415161,0.1589406430721283,0.12477894872426987
1782969683674669000,0.1726689453125,-0.14770850539207458,0.12921923398971558,0.11961294710636139
1782969683684595200,0.18259521484375,-0.12847036123275757,0.0809803381562233,0.12132136523723602
1782969683694521000,0.19252099609375,-0.08564939349889755,0.05962871015071869,0.1248236894607544
1782969683704447000,0.202447021484375,-0.03958842158317566,0.040412671864032745,0.12119806557893753
1782969683714374100,0.2123740234375,-0.007412642706185579,0.025065138936042786,0.10095430910587311
1782969683724300000,0.222300048828125,0.030783478170633316,0.029502497985959053,0.08288156986236572
1782969683734226200,0.23222607421875,0.052069325000047684,-0.028490230441093445,0.024293622002005577
1782969683744153300,0.2421533203125,0.014566958881914616,-0.04748256504535675,-0.02551707811653614
1782969683754079000,0.252078857421875,-0.02419029176235199,-0.011054514907300472,-0.05372767522931099
1782969683764005000,0.262005126953125,-0.039512522518634796,-0.015078818425536156,-0.0854342058300972
1782969683773932300,0.271932373046875,-0.025069667026400566,-0.041615620255470276,-0.07691448926925659
1782969683783858200,0.281858154296875,0.013560017570853233,-0.05857090279459953,-0.0297312643378973
1782969683793784000,0.2917841796875,0.046480149030685425,-0.037576403468847275,0.03818999603390694
1782969683803710200,0.301710205078125,0.041976213455200195,-0.013996242545545101,0.1108599379658699
1782969683813637400,0.311637451171875,0.027108583599328995,0.00014061490946915,0.1532777100801468
1782969683823563000,0.32156298828125,0.007463242392987013,0.009253951720893383,0.16623930633068085
1782969683833489200,0.3314892578125,-0.00013315805699676275,-0.009246495552361012,0.15069817006587982
1782969683843416300,0.341416259765625,0.002805906580761075,-0.019989686086773872,0.12345588952302933
1782969683853342000,0.351342041015625,0.01369077805429697,-0.05259769782423973,0.08818764984607697
1782969683863268000,0.36126806640625,0.013277722522616386,-0.07829959690570831,0.048107076436281204
1782969683873195300,0.3711953125,0.008221178315579891,-0.07717574387788773,0.019448531791567802
1782969683883121200,0.38112109375,0.0019955066964030266,-0.0614420548081398,0.0159483402967453
1782969683893047000,0.391047119140625,-0.0046852994710206985,-0.043059054762125015,0.031751539558172226
1782969683902973200,0.40097314453125,-0.011350658722221851,-0.0198671817779541,0.050999801605939865
1782969683912900000,0.410900146484375,-0.009501892141997814,-0.006271477788686752,0.06339149177074432
1782969683922826000,0.420825927734375,-0.007115167565643787,-0.0008495483780279756,0.0651414543390274
1782969683932752100,0.430752197265625,0.002028529765084386,0.008220911957323551,0.06937774270772934
1782969683942679000,0.440678955078125,0.0070304786786437035,0.007502391003072262,0.07977845519781113
1782969683952605200,0.450605224609375,-0.0012532835826277733,0.009740778245031834,0.08530957251787186
1782969683962531000,0.460531005859375,-0.0009566074586473405,0.0070613715797662735,0.08355055004358292
1782969683972458200,0.470458251953125,-0.016521984711289406,0.023437947034835815,0.058275025337934494
1782969683982384000,0.480384033203125,-0.0219670832157135,0.05348905920982361,0.028538433834910393
1782969683992310000,0.49031005859375,-0.008784702979028225,0.048236504197120667,0.00019654128118418157
1782969684002236200,0.500236083984375,0.020120713859796524,-0.00012836436508223414,-0.04006645828485489
1782969684012163000,0.5101630859375,0.045099832117557526,-0.01859738677740097,-0.05945906415581703
1782969684022089200,0.520089111328125,0.05055798217654228,-0.0012229235144332051,-0.0613618940114975
1782969684032015000,0.53001513671875,0.038666434586048126,0.00443869037553668,-0.06063351780176163
1782969684041942000,0.53994189453125,0.015084144659340382,0.026218554005026817,-0.055871255695819855
1782969684051868200,0.5498681640625,-0.004541222471743822,0.06306951493024826,-0.04743435978889465
1782969684061794000,0.5597939453125,-0.01756301522254944,0.07550700753927231,-0.03496011346578598
1782969684071721000,0.569720947265625,-0.030232204124331474,0.05281687527894974,-0.02039129100739956
1782969684081647000,0.579647216796875,-0.037457894533872604,0.043956540524959564,-0.004828311037272215
1782969684091573200,0.5895732421875,-0.03817028924822807,0.04111894220113754,0.016866598278284073
1782969684101499100,0.5994990234375,-0.018391257151961327,0.006859504152089357,0.02606355771422386
1782969684111426000,0.609426025390625,0.0025542378425598145,-0.027284618467092514,0.01224574726074934
1782969684121352200,0.619352294921875,0.015214905142784119,-0.06052140146493912,-0.006647516507655382
1782969684131278000,0.629278076171875,0.011323494836688042,-0.06382345408201218,-0.030970165506005287
1782969684141205000,0.639205078125,0.0037377465050667524,-0.06473265588283539,-0.05119021609425545
1782969684151131100,0.649131103515625,-0.0129363052546978,-0.05192897841334343,-0.06613534688949585
1782969684161057300,0.659057373046875,-0.013711551204323769,-0.009735185652971268,-0.06886641681194305
1782969684170984000,0.66898388671875,-0.005678392015397549,-0.002602973720058799,-0.05918768793344498
1782969684180910000,0.67891015625,-0.009954363107681274,0.0036570527590811253,-0.05940047651529312
1782969684190836200,0.688836181640625,-0.01245294138789177,0.018990468233823776,-0.06191183626651764
1782969684200762000,0.69876220703125,-0.0341302715241909,0.024206269532442093,-0.08178994059562683
1782969684210689000,0.70868896484375,-0.05501611530780792,0.02725425735116005,-0.10029730945825577
1782969684220615200,0.718615234375,-0.0681375116109848,0.03206339478492737,-0.10986524820327759
1782969684230541300,0.728541259765625,-0.07077030837535858,0.028432706370949745,-0.1289135068655014
1782969684240468200,0.73846826171875,-0.0634295716881752,0.022901320829987526,-0.1517237424850464
1782969684250394000,0.74839404296875,-0.05475325882434845,0.009574330411851406,-0.17420455813407898
1782969684260320300,0.7583203125,-0.043898746371269226,-0.0027230822015553713,-0.18915687501430511
1782969684270247200,0.7682470703125,-0.03943449258804321,0.0010271812789142132,-0.19454312324523926
1782969684280173000,0.778173095703125,-0.03965047374367714,0.010961837135255337,-0.19227276742458344
1782969684290099200,0.78809912109375,-0.04097113385796547,0.00321896281093359,-0.17372864484786987
1782969684300025300,0.798025390625,-0.04609106108546257,0.004857605788856745,-0.14554840326309204
1782969684309952300,0.8079521484375,-0.04199059307575226,-0.0013579458463937044,-0.13253353536128998
1782969684319878100,0.817878173828125,-0.027464646846055984,-0.04105289280414581,-0.11434601992368698
1782969684329804300,0.82780419921875,-0.02425047755241394,-0.03267911821603775,-0.07234983146190643
1782969684339731200,0.837731201171875,-0.030347518622875214,-0.0008615325787104666,-0.030421022325754166
1782969684349657000,0.847656982421875,-0.029256422072649002,-0.00697907991707325,-0.0010032127611339092
1782969684359583200,0.857583251953125,-0.028986643999814987,-0.014172544702887535,0.01720322109758854
1782969684369510100,0.86751025390625,-0.03160453215241432,-0.013093165121972561,0.015664447098970413
1782969684379436300,0.877436279296875,-0.035059716552495956,-0.009439041838049889,0.003573695896193385
1782969684389362200,0.887362060546875,-0.034631215035915375,-0.0007499461644329131,-0.0025486452504992485
1782969684399288000,0.8972880859375,-0.02117719128727913,-0.012196744792163372,-0.010773018933832645
1782969684409215200,0.90721533203125,-0.012075837701559067,-0.020201407372951508,-0.017074324190616608
1782969684419141000,0.91714111328125,-0.010664895176887512,-0.010875284671783447,-0.01284522470086813
1782969684429067000,0.92706689453125,-0.009869675152003765,0.0020301276817917824,0.0013206616276875138
1782969684438994200,0.936994140625,-0.008105331100523472,0.0073476615361869335,0.011208978481590748
1782969684448920300,0.94692041015625,-0.004452539142221212,0.01878034509718418,0.022835275158286095
1782969684458846200,0.95684619140625,0.0008146609761752188,0.028497422114014626,0.03063860349357128
1782969684468773000,0.966773193359375,-0.0008202536264434457,0.030702251940965652,0.033672209829092026
1782969684478699300,0.97669921875,-0.0005406216951087117,0.026579679921269417,0.03136511147022247
1782969684488625200,0.986625244140625,-0.006768424063920975,0.018262626603245735,0.03431509807705879
1782969684498551000,0.996551025390625,-0.005789712071418762,0.01501170638948679,0.030980553478002548
1782969684508478200,1.006478271484375,-0.005906092468649149,0.017618408426642418,0.03622085601091385
1782969684518404400,1.016404296875,-0.0006628608098253608,0.015782691538333893,0.045832470059394836
1782969684528330000,1.026330078125,0.008775382302701473,0.020770791918039322,0.05983084440231323
1782969684538257200,1.036257080078125,0.013743242248892784,0.026260100305080414,0.06458405405282974
1782969684548183300,1.046183349609375,0.015235145576298237,0.025781262665987015,0.06331212818622589
1782969684558109000,1.05610888671875,0.018321748822927475,0.03386342525482178,0.052931126207113266
1782969684568036000,1.0660361328125,0.009784719906747341,0.07282626628875732,0.04806313291192055
1782969684577962200,1.075962158203125,0.0019465044606477022,0.10784843564033508,0.04493178799748421
1782969684587888000,1.08588818359375,-0.0035926043055951595,0.03495531901717186,0.03501604124903679
1782969684597814000,1.09581396484375,-0.010714429430663586,0.025897908955812454,0.03779877722263336
1782969684607741200,1.1057412109375,-0.024877386167645454,0.02461905963718891,0.03539367765188217
1782969684617667000,1.1156669921875,-0.03201758861541748,0.024698687717318535,0.035478364676237106
1782969684627593000,1.125593017578125,-0.03080505132675171,0.017198694869875908,0.0229782871901989
1782969684637520100,1.13552001953125,-0.020682642236351967,0.012616725638508797,0.014180799946188927
1782969684647446300,1.1454462890625,0.0037015276029706,0.004775846842676401,0.00768907880410552
1782969684657372200,1.1553720703125,0.027291275560855865,0.0018604843644425273,0.012775450013577938
1782969684667299000,1.165299072265625,0.037345241755247116,0.0007313040550798178,0.017837319523096085
1782969684677225200,1.17522509765625,0.042870234698057175,0.0036906085442751646,0.019817912951111794
1782969684687151000,1.185151123046875,0.03906990587711334,-0.0023302659392356873,0.01751880533993244
1782969684697077000,1.195076904296875,0.027607658877968788,0.012621252797544003,0.021333251148462296
1782969684707004200,1.205004150390625,0.014374678023159504,0.02418230101466179,0.024470455944538116
1782969684716930000,1.214929931640625,-0.0034179009962826967,0.03382427617907524,0.022042451426386833
1782969684726856200,1.224856201171875,-0.016101472079753876,0.035765718668699265,0.015073224902153015
1782969684736783000,1.234783203125,-0.02196229062974453,0.03973542898893356,0.007092530373483896
1782969684746709000,1.244708984375,-0.01840084418654442,0.042023882269859314,-0.0009270463488064706
1782969684756635100,1.25463525390625,-0.006384395994246006,0.0369470976293087,-0.004733502399176359
1782969684766562300,1.264562255859375,0.0016463662032037973,0.03214701637625694,-0.004939631093293428
1782969684776488200,1.27448828125,0.0023734092246741056,0.026372484862804413,0.009608685038983822
1782969684786414000,1.2844140625,0.0013379721203818917,0.03831969201564789,0.025950640439987183
1782969684796340200,1.29434033203125,-0.012052135542035103,0.04963865876197815,0.038656849414110184
1782969684806267100,1.30426708984375,-0.016464726999402046,0.0686110183596611,0.03522243723273277
1782969684816193000,1.314193115234375,-0.02827291749417782,0.06813431531190872,0.026434803381562233
1782969684826119200,1.324119140625,-0.02695145644247532,0.05529308319091797,0.013395167887210846
1782969684836046300,1.33404638671875,-0.017359815537929535,0.037578001618385315,-0.001261273049749434
1782969684845972000,1.343971923828125,-0.007143396884202957,0.02418682910501957,-0.00987153872847557
1782969684855898000,1.353898193359375,-0.002919357270002365,0.020167319104075432,-0.015411979518830776
1782969684865824300,1.36382421875,-0.006207029335200787,0.02274525910615921,-0.022710371762514114
1782969684875751200,1.373751220703125,-0.002560895634815097,0.025081917643547058,-0.02996215969324112
1782969684885677000,1.383677001953125,-0.005374525208026171,0.030699588358402252,-0.027247333899140358
1782969684895603200,1.393603271484375,-0.006631537340581417,0.031451933085918427,-0.030279342085123062
1782969684905530000,1.403530029296875,-0.005064000841230154,0.025078454986214638,-0.03765043988823891
1782969684915456000,1.4134560546875,0.008755141869187355,0.012293684296309948,-0.04097539559006691
1782969684925382100,1.423382080078125,0.016998691484332085,0.005200620740652084,-0.030242590233683586
1782969684935309000,1.43330908203125,0.024053137749433517,0.005588643718510866,-0.00959829892963171
1782969684945235200,1.443235107421875,0.01464818511158228,0.011289405636489391,0.002659166231751442
1782969684955161000,1.4531611328125,0.0039009982720017433,0.018622687086462975,0.011809521354734898
1782969684965087200,1.463087158203125,-0.004475708585232496,0.022072546184062958,0.011245730333030224
1782969684975014100,1.47301416015625,-0.014101171866059303,0.019876502454280853,0.005868541542440653
1782969684984940000,1.48293994140625,-0.01600133627653122,0.01540505513548851,-0.009708020836114883
1782969684994866200,1.4928662109375,-0.01077008992433548,0.0036645096261054277,-0.026460636407136917
1782969685004793000,1.50279296875,0.0017683389596641064,-0.0130540169775486,-0.03081490471959114
1782969685014719200,1.51271923828125,0.0023302659392356873,-0.004611529875546694,-0.007535680662840605
1782969685024645000,1.52264501953125,0.0006532734259963036,0.006115949247032404,0.028565865010023117
1782969685034572000,1.532572021484375,-0.009795638732612133,0.019808059558272362,0.047386158257722855
1782969685044498200,1.542498291015625,-0.010363691486418247,0.02346138283610344,0.05890379473567009
1782969685054424000,1.552424072265625,-0.009691775776445866,0.024518392980098724,0.052670668810606
1782969685064350200,1.56235009765625,-0.007684018462896347,0.019336147233843803,0.0397157222032547
1782969685074277000,1.572277099609375,-0.004311657976359129,0.01378052681684494,0.025706695392727852
1782969685084203300,1.582203369140625,-0.023875771090388298,0.0016282566357403994,0.005191300064325333
1782969685094129200,1.592129150390625,-0.030842334032058716,0.016752881929278374,-0.011414308100938797
1782969685104056000,1.60205615234375,-0.020971061661839485,0.03586399182677269,-0.02731018327176571
1782969685113982200,1.611982177734375,-0.010153301991522312,0.021649634465575218,-0.03269509598612785
1782969685123908400,1.621908447265625,-0.012830311432480812,0.022412898018956184,-0.024451280012726784
1782969685133835000,1.6318349609375,-0.0049497513100504875,0.02131034806370735,-0.0257548987865448
1782969685143761200,1.64176123046875,-0.0005776396137662232,0.016165120527148247,-0.022941268980503082
1782969685153687300,1.651687255859375,-0.00034194986801594496,0.017466075718402863,-0.0096835196018219
1782969685163613200,1.66161328125,0.0007334345718845725,0.012200740166008472,-0.006061621010303497
1782969685173540000,1.6715400390625,0.004289819858968258,0.006881874520331621,-0.004780374001711607
1782969685183466200,1.68146630859375,0.007910920307040215,0.000681236619129777,-0.0015401060227304697
1782969685193392400,1.691392333984375,0.014779744669795036,0.00036671728594228625,0.007595867849886417
1782969685203319000,1.701319091796875,0.017235711216926575,0.0032642364967614412,0.018643459305167198
1782969685213245200,1.7112451171875,0.013742976821959019,0.005736448802053928,0.021990252658724785
1782969685223171300,1.72117138671875,0.00720624765381217,0.007785485126078129,0.025409219786524773
1782969685233097000,1.731096923828125,-0.0012796488590538502,0.007989749312400818,0.019705528393387794
1782969685243024100,1.741024169921875,-0.00418462511152029,0.006893858779221773,0.008102401159703732
1782969685252950300,1.7509501953125,-0.007876831106841564,0.008409463800489902,-0.011202054098248482
1782969685262876200,1.760876220703125,-0.01073813159018755,0.002831472782418132,-0.028595158830285072
1782969685272803000,1.770802978515625,-0.010438526049256325,-0.0007640608819201589,-0.04294480383396149
1782969685282729200,1.780729248046875,-0.00993012823164463,0.0046211169101297855,-0.04970657080411911
1782969685292655000,1.790655029296875,-0.006009423173964024,0.004208327271044254,-0.05566059798002243
1782969685302582300,1.800582275390625,-0.004855741746723652,0.004303401801735163,-0.05504913628101349
1782969685312508200,1.810508056640625,-0.006560164503753185,0.009558884426951408,-0.042638540267944336
1782969685322434300,1.820434326171875,-0.006165483966469765,0.00612154183909297,-0.030714236199855804
1782969685332360200,1.830360107421875,-0.009401224553585052,0.01170379389077425,-0.012888634577393532
1782969685342287400,1.840287353515625,-0.006265352945774794,0.010057694278657436,-0.0012279836228117347
1782969685352213200,1.850213134765625,-0.0014511564513668418,0.0014748586108908057,0.003989681601524353
1782969685362139100,1.86013916015625,0.00971387978643179,-0.004316717851907015,0.006043511442840099
1782969685372066300,1.87006640625,0.018867697566747665,-0.009060872718691826,0.018149709329009056
1782969685381992200,1.8799921875,0.014860705472528934,-0.004507133737206459,0.03831596300005913
1782969685391918000,1.88991796875,0.005470931995660067,0.0021699436474591494,0.05381609499454498
1782969685401845200,1.89984521484375,-0.00412417110055685,0.006018477492034435,0.06732071936130524
1782969685411771400,1.909771484375,-0.014909973368048668,0.016435964033007622,0.06837932020425797
1782969685421697000,1.919697021484375,-0.01570519432425499,0.02014921046793461,0.0625416710972786
1782969685431623200,1.929623046875,-0.013047358952462673,0.014210893772542477,0.048947568982839584
1782969685441550300,1.93955029296875,-0.01113414391875267,0.01125052385032177,0.033663153648376465
1782969685451476200,1.949476318359375,-0.006952181924134493,0.006150304339826107,0.012077702209353447
1782969685461402000,1.959402099609375,-0.004250138532370329,0.005234709475189447,-0.0021675468888133764
1782969685471329300,1.969329345703125,-0.007529022637754679,0.010746121406555176,-0.013117666356265545
1782969685481255200,1.979255126953125,-0.007586813066154718,0.013730193488299847,-0.01835370622575283
1782969685491181000,1.98918115234375,-0.0026383937802165747,0.017138240858912468,-0.012113387696444988
1782969685501107200,1.999107177734375,0.00019627496658358723,0.019045330584049225,-0.0008575378451496363
1782969685511034400,2.009034423828125,0.0007574030314572155,0.019420303404331207,0.005012867972254753
1782969685520960000,2.0189599609375,0.002924683503806591,0.016921192407608032,0.010807107202708721
1782969685530886100,2.02888623046875,-0.0012745888670906425,0.01709696091711521,0.0173193346709013
1782969685540813300,2.038813232421875,-0.006599046755582094,0.03169401362538338,0.015586682595312595
1782969685550739200,2.0487392578125,-0.01426442340016365,0.03869972378015518,0.016809873282909393
1782969685560665000,2.0586650390625,-0.011040667071938515,0.019524699077010155,0.004024036228656769
1782969685570592300,2.06859228515625,-0.006764429155737162,0.011228153482079506,-0.007726895622909069
1782969685580518100,2.07851806640625,-0.0010596717474982142,-0.0010077401529997587,-0.013769607990980148
1782969685590444000,2.088444091796875,0.0034322820138186216,-0.004394215997308493,-0.01315308641642332
1782969685600370200,2.0983701171875,0.004436559975147247,0.0014120079576969147,-0.007367368787527084
1782969685610297000,2.108297119140625,0.00350392097607255,0.005222725216299295,-0.005314604379236698
1782969685620223200,2.11822314453125,0.006582801695913076,0.01119433157145977,0.0016197345685213804
1782969685630149000,2.128149169921875,0.00785792339593172,0.014449512585997581,0.00824754312634468
1782969685640076300,2.138076171875,0.008199340663850307,0.014533402398228645,0.007303453050553799
1782969685650002200,2.148002197265625,0.009565009735524654,0.025534121319651604,0.008332764729857445
1782969685659928000,2.157927978515625,0.0112209627404809,0.02256682887673378,0.015460449270904064
1782969685669854200,2.167854248046875,0.011891813017427921,0.02388189733028412,0.012590892612934113
1782969685679781000,2.177781005859375,0.012061189860105515,0.01756301522254944,0.0029079054947942495
1782969685689707300,2.187707275390625,0.014770423993468285,0.009887518361210823,-0.010240120813250542
1782969685699633200,2.197633056640625,0.015239672735333443,0.002569950418546796,-0.02267521806061268
1782969685709560000,2.20756005859375,0.027331223711371422,0.0007669904152862728,-0.031186947599053383
1782969685719486200,2.217486328125,0.03581712022423744,0.0034194989129900932,-0.027963723987340927
1782969685729412000,2.227412109375,0.04247209429740906,0.011782357469201088,-0.027283020317554474
1782969685739339000,2.237339111328125,0.04460155591368675,0.004649613052606583,-0.01890098676085472
1782969685749265200,2.24726513671875,0.04561036080121994,0.0038045919500291348,-0.004363589454442263
1782969685759191300,2.25719140625,0.03903847932815552,0.004000334069132805,0.00558225205168128
1782969685769117200,2.2671171875,0.028233502060174942,0.0005310343112796545,0.01666206680238247
1782969685779044000,2.277044189453125,0.014056696556508541,0.005637113004922867,0.022052837535738945
1782969685788970200,2.28697021484375,0.0021438447292894125,0.004551342222839594,0.022303974255919456
1782969685798896000,2.296896240234375,-0.005474926438182592,0.00711862975731492,0.022251775488257408
1782969685808823000,2.306822998046875,-0.006083725020289421,0.011099789291620255,0.014423414133489132
1782969685818749200,2.316749267578125,-0.006095975637435913,0.01636805385351181,0.007817708887159824
1782969685828675300,2.32667529296875,-0.0035502600949257612,0.01847488060593605,-0.0034439999144524336
1782969685838602200,2.336602294921875,0.009118396788835526,0.011211908422410488,-0.01353604905307293
1782969685848528100,2.346528076171875,0.01986638270318508,0.009190835058689117,-0.019328957423567772
1782969685858454300,2.356454345703125,0.035113777965307236,0.007392934989184141,-0.019690614193677902
1782969685868380200,2.366380126953125,0.0503273531794548,0.008387626148760319,-0.01381168607622385
1782969685878307000,2.37630712890625,0.058445997536182404,0.012719256803393364,-0.0012146678054705262
1782969685888233200,2.386233154296875,0.05950993299484253,0.0140196792781353,0.009154349565505981
1782969685898159400,2.396159423828125,0.05144188553094864,0.017369136214256287,0.019033346325159073
1782969685908086300,2.406086181640625,0.047388289123773575,0.01961471326649189,0.02286297082901001
1782969685918012200,2.41601220703125,0.03936125338077545,0.013509949669241905,0.01655154675245285
1782969685927938300,2.425938232421875,0.046301983296871185,0.00944836251437664,0.012366387993097305
1782969685937864200,2.4358642578125,0.046849798411130905,0.006347378250211477,0.012839898467063904
1782969685947791000,2.445791015625,0.044435642659664154,0.007735950406640768,0.016266588121652603
1782969685957717200,2.45571728515625,0.04712623357772827,0.003966245800256729,0.022176142781972885
1782969685967643100,2.46564306640625,0.04204412177205086,0.00993438996374607,0.019209381192922592
1782969685977570300,2.4755703125,0.03159308061003685,0.006995591334998608,0.01956411451101303
1782969685987496200,2.48549609375,0.02244671992957592,0.006593986880034208,0.018063688650727272
1782969685997422300,2.49542236328125,0.019228555262088776,0.008945291861891747,0.009818010032176971
1782969686007349200,2.505349365234375,0.016943562775850296,0.006373210810124874,0.008744223043322563
1782969686017275100,2.515275146484375,0.01672651618719101,0.008201204240322113,0.005949768237769604
1782969686027201300,2.525201171875,0.024161262437701225,0.008758604526519775,0.008641957305371761
1782969686037127200,2.535127197265625,0.026615366339683533,0.01091816183179617,0.017664747312664986
1782969686047054300,2.545054443359375,0.02917785942554474,0.011401524767279625,0.030408238992094994
1782969686056980200,2.554980224609375,0.028124311938881874,0.017044764012098312,0.04186222702264786
1782969686066906000,2.564906005859375,0.022777751088142395,0.02479669265449047,0.052743904292583466
1782969686076833300,2.574833251953125,0.020008329302072525,0.027480360120534897,0.05308239161968231
1782969686086759200,2.58475927734375,0.01673104241490364,0.021811289712786674,0.03340163081884384
1782969686096684800,2.594684814453125,0.02219371870160103,0.01534912921488285,0.008881908841431141
1782969686106611700,2.60461181640625,0.02618446573615074,0.007154315710067749,-0.019645873457193375
1782969686116537600,2.61453759765625,0.024652881547808647,0.0012562130577862263,-0.0348980613052845
1782969686126463700,2.624463623046875,0.023094400763511658,0.0010178601369261742,-0.04454855993390083
1782969686136389600,2.6343896484375,0.01949034444987774,0.004021106753498316,-0.039388950914144516
1782969686146316500,2.644316650390625,0.011233479715883732,0.008553806692361832,-0.02648567035794258
1782969686156242700,2.65424267578125,0.0020120181143283844,0.015380021184682846,-0.009966613724827766
1782969686166168600,2.66416845703125,-0.003480751533061266,0.017831994220614433,0.0015366439474746585
1782969686176095700,2.674095703125,-0.013022058643400669,0.020590761676430702,-0.0012503541074693203
1782969686186021600,2.684021728515625,-0.013552560470998287,0.018917765468358994,-0.005065332166850567
1782969686195947500,2.693947509765625,-0.00729466462507844,0.016621055081486702,-0.014704643748700619
1782969686205873700,2.703873779296875,-0.00415453128516674,0.014584269374608994,-0.012136025354266167
1782969686215800800,2.71380078125,-0.00177899154368788,0.007568171247839928,-0.005050152540206909
1782969686225726700,2.723726806640625,-0.00683154072612524,0.008758071810007095,0.0023755396250635386
1782969686235652600,2.733652587890625,-0.008403072133660316,0.006876548286527395,0.00367116741836071
1782969686245579800,2.743579833984375,-0.010746654123067856,0.008065649308264256,0.003939880523830652
1782969686255505700,2.753505615234375,-0.006779342889785767,0.012552809901535511,0.006200371775776148
1782969686265431600,2.763431640625,0.004619252867996693,0.014605307951569557,0.007524761371314526
1782969686275358700,2.773358642578125,0.007812915369868279,0.01666499674320221,0.0055215316824615
1782969686285284900,2.783284912109375,0.01221698522567749,0.014940866269171238,-0.002432531211525202
1782969686295210500,2.79321044921875,0.013007411733269691,0.01774384267628193,-0.007876831106841564
1782969686305136600,2.80313671875,0.014781609177589417,0.013883591629564762,-0.010441189631819725
1782969686315063800,2.813063720703125,0.013191435486078262,0.011266768909990788,-0.013830328360199928
1782969686324989400,2.822989501953125,0.014735003933310509,0.002258626976981759,-0.01751188188791275
1782969686334915600,2.83291552734375,0.008048338815569878,-0.0007502124644815922,-0.01660427637398243
1782969686344842800,2.8428427734375,0.00598572101444006,0.004868258256465197,-0.006877879612147808
1782969686354768600,2.8527685546875,0.0024559672456234694,0.00833675917237997,0.0027885958552360535
1782969686364694500,2.862694580078125,-0.000794420950114727,0.011288607493042946,0.007530088070780039
1782969686374620700,2.87262060546875,-0.004203266929835081,0.014483868144452572,-0.0006540723843500018
1782969686384547600,2.882547607421875,-0.006584665738046169,0.01690494827926159,-0.002915096003562212
1782969686394473500,2.892473388671875,-0.012801814824342728,0.014228736981749535,-0.007906924933195114
1782969686404399600,2.902399658203125,-0.0036759611684828997,0.011920841410756111,-0.007224090863019228
1782969686414326800,2.912326904296875,-0.0015531554818153381,0.002763828495517373,-0.008428905159235
1782969686424252700,2.922252685546875,-0.00401524780318141,0.005745503585785627,-0.0028075044974684715
1782969686434178600,2.932178466796875,-0.011174890212714672,0.0034011229872703552,0.0059774648398160934
1782969686444105700,2.942105712890625,-0.02340785413980484,0.007809187285602093,0.010820156894624233
1782969686454031600,2.952031494140625,-0.030549120157957077,0.013804761692881584,0.010728810913860798
1782969686463957500,2.96195751953125,-0.030891336500644684,0.008071508258581161,0.0041007352992892265
1782969686473883600,2.971883544921875,-0.023905865848064423,0.001332912128418684,-0.008464325219392776
1782969686483810600,2.981810546875,-0.0083673857152462,-0.009001484140753746,-0.008954612538218498
1782969686493736700,2.99173681640625,0.0015723302494734526,-0.0054786549881100655,0.005045358557254076
1782969686503662600,3.00166259765625,0.00532578956335783,-0.0009616674506105483,0.021375596523284912
1782969686513589500,3.011589599609375,0.010861702263355255,0.00017603494052309543,0.03731434792280197
1782969686523515600,3.021515625,0.013362144120037556,0.004033357370644808,0.04207341745495796
1782969686533441500,3.031441650390625,0.01127955224364996,0.0017172062071040273,0.040759678930044174
1782969686543367700,3.04136767578125,0.006958839949220419,0.005785717628896236,0.03747999668121338
1782969686553294600,3.051294677734375,0.0008072041091509163,-0.0017483652336522937,0.031072964891791344
1782969686563220700,3.061220703125,0.0019302591681480408,-0.005045891273766756,0.024396952241659164
1782969686573146600,3.071146728515625,-0.0003528688393998891,-0.010494719259440899,0.015569105744361877
1782969686583073500,3.081073486328125,-0.0013345100451260805,-0.013116068206727505,0.012367453426122665
1782969686592999700,3.090999755859375,-0.003572896821424365,-0.008465656079351902,0.005255215801298618
1782969686602925600,3.100925537109375,-0.0004247741890139878,-0.0073322150856256485,0.009763681329786777
1782969686612852500,3.1108525390625,0.0026940538082271814,-0.012207397259771824,0.013082512654364109
1782969686622778600,3.120778564453125,-0.005604089703410864,-0.01509852521121502,0.018090054392814636
1782969686632704800,3.130704833984375,-0.012268650345504284,-0.01606525294482708,0.024334633722901344
1782969686642630700,3.140630615234375,-0.01962057314813137,0.005182245280593634,0.03509673476219177
1782969686652557600,3.1505576171875,-0.033734261989593506,-0.012210327200591564,0.06311638653278351
1782969686662483700,3.160483642578125,-0.04725752770900726,0.0027659591287374496,0.08776633441448212
1782969686672409600,3.17040966796875,-0.050158776342868805,0.009617207571864128,0.10719649493694305
1782969686682336500,3.18033642578125,-0.05374498665332794,0.02635410986840725,0.12803013622760773
1782969686692262700,3.1902626953125,-0.052328452467918396,0.037584658712148666,0.13571788370609283
1782969686702188800,3.200188720703125,-0.049430664628744125,0.020952686667442322,0.1316765397787094
1782969686712114700,3.21011474609375,-0.043958403170108795,0.02209518291056156,0.10502069443464279
1782969686722041600,3.22004150390625,-0.029823942109942436,0.013295565731823444,0.0723988339304924
1782969686731967700,3.2299677734375,-0.01715475134551525,-0.02219318598508835,0.06412892043590546
1782969686741893600,3.2398935546875,-0.005585447885096073,-0.03388473019003868,0.05700789391994476
1782969686751820500,3.249820556640625,-0.005821936298161745,-0.022046713158488274,0.04899577051401138
1782969686761746700,3.25974658203125,-0.01495471503585577,-0.013114203698933125,0.043718185275793076
1782969686771672800,3.2696728515625,-0.02592773735523224,0.004709267523139715,0.03355422988533974
1782969686781599700,3.279599853515625,-0.02701963298022747,0.007752195466309786,0.013950436376035213
1782969686791525600,3.289525634765625,-0.020984644070267677,0.0024517059791833162,0.00321869645267725
1782969686801451800,3.29945166015625,-0.011064369231462479,0.0009350358741357923,-0.0018405106384307146
1782969686811377700,3.309377685546875,-0.003126551164314151,0.005813680589199066,0.006258694920688868
1782969686821304600,3.3193046875,0.0036732980515807867,0.017707090824842453,0.011562380008399487
1782969686831230700,3.329230712890625,0.012223110534250736,0.025113875046372414,0.014897190034389496
1782969686841156600,3.339156494140625,0.023625435307621956,0.029381059110164642,0.00398701848462224
1782969686851083800,3.349083740234375,0.031323034316301346,0.022248048335313797,-0.01101403497159481
1782969686861009700,3.359009765625,0.029692115262150764,0.012054000049829483,-0.02509363554418087
1782969686870935600,3.368935546875,0.01630786620080471,0.009357549250125885,-0.034155573695898056
1782969686880861700,3.37886181640625,0.0024833977222442627,0.008358864113688469,-0.03568156436085701
1782969686890788600,3.38878857421875,-0.006088519003242254,0.01167183555662632,-0.023241406306624413
1782969686900714800,3.39871484375,-0.0033752904273569584,0.013621269725263119,-0.009303220547735691
1782969686910640600,3.408640625,-0.0004135889175813645,0.011962653137743473,0.003976099658757448
1782969686920567800,3.41856787109375,-0.007303186692297459,-0.0009843043517321348,0.012207929976284504
1782969686930493700,3.42849365234375,-0.01570412889122963,0.002242914168164134,0.025478994473814964
1782969686940419600,3.438419677734375,-0.02159344218671322,-0.000029294771593413316,0.02991129271686077
1782969686950346800,3.4483466796875,-0.017183514311909676,0.0032024511601775885,0.02918744646012783
1782969686960272600,3.458272705078125,-0.004225904121994972,0.0019371833186596632,0.022214224562048912
1782969686970198500,3.468198486328125,0.007567904889583588,-0.0022916500456631184,0.014544321224093437
1782969686980124700,3.478124755859375,0.015138738788664341,0.0005645901546813548,0.0005645901546813548
1782969686990051800,3.4880517578125,0.010543454438447952,0.0016085492679849267,-0.006944192573428154
1782969686999977500,3.4979775390625,0.005555087700486183,0.005909021943807602,-0.011095527559518814
1782969687009903600,3.507903564453125,0.0004010720585938543,0.0060152821242809296,-0.00998978316783905
1782969687019830800,3.517830810546875,-0.0046213832683861256,0.0051681301556527615,-0.00987153872847557
1782969687029756700,3.527756591796875,-0.003138535423204303,0.002862365450710058,-0.011797803454101086
1782969687039682600,3.5376826171875,0.0027348001021891832,0.0005960154230706394,-0.015569904819130898
1782969687049609700,3.547609619140625,-0.0032591766212135553,-0.004731904715299606,-0.013894510455429554
1782969687059535600,3.55753564453125,-0.005939381662756205,0.0013920343481004238,-0.010574080981314182
1782969687069461500,3.56746142578125,-0.007122624199837446,0.003765709698200226,0.01119193434715271
1782969687079387600,3.5773876953125,-0.012646819464862347,0.00038482676609419286,0.025318672880530357
1782969687089315000,3.587315185546875,-0.010754909366369247,0.002403502818197012,0.02851659618318081
1782969687099241000,3.597240966796875,-0.008657936938107014,0.002662894781678915,0.018248245120048523
1782969687109167000,3.6071669921875,-0.005822735372930765,-0.0010985539993271232,0.006954312324523926
1782969687119094000,3.617093994140625,0.00026764770154841244,-0.002514290390536189,-0.013651896268129349
1782969687129020000,3.62702001953125,0.0027118970174342394,-0.006819556467235088,-0.022788137197494507
1782969687138946000,3.636946044921875,0.0011504855938255787,-0.005546831991523504,-0.023618243634700775
1782969687148872200,3.6468720703125,-0.012858008034527302,-0.0016626114957034588,-0.022650184109807014
1782969687158799000,3.656799072265625,-0.022527946159243584,0.004101534374058247,-0.01930978149175644
1782969687168725000,3.66672509765625,-0.026194851845502853,0.010356234386563301,-0.013164005242288113
1782969687178651100,3.676651123046875,-0.02966069057583809,0.008803877979516983,-0.01458959560841322
1782969687188578000,3.686578125,-0.02231462672352791,0.004025101661682129,-0.021391041576862335
1782969687198504000,3.69650390625,-0.009498696774244308,-0.002234658459201455,-0.025108283385634422
1782969687208430000,3.70643017578125,0.0010745854815468192,-0.004178499802947044,-0.03303331881761551
1782969687218357000,3.71635693359375,0.0073567163199186325,-0.012547750025987625,-0.029217272996902466
1782969687228283100,3.726283203125,0.013423929922282696,-0.010193781927227974,-0.013656423427164555
1782969687238209000,3.736208984375,0.013376525603234768,-0.0004647216119337827,0.007285876199603081
1782969687248135200,3.74613525390625,0.007358846720308065,0.011877964250743389,0.0278561320155859
1782969687258062000,3.75606201171875,0.009929330088198185,0.019271166995167732,0.03761661797761917
1782969687267988000,3.765988037109375,0.012662798166275024,0.0158266332000494,0.04267742112278938
1782969687277914000,3.7759140625,0.019302058964967728,0.009700298309326172,0.038369227200746536
1782969687287841000,3.785841064453125,0.018124142661690712,0.0046850331127643585,0.028493426740169525
1782969687297767200,3.79576708984375,0.016651947051286697,-0.0012961605098098516,0.018613630905747414
1782969687307693000,3.805693115234375,-0.0006311691831797361,-0.004110589157789946,0.012762933038175106
1782969687317619200,3.815619140625,-0.021280521526932716,0.003952397499233484,0.008645686320960522
1782969687327546000,3.825546142578125,-0.029642580077052116,0.005988916382193565,0.012864133343100548
1782969687337472000,3.835471923828125,-0.03257099166512489,0.006986004300415516,0.0054855793714523315
1782969687347398100,3.845398193359375,-0.020591560751199722,0.002674346324056387,0.0032519858796149492
1782969687357325000,3.855324951171875,-0.012619122862815857,-0.0035752938129007816,-0.001591771375387907
1782969687367251200,3.865251220703125,-0.0006601976347155869,-0.005515406373888254,-0.0054943677969276905
1782969687377177000,3.875177001953125,0.002995523624122143,-0.004513259045779705,-0.009811085648834705
1782969687387103000,3.88510302734375,0.005959089379757643,-0.008020109497010708,0.0041425470262765884
1782969687397030100,3.895030029296875,0.0026937874499708414,0.002156095113605261,0.019049324095249176
1782969687406956000,3.9049560546875,-0.002516953507438302,0.0026943201664835215,0.028391161933541298
1782969687416882000,3.9148818359375,-0.005841111298650503,0.005623264703899622,0.03133741766214371
1782969687426809000,3.92480908203125,-0.006448045372962952,0.0109842075034976,0.02707955427467823
1782969687436735200,3.9347353515625,-0.003724430687725544,0.013261476531624794,0.020731642842292786
1782969687446661000,3.9446611328125,0.0011400992516428232,0.0103154880926013,0.008116782642900944
1782969687456588000,3.954588134765625,0.0054094125516712666,0.005862948950380087,-0.008760734461247921
1782969687466514200,3.96451416015625,0.004169178660959005,0.00034594463068060577,-0.01901044324040413
1782969687476440000,3.974440185546875,0.001966478070244193,0.0009081379394046962,-0.02622840739786625
1782969687486366000,3.984365966796875,-0.00038722361205145717,-0.007570834364742041,-0.02628726325929165
1782969687496293000,3.994293212890625,-0.004575310740619898,-0.012737100012600422,-0.02214844524860382
1782969687506217000,4.004217041015625,-0.008008924312889576,-0.012693158350884914,-0.004024302586913109
1782969687516143000,4.01414306640625,-0.009411078877747059,-0.013139504007995129,0.02057797834277153
1782969687526069200,4.0240693359375,-0.007181480061262846,-0.012819391675293446,0.04763969033956528
1782969687535996000,4.033995849609375,-0.00555135915055871,-0.001502555445767939,0.08027193695306778
1782969687545922000,4.043922119140625,-0.0013171994360163808,0.007670170161873102,0.09647461026906967
1782969687555848200,4.05384814453125,0.00287434970960021,0.018514296039938927,0.09863097220659256
1782969687565774000,4.063774169921875,0.010508833453059196,0.01495418231934309,0.0770452469587326
1782969687575701000,4.073700927734375,0.012619654648005962,0.006705040577799082,0.05108156055212021
1782969687585627100,4.083627197265625,0.012013785541057587,-0.00063356600003317,0.020675983279943466
1782969687595553300,4.09355322265625,0.004026699345558882,-0.0024200144689530134,-0.005372661165893078
1782969687605480000,4.10347998046875,-0.0057015614584088326,-0.008070443756878376,-0.02364514209330082
1782969687615406000,4.113406005859375,-0.016745157539844513,-0.00660677021369338,-0.03802088648080826
1782969687625332200,4.123332275390625,-0.013601829297840595,-0.004671717062592506,-0.044736843556165695
1782969687635257900,4.1332578125,-0.006030195392668247,-0.003379817819222808,-0.028389031067490578
1782969687645185000,4.14318505859375,-0.003922303672879934,0.00011451592581579462,-0.017724402248859406
1782969687655111200,4.153111083984375,-0.007820905186235905,0.007696801796555519,-0.013139504007995129
1782969687665037000,4.163037109375,-0.008450742810964584,0.015081481076776981,-0.0009622001089155674
1782969687674964000,4.1729638671875,-0.014642326161265373,0.014581339433789253,0.009048355743288994
1782969687684890000,4.18289013671875,-0.015024223364889622,0.01696380414068699,0.02153671719133854
1782969687694816000,4.19281591796875,-0.01161431148648262,0.013858557678759098,0.024622255936264992
1782969687704743200,4.2027431640625,-0.008771653287112713,0.00723367789760232,0.017071926966309547
1782969687714669000,4.2126689453125,0.0014455638593062758,-0.004916994366794825,0.010056895203888416
1782969687724595000,4.222594970703125,0.002782470779493451,-0.0020964404102414846,0.006623015273362398
1782969687734521000,4.23252099609375,0.0017662084428593516,-0.004286091309040785,0.0016607472207397223
1782969687744448000,4.242447998046875,-0.0025009745731949806,-0.0023398532066494226,-0.004108192399144173
1782969687754374100,4.2523740234375,-0.003977430984377861,-0.0046757119707763195,-0.005450425669550896
1782969687764300000,4.262300048828125,-0.008898420259356499,-0.002028796123340726,-0.011202853173017502
1782969687774227200,4.272227294921875,-0.011166101321578026,0.0005834985640831292,-0.014369884505867958
1782969687784153000,4.282153076171875,-0.017003484070301056,0.0018700717482715845,-0.022939404472708702
1782969687794079000,4.292078857421875,-0.018186194822192192,0.0040914141573011875,-0.028744829818606377
1782969687804005000,4.302005126953125,-0.022719958797097206,0.007574030198156834,-0.024807877838611603
1782969687813932300,4.311932373046875,-0.02714134007692337,-0.00024447820032946765,-0.02009115368127823
1782969687823858000,4.32185791015625,-0.03765683248639107,0.00509942090138793,-0.013003949075937271
1782969687833784000,4.3317841796875,-0.04189684987068176,0.003562244353815913,-0.0012426309986039996
1782969687843711200,4.341711181640625,-0.0505843460559845,0.004659732803702354,0.012034292332828045
1782969687853636900,4.351636962890625,-0.05433860421180725,0.009691243059933186,0.019297264516353607
1782969687863563000,4.36156298828125,-0.05383606627583504,0.0035444011446088552,0.02329200692474842
1782969687873490200,4.371490234375,-0.044195424765348434,0.0032346753869205713,0.015734488144516945
1782969687883416000,4.381416015625,-0.028013525530695915,-0.0018466358305886388,0.008506935089826584
1782969687893342000,4.391342041015625,-0.016223976388573647,-0.0038133803755044937,0.0028517129831016064
1782969687903268000,4.40126806640625,-0.011093663983047009,-0.008764197118580341,-0.002853044541552663
1782969687913195000,4.411195068359375,-0.010013485327363014,-0.008522382006049156,-0.008701345883309841
1782969687923121000,4.421120849609375,-0.01600213535130024,-0.007479754276573658,-0.010453972034156322
1782969687933047000,4.431047119140625,-0.019288476556539536,-0.004337490536272526,-0.011582620441913605
1782969687942974200,4.44097412109375,-0.022763635963201523,0.0027244137600064278,-0.01446788851171732
1782969687952900000,4.450900146484375,-0.018073808401823044,0.00040187101694755256,-0.017242636531591415
1782969687962826000,4.460825927734375,-0.010995925404131413,-0.005318865180015564,-0.018850119784474373
1782969687972752100,4.470752197265625,-0.002383529208600521,-0.004400074947625399,-0.007935420610010624
1782969687982679000,4.480678955078125,0.0010998855577781796,-0.007166566327214241,0.004788629710674286
1782969687992605000,4.49060498046875,0.005048554390668869,0.001883387565612793,0.020869063213467598
1782969688002531000,4.500531005859375,0.00520727876573801,0.006563626695424318,0.028331240639090538
1782969688012458000,4.5104580078125,-0.001407480682246387,0.010174606926739216,0.03501177951693535
1782969688022384000,4.520384033203125,-0.0011387676931917667,0.007893077097833157,0.03483281657099724
1782969688032310000,4.53031005859375,0.0019257317762821913,0.007160707376897335,0.026273949071764946
1782969688042237000,4.54023681640625,0.006567355245351791,0.0021457087714225054,0.01840563863515854
1782969688052163000,4.5501630859375,0.010460630059242249,0.003192863892763853,0.012294483371078968
1782969688062089000,4.5600888671875,0.017585651949048042,0.003282079705968499,0.01272804569453001
1782969688072015000,4.57001513671875,0.011411645449697971,0.005676794331520796,0.011365838348865509
1782969688081942000,4.57994189453125,0.0067662931978702545,0.005901831202208996,0.01125158928334713
1782969688091868200,4.5898681640625,0.0017622136510908604,0.005001949146389961,0.002633067313581705
1782969688101793800,4.599793701171875,-0.0010791128734126687,0.006395847536623478,-0.010221478529274464
1782969688111720700,4.609720703125,-0.004758269991725683,0.0007877630414441228,-0.01769670471549034
1782969688121646800,4.619646728515625,0.0035089810844510794,0.0024074974935501814,-0.02425980009138584
1782969688131572700,4.62957275390625,0.00384374032728374,-0.006065881811082363,-0.02263127639889717
1782969688141499000,4.639498779296875,0.00523737259209156,-0.00458596320822835,-0.018790198490023613
1782969688151425800,4.64942578125,0.0026812704745680094,-0.001389371114782989,-0.005310076754540205
1782969688161352000,4.65935205078125,-0.003181145992130041,-0.015490276739001274,0.020960409194231033
1782969688171277800,4.66927783203125,-0.012348811142146587,0.015808790922164917,0.046543799340724945
1782969688181204700,4.679204833984375,-0.026628414168953896,0.00902705080807209,0.053459763526916504
1782969688191131000,4.689130859375,-0.029226861894130707,0.015595737844705582,0.04898644983768463
1782969688201056800,4.699056884765625,-0.030468959361314774,0.008876582607626915,0.028924591839313507
1782969688210983700,4.708983642578125,-0.024923725053668022,0.005878395400941372,0.012378904968500137
1782969688220909800,4.718909912109375,-0.012133894488215446,-0.001957423286512494,-0.008044078014791012
1782969688230836000,4.7288359375,-0.001728924224153161,-0.01110618095844984,-0.025720810517668724
1782969688240761900,4.738761962890625,0.0023222763556987047,-0.01606525294482708,-0.030469492077827454
1782969688250688800,4.748688720703125,-0.0035574506036937237,-0.01557975821197033,-0.024991368874907494
1782969688260615000,4.758614990234375,-0.012147476896643639,-0.005268797744065523,-0.013362410478293896
1782969688270540800,4.768540771484375,-0.028739502653479576,0.001356347929686308,0.002889529801905155
1782969688280467700,4.7784677734375,-0.02816399373114109,0.0070363376289606094,0.0027366643771529198
1782969688290393900,4.788393798828125,-0.036083437502384186,0.009366869926452637,0.0026221484877169132
1782969688300320000,4.798320068359375,-0.036318060010671616,0.003783819265663624,0.009722402319312096
1782969688310245600,4.80824560546875,-0.03322959318757057,0.022765500470995903,0.02467738278210163
1782969688320172800,4.8181728515625,-0.04308488592505455,0.010067547671496868,0.030841534957289696
1782969688330099000,4.828098876953125,-0.03331880643963814,0.017596570774912834,0.024692296981811523
1782969688340024800,4.83802490234375,-0.02327842451632023,0.013080115430057049,0.016637299209833145
1782969688349951700,4.84795166015625,-0.007598265074193478,0.009519202634692192,0.010171410627663136
1782969688359878000,4.8578779296875,0.0076027922332286835,0.00347462622448802,-0.0021411816123872995
1782969688369804000,4.867803955078125,0.01654621958732605,0.005693838465958834,-0.012281700037419796
1782969688379730700,4.877730712890625,0.028655080124735832,-0.00079735042527318,-0.01860084757208824
1782969688389656800,4.88765673828125,0.03665308654308319,-0.004639759194105864,-0.01570998691022396
1782969688399583000,4.8975830078125,0.038602519780397415,-0.009680057875812054,-0.003653058083727956
1782969688409508600,4.907508544921875,0.024386832490563393,0.0009416937828063965,0.017524398863315582
1782969688419435800,4.917435791015625,0.007757788058370352,0.014480671845376492,0.03093261644244194
1782969688429362000,4.92736181640625,-0.008868859149515629,0.021759890019893646,0.034742798656225204
1782969688439287800,4.937287841796875,-0.011543471366167068,0.019597403705120087,0.0255101528018713
1782969688449214700,4.947214599609375,-0.017552895471453667,0.01636006496846676,0.013889716938138008
1782969688459140900,4.957140869140625,-0.018335863947868347,0.011720038950443268,-0.006902380846440792
1782969688469066800,4.967066650390625,-0.01888527348637581,0.008227303624153137,-0.02556528151035309
1782969688478994000,4.976993896484375,-0.014594389125704765,0.007084807381033897,-0.03958842158317566
1782969688488919800,4.986919921875,-0.007280283607542515,0.0073138391599059105,-0.042456913739442825
1782969688498845700,4.996845703125,-0.0049135321751236916,0.0012247877893969417,-0.03633643686771393
1782969688508771800,5.006771728515625,-0.0016564861871302128,-0.001407480682246387,-0.02930622361600399
1782969688518699000,5.016698974609375,-0.0038344194181263447,0.008532768115401268,-0.014782408252358437
1782969688528625000,5.026625,-0.01212750282138586,0.010214820504188538,-0.0017526262672618032
1782969688538550800,5.03655078125,-0.020832577720284462,0.014966432936489582,0.0030834078788757324
1782969688548478000,5.04647802734375,-0.02304220199584961,0.01233389787375927,-0.006730340886861086
1782969688558403800,5.05640380859375,-0.02504143677651882,0.008157528936862946,-0.015127553604543209
1782969688568329700,5.066329833984375,-0.02021552249789238,0.0022365227341651917,-0.02340971864759922
1782969688578256000,5.076255859375,-0.01600240170955658,0.0029941920656710863,-0.025427594780921936
1782969688588183000,5.08618310546875,-0.005348426289856434,-0.0007832356495782733,-0.018215755000710487
1782969688598108700,5.096108642578125,-0.003064499469473958,0.0041643851436674595,-0.0012402341235429049
1782969688608034800,5.106034912109375,-0.00002902845517382957,0.002347576431930065,0.010808172635734081
1782969688617962000,5.1159619140625,-0.008833705447614193,0.00023861923546064645,0.01757633127272129
1782969688627887600,5.1258876953125,-0.012093947269022465,0.0007217166712507606,0.02333701401948929
1782969688637813800,5.135813720703125,-0.008796953596174717,-0.0012207929976284504,0.026764769107103348
1782969688647741000,5.145740966796875,-0.006621151231229305,0.0021976404823362827,0.02387923374772072
1782969688657666800,5.155666748046875,-0.000391218374716118,0.0034551850985735655,0.019169965758919716
1782969688667592700,5.1655927734375,0.014591991901397705,0.005903429351747036,0.010732006281614304
1782969688677518800,5.175518798828125,0.024869397282600403,0.004554271697998047,0.003881823504343629
1782969688687445800,5.18544580078125,0.030587470158934593,0.006981210317462683,-0.0068027786910533905
1782969688697371600,5.19537158203125,0.0307557824999094,-0.0006058691651560366,-0.009955162182450294
1782969688707297800,5.2052978515625,0.023373499512672424,-0.002710032742470503,-0.009434514679014683
1782969688717225000,5.215224853515625,0.015896141529083252,0.000015712650565546937,-0.012412994168698788
1782969688727150800,5.22515087890625,0.005762547720223665,0.00663553224876523,-0.01001961063593626
1782969688737076700,5.23507666015625,-0.003299123840406537,0.0037587855476886034,-0.008473645895719528
1782969688747003000,5.2450029296875,-0.0012484899489209056,0.005879460833966732,-0.010912834666669369
1782969688756929800,5.2549296875,0.001386441639624536,0.005006209947168827,-0.009877131320536137
1782969688766855700,5.264855712890625,0.002442118711769581,0.004320712294429541,-0.011785552836954594
1782969688776781800,5.27478173828125,0.0017590179340913892,0.005940180737525225,-0.005981992464512587
1782969688786708700,5.284708740234375,0.007667507044970989,0.016929714009165764,0.0022453111596405506
1782969688796635000,5.294634765625,0.0036304211243987083,0.012455071322619915,0.015132613480091095
1782969688806560800,5.304560791015625,0.0041033984161913395,0.014659636653959751,0.009953830391168594
1782969688816487700,5.31448779296875,0.0018690064316615462,0.0054906392470002174,0.0032631712965667248
1782969688826413800,5.324413818359375,0.004581436049193144,0.0036184368655085564,0.006687730085104704
1782969688836339700,5.334339599609375,0.0010104032699018717,0.003756654914468527,0.004991828929632902
1782969688846265900,5.344265869140625,0.003824033075943589,0.004018177278339863,0.0008287757518701255
1782969688856192800,5.35419287109375,0.008095743134617805,0.003028546692803502,-0.003798999357968569
1782969688866119000,5.364118896484375,0.010705907829105854,0.001457814360037446,-0.009519468992948532
1782969688876044800,5.374044921875,0.009639844298362732,0.0008277104352600873,-0.017582189291715622
1782969688885971700,5.3839716796875,0.004282895475625992,-0.00009480853623244911,-0.01961231790482998
1782969688895897900,5.39389794921875,-0.004732703324407339,0.001794171635992825,-0.023752201348543167
1782969688905823700,5.40382373046875,-0.009064335376024246,-0.00002210423735959921,-0.025463281199336052
1782969688915750000,5.41375,-0.010040650144219398,-0.0014586133183911443,-0.021800637245178223
1782969688925676800,5.4236767578125,-0.011913384310901165,-0.0006173207075335085,-0.0142356613650918
1782969688935603000,5.43360302734375,-0.012440424412488937,0.0020418455824255943,-0.0032264196779578924
1782969688945528800,5.44352880859375,-0.010577277280390263,0.007788148242980242,0.002124403603374958
1782969688955455700,5.453455810546875,-0.010118413716554642,0.007835818454623222,0.004676776938140392
1782969688965382000,5.4633818359375,-0.011606322601437569,0.006326339207589626,-0.0032115059439092875
1782969688975307800,5.473307861328125,-0.00788775086402893,0.006732737645506859,-0.011744007468223572
1782969688985234700,5.483234619140625,-0.003997404593974352,0.007904794998466969,-0.025840118527412415
1782969688995160800,5.493160888671875,-0.0024410535115748644,0.007681355345994234,-0.031745679676532745
1782969689005087000,5.5030869140625,0.001073786523193121,0.0037204360123723745,-0.03197338059544563
1782969689015012900,5.513012939453125,0.003864246653392911,0.0020881847012788057,-0.03021036647260189
1782969689024939800,5.522939697265625,0.00035366779775358737,0.006524744443595409,-0.018395252525806427
1782969689034866000,5.532865966796875,-0.009194031357765198,0.0035169704351574183,-0.017349695786833763
1782969689044791800,5.542791748046875,-0.019878633320331573,0.00022796659322921187,-0.016686035320162773
1782969689054718700,5.55271875,-0.03248364105820656,0.004820588044822216,-0.019538281485438347
1782969689064644900,5.562644775390625,-0.032875124365091324,-0.005911418702453375,-0.02376232109963894
1782969689074571000,5.572571044921875,-0.024625718593597412,-0.0030634342692792416,-0.01829591579735279
1782969689084496600,5.58249658203125,-0.01648150570690632,-0.003049852093681693,-0.004436826333403587
1782969689094423800,5.592423828125,-0.008009723387658596,0.011577825993299484,0.0038535939529538155
1782969689104350000,5.602349853515625,-0.0015717976493760943,0.015664979815483093,0.0049026133492589
1782969689114275600,5.612275634765625,0.0020756677258759737,0.015985358506441116,-0.00436172541230917
1782969689124202800,5.62220263671875,0.008685899898409843,0.009801764041185379,-0.016380570828914642
1782969689134129000,5.63212890625,0.013492106460034847,-0.0017451694002375007,-0.028727518394589424
1782969689144054800,5.6420546875,0.012925651855766773,-0.008828645572066307,-0.03373505920171738
1782969689153982000,5.65198193359375,0.007752728182822466,-0.012240953743457794,-0.027182085439562798
1782969689163907800,5.661907958984375,0.0018977685831487179,-0.006209426559507847,-0.007891478948295116
1782969689173833700,5.671833740234375,-0.0023552996572107077,0.002113218419253826,0.00902545265853405
1782969689183760000,5.681759765625,-0.004689560271799564,0.009791910648345947,0.02014947682619095
1782969689193686800,5.691686767578125,-0.007643804885447025,0.014098241925239563,0.0156093193218112
1782969689203613000,5.701613037109375,-0.0024825986474752426,0.010117082856595516,0.002508697798475623
1782969689213538800,5.711538818359375,0.0007131945458240807,0.0075785573571920395,-0.016028767451643944
1782969689223466000,5.721466064453125,0.0018303906545042992,0.0021321268286556005,-0.03357367217540741
1782969689233391900,5.731391845703125,0.007774832658469677,-0.0022801985032856464,-0.04255970939993858
1782969689243317800,5.74131787109375,0.007509848102927208,-0.0036336169578135014,-0.041973549872636795
1782969689253244000,5.751243896484375,0.0017976337112486362,-0.0005187837523408234,-0.03213316947221756
1782969689263170800,5.7611708984375,-0.004508731886744499,0.002424541860818863,-0.02028556354343891
1782969689273096700,5.7710966796875,-0.01426202617585659,0.008095210418105125,-0.013843909837305546
1782969689283022800,5.78102294921875,-0.0173180028796196,0.011007909663021564,-0.0062333946116268635
1782969689292950000,5.790949951171875,-0.009128251112997532,0.005624596029520035,-0.004258128348737955
1782969689302875600,5.800875732421875,-0.0014383733505383134,-0.0010697918478399515,-0.004125502891838551
1782969689312801800,5.8108017578125,0.009297627955675125,-0.004024835303425789,-0.004259193316102028
1782969689322728000,5.82072802734375,0.015328356064856052,-0.0065079666674137115,0.002662095706909895
1782969689332654600,5.830654541015625,0.012663064524531364,-0.0022210762836039066,0.008727711625397205
1782969689342580700,5.840580810546875,0.006145243998616934,0.004697283264249563,0.00996288564056158
1782969689352507000,5.8505068359375,-0.0020218719728291035,0.008490690030157566,0.008709602057933807
1782969689362433800,5.860433837890625,-0.015091068111360073,0.010525344870984554,-0.005181446205824614
1782969689372359700,5.870359619140625,-0.013876933604478836,0.0025126924738287926,-0.018910840153694153
1782969689382285800,5.880285888671875,-0.013705425895750523,-0.0015667376574128866,-0.03526131808757782
1782969689392213000,5.890212890625,-0.008954079821705818,-0.009665144607424736,-0.03982757404446602
1782969689402138600,5.900138671875,-0.002799514913931489,-0.008817460387945175,-0.03868880495429039
1782969689412064800,5.910064697265625,0.006773483939468861,-0.010557303205132484,-0.024235831573605537
1782969689421991000,5.919990966796875,0.007485879585146904,-0.005150287412106991,-0.009153550490736961
1782969689431917800,5.929917724609375,0.011107245460152626,-0.0011321097845211625,0.012191152200102806
1782969689441843700,5.93984375,0.002424009144306183,0.0012604740913957357,0.026747191324830055
1782969689451769900,5.949769775390625,-0.0074030552059412,0.0029798108153045177,0.041001494973897934
1782969689461696800,5.95969677734375,-0.013115002773702145,0.004854942671954632,0.04818856716156006
1782969689471622700,5.96962255859375,-0.014828480780124664,0.00475374236702919,0.043167177587747574
1782969689481548800,5.979548828125,-0.01841522566974163,0.006165750324726105,0.026033198460936546
1782969689491475000,5.989474853515625,-0.010412161238491535,0.006980677600950003,0.004516721237450838
1782969689501401900,5.99940185546875,-0.001671666163019836,0.002697515767067671,-0.015929430723190308
1782969689511327700,6.00932763671875,0.008496016263961792,0.003038400551304221,-0.03280401974916458
1782969689521254000,6.01925390625,0.014673218131065369,0.00006178533658385277,-0.04253334552049637
1782969689531180800,6.029180908203125,0.014601313509047031,-0.007552458439022303,-0.04393363371491432
1782969689541106700,6.039106689453125,0.01239381916821003,-0.0017233315156772733,-0.03623044118285179
1782969689551032800,6.04903271484375,0.009873935952782631,-0.002242914168164134,-0.018969696015119553
1782969689560959000,6.058958984375,0.006198240909725428,0.002639725338667631,0.0005608617211692035
1782969689570886000,6.068885986328125,-0.0028360001742839813,0.005913016386330128,0.017417872324585915
1782969689580811800,6.078811767578125,-0.004985969979315996,0.007852330803871155,0.027423368766903877
1782969689590738000,6.088738037109375,-0.004454669542610645,0.006766825914382935,0.02793123386800289
1782969689600664800,6.098664794921875,0.0005102616851218045,0.011472364887595177,0.024829449132084846
1782969689610590700,6.1085908203125,-0.001927862293086946,0.009376989677548409,0.008507734164595604
1782969689620516900,6.118516845703125,0.0017566210590302944,0.00965502392500639,-0.0031380027066916227
1782969689630443800,6.12844384765625,0.004707669839262962,0.010067547671496868,-0.021815016865730286
1782969689640370000,6.138369873046875,0.009290437214076519,0.008465922437608242,-0.03869679570198059
1782969689650295800,6.1482958984375,0.01011069118976593,0.006217149551957846,-0.04680132865905762
1782969689660221700,6.1582216796875,0.01158528309315443,0.001910019083879888,-0.0463845431804657
1782969689670148900,6.16814892578125,0.006479204632341862,-0.004544151946902275,-0.03876390680670738
1782969689680075000,6.178074951171875,0.00020133497309871018,0.0009981527691707015,-0.02665424719452858
1782969689690001000,6.1880009765625,-0.01004783995449543,0.005772401578724384,-0.011508051306009293
1782969689699927800,6.197927734375,-0.016769658774137497,0.008143680170178413,0.001740109408274293
1782969689709854000,6.20785400390625,-0.02299506403505802,0.009664878249168396,0.010721620172262192
1782969689719779800,6.21777978515625,-0.026029735803604126,0.006012352649122477,0.01019671093672514
1782969689729705700,6.227705810546875,-0.01798805594444275,0.001805623178370297,0.005764412228018045
1782969689739633000,6.2376328125,-0.008468053303658962,0.002002697205170989,0.005831523798406124
1782969689749559000,6.24755908203125,0.0006032059900462627,0.0003608583356253803,-0.000571248063351959
1782969689759484700,6.257484619140625,0.005304484162479639,0.004338821861892939,-0.003069559345021844
1782969689769411800,6.267411865234375,0.0024253407027572393,0.002252501668408513,-0.006129798013716936
1782969689779338000,6.277337890625,0.00042770366417244077,0.0024956483393907547,-0.014808506704866886
1782969689789263600,6.287263671875,-0.005201419815421104,-0.0013859090395271778,-0.025404958054423332
1782969689799190800,6.297190673828125,-0.009428123012185097,-0.0037526602391153574,-0.03127589821815491
1782969689809117000,6.307116943359375,-0.00814927276223898,0.000755805114749819,-0.02533172257244587
1782969689819042800,6.317042724609375,-0.0057127466425299644,0.0018956380663439631,-0.01847541332244873
1782969689828968700,6.32696875,0.0049311090260744095,0.006951915565878153,-0.011401524767279625
1782969689838895900,6.336895751953125,0.007095992565155029,0.007015565410256386,-0.006975351367145777
1782969689848821800,6.34682177734375,0.011066499166190624,0.0060150157660245895,-0.009257680736482143
1782969689858747600,6.35674755859375,0.0080925477668643,0.0009406284661963582,-0.0145874647423625
1782969689868674800,6.3666748046875,0.003459712490439415,-0.002522279741242528,-0.027408987283706665
1782969689878601000,6.37660107421875,-0.004649080336093903,-0.005124454386532307,-0.03435397893190384
1782969689888526800,6.38652685546875,-0.010179134085774422,-0.0032650355715304613,-0.03357740119099617
1782969689898452700,6.39645263671875,-0.01943415217101574,0.004458664450794458,-0.027003388851881027
1782969689908380000,6.4063798828125,-0.021975073963403702,0.002909237053245306,-0.014640994369983673
1782969689918305800,6.416305908203125,-0.012982377782464027,0.02261929214000702,-0.0032780850306153297
1782969689928231700,6.426231689453125,-0.01944320648908615,0.001287904684431851,0.0025632926262915134
1782969689938158800,6.436158935546875,-0.008700813166797161,0.00666349520906806,0.0036218990571796894
1782969689948084700,6.446084716796875,-0.0005989448982290924,0.007707454264163971,-0.002939597237855196
1782969689958011000,6.456010986328125,-0.0002897519152611494,0.011974371038377285,-0.008845956064760685
1782969689967936800,6.465936767578125,0.0025102957151830196,-0.002674346324056387,-0.019236013293266296
1782969689977863700,6.47586376953125,-0.0007454187725670636,-0.005292233545333147,-0.036371055990457535
1782969689987789800,6.485789794921875,-0.006370547693222761,0.0005390237784013152,-0.04315652698278427
1782969689997715700,6.4957158203125,-0.027039339765906334,0.0016109461430460215,-0.038658980280160904
1782969690007642600,6.505642578125,-0.03196246176958084,0.0006559365428984165,-0.021951904520392418
1782969690017568800,6.51556884765625,-0.038174815475940704,0.004751345608383417,-0.014927550218999386
1782969690027495000,6.525494873046875,-0.04108858108520508,0.006074137985706329,-0.006746585946530104
1782969690037421800,6.535421875,-0.03485412150621414,-0.006863498594611883,-0.005916212219744921
1782969690047347700,6.54534765625,-0.024390561506152153,-0.01506816502660513,-0.0014647386269643903
1782969690057273900,6.55527392578125,-0.020371584221720695,-0.01763571798801422,0.0024051007349044085
1782969690067199700,6.56519970703125,-0.022652048617601395,-0.023562850430607796,0.009639577940106392
1782969690077126700,6.575126708984375,-0.027960794046521187,-0.016516925767064095,0.025108816102147102
1782969690087052800,6.585052734375,-0.036552153527736664,-0.010301372967660427,0.03500458970665932
1782969690096978400,6.594978515625,-0.038357775658369064,-0.005983057431876659,0.03557876497507095
1782969690106905300,6.6049052734375,-0.03301813825964928,-0.0034591800067573786,0.028428444638848305
1782969690116831500,6.61483154296875,-0.024204937741160393,-0.007454720325767994,0.0041127195581793785
1782969690126757400,6.62475732421875,-0.011129350401461124,-0.01233363151550293,-0.014217818155884743
1782969690136683500,6.63468359375,-0.007472829893231392,-0.016806410625576973,-0.023626232519745827
1782969690146610400,6.6446103515625,-0.014362161047756672,-0.01690414920449257,-0.01986611634492874
1782969690156536300,6.654536376953125,-0.02281397022306919,-0.011165834963321686,-0.010861702263355255
1782969690166462500,6.66446240234375,-0.02533704787492752,-0.0029462550301104784,0.00017097493400797248
1782969690176389400,6.674389404296875,-0.023993482813239098,-0.0013318468118086457,0.011034541763365269
1782969690186315500,6.6843154296875,-0.01691773161292076,0.0008245146600529552,0.022247249260544777
1782969690196241400,6.694241455078125,-0.007237672805786133,0.0064957160502672195,0.026586070656776428
1782969690206168300,6.704168212890625,0.004808870144188404,0.003357979701831937,0.03140639141201973
1782969690216094500,6.714094482421875,0.008303469978272915,-0.00637747161090374,0.02231436036527157
1782969690226020400,6.724020263671875,0.010145844891667366,-0.014908641576766968,0.024059796705842018
1782969690235946500,6.733946533203125,0.00586774293333292,-0.013303554616868496,0.029638053849339485
1782969690245873400,6.743873291015625,-0.007467237301170826,-0.008028365671634674,0.03624482452869415
1782969690255799600,6.753799560546875,-0.018909508362412453,-0.0030517163686454296,0.03653963655233383
1782969690265725400,6.763725341796875,-0.024984711781144142,0.001287904684431851,0.031928107142448425
1782969690275652400,6.77365234375,-0.028268123045563698,0.005084240809082985,0.01919473335146904
1782969690285578500,6.78357861328125,-0.03534147888422012,0.005756688769906759,0.01145851705223322
1782969690295504400,6.79350439453125,-0.03671300783753395,0.004620584659278393,0.005394232925027609
1782969690305430500,6.803430419921875,-0.03326661139726639,0.0030003173742443323,0.0005536712124012411
1782969690315357400,6.813357421875,-0.026925090700387955,0.00430100504308939,-0.003064233111217618
1782969690325283600,6.82328369140625,-0.016530772671103477,0.00891093723475933,-0.0004780374001711607
1782969690335209500,6.83320947265625,0.0008274441352114081,0.011810054071247578,0.009622533805668354
1782969690345136400,6.843136474609375,0.010645453818142414,0.013453757390379906,0.018502045422792435
1782969690355062500,6.8530625,0.01696300506591797,0.017100689932703972,0.021857362240552902
1782969690364988400,6.862988525390625,0.01728151924908161,0.019936423748731613,0.025890186429023743
1782969690374914300,6.872914306640625,0.01161324605345726,0.02177826687693596,0.02352103777229786
1782969690384841500,6.882841552734375,0.006847786251455545,0.0246046781539917,0.017735853791236877
1782969690394767600,6.892767578125,0.007524229120463133,0.03033340536057949,0.006619553081691265
1782969690404693200,6.902693359375,0.009166600182652473,0.031676437705755234,0.0010468886466696858
1782969690414620400,6.912620361328125,0.015585617162287235,0.025953304022550583,-0.010743724182248116
1782969690424546600,6.922546630859375,0.01799018494784832,0.021254688501358032,-0.02532266639173031
1782969690434472400,6.932472412109375,0.01920059323310852,0.01811056025326252,-0.04223507270216942
1782969690444399400,6.9423994140625,0.019597936421632767,0.01786847971379757,-0.041541051119565964
1782969690454325500,6.952325439453125,0.01739656738936901,0.018455706536769867,-0.034391794353723526
1782969690464251400,6.96225146484375,0.015394402667880058,0.021944712847471237,-0.020963072776794434
1782969690474177300,6.97217724609375,0.017463944852352142,0.021506624296307564,-0.009721603244543076
1782969690484104400,6.9821044921875,0.018220016732811928,0.026071814820170403,-0.0006878945278003812
1782969690494030600,6.992030517578125,0.02129250578582287,0.02310558594763279,0.009965282864868641
1782969690503956200,7.001956298828125,0.018001902848482132,0.025660356506705284,0.00917618814855814
1782969690513883400,7.01188330078125,0.016521984711289406,0.01990792714059353,-0.0011145329335704446
1782969690523809500,7.0218095703125,0.0238195788115263,0.01612064614892006,-0.005840045865625143
1782969690533735400,7.0317353515625,0.021982263773679733,0.016379505395889282,-0.0023334617726504803
1782969690543661300,7.041661376953125,0.022008629515767097,0.01589374616742134,-0.0046879625879228115
1782969690553588500,7.05158837890625,0.015548333525657654,0.01642451249063015,-0.006727145053446293
1782969690563514400,7.061514404296875,0.012521117925643921,0.015362177975475788,-0.0019121496006846428
1782969690573440500,7.0714404296875,0.007474960293620825,0.022101573646068573,-0.0010775149567052722
1782969690583367400,7.081367431640625,0.0015393070643767715,0.02028476446866989,-0.00361790438182652
1782969690593293300,7.091293212890625,0.002404035534709692,0.02203153260052204,-0.01181990746408701
1782969690603219500,7.101219482421875,0.0054826498962938786,0.01512968447059393,-0.011540009640157223
1782969690613145300,7.111145263671875,0.0099610211327672,0.012041216716170311,-0.015142734162509441
1782969690623072500,7.121072509765625,0.010906443931162357,0.010369017720222473,-0.012598349712789059
1782969690632998400,7.130998291015625,0.01221565343439579,0.013711018487811089,-0.004874383565038443
1782969690642924500,7.140924560546875,0.01338957529515028,0.012768259271979332,0.0020959076937288046
1782969690652851500,7.1508515625,0.01534380204975605,0.011469968594610691,0.011998872272670269
1782969690662777300,7.16077734375,0.0121277691796422,0.011927233077585697,0.01666419766843319
1782969690672703500,7.170703369140625,0.005938583053648472,0.010941863991320133,0.01612304337322712
1782969690682630700,7.180630615234375,-0.0008671252289786935,0.009641974233090878,0.011522965505719185
1782969690692556300,7.190556396484375,-0.002058357233181596,0.008778844028711319,0.011353855021297932
1782969690702482400,7.200482421875,-0.003560912562534213,0.010613761842250824,0.008945824578404427
1782969690712408600,7.21040869140625,-0.00021198761533014476,0.011064635589718819,0.010581538081169128
1782969690722335200,7.220335205078125,0.006102633662521839,0.013964285142719746,0.014669756405055523
1782969690732261400,7.230261474609375,0.003919906914234161,0.009415606036782265,0.014267352409660816
1782969690742187500,7.2401875,0.009462211281061172,0.011448396369814873,0.005167065188288689
1782969690752114400,7.250114501953125,0.008791893720626831,0.011019893921911716,0.0025068335235118866
1782969690762040300,7.260040283203125,0.004856273997575045,0.009351690299808979,-0.0031931300181895494
1782969690771966500,7.269966552734375,-0.00018668759730644524,0.010793259367346764,-0.006578274071216583
1782969690781892600,7.279892578125,-0.0021973741240799427,0.01251259632408619,-0.005042695440351963
1782969690791819300,7.2898193359375,-0.0017646105261519551,0.011405786499381065,-0.002499110298231244
1782969690801745400,7.299745361328125,-0.00199310970492661,0.012820723466575146,0.004259992390871048
1782969690811671600,7.309671630859375,-0.0010058758780360222,0.011406851932406425,0.012251872569322586
1782969690821598500,7.319598388671875,-0.003887948812916875,0.01062255073338747,0.016332367435097694
1782969690831524400,7.3295244140625,-0.0043830303475260735,0.010972489602863789,0.01601411961019039
1782969690841450500,7.339450439453125,-0.007810518611222506,0.01266918983310461,0.01071043498814106
1782969690851376600,7.349376708984375,-0.010852115228772163,0.011887552216649055,0.010086722671985626
1782969690861303300,7.35930322265625,-0.004475974943488836,0.010762366466224194,0.0024921861477196217
1782969690871229400,7.3692294921875,0.000218645524000749,0.010432933457195759,-0.00004953479583491571
1782969690881155600,7.379155517578125,-0.0011717908782884479,0.007095992565155029,-0.0008018778171390295
1782969690891082500,7.38908251953125,-0.000017843178284238093,0.011128284968435764,0.0029079054947942495
1782969690901008400,7.39900830078125,-0.002796052722260356,0.013322729617357254,0.00618119677528739
1782969690910934500,7.4089345703125,-0.010187922976911068,0.01486283540725708,0.0017094830982387066
1782969690920861400,7.418861328125,-0.016939569264650345,0.013364541344344616,-0.013334447517991066
1782969690930787300,7.428787353515625,-0.012358665466308594,0.010902714915573597,-0.02202620543539524
1782969690940713500,7.43871337890625,-0.0060331248678267,0.0024029703345149755,-0.028237231075763702
1782969690950639400,7.448639404296875,0.0034471957478672266,-0.0013464941876009107,-0.024387365207076073
1782969690960566500,7.45856640625,0.00905741099268198,-0.007864048704504967,-0.011241469532251358
1782969690970492400,7.468492431640625,0.007299458142369986,-0.002758502261713147,0.01281486451625824
1782969690980418600,7.47841845703125,0.0043808999471366405,0.006331931799650192,0.03606026619672775
1782969690990345500,7.488345458984375,-0.0017923073610290885,0.015036207623779774,0.04832731932401657
1782969691000271400,7.498271240234375,-0.005550027824938297,0.017478059977293015,0.048895105719566345
1782969691010197500,7.508197509765625,-0.009290703572332859,0.014217019081115723,0.034389931708574295
1782969691020123400,7.518123291015625,-0.010749316774308681,0.009162073023617268,0.013591708615422249
1782969691030050600,7.528050537109375,-0.01107502169907093,0.005655488930642605,-0.00890960544347763
1782969691039976400,7.5379765625,-0.0091130705550313,0.006040049251168966,-0.023001722991466522
1782969691049902300,7.54790234375,-0.008279235102236271,0.008747152984142303,-0.032579515129327774
1782969691059829500,7.55782958984375,-0.0036770266015082598,0.01293284259736538,-0.031308919191360474
1782969691069755600,7.567755615234375,0.0065497783944010735,0.013366405852138996,-0.02744653820991516
1782969691079681300,7.577681396484375,0.009312274865806103,0.012502741999924183,-0.021209148690104485
1782969691089607400,7.587607421875,0.013042831793427467,0.00891173630952835,-0.013408216647803783
1782969691099534800,7.597534912109375,0.006656038574874401,0.008805209770798683,-0.008607602678239346
1782969691109460700,7.607460693359375,0.0036996633280068636,0.003780623432248831,0.006136455573141575
1782969691119386600,7.61738671875,0.004772651009261608,0.0018668759148567915,0.02522333152592182
1782969691129313800,7.627313720703125,0.005276254843920469,0.0022426480427384377,0.04260019212961197
1782969691139239700,7.63723974609375,-0.0007901599165052176,0.005782521795481443,0.05156279355287552
1782969691149165800,7.647165771484375,-0.009494967758655548,0.012632171623408794,0.05065625160932541
1782969691159092700,7.6570927734375,-0.012063853442668915,0.012134427204728127,0.04110376164317131
1782969691169018600,7.6670185546875,-0.01133840810507536,0.012660667300224304,0.01525724958628416
1782969691178944800,7.67694482421875,-0.0075971996411681175,0.006107959896326065,-0.01149819791316986
1782969691188870700,7.68687060546875,-0.00044847631943412125,-0.001249821507371962,-0.035116177052259445
1782969691198797800,7.6967978515625,0.0031340080313384533,0.000483363721286878,-0.04553605988621712
1782969691208723700,7.7067236328125,0.0030573089607059956,-0.00040799626731313765,-0.04162707179784775
1782969691218649900,7.71664990234375,0.005107143893837929,0.001330249011516571,-0.024982314556837082
1782969691228576800,7.72657666015625,0.0024684839881956577,0.006974552292376757,-0.00007110639853635803
1782969691238502700,7.736502685546875,0.005664810072630644,0.012182896956801414,0.019996611401438713
1782969691248428800,7.7464287109375,0.004996090196073055,0.01429105456918478,0.030119819566607475
1782969691258354700,7.756354736328125,0.002703641075640917,0.016536099836230278,0.03537929430603981
1782969691268281600,7.766281494140625,0.003972903825342655,0.011616175994277,0.027509920299053192
1782969691278207700,7.776207763671875,0.003899933071807027,0.007789213676005602,0.014421016909182072
1782969691288134000,7.7861337890625,-0.00009640643111197278,0.005591573193669319,-0.0031856733839958906
1782969691298060500,7.796060546875,-0.006629939656704664,0.0041342913173139095,-0.013072391971945763
1782969691307986700,7.805986572265625,-0.005677592940628529,0.007093862164765596,-0.015105715952813625
1782969691317912800,7.815912841796875,0.0005520732956938446,0.0068091703578829765,-0.012370383366942406
1782969691327838700,7.825838623046875,0.005052282940596342,0.0059777311980724335,-0.0062696137465536594
1782969691337765600,7.835765625,0.009310144931077957,0.009847038425505161,-0.002031192881986499
1782969691347691800,7.84569189453125,0.014304636977612972,0.0036157737486064434,-0.0020695424173027277
1782969691357618000,7.855617919921875,0.01146597322076559,0.0012564794160425663,-0.0038956720381975174
1782969691367544600,7.865544677734375,0.007499461527913809,0.0008966863388195634,0.0019254654180258512
1782969691377470700,7.875470703125,0.0023350596893578768,0.003044259501621127,0.011186608113348484
1782969691387396900,7.88539697265625,-0.0044256411492824554,0.008743956685066223,0.012488627806305885
1782969691397322800,7.89532275390625,-0.005877064075320959,0.009807889349758625,0.0083071980625391
1782969691407249700,7.905249755859375,-0.007838748395442963,0.006310892757028341,0.001600826159119606
1782969691417175800,7.91517578125,-0.00021598236344289035,0.005563609767705202,-0.01167316734790802
1782969691427102000,7.92510205078125,-0.0023246733471751213,-0.001802693703211844,-0.020321249961853027
1782969691437028900,7.93502880859375,-0.0036719664931297302,-0.0003336940717417747,-0.022839268669486046
1782969691446954800,7.944954833984375,-0.004086886998265982,-0.0004756405542138964,-0.014182131737470627
1782969691456881000,7.954880859375,-0.0031166973058134317,-0.0006660565850324929,-0.0016700683627277613
1782969691466807800,7.964807861328125,-0.0026559706311672926,0.004739094991236925,0.013934724032878876
1782969691476733700,7.974733642578125,-0.0024927188642323017,0.012072907760739326,0.02634958177804947
1782969691486659800,7.984659912109375,0.004253867082297802,0.01299276389181614,0.029333388432860374
1782969691496585700,7.994585693359375,0.010421215556561947,0.008312524296343327,0.025419872254133224
1782969691506513000,8.004512939453125,0.012022574432194233,0.00236275652423501,0.011071293614804745
1782969691516438800,8.014438720703126,0.005381449591368437,-0.002205097349360585,0.0022474415600299835
1782969691526365000,8.024364990234375,0.0037523938808590174,0.0012253203894942999,0.0006681871018372476
1782969691536291800,8.034291748046876,0.002944923471659422,0.005849367007613182,0.0014080132823437452
1782969691546217700,8.0442177734375,-0.0024319987278431654,0.008896289393305779,0.0006852313526906073
1782969691556143900,8.054143798828125,-0.0008205199264921248,0.00672181835398078,0.0025542378425598145
1782969691566069800,8.06406982421875,-0.005600627511739731,0.0036799560766667128,-0.0021555626299232244
1782969691575997000,8.073996826171875,-0.011179683730006218,0.00301656243391335,-0.01020017359405756
1782969691585922800,8.0839228515625,-0.015081747435033321,0.004711132030934095,-0.014067615382373333
1782969691595848700,8.0938486328125,-0.017594706267118454,0.0038125813007354736,-0.013574930839240551
1782969691605776000,8.10377587890625,-0.013218333944678307,0.004303668159991503,-0.0007099987124092877
1782969691615701800,8.11370166015625,-0.005751895252615213,0.0029020465444773436,0.0062887887470424175
1782969691625627600,8.123627685546875,0.0007717840489931405,0.006962834391742945,0.0212983638048172
1782969691635554800,8.133554931640624,0.006459231022745371,0.008392153307795525,0.030785076320171356
1782969691645481000,8.14348095703125,0.01200100313872099,0.010439591482281685,0.0377870611846447
1782969691655406600,8.153406494140626,0.009727462194859982,0.011273160576820374,0.03224369138479233
1782969691665332700,8.163332763671875,0.011304053477942944,0.005231513641774654,0.023007847368717194
1782969691675260000,8.173260009765626,0.0070374030619859695,0.0002950782363768667,0.01258130557835102
1782969691685185800,8.183185791015624,0.0011440940434113145,0.0014237258583307266,0.009437177330255508
1782969691695111700,8.193111572265625,-0.006711698602885008,0.0018676748732104897,0.00443975580856204
1782969691705037800,8.203037841796874,-0.012596218846738338,0.004983306862413883,0.008123706094920635
1782969691714965000,8.212965087890625,-0.010810836218297482,0.0043987431563436985,0.008725580759346485
1782969691724890600,8.222890625,-0.011348794214427471,0.005571332760155201,0.013136042281985283
1782969691734816800,8.232816650390625,-0.010153301991522312,0.008320247754454613,0.016930513083934784
1782969691744744000,8.242743896484376,-0.019570771604776382,0.010743191465735435,0.018846658989787102
1782969691754669600,8.252669677734374,-0.022246716544032097,0.010676346719264984,0.01601411961019039
1782969691764595700,8.262595703125,-0.019993681460618973,0.00993359088897705,0.017223728820681572
1782969691774523000,8.27252294921875,-0.009341037832200527,0.00669438811019063,0.01587696745991707
1782969691784448800,8.28244873046875,-0.001404284848831594,0.008017712272703648,0.01678324118256569
1782969691794374700,8.292374755859376,0.003229881636798382,0.004767857491970062,0.0073316823691129684
1782969691804300800,8.30230078125,0.002154231071472168,0.006761233322322369,0.001574194524437189
1782969691814227700,8.312227783203125,-0.0012532835826277733,0.010816162452101707,-0.0054509579204022884
1782969691824153600,8.322153564453124,0.0008072041091509163,0.00971814151853323,-0.01136930100619793
1782969691834079700,8.332079833984375,-0.0023374564480036497,0.006190517917275429,-0.024995364248752594
1782969691844006700,8.342006591796874,0.0028157602064311504,0.003940413240343332,-0.029282521456480026
1782969691853932800,8.351932861328125,0.010904046706855297,-0.0011757856700569391,-0.027696609497070312
1782969691863858700,8.361858642578126,0.013319533318281174,-0.00999031588435173,-0.012918462045490742
1782969691873784800,8.371784912109375,0.01716034486889839,-0.012895558960735798,0.009965016506612301
1782969691883711700,8.381711669921875,0.013000487349927425,-0.003428020980209112,0.034262631088495255
1782969691893637600,8.3916376953125,0.004626443609595299,0.002466619713231921,0.05632266029715538
1782969691903563800,8.401563720703125,-0.004564125556498766,0.007667240686714649,0.06909970939159393
1782969691913490700,8.41149072265625,-0.015475895255804062,0.011139736510813236,0.05922257527709007
1782969691923416800,8.421416748046875,-0.019875437021255493,0.01224361639469862,0.03558329492807388
1782969691933342700,8.4313427734375,-0.01677951216697693,0.005003813188523054,0.0016793893883004785
1782969691943268900,8.441268798828125,-0.016377640888094902,-0.0028575719334185123,-0.027813788503408432
1782969691953195800,8.45119580078125,-0.01612730510532856,-0.007348460145294666,-0.045124601572752
1782969691963121700,8.46112158203125,-0.017543572932481766,-0.001811748486943543,-0.055697083473205566
1782969691973047800,8.4710478515625,-0.02653041109442711,0.0031281490810215473,-0.053352437913417816
1782969691982974700,8.480974609375,-0.020618725568056107,0.00726430444046855,-0.04085608571767807
1782969691992900900,8.49090087890625,-0.010130930691957474,0.008578574284911156,-0.025613751262426376
1782969692002826800,8.50082666015625,0.0018181400373578072,0.006043245084583759,-0.006672017276287079
1782969692012753700,8.510753662109375,0.006225405260920525,0.004954544827342033,0.01076875813305378
1782969692022679800,8.5206796875,0.00569889834150672,-0.0013494236627593637,0.02112525887787342
1782969692032606000,8.53060595703125,0.002865294925868511,0.0012157330056652427,0.026097912341356277
1782969692042531800,8.54053173828125,-0.002095108851790428,-0.001967010786756873,0.03582404553890228
1782969692052458800,8.550458740234374,-0.008066981099545956,0.0036157737486064434,0.04599332436919212
1782969692062385000,8.560385009765625,-0.014140852726995945,0.004671450704336166,0.05138808861374855
1782969692072310800,8.570310791015626,-0.021322332322597504,0.0021781993564218283,0.03951491788029671
1782969692082237700,8.58023779296875,-0.02226509153842926,0.0049249837175011635,0.019049324095249176
1782969692092163800,8.590163818359375,-0.019832028076052666,0.00017177389236167073,-0.0008753810543566942
1782969692102090000,8.600090087890624,-0.015191469341516495,0.00020932445477228612,-0.01623755879700184
1782969692112015600,8.610015625,-0.006727943662554026,-0.002784601179882884,-0.022525815293192863
1782969692121942800,8.61994287109375,-0.0016913736471906304,0.005149488337337971,-0.019375029951334
1782969692131869000,8.629868896484375,0.0010921623324975371,0.010128800757229328,-0.00700890738517046
1782969692141794800,8.639794921875,0.001847967505455017,0.010718690231442451,0.004935370292514563
1782969692151721700,8.6497216796875,0.0006543386843986809,0.00899962056428194,0.01745062880218029
1782969692161647900,8.65964794921875,-0.003483681008219719,0.010104299522936344,0.024873657152056694
1782969692171573800,8.66957373046875,-0.007172425277531147,0.005513009615242481,0.029336849227547646
1782969692181501000,8.6795009765625,-0.0017664746847003698,0.009130647405982018,0.030666831880807877
1782969692191426800,8.6894267578125,-0.004287156742066145,0.013363742269575596,0.03374437987804413
1782969692201353000,8.69935302734375,0.004400340840220451,0.013551495037972927,0.025533588603138924
1782969692211278800,8.70927880859375,0.007337541319429874,0.011331483721733093,0.016350744292140007
1782969692221205800,8.719205810546875,0.008136223070323467,0.007414240390062332,0.007689877413213253
1782969692231132000,8.7291318359375,0.007616107817739248,0.0019888486713171005,-0.005434446502476931
1782969692241057800,8.739057861328124,0.0022085595410317183,0.0023489079903811216,-0.00888137612491846
1782969692250985000,8.74898486328125,-0.00634844321757555,-0.0015169365797191858,-0.002034921431913972
1782969692260910800,8.758910888671876,-0.012607404962182045,-0.0016535567119717598,0.0032405343372374773
1782969692270836700,8.768836669921875,-0.016535300761461258,-0.0012929646763950586,0.01261033397167921
1782969692280763000,8.778762939453125,-0.019478892907500267,0.004957740660756826,0.026316825300455093
1782969692290689800,8.788689697265625,-0.020492492243647575,0.009727728553116322,0.03141544759273529
1782969692300615700,8.79861572265625,-0.018910840153694153,0.008829976432025433,0.027484888210892677
1782969692310541800,8.808541748046874,-0.012264922261238098,0.00914556160569191,0.01546204648911953
1782969692320469000,8.818468994140625,-0.003955060616135597,0.0021441110875457525,0.002517486223950982
1782969692330394600,8.82839453125,0.002552373567596078,0.00026525085559114814,-0.012065185233950615
1782969692340320800,8.83832080078125,-0.00010333064710721374,-0.0024080302100628614,-0.014641260728240013
1782969692350247000,8.848246826171875,-0.00007110639853635803,-0.002956907730549574,-0.012791162356734276
1782969692360173800,8.858173828125,-0.007656321860849857,0.0031702269334346056,-0.0025569009594619274
1782969692370099700,8.868099609375,-0.010884605348110199,0.006935404147952795,0.00651595601812005
1782969692380025900,8.87802587890625,-0.0057223341427743435,0.007404386531561613,0.0139006357640028
1782969692389953000,8.887953125,-0.0010540791554376483,0.005540706682950258,0.01992124319076538
1782969692399878700,8.897878662109376,0.0019949739798903465,0.002998985582962632,0.016714531928300858
1782969692409804800,8.9078046875,0.004481833893805742,0.0012655340833589435,0.014163755811750889
1782969692419731000,8.91773095703125,-0.0005054679932072759,-0.0012128035305067897,0.012625513598322868
1782969692429657600,8.92765771484375,-0.005904227960854769,-0.0015241270884871483,0.007499994244426489
1782969692439583700,8.937583740234375,-0.014768825843930244,-0.003004844533279538,0.004719121381640434
1782969692449510000,8.947510009765624,-0.02154816873371601,-0.0019230686593800783,0.0001853560097515583
1782969692459436800,8.957436767578125,-0.01841709017753601,-0.002478337613865733,0.0021518340799957514
1782969692469362700,8.96736279296875,-0.019583554938435555,-0.0005403553950600326,-0.0011057445080950856
1782969692479288800,8.977288818359375,-0.014427674934267998,-0.0023254721891134977,-0.004133225884288549
1782969692489215700,8.9872158203125,-0.011553592048585415,-0.002438922878354788,-0.0057076867669820786
1782969692499141600,8.9971416015625,-0.00833835732191801,0.0003832288784906268,-0.00768934516236186
1782969692509067800,9.00706787109375,-0.01263962872326374,-0.000838895735796541,-0.014507037587463856
1782969692518994000,9.016993896484376,-0.009472331032156944,-0.006955111399292946,-0.0164793748408556
1782969692528920800,9.0269208984375,-0.007796936668455601,-0.005752161610871553,-0.019270900636911392
1782969692538846700,9.0368466796875,-0.010219347663223743,-0.0017475662752985954,-0.014511298388242722
1782969692548772900,9.04677294921875,-0.01543221902102232,-0.0011350392596796155,-0.003659183392301202
1782969692558699800,9.05669970703125,-0.01507269311696291,0.0003832288784906268,0.0031521173659712076
1782969692568626000,9.0666259765625,-0.01744769886136055,0.003483947366476059,0.006616090890020132
1782969692578551800,9.0765517578125,-0.013730726204812527,0.0018996327416971326,0.008213454857468605
1782969692588478000,9.08647802734375,-0.006941263098269701,0.004739094991236925,0.0041369544342160225
1782969692598404900,9.09640478515625,-0.005622731987386942,0.0027390611357986927,-0.0019451729021966457
1782969692608330800,9.106330810546876,-0.005694637540727854,-0.0024082965683192015,-0.016161926090717316
1782969692618257000,9.1162568359375,-0.00808881875127554,-0.0029707562644034624,-0.03190679848194122
1782969692628183800,9.126183837890625,-0.010220146737992764,-0.002929743379354477,-0.04247688502073288
1782969692638110000,9.13610986328125,-0.014029799029231071,-0.0010612696642056108,-0.04352777078747749
1782969692648035800,9.146035888671875,-0.013646037317812443,-0.0016756609547883272,-0.04111095145344734
1782969692657961700,9.155961669921876,-0.014274809509515762,-0.0006564692012034357,-0.0371825210750103
1782969692667889000,9.165888916015625,-0.014366422779858112,-0.0006271744496189058,-0.032588303089141846
1782969692677814800,9.175814697265626,-0.01649561896920204,-0.004806739278137684,-0.022127140313386917
1782969692687741000,9.185740966796875,-0.014256167225539684,-0.00529622845351696,-0.01264229230582714
1782969692697667800,9.195667724609375,-0.01931457594037056,-0.004287423100322485,-0.005530320107936859
1782969692707594000,9.205593994140624,-0.026248382404446602,0.001487375469878316,-0.0018277274211868644
1782969692717520000,9.215519775390625,-0.03316381201148033,0.0020682108588516712,-0.00532685499638319
1782969692727446800,9.22544677734375,-0.02497086301445961,-0.0027838023379445076,-0.006696784868836403
1782969692737373000,9.235373046875,-0.020744958892464638,-0.009704292751848698,-0.014363492839038372
1782969692747298800,9.245298828125,-0.009359147399663925,-0.018310563638806343,-0.014284662902355194
1782969692757224700,9.255224609375,-0.004457066301256418,-0.020952686667442322,-0.006590524688363075
1782969692767151900,9.26515185546875,-0.006362558342516422,-0.0190727598965168,0.009721603244543076
1782969692777078000,9.275078125,-0.008855010382831097,-0.011828696355223656,0.02592507377266884
1782969692787003600,9.285003662109375,-0.01768818311393261,-0.003893541404977441,0.03861556947231293
1782969692796930800,9.294930908203124,-0.021461881697177887,0.00028389296494424343,0.03218057379126549
1782969692806857000,9.30485693359375,-0.025678465142846107,0.0013283847365528345,0.016702281311154366
1782969692816782600,9.314782470703125,-0.025370337069034576,-0.00247594085521996,-0.0037292244378477335
1782969692826708700,9.324708740234374,-0.02918584831058979,-0.0031792817171663046,-0.025524001568555832
1782969692836636000,9.334635986328125,-0.02905615232884884,-0.007220895029604435,-0.04458184912800789
1782969692846561800,9.344561767578124,-0.026550916954874992,-0.006724481470882893,-0.04710812494158745
1782969692856487700,9.35448779296875,-0.016530772671103477,-0.003081277245655656,-0.04440927505493164
1782969692866414800,9.364414794921874,-0.011391138657927513,-0.004346811678260565,-0.03056616522371769
1782969692876341000,9.374341064453125,-0.010714163072407246,0.0014407701091840863,-0.0186634324491024
1782969692886266600,9.3842666015625,-0.01926557347178459,0.0024583640042692423,-0.006855242885649204
1782969692896192800,9.39419287109375,-0.011196727864444256,-0.0014176006661728024,0.0006410228670574725
1782969692906120000,9.404119873046875,-0.008635565638542175,-0.0018586200894787908,0.007144462317228317
1782969692916045800,9.4140458984375,-0.009559682570397854,-0.0016234630020335317,0.015272430144250393
1782969692925971700,9.4239716796875,-0.009108543395996094,-0.0043894220143556595,0.01834997907280922
1782969692935899000,9.43389892578125,-0.007397728972136974,-0.004255997482687235,0.020058397203683853
1782969692945824800,9.44382470703125,-0.006381200160831213,0.000838895735796541,0.01474698819220066
1782969692955750700,9.453750732421875,-0.00415453128516674,0.004070375580340624,0.007480819243937731
1782969692965676800,9.4636767578125,0.0004990763845853508,0.0021907163318246603,0.0016474314033985138
1782969692975603700,9.473603759765625,0.00030599720776081085,0.0011206581257283688,-0.004571049474179745
1782969692985529900,9.48352978515625,-0.0059753344394266605,0.0038954056799411774,-0.008824117481708527
1782969692995455700,9.493455810546875,-0.007442469708621502,0.0007464840309694409,-0.00857404712587595
1782969693005382700,9.503382568359376,-0.002441585995256901,0.0016732640797272325,-0.006735400762408972
1782969693015308800,9.513308837890625,0.004000334069132805,0.007133010774850845,-0.0012229235144332051
1782969693025234700,9.523234619140625,0.011687282472848892,0.007784419693052769,-0.00015472965606022626
1782969693035160800,9.533160888671874,0.017990717664361,0.0076027922332286835,0.0036077843979001045
1782969693045087700,9.543087646484375,0.01882961392402649,0.0059540290385484695,0.004739627707749605
1782969693055014000,9.553013916015624,0.01817101426422596,0.010420150123536587,0.006623281631618738
1782969693064939800,9.562939697265625,0.013631124049425125,0.009974337182939053,0.011898471042513847
1782969693074866700,9.57286669921875,0.012079565785825253,0.011522166430950165,0.010918693616986275
1782969693084792800,9.582792724609375,0.007997206412255764,0.00914343073964119,0.012113654054701328
1782969693094718700,9.59271875,0.002787530655041337,0.009727462194859982,0.006999319884926081
1782969693104645400,9.602645263671874,-0.0000021305288555595325,0.008681372739374638,-0.004079164005815983
1782969693114571000,9.612571044921875,0.005835252348333597,0.0017417073249816895,-0.010940265841782093
1782969693124497200,9.6224970703125,-0.0004724447790067643,0.0027893949300050735,-0.01326946634799242
1782969693134423300,9.63242333984375,0.0010993528412654996,0.0025619608350098133,-0.01335948146879673
1782969693144350000,9.642349853515626,0.005275189410895109,0.012028433382511139,-0.008941562846302986
1782969693154276000,9.652276123046875,0.01264229230582714,0.008529040031135082,0.0006314354832284153
1782969693164202200,9.6622021484375,0.016708938404917717,0.008647283539175987,0.008153533563017845
1782969693174129200,9.672129150390624,0.02021472342312336,0.007002249360084534,0.01883920095860958
1782969693184055000,9.682054931640625,0.016697753220796585,0.0012543488992378116,0.019693544134497643
1782969693193981200,9.691981201171876,0.015414642170071602,-0.0004934837343171239,0.015421033836901188
1782969693203907300,9.7019072265625,0.0031127026304602623,0.0017259946325793862,0.009251022711396217
1782969693213834000,9.711833984375,0.0016548882704228163,0.0016402408946305513,0.009471798315644264
1782969693223760100,9.721760009765624,-0.0034285534638911486,0.005038168281316757,0.015052985399961472
1782969693233686300,9.731686279296875,-0.0024503744207322598,0.006042712368071079,0.01894732564687729
1782969693243613200,9.74161328125,0.0008612662786617875,0.005604888778179884,0.020052803680300713
1782969693253539000,9.7515390625,-0.00259418529458344,0.006996124051511288,0.01215599849820137
1782969693263465200,9.76146533203125,-0.007032875902950764,0.0035830168053507805,0.00279099284671247
1782969693273391400,9.771391357421875,-0.011801531538367271,0.0014173343079164624,-0.005489840172231197
1782969693283318000,9.781318115234376,-0.015539544634521008,0.0030389330349862576,-0.011317369528114796
1782969693293244200,9.791244140625,-0.01546550914645195,0.0026493126060813665,-0.021016068756580353
1782969693303170300,9.80117041015625,-0.011056912131607533,0.006542587652802467,-0.016594689339399338
1782969693313097200,9.81109716796875,-0.004745486658066511,0.008430236019194126,-0.012778645381331444
1782969693323023000,9.821023193359375,-0.0016642092959955335,0.007092530373483896,-0.006287723314017057
1782969693332949200,9.83094921875,-0.000904409505892545,0.006561496295034885,0.00523657351732254
1782969693342875100,9.840875244140625,0.003918042406439781,0.005470665637403727,0.01357306633144617
1782969693352802000,9.850802001953125,0.006928213406354189,0.007209443487226963,0.019059445708990097
1782969693362728200,9.860728271484374,0.007013434544205666,0.007130081299692392,0.019714582711458206
1782969693372654000,9.870654052734375,0.007822236977517605,0.007879494689404964,0.017917482182383537
1782969693382581200,9.880581298828124,0.013460149057209492,0.009063802659511566,0.014123808592557907
1782969693392507100,9.890507080078125,0.015806660056114197,0.005848035216331482,0.008442752994596958
1782969693402433300,9.900433349609376,0.020552147179841995,0.007111971732228994,0.0038804919458925724
1782969693412360200,9.910360107421875,0.01787194050848484,0.010569021105766296,-0.0002844255941454321
1782969693422286000,9.9202861328125,0.012083826586604118,0.007703459821641445,-0.004609399009495974
1782969693432212200,9.930212158203124,0.004238154739141464,0.013944577425718307,-0.00449994346126914
1782969693442138000,9.94013818359375,0.001743038883432746,0.013965616934001446,0.0012538161827251315
1782969693452065300,9.950065185546874,0.002493251347914338,0.019165970385074615,0.01104279700666666
1782969693461991200,9.9599912109375,-0.0016413062112405896,0.021950040012598038,0.014217285439372063
1782969693471917000,9.9699169921875,-0.006121009588241577,0.015385880134999752,0.009259012527763844
1782969693481844200,9.97984423828125,-0.008589226752519608,0.009512544609606266,0.006216084118932486
1782969693491770000,9.98977001953125,-0.014798386953771114,0.005914348177611828,-0.00017843178648035973
1782969693501696000,9.999696044921874,-0.01619574800133705,0.002986468840390444,0.0034533210564404726
1782969693511622100,10.0096220703125,-0.016561400145292282,0.006955377757549286,0.01272564847022295
1782969693521549300,10.01954931640625,-0.01335974782705307,0.010539193637669086,0.017057547345757484
1782969693531475000,10.029474853515625,-0.012036156840622425,0.009912551380693913,0.02028130367398262
1782969693541401000,10.039401123046876,-0.01152616087347269,0.018796857446432114,0.026951989158988
1782969693551328300,10.049328369140625,-0.01877688430249691,0.01882455311715603,0.02285764552652836
1782969693561254100,10.059254150390625,-0.026688868179917336,0.019783558323979378,0.011095527559518814
1782969693571180000,10.069179931640624,-0.029024727642536163,0.008451275527477264,-0.013490241952240467
1782969693581106200,10.079106201171875,-0.03062715195119381,-0.00040719733806326985,-0.02797197923064232
1782969693591033300,10.089033447265624,-0.026697658002376556,-0.005001682788133621,-0.03436782583594322
1782969693600959000,10.098958984375,-0.018994729965925217,-0.007098655682057142,-0.02400919608771801
1782969693610885000,10.108885009765626,-0.010243848897516727,-0.00490234699100256,-0.006933007389307022
1782969693620812300,10.118812255859375,-0.0070525831542909145,0.0034027209039777517,0.022173479199409485
1782969693630738200,10.12873828125,-0.005544967483729124,0.00800173357129097,0.038417428731918335
1782969693640664000,10.1386640625,-0.006687730085104704,0.005215800832957029,0.044807419180870056
1782969693650590200,10.148590087890625,-0.017164606600999832,0.006121009588241577,0.03645334765315056
1782969693660517000,10.15851708984375,-0.019665313884615898,0.006095176562666893,0.02509496733546257
1782969693670443000,10.168443115234375,-0.02756824530661106,0.0036242958158254623,0.0026080335956066847
1782969693680369200,10.178369140625,-0.03232092037796974,0.0031611721497029066,-0.011146394535899162
1782969693690296000,10.188296142578125,-0.027126425877213478,0.00507092522457242,-0.026508573442697525
1782969693700222200,10.19822216796875,-0.027308320626616478,0.010456901974976063,-0.03269163519144058
1782969693710148000,10.208148193359374,-0.020963605493307114,0.009909622371196747,-0.03635134920477867
1782969693720075000,10.218074951171875,-0.013778130523860455,0.014688931405544281,-0.037046436220407486
1782969693730001200,10.228001220703124,-0.013408216647803783,0.015023157931864262,-0.039980705827474594
1782969693739927000,10.237927001953125,-0.007670170161873102,0.012929647229611874,-0.03664163500070572
1782969693749853200,10.247853271484376,-0.0027108315844088793,0.007450193166732788,-0.03515026345849037
1782969693759780000,10.257780029296875,0.0005675196298398077,0.0029611687641590834,-0.018548384308815002
1782969693769706200,10.267706298828125,0.001458080718293786,0.0018524948973208666,0.0041212416253983974
1782969693779632000,10.277632080078124,-0.0021411816123872995,0.0064981128089129925,0.024413997307419777
1782969693789559000,10.28755908203125,-0.006304767448455095,0.015004249289631844,0.031921714544296265
1782969693799485200,10.297485107421876,-0.008874451741576195,0.016879381611943245,0.03645015135407448
1782969693809411000,10.3074111328125,-0.007010238710790873,0.01726500689983368,0.025169001892209053
1782969693819337200,10.317337158203125,0.001856755930930376,0.009252088144421577,0.011394068598747253
1782969693829264100,10.32726416015625,0.0070371367037296295,0.005660548806190491,-0.005255215801298618
1782969693839190300,10.337190185546875,0.00944916158914566,0.0007414240390062332,-0.012783439829945564
1782969693849116200,10.3471162109375,0.011493138037621975,0.0003326288133393973,-0.022698121145367622
1782969693859043000,10.35704296875,0.0013140037190169096,0.0020935109350830317,-0.019359050318598747
1782969693868969200,10.36696923828125,-0.001395496423356235,-0.006555637344717979,-0.013622068800032139
1782969693878895000,10.37689501953125,-0.00863450113683939,-0.0008279767935164273,-0.005878661759197712
1782969693888821200,10.3868212890625,-0.011936021968722343,0.005541239399462938,0.003763579297810793
1782969693898748200,10.396748046875,-0.012634568847715855,0.005148156546056271,0.010439591482281685
1782969693908674300,10.40667431640625,-0.00902385450899601,0.007967645302414894,0.013628726825118065
1782969693918600200,10.41660009765625,-0.008317052386701107,0.009211075492203236,0.017105750739574432
1782969693928527000,10.426527099609375,-0.010086989030241966,0.004895955324172974,0.008316519670188427
1782969693938453200,10.436453369140626,-0.0070640346966683865,0.009065666235983372,0.007169762160629034
1782969693948379100,10.446379150390625,-0.007733819540590048,0.0062696137465536594,-0.0014506238512694836
1782969693958305000,10.456304931640625,0.0032431974541395903,0.01641732268035412,-0.012328837998211384
1782969693968232200,10.466232177734375,-0.004933239426463842,-0.005459214095026255,-0.02016332559287548
1782969693978158300,10.476158447265625,-0.002773415995761752,0.00013795174891129136,-0.02442624792456627
1782969693988084000,10.486083984375,-0.008754609152674675,-0.003972903825342655,-0.01817607507109642
1782969693998011100,10.49601123046875,-0.011115235276520252,0.001817341079004109,-0.0062307314947247505
1782969694007937300,10.505937255859376,-0.011325358413159847,0.0010255833622068167,0.0068240840919315815
1782969694017863000,10.51586279296875,-0.008212389424443245,0.006666957400739193,0.024753816425800323
1782969694027790000,10.5257900390625,-0.0034961977507919073,0.007480819243937731,0.03495212644338608
1782969694037716200,10.53571630859375,0.0035265579354017973,0.008431834168732166,0.03502296656370163
1782969694047642000,10.54564208984375,0.00845340546220541,0.004502606578171253,0.02714506722986698
1782969694057568000,10.555568115234376,0.007650196552276611,0.000699079770129174,0.016629576683044434
1782969694067495200,10.5654951171875,0.00515880947932601,-0.00008974852971732616,0.006371612660586834
1782969694077421300,10.57542138671875,-0.0005318332696333528,-0.0007459514308720827,-0.0008436894277110696
1782969694087347000,10.585346923828125,-0.0098419776186347,-0.0007941546500660479,-0.009075786918401718
1782969694097274000,10.595274169921876,-0.018032796680927277,-0.0010186590952798724,-0.00945235788822174
1782969694107201000,10.605200927734375,-0.024945829063653946,0.001651426195167005,-0.013295832090079784
1782969694117127000,10.615126953125,-0.0213010273873806,0.003094326937571168,-0.012804478406906128
1782969694127053000,10.625052978515624,-0.018685536459088326,0.004968925844877958,-0.01486683078110218
1782969694136980000,10.63497998046875,-0.007956726476550102,0.0034290861804038286,-0.01733531430363655
1782969694146906000,10.644906005859376,0.000467118457891047,0.005282646510750055,-0.020365459844470024
1782969694156832000,10.65483203125,0.007866977714002132,0.0001174454009742476,-0.018621355295181274
1782969694166759000,10.664759033203126,0.01104332972317934,0.0033417344093322754,-0.009667807258665562
1782969694176685000,10.67468505859375,0.01464791875332594,0.005584915168583393,0.0018194715958088636
1782969694186611000,10.68461083984375,0.012469719164073467,0.0052296495996415615,0.011873437091708183
1782969694196537000,10.694537109375,0.008871521800756454,0.002034388715401292,0.016344618052244186
1782969694206464000,10.704464111328125,-0.00023568976030219346,0.003991279285401106,0.014297712594270706
1782969694216390100,10.71439013671875,-0.0037374801468104124,0.0035539884120225906,0.008778311312198639
1782969694226316000,10.72431591796875,-0.0036008600145578384,0.003222425002604723,0.0005792375304736197
1782969694236243000,10.734242919921876,-0.001511343871243298,0.0010929612908512354,-0.011031878180801868
1782969694246169000,10.744169189453125,0.00005512743518920615,-0.0001131843455368653,-0.012265721336007118
1782969694256095000,10.754094970703125,0.001374723738990724,0.0028826056513935328,-0.010405503213405609
1782969694266021000,10.764021240234374,0.001368598430417478,0.0038535939529538155,-0.007891478948295116
1782969694275948000,10.773947998046875,0.0012570120161399245,0.0009270463488064706,-0.001029311795718968
1782969694285874200,10.783874267578126,-0.0006106628570705652,0.003296993440017104,0.0036903421860188246
1782969694295800000,10.793800048828125,-0.00007217166421469301,0.006967362016439438,0.007143396884202957
1782969694305727000,10.80372705078125,-0.0004852279380429536,0.0046882289461791515,0.006259493995457888
1782969694315653000,10.813653076171875,0.0022029669489711523,0.0011022823164239526,0.005617405753582716
1782969694325579000,10.8235791015625,-0.003409645054489374,0.0022983080707490444,0.00041039311327040195
1782969694335506000,10.833505859375,-0.009898437187075615,0.0012871057260781527,-0.0046938215382397175
1782969694345432000,10.84343212890625,-0.00361683894880116,0.003320162883028388,-0.00008628641808172688
1782969694355358200,10.853358154296876,-0.0024780714884400368,0.005825398489832878,0.005317800212651491
1782969694365283800,10.863283935546875,0.003084739437326789,0.003834951901808381,0.0027928571216762066
1782969694375211000,10.8732109375,0.0011462245602160692,0.008537827990949154,0.004916728008538485
1782969694385137200,10.88313720703125,-0.003297259798273444,0.007208910770714283,0.0059756007976830006
1782969694395063000,10.89306298828125,-0.012267052195966244,0.004248540848493576,0.0030037793330848217
1782969694404990000,10.902989990234374,-0.014943795278668404,0.004092479590326548,-0.003906590864062309
1782969694414916000,10.912916015625,-0.009934922680258751,-0.00013981595111545175,-0.006484797224402428
1782969694424842200,10.92284228515625,-0.005251220893114805,0.00020346550445538014,-0.006439523305743933
1782969694434768000,10.932767822265625,-0.0020868529099971056,-0.0037345506716519594,-0.00424401368945837
1782969694444695000,10.942695068359376,0.0018841864075511694,-0.007778028026223183,0.006054163910448551
1782969694454621200,10.95262109375,0.006171609275043011,-0.0022631543688476086,0.01836302876472473
1782969694464546800,10.962546875,0.00253399764187634,0.003885285696014762,0.02882019616663456
1782969694474474000,10.972473876953124,0.000987766426987946,0.004111388232558966,0.038849927484989166
1782969694484400000,10.982400146484375,-0.00007004113285802305,0.01013838779181242,0.038775358349084854
1782969694494326000,10.992325927734376,-0.0021907163318246603,0.008702411316335201,0.023680562153458595
1782969694504252000,11.002251953125,-0.0038948729634284973,0.007702394388616085,0.00833649281412363
1782969694514179000,11.012178955078125,-0.004982774145901203,0.004580104257911444,-0.008612396195530891
1782969694524105000,11.02210498046875,-0.013407950289547443,0.0041334922425448895,-0.015280951745808125
1782969694534030800,11.03203076171875,-0.009517339058220387,0.0043894220143556595,-0.02142326720058918
1782969694543958000,11.0419580078125,-0.010957043617963791,0.009847304783761501,-0.015563246794044971
1782969694553884000,11.0518837890625,-0.005056810099631548,0.009645436890423298,-0.009483516216278076
1782969694563810000,11.06181005859375,0.0007909588166512549,0.008816661313176155,-0.0013409015955403447
1782969694573736000,11.07173583984375,0.009651828557252884,0.008816661313176155,0.005596633069217205
1782969694583663000,11.0816630859375,0.017775269225239754,0.006620352156460285,0.012180499732494354
1782969694593589000,11.091589111328124,0.016757141798734665,0.004596616141498089,0.022784940898418427
1782969694603515000,11.101514892578125,0.015005581080913544,0.005033640656620264,0.032822661101818085
1782969694613442000,11.111442138671874,0.013065468519926071,0.0020418455824255943,0.04332190752029419
1782969694623368000,11.121367919921875,0.006929012481123209,0.005815278738737106,0.047868456691503525
1782969694633294000,11.131294189453126,0.0037209687288850546,0.009798835031688213,0.04548279568552971
1782969694643220000,11.141219970703125,-0.0005350290448404849,0.009533051401376724,0.03623523563146591
1782969694653147000,11.15114697265625,-0.0035723643377423286,0.012262525036931038,0.02654372714459896
1782969694663073000,11.161072998046874,0.0023451796732842922,0.007755124941468239,0.007311708759516478
1782969694672999000,11.1709990234375,0.0019089538836851716,0.00239258399233222,-0.0062275356613099575
1782969694682925800,11.18092578125,-0.00041518680518493056,0.0028940571937710047,-0.017620006576180458
1782969694692852000,11.19085205078125,0.003674895968288183,0.00006498113361885771,-0.01896223984658718
1782969694702778000,11.200778076171876,-0.002284193178638816,0.0010362359462305903,-0.018151840195059776
1782969694712704000,11.2107041015625,-0.0009566074586473405,0.0016932378057390451,-0.009502158500254154
1782969694722631000,11.220630859375,0.008007858879864216,0.006925283931195736,0.001148088718764484
1782969694732557000,11.23055712890625,0.018752383068203926,0.007248857989907265,0.010397247038781643
1782969694742483200,11.240483154296875,0.020193684846162796,0.003084206720814109,0.01954467222094536
1782969694752409900,11.250409912109374,0.015633821487426758,0.005364405456930399,0.022841932252049446
1782969694762336000,11.2603359375,0.007422496099025011,0.0049614692106842995,0.02521427720785141
1782969694772262100,11.27026220703125,-0.0000601874417043291,0.007982026785612106,0.026557574048638344
1782969694782189000,11.28018896484375,-0.009023056365549564,0.00452710734680295,0.02275245077908039
1782969694792115000,11.290114990234375,-0.010089651681482792,0.009357016533613205,0.016813600435853004
1782969694802041000,11.300041015625,-0.007909322157502174,0.0034136399626731873,0.007151119876652956
1782969694811967200,11.30996728515625,-0.0025510420091450214,0.004494883120059967,0.002079928759485483
1782969694821894000,11.319893798828126,-0.0033846113365143538,0.002103364560753107,-0.0004324973560869694
1782969694831820000,11.329820068359375,0.003192331176251173,0.001773132593370974,0.006662430241703987
1782969694841746200,11.33974609375,0.0008849684381857514,0.0024628913961350918,0.007758054416626692
1782969694851673000,11.349673095703125,-0.0011369034182280302,0.005175853613764048,0.014543522149324417
1782969694861599000,11.359598876953125,0.0006764429272152483,0.007822503335773945,0.02641802467405796
1782969694871525000,11.369525146484374,-0.001023186487145722,0.006744189187884331,0.031320638954639435
1782969694881451000,11.379450927734375,-0.006603574380278587,0.007963917218148708,0.029504628852009773
1782969694891378000,11.3893779296875,-0.008502407930791378,0.004303401801735163,0.02309892699122429
1782969694901304000,11.399303955078125,-0.006078665144741535,0.005111937876790762,0.017842646688222885
1782969694911230200,11.409230224609376,-0.003962783608585596,0.006881874520331621,0.011811385862529278
1782969694921157000,11.4191572265625,0.00024474450037814677,0.005278118886053562,0.0027204190846532583
1782969694931083000,11.4290830078125,0.008418251760303974,0.0024762072134763002,-0.0030045784078538418
1782969694941009200,11.439009033203124,0.009168731048703194,-0.000075101139373146,-0.005769205745309591
1782969694950935000,11.44893505859375,0.00455879932269454,0.0023395870812237263,-0.0027651600539684296
1782969694960862000,11.458862060546876,-0.003162503708153963,0.0007579356315545738,0.00558145297691226
1782969694970788000,11.4687880859375,-0.015739016234874725,0.006137254647910595,0.006111954804509878
1782969694980714000,11.4787138671875,-0.0174423735588789,0.008535165339708328,0.006307696923613548
1782969694990641200,11.48864111328125,-0.01251925341784954,0.007635815534740686,-0.0005512743373401463
1782969695000567000,11.498567138671875,-0.00757988914847374,0.005132444202899933,-0.006252835970371962
1782969695010493000,11.508492919921874,0.002372077666223049,0.005796636454761028,-0.010654508136212826
1782969695020419000,11.518419189453125,0.002673813607543707,0.0024109596852213144,-0.012054798193275928
1782969695030346000,11.528345947265626,0.005563343409448862,0.0032623722217977047,-0.008362059481441975
1782969695040272000,11.53827197265625,0.0010527475969865918,0.005801962688565254,-0.0065228804014623165
1782969695050198000,11.548197998046875,-0.0051625375635921955,0.004772384651005268,-0.003900199430063367
1782969695060125200,11.558125244140625,-0.008952216245234013,0.006445648614317179,0.003924966789782047
1782969695070051000,11.568051025390625,-0.011967713013291359,0.00894076470285654,0.010787933133542538
1782969695079977000,11.57797705078125,-0.008266984485089779,0.004659466445446014,0.01071096770465374
1782969695089903000,11.587903076171875,-0.004847219679504633,0.005585447885096073,0.012770390138030052
1782969695099830000,11.597830078125,0.0031180288642644882,0.003916977439075708,0.008498679846525192
1782969695109755600,11.607755615234375,0.005013933405280113,0.0018698053900152445,0.0002468750171829015
1782969695119681500,11.617681640625,0.007417169865220785,0.003991013392806053,-0.005167864263057709
1782969695129608700,11.627608642578124,0.004509530495852232,0.0020088222809135914,-0.008858206681907177
1782969695139534600,11.63753466796875,0.0023217438720166683,0.00013795174891129136,-0.008748483844101429
1782969695149460500,11.64746044921875,-0.0015654060989618301,-0.0005419532535597682,-0.005540706682950258
1782969695159386600,11.65738671875,-0.005948436446487904,0.0010229201288893819,0.0007339671719819307
1782969695169313800,11.667313720703126,-0.008927715010941029,0.002665291540324688,0.008444617502391338
1782969695179239700,11.67723974609375,-0.010101902298629284,0.009701362811028957,0.0162386242300272
1782969695189165600,11.68716552734375,-0.010204700753092766,0.005842708982527256,0.01272937748581171
1782969695199092700,11.6970927734375,-0.007443801499903202,0.006687730085104704,0.007446464616805315
1782969695209018600,11.7070185546875,-0.007495466619729996,0.0041252365335822105,-0.006573746912181377
1782969695218944500,11.716944580078126,-0.005311941262334585,0.005228584166616201,-0.015622901730239391
1782969695228870700,11.72687060546875,-0.0006583334179595113,-0.001793905277736485,-0.018376078456640244
1782969695238797600,11.736797607421876,0.004814994987100363,-0.0029459886718541384,-0.013126720674335957
1782969695248723700,11.7467236328125,0.011807923205196857,-0.0031995216850191355,-0.0043891556560993195
1782969695258649600,11.756649658203125,0.008884038776159286,0.0021758025977760553,0.008481902070343494
1782969695268576500,11.766576416015624,0.0018455706303939223,0.00293320557102561,0.018695656210184097
1782969695278502700,11.776502685546875,-0.006858971435576677,0.007923436351120472,0.020116720348596573
1782969695288428500,11.786428466796876,-0.012283031828701496,0.00609357887879014,0.013644705526530743
1782969695298354700,11.796354736328125,-0.013057478703558445,0.006536195985972881,0.0043739755637943745
1782969695308281600,11.806281494140626,-0.006001433357596397,-0.0027680895291268826,-0.0036858150269836187
