time,seconds_elapsed,z,y,x
1782969683584089000,0.082089111328125,0.02229331247508526,0.08613573014736176,-0.027504149824380875
1782969683594015200,0.09201513671875,0.03682366758584976,0.030175311490893364,-0.048444900661706924
1782969683603941000,0.101941162109375,0.04168766736984253,0.035060614347457886,-0.040805090218782425
1782969683613868300,0.111868408203125,0.022234134376049042,0.11076107621192932,-0.02264110930263996
1782969683623794200,0.121794189453125,-0.014332134276628494,0.13199391961097717,0.0026653127279132605
1782969683633720000,0.131719970703125,-0.023002462461590767,0.13612213730812073,0.030186591669917107
1782969683643646200,0.141646240234375,-0.0522647425532341,0.15321829915046692,0.06155117228627205
1782969683653573000,0.151572998046875,-0.09247174113988876,0.1606634557247162,0.10385210067033768
1782969683663499000,0.1614990234375,-0.1272486448287964,0.1581965684890747,0.12046463787555695
1782969683673425200,0.171425048828125,-0.1492028683423996,0.13074703514575958,0.12026651203632355
1782969683683352300,0.181352294921875,-0.13256876170635223,0.0806492492556572,0.11769656091928482
1782969683693278000,0.19127783203125,-0.09226740896701813,0.057413697242736816,0.1198289543390274
1782969683703204000,0.2012041015625,-0.04775400459766388,0.04027785360813141,0.12053868174552917
1782969683713131300,0.21113134765625,-0.007912974804639816,0.01894376426935196,0.10490069538354874
1782969683723057200,0.22105712890625,0.02371658943593502,0.029990023002028465,0.08500262349843979
1782969683732983000,0.230983154296875,0.05105801671743393,-0.024738885462284088,0.03131243214011192
1782969683742909200,0.2409091796875,0.019274519756436348,-0.05717458948493004,-0.020601095631718636
1782969683752836400,0.25083642578125,-0.018231883645057678,-0.018805820494890213,-0.052775245159864426
1782969683762762000,0.260761962890625,-0.04085410758852959,-0.020008502528071404,-0.08436033874750137
1782969683772688100,0.270688232421875,-0.027386866509914398,-0.04410455375909805,-0.08313248306512833
1782969683782615300,0.280615234375,0.007647017948329449,-0.06465403735637665,-0.042431652545928955
1782969683792541000,0.290541015625,0.041716307401657104,-0.044662922620773315,0.030068447813391685
1782969683802467000,0.300467041015625,0.046784836798906326,-0.021962136030197144,0.10164489597082138
1782969683812394200,0.310394287109375,0.028839603066444397,-0.0032199835404753685,0.14881570637226105
1782969683822320000,0.320320068359375,0.009393999353051186,0.004672827199101448,0.16249902546405792
1782969683832246000,0.33024609375,-0.0015938114374876022,-0.011433664709329605,0.14983320236206055
1782969683842172200,0.340172119140625,0.0011401898227632046,-0.021308399736881256,0.12513825297355652
1782969683852099000,0.35009912109375,0.00951086450368166,-0.051905252039432526,0.09085942804813385
1782969683862025200,0.360025146484375,0.016352524980902672,-0.0816841870546341,0.04695775359869003
1782969683871951000,0.369951171875,0.009861028753221035,-0.08304418623447418,0.01789470762014389
1782969683881878000,0.3798779296875,0.0054649487137794495,-0.06831690669059753,0.01271432638168335
1782969683891804200,0.38980419921875,-0.002464049030095339,-0.052240099757909775,0.02502330392599106
1782969683901730000,0.39972998046875,-0.012365414761006832,-0.028906015679240227,0.05029403790831566
1782969683911657200,0.4096572265625,-0.010920848697423935,-0.011391805484890938,0.060176245868206024
1782969683921583000,0.4195830078125,-0.005360701121389866,-0.0044654556550085545,0.06326471269130707
1782969683931509200,0.42950927734375,0.0031058690510690212,0.0013838638551533222,0.06607359647750854
1782969683941435100,0.43943505859375,0.007528048008680344,0.0029458077624440193,0.07445216923952103
1782969683951362000,0.449362060546875,0.0020331894047558308,0.001984064932912588,0.085511714220047
1782969683961288200,0.4592880859375,-0.002791393082588911,0.004544427618384361,0.08238302916288376
1782969683971214000,0.469214111328125,-0.017850302159786224,0.015489283949136734,0.06263840198516846
1782969683981141000,0.47914111328125,-0.024577978998422623,0.04640964791178703,0.029832247644662857
1782969683991067100,0.489067138671875,-0.01042554248124361,0.04804975911974907,0.0026341539341956377
1782969684000993300,0.4989931640625,0.019607990980148315,0.0018985089845955372,-0.03707970306277275
1782969684010920000,0.508919921875,0.04172968119382858,-0.022916069254279137,-0.05707462131977081
1782969684020846000,0.51884619140625,0.05056844651699066,-0.009946739301085472,-0.06394504755735397
1782969684030772200,0.528772216796875,0.04071354120969772,-0.0009960806928575039,-0.06435846537351608
1782969684040698000,0.538697998046875,0.02119123935699463,0.016317129135131836,-0.05728643760085106
1782969684050625000,0.548625,-0.005965771619230509,0.05460132658481598,-0.05087783560156822
1782969684060551200,0.55855126953125,-0.01756197400391102,0.07699158787727356,-0.037830743938684464
1782969684070477300,0.568477294921875,-0.027780748903751373,0.049330323934555054,-0.02273891121149063
1782969684080404000,0.578404052734375,-0.03851701691746712,0.03992616757750511,-0.006034765392541885
1782969684090330000,0.588330078125,-0.037732381373643875,0.034074604511260986,0.012916835024952888
1782969684100256300,0.59825634765625,-0.020061243325471878,0.008870180696249008,0.022778788581490517
1782969684110183200,0.60818310546875,-0.0005346203688532114,-0.03080681525170803,0.014107957482337952
1782969684120109000,0.618109130859375,0.014612906612455845,-0.062488313764333725,-0.008976321667432785
1782969684130035200,0.62803515625,0.010764447040855885,-0.067766934633255,-0.0320245660841465
1782969684139961300,0.63796142578125,0.003210390219464898,-0.06912274658679962,-0.04907678812742233
1782969684149888000,0.647887939453125,-0.010455746203660965,-0.05785921961069107,-0.06615661084651947
1782969684159814100,0.657814208984375,-0.013324236497282982,-0.020766180008649826,-0.07112207263708115
1782969684169740300,0.667740234375,-0.00790184736251831,-0.005801105871796608,-0.061756882816553116
1782969684179667200,0.677667236328125,-0.00526904733851552,-0.0041201189160346985,-0.06098323315382004
1782969684189593000,0.687593017578125,-0.013580730184912682,0.01421540230512619,-0.06626724451780319
1782969684199519200,0.697519287109375,-0.029489655047655106,0.01813690736889839,-0.07808289676904678
1782969684209446100,0.707446044921875,-0.05379181727766991,0.024918198585510254,-0.09978305548429489
1782969684219372000,0.7173720703125,-0.06629801541566849,0.024506207555532455,-0.10936537384986877
1782969684229298200,0.727298095703125,-0.0707339495420456,0.024283867329359055,-0.1267908364534378
1782969684239225000,0.73722509765625,-0.06401292979717255,0.020321883261203766,-0.1503707319498062
1782969684249151200,0.747151123046875,-0.05551629140973091,0.006259538233280182,-0.1760806143283844
1782969684259077000,0.7570771484375,-0.04300156608223915,-0.008196632377803326,-0.19012106955051422
1782969684269003300,0.767003173828125,-0.03838782757520676,-0.008392088115215302,-0.1984182894229889
1782969684278930200,0.77693017578125,-0.038986239582300186,0.003691738937050104,-0.19516736268997192
1782969684288856000,0.78685595703125,-0.040486130863428116,-0.0019752015359699726,-0.1800086498260498
1782969684298782200,0.7967822265625,-0.0417945422232151,-0.0016710683703422546,-0.1506049484014511
1782969684308709000,0.806709228515625,-0.0440731942653656,-0.00310146645642817,-0.13770069181919098
1782969684318635300,0.81663525390625,-0.02841860055923462,-0.04211917147040367,-0.11623828113079071
1782969684328561200,0.82656103515625,-0.022549301385879517,-0.040386445820331573,-0.0810946449637413
1782969684338488000,0.836488037109375,-0.027644194662570953,-0.009977939538657665,-0.038029998540878296
1782969684348414200,0.846414306640625,-0.03083539381623268,-0.011351400054991245,-0.004883747082203627
1782969684358340400,0.85634033203125,-0.02722601220011711,-0.02044742740690708,0.01674644649028778
1782969684368266000,0.866265869140625,-0.029863622039556503,-0.019044391810894012,0.013821840286254883
1782969684378193200,0.876193115234375,-0.032227978110313416,-0.01673756167292595,0.003019260475412011
1782969684388119300,0.886119384765625,-0.03216646611690521,-0.006047455128282309,-0.002732223831117153
1782969684398045200,0.896045166015625,-0.02433704026043415,-0.01617306098341942,-0.012598169967532158
1782969684407972000,0.90597216796875,-0.014905063435435295,-0.022960085421800613,-0.020804796367883682
1782969684417898200,0.915898193359375,-0.01168396882712841,-0.01691390946507454,-0.014914949424564838
1782969684427824400,0.925824462890625,-0.009349975734949112,-0.00407081563025713,-0.004454584792256355
1782969684437751000,0.9357509765625,-0.006504920311272144,0.003120784182101488,0.009362427517771721
1782969684447677200,0.94567724609375,-0.0054620178416371346,0.013818258419632912,0.020292695611715317
1782969684457603300,0.955603271484375,-0.0019138879142701626,0.022321999073028564,0.026975898072123528
1782969684467529000,0.965529052734375,-0.0019356845878064632,0.02698671631515026,0.029276037588715553
1782969684477456100,0.9754560546875,-0.001169226597994566,0.02384471893310547,0.028870705515146255
1782969684487382300,0.98538232421875,-0.004583857022225857,0.014570819213986397,0.02994057722389698
1782969684497308200,0.99530810546875,-0.007231305819004774,0.008701212704181671,0.03224341571331024
1782969684507235000,1.005235107421875,-0.007054529618471861,0.009673956781625748,0.033612389117479324
1782969684517161200,1.0151611328125,-0.0029865510296076536,0.010266509838402271,0.04489646852016449
1782969684527087000,1.025087158203125,0.005386166274547577,0.01587522216141224,0.054843440651893616
1782969684537013000,1.035012939453125,0.01205125916749239,0.019781282171607018,0.061700813472270966
1782969684546940200,1.044940185546875,0.018327508121728897,0.02444952353835106,0.060933832079172134
1782969684556866000,1.054865966796875,0.017053186893463135,0.025851411744952202,0.05554412677884102
1782969684566792200,1.064792236328125,0.013992631807923317,0.0560268759727478,0.04305620864033699
1782969684576719000,1.074718994140625,0.0017024093540385365,0.10983950644731522,0.04888081178069115
1782969684586645200,1.084645263671875,-0.003720951499417424,0.03504113107919693,0.034648217260837555
1782969684596571100,1.094571044921875,-0.007459763903170824,0.017378782853484154,0.036809638142585754
1782969684606498300,1.104498291015625,-0.021939637139439583,0.01898227073252201,0.035260479897260666
1782969684616424200,1.114424072265625,-0.0283551923930645,0.018052827566862106,0.03406605124473572
1782969684626350000,1.12435009765625,-0.03203459084033966,0.012445284053683281,0.023550869897007942
1782969684636276200,1.134276123046875,-0.02402353473007679,0.008858803659677505,0.014378675259649754
1782969684646203100,1.144203125,0.0015949585940688848,-0.0010020965710282326,0.005440485198050737
1782969684656129000,1.15412890625,0.02525075152516365,-0.0034593953751027584,0.009478902444243431
1782969684666055200,1.16405517578125,0.038283489644527435,-0.00575476698577404,0.014745080843567848
1782969684675982300,1.173982421875,0.04595951735973358,0.0008695800788700581,0.01927032507956028
1782969684685908000,1.183907958984375,0.03848718851804733,-0.0052153123542666435,0.015717554837465286
1782969684695834000,1.193834228515625,0.029096350073814392,0.006119367200881243,0.020112304016947746
1782969684705761300,1.20376123046875,0.01575120911002159,0.018499944359064102,0.02467166818678379
1782969684715687000,1.21368701171875,-0.0005079222610220313,0.02611818164587021,0.01978556625545025
1782969684725613000,1.223613037109375,-0.010381517000496387,0.030873816460371017,0.016465749591588974
1782969684735539200,1.233539306640625,-0.01884610950946808,0.0349750854074955,0.008394241333007812
1782969684745466000,1.243466064453125,-0.01888323575258255,0.03774571418762207,-0.0029816986061632633
1782969684755392000,1.25339208984375,-0.007045218255370855,0.03340156748890877,-0.006237945519387722
1782969684765318100,1.263318115234375,0.0024575565475970507,0.027659110724925995,-0.008007945492863655
1782969684775245300,1.273245361328125,0.004873576108366251,0.024346137419342995,0.004442332312464714
1782969684785171000,1.2831708984375,0.0006752953631803393,0.03358141705393791,0.02136770449578762
1782969684795097000,1.29309716796875,-0.007921388372778893,0.045578427612781525,0.03555090352892876
1782969684805024300,1.303024169921875,-0.016941266134381294,0.05959285795688629,0.03262629359960556
1782969684814950100,1.3129501953125,-0.02780589833855629,0.06171460449695587,0.025908472016453743
1782969684824876000,1.3228759765625,-0.025919856503605843,0.0490005798637867,0.013562733307480812
1782969684834802200,1.33280224609375,-0.017081357538700104,0.03390764817595482,-0.0010987676214426756
1782969684844729000,1.34272900390625,-0.010899361222982407,0.017954783514142036,-0.012658750638365746
1782969684854655000,1.352655029296875,-0.00428433483466506,0.017333466559648514,-0.019766461104154587
1782969684864581000,1.3625810546875,-0.0034901469480246305,0.016968710348010063,-0.023010555654764175
1782969684874508000,1.372508056640625,-0.005123463924974203,0.02081404998898506,-0.03085143491625786
1782969684884434200,1.38243408203125,-0.0071367379277944565,0.02501734346151352,-0.029948808252811432
1782969684894360000,1.392360107421875,-0.00574310589581728,0.026566769927740097,-0.03519816696643829
1782969684904287000,1.402286865234375,-0.004177417606115341,0.021059537306427956,-0.040261175483465195
1782969684914213000,1.412213134765625,0.006599862594157457,0.009363997727632523,-0.04223963990807533
1782969684924139300,1.42213916015625,0.018125224858522415,-0.0004055416211485863,-0.03150789812207222
1782969684934065200,1.432065185546875,0.02231464348733425,0.0017391019500792027,-0.013703071512281895
1782969684943992000,1.441991943359375,0.01864613965153694,0.005568461026996374,0.0016122354427352548
1782969684953918200,1.451918212890625,0.007114385720342398,0.011917438358068466,0.009236332960426807
1782969684963844000,1.461843994140625,-0.00292116217315197,0.0147581547498703,0.010300234891474247
1782969684973771000,1.47177099609375,-0.01095005962997675,0.017013853415846825,0.005710542667657137
1782969684983697200,1.481697265625,-0.01704448089003563,0.011207971721887589,-0.008991139940917492
1782969684993623300,1.491623291015625,-0.010139435529708862,0.00043175602331757545,-0.025218313559889793
1782969685003550000,1.501550048828125,-0.001706735696643591,-0.015018107369542122,-0.03321976587176323
1782969685013476000,1.51147607421875,0.006151986308395863,-0.012758947908878326,-0.012550441548228264
1782969685023402200,1.52140234375,0.0024909868370741606,0.0006367717869579792,0.021219277754426003
1782969685033328000,1.531328125,-0.00863543339073658,0.012211935594677925,0.04755474254488945
1782969685043255000,1.541255126953125,-0.012553957290947437,0.017726555466651917,0.05481833964586258
1782969685053181200,1.55118115234375,-0.009843924082815647,0.021412905305624008,0.05012664943933487
1782969685063107300,1.561107421875,-0.008216533809900284,0.01564190164208412,0.03837144374847412
1782969685073034000,1.571033935546875,-0.0032547987066209316,0.00913553312420845,0.026664985343813896
1782969685082960100,1.580960205078125,-0.020113224163651466,-0.007460870314389467,0.0059523130767047405
1782969685092886300,1.59088623046875,-0.027247833088040352,0.007587054744362831,-0.012227489612996578
1782969685102812400,1.6008125,-0.021960435435175896,0.02895047515630722,-0.02416028454899788
1782969685112739000,1.610739013671875,-0.01003692951053381,0.018679462373256683,-0.03240596503019333
1782969685122665200,1.620665283203125,-0.011327090673148632,0.016613341867923737,-0.029476657509803772
1782969685132591400,1.63059130859375,-0.0037530604749917984,0.016171788796782494,-0.025414803996682167
1782969685142518300,1.640518310546875,0.0002421144745312631,0.010054207406938076,-0.02442263625562191
1782969685152444200,1.650444091796875,0.001324689481407404,0.012274750508368015,-0.015292787924408913
1782969685162370300,1.660370361328125,0.003274565562605858,0.00805183220654726,-0.01041281595826149
1782969685172297200,1.670297119140625,0.0037083944771438837,0.0019084522500634193,-0.006244437303394079
1782969685182223000,1.68022314453125,0.006819040980190039,-0.0021536406129598618,-0.0016077924519777298
1782969685192149200,1.690149169921875,0.011909673921763897,-0.005296703428030014,0.0020479285158216953
1782969685202075100,1.7000751953125,0.017847565934062004,-0.002530354540795088,0.018720097839832306
1782969685212002300,1.710002197265625,0.01649468019604683,0.000404182355850935,0.022500988095998764
1782969685221928200,1.71992822265625,0.006282638758420944,0.004145609214901924,0.024060584604740143
1782969685231854000,1.72985400390625,0.0010561852250248194,0.004571182653307915,0.01934519223868847
1782969685241781200,1.73978125,-0.006374550983309746,0.0034379251301288605,0.0064426325261592865
1782969685251707100,1.74970703125,-0.008336767554283142,0.0037673581391572952,-0.009956047870218754
1782969685261633300,1.75963330078125,-0.009096525609493256,-0.0024988686200231314,-0.0281571876257658
1782969685271560200,1.769560302734375,-0.008499711751937866,-0.005175345577299595,-0.0440639853477478
1782969685281486300,1.779486328125,-0.009651810862123966,-0.0003618658520281315,-0.05107973515987396
1782969685291412200,1.789412109375,-0.004256247077137232,-0.005971814505755901,-0.057417526841163635
1782969685301338000,1.799338134765625,-0.003324422985315323,0.0014592856168746948,-0.05882573127746582
1782969685311265300,1.809265380859375,-0.0036179032176733017,0.004814868327230215,-0.04739198088645935
1782969685321191200,1.819191162109375,-0.007782946340739727,-0.0003900541923940182,-0.030599325895309448
1782969685331117000,1.829116943359375,-0.010371538810431957,0.007791175972670317,-0.01779298298060894
1782969685341044200,1.839044189453125,-0.008367243222892284,0.007673730608075857,-0.006443122401833534
1782969685350970400,1.848970458984375,-0.0017460922244936228,-0.004491588566452265,0.0008169206557795405
1782969685360896000,1.85889599609375,0.007833747193217278,-0.010675830766558647,0.0031413910910487175
1782969685370822100,1.868822265625,0.017632583156228065,-0.01207691989839077,0.013971668668091297
1782969685380749300,1.878749267578125,0.014558495953679085,-0.010664645582437515,0.03416508808732033
1782969685390675000,1.888675048828125,0.008500336669385433,-0.001196043100208044,0.04899117350578308
1782969685400601000,1.89860107421875,-0.001351187122054398,0.0024217860773205757,0.06290322542190552
1782969685410528300,1.9085283203125,-0.011551892384886742,0.009213912300765514,0.06801116466522217
1782969685420454100,1.9184541015625,-0.015154492110013962,0.012481119483709335,0.0602242574095726
1782969685430380000,1.928380126953125,-0.014495892450213432,0.011531168594956398,0.048870671540498734
1782969685440307200,1.93830712890625,-0.013365589082241058,0.00620389124378562,0.03274725377559662
1782969685450233300,1.9482333984375,-0.006384911481291056,0.0036350064910948277,0.014614585787057877
1782969685460159200,1.9581591796875,-0.004407797008752823,0.0010464955121278763,-0.0024572638794779778
1782969685470085000,1.968085205078125,-0.008547415025532246,0.0038918168283998966,-0.015260943211615086
1782969685480012300,1.97801220703125,-0.005176744423806667,0.011116502806544304,-0.016465283930301666
1782969685489938200,1.987938232421875,-0.0021705683320760727,0.009678928181529045,-0.016816820949316025
1782969685499864000,1.997864013671875,0.00002298745675943792,0.013648425228893757,-0.005619564559310675
1782969685509791200,2.007791259765625,0.004807888995856047,0.011377546004951,0.0025313058868050575
1782969685519717000,2.017717041015625,0.0030909073539078236,0.01123008318245411,0.00861213356256485
1782969685529643300,2.027643310546875,-0.0001943680690601468,0.011487610638141632,0.012759740464389324
1782969685539569200,2.037569091796875,-0.004461168777197599,0.024508556351065636,0.010920344851911068
1782969685549496000,2.04749609375,-0.010361135937273502,0.033881016075611115,0.015590731054544449
1782969685559422200,2.057422119140625,-0.01266865711659193,0.015250198543071747,0.005590010434389114
1782969685569348000,2.06734814453125,-0.007407315541058779,0.008203208446502686,-0.008143911138176918
1782969685579275000,2.07727490234375,-0.0005710640689358115,-0.00501257786527276,-0.017942683771252632
1782969685589201200,2.087201171875,0.002554954495280981,-0.009758863598108292,-0.015394304879009724
1782969685599127300,2.097127197265625,0.0036161153111606836,-0.004972487688064575,-0.009681805968284607
1782969685609054200,2.10705419921875,0.007063044235110283,-0.0021287642884999514,-0.006203451193869114
1782969685618980000,2.11697998046875,0.007656663190573454,0.004941928666085005,0.0005615104455500841
1782969685628906200,2.12690625,0.009038311429321766,0.01160888560116291,0.006811150349676609
1782969685638832000,2.13683203125,0.008716658689081669,0.013292113319039345,0.002775021828711033
1782969685648759000,2.146759033203125,0.010026933625340462,0.015280695632100105,0.010398320853710175
1782969685658685200,2.156685302734375,0.008515849709510803,0.0189291313290596,0.013551169075071812
1782969685668611300,2.166611328125,0.011817370541393757,0.01898159459233284,0.011876573786139488
1782969685678538000,2.1765380859375,0.013549182564020157,0.0125866224989295,0.004540660884231329
1782969685688464100,2.186464111328125,0.015662401914596558,0.005379575304687023,-0.011075849644839764
1782969685698390300,2.196390380859375,0.016146721318364143,-0.002703242003917694,-0.019895421341061592
1782969685708317200,2.206317138671875,0.02516072243452072,-0.003060371847823262,-0.029959507286548615
1782969685718243000,2.2162431640625,0.035328611731529236,-0.001537419157102704,-0.030976727604866028
1782969685728169200,2.226169189453125,0.04244378209114075,0.0050922539085149765,-0.026924993842840195
1782969685738095400,2.236095458984375,0.04359816759824753,0.002165235113352537,-0.022330032661557198
1782969685748022000,2.24602197265625,0.0458994060754776,-0.00019192835316061974,-0.0083537632599473
1782969685757948200,2.2559482421875,0.04239035025238991,-0.0017027673311531544,0.0034301090054214
1782969685767874300,2.265874267578125,0.03173317760229111,-0.0025001177564263344,0.011429712176322937
1782969685777801200,2.27580126953125,0.015499024651944637,-0.0013691822532564402,0.02013968862593174
1782969685787727000,2.28572705078125,0.0038436998147517443,-0.0005894089117646217,0.022197246551513672
1782969685797653200,2.2956533203125,-0.0033998736180365086,0.0035305768251419067,0.02076023630797863
1782969685807579400,2.305579345703125,-0.008062269538640976,0.005925823003053665,0.013734285719692707
1782969685817506000,2.315506103515625,-0.004927122965455055,0.009467322379350662,0.004460441879928112
1782969685827432200,2.32543212890625,-0.0033180408645421267,0.008270231075584888,-0.0005995642859488726
1782969685837358300,2.3353583984375,0.008270970545709133,0.006533583626151085,-0.014132683165371418
1782969685847285200,2.34528515625,0.01850070431828499,0.004803860560059547,-0.021242791786789894
1782969685857211100,2.355211181640625,0.031859394162893295,0.0013154749758541584,-0.022141220048069954
1782969685867137300,2.36513720703125,0.04994731768965721,0.004251077305525541,-0.018665261566638947
1782969685877064200,2.375064208984375,0.05703151226043701,0.006381223909556866,-0.005823968909680843
1782969685886990000,2.384989990234375,0.05925445258617401,0.00691971555352211,0.00881782453507185
1782969685896916200,2.394916259765625,0.054208435118198395,0.010798035189509392,0.01440736185759306
1782969685906842000,2.404842041015625,0.048315394669771194,0.013240952044725418,0.01709262654185295
1782969685916769300,2.414769287109375,0.04340438172221184,0.012928073294460773,0.013783288188278675
1782969685926695200,2.424695068359375,0.04813229292631149,0.003181169740855694,0.011561146937310696
1782969685936621300,2.434621337890625,0.043795645236968994,0.0001877015456557274,0.008122175000607967
1782969685946548200,2.44454833984375,0.044351447373628616,0.0019874656572937965,0.01316407136619091
1782969685956474400,2.454474365234375,0.04623149707913399,0.0011328989639878273,0.019715886563062668
1782969685966400300,2.464400146484375,0.04181251302361488,0.0012785736471414566,0.018094288185238838
1782969685976326100,2.474326171875,0.029961420223116875,0.0015310337767004967,0.016047602519392967
1782969685986253300,2.48425341796875,0.02301562950015068,0.003044774290174246,0.016193808987736702
1782969685996179200,2.49417919921875,0.019432472065091133,0.000471669714897871,0.010827711783349514
1782969686006105000,2.50410498046875,0.019267622381448746,0.002910059876739979,0.005632683634757996
1782969686016032300,2.5140322265625,0.019033629447221756,0.0036413981579244137,0.006792083382606506
1782969686025958400,2.52395849609375,0.02175484597682953,0.0014549428597092628,0.010325033217668533
1782969686035884000,2.533884033203125,0.028721394017338753,0.008151542395353317,0.012812236323952675
1782969686045811200,2.543811279296875,0.031136082485318184,0.005213543307036161,0.027512352913618088
1782969686055737300,2.5537373046875,0.028769878670573235,0.012198667973279953,0.0391998253762722
1782969686065663000,2.5636630859375,0.022706128656864166,0.017126580700278282,0.04895658418536186
1782969686075589000,2.573589111328125,0.018387246876955032,0.02065782994031906,0.050138913094997406
1782969686085516300,2.583516357421875,0.018932130187749863,0.01709558628499508,0.03360041603446007
1782969686095441700,2.593441650390625,0.02324708178639412,0.014336585067212582,0.010168719105422497
1782969686105367600,2.603367431640625,0.027565401047468185,0.0020887074060738087,-0.01878969371318817
1782969686115294700,2.613294677734375,0.02573316916823387,-0.004468254745006561,-0.03750474750995636
1782969686125220600,2.623220703125,0.023157892748713493,-0.004377706907689571,-0.044330429285764694
1782969686135146500,2.633146484375,0.019974607974290848,-0.0028398213908076286,-0.045713528990745544
1782969686145073700,2.64307373046875,0.013882361352443695,0.002862805500626564,-0.02680402249097824
1782969686154999800,2.652999755859375,0.003777711186558008,0.008187679573893547,-0.013610659167170525
1782969686164925700,2.66292578125,-0.003522812156006694,0.011988278478384018,0.0006985050858929753
1782969686174851600,2.6728515625,-0.01185263879597187,0.014487477019429207,0.0008522915886715055
1782969686184778800,2.68277880859375,-0.011659293435513973,0.013158293440937996,-0.006181649398058653
1782969686194704600,2.69270458984375,-0.00834689475595951,0.013112295418977737,-0.01386590301990509
1782969686204630500,2.702630615234375,-0.005232328549027443,0.010087743401527405,-0.013829417526721954
1782969686214557700,2.7125576171875,-0.002015013713389635,0.004957415629178286,-0.009470179677009583
1782969686224483800,2.72248388671875,-0.004793489817529917,0.001678265631198883,-0.0017454144544899464
1782969686234409500,2.732409423828125,-0.00971994549036026,0.005707669537514448,0.0021451027132570744
1782969686244335600,2.742335693359375,-0.009220070205628872,0.005543617997318506,0.0036670994013547897
1782969686254262800,2.7522626953125,-0.007636305410414934,0.007114965934306383,0.0043670544400811195
1782969686264188400,2.7621884765625,0.004566831514239311,0.009700097143650055,0.00527412723749876
1782969686274114600,2.772114501953125,0.0059140827506780624,0.014437137171626091,0.0011561131104826927
1782969686284041700,2.782041748046875,0.014764831401407719,0.01003173552453518,-0.0018466009059920907
1782969686293967600,2.791967529296875,0.01448068954050541,0.011966971680521965,-0.006921864114701748
1782969686303893500,2.8018935546875,0.013858575373888016,0.009982651099562645,-0.0121152950450778
1782969686313820700,2.811820556640625,0.01386807020753622,0.007913431152701378,-0.014668736606836319
1782969686323746600,2.82174658203125,0.013364466838538647,-0.0008283951319754124,-0.020784951746463776
1782969686333672700,2.831672607421875,0.008902797475457191,-0.005708659999072552,-0.015425743535161018
1782969686343598600,2.8415986328125,0.00513469148427248,-0.003165340982377529,-0.01019662618637085
1782969686353525800,2.85152587890625,0.0018197877798229456,0.003848689142614603,0.0012100001331418753
1782969686363451600,2.86145166015625,-0.0018569724634289742,0.007188559975475073,0.00518583320081234
1782969686373377500,2.87137744140625,-0.0027283658273518085,0.009684383869171143,0.00007004430517554283
1782969686383304700,2.8813046875,-0.007569992449134588,0.013210143893957138,-0.006217945367097855
1782969686393230600,2.891230712890625,-0.010830892249941826,0.008113876916468143,-0.007424528710544109
1782969686403156700,2.90115673828125,-0.007227635011076927,0.007378844544291496,-0.008897257037460804
1782969686413082600,2.91108251953125,-0.003909577615559101,-0.000028464943170547485,-0.012314580380916595
1782969686423009500,2.921009521484375,-0.0022429716773331165,0.0005153529345989227,-0.0066793314181268215
1782969686432935700,2.930935791015625,-0.007141773123294115,-0.0016187881119549274,0.0016797358402982354
1782969686442861600,2.940861572265625,-0.021045072004199028,0.0009857835248112679,0.008195691742002964
1782969686452788500,2.95078857421875,-0.03041568025946617,0.007464099209755659,0.010441679507493973
1782969686462714600,2.960714599609375,-0.03016134724020958,0.0031119617633521557,0.0036639347672462463
1782969686472640800,2.970640869140625,-0.023516127839684486,-0.0037405837792903185,-0.007677542511373758
1782969686482567400,2.9805673828125,-0.008801629766821861,-0.011293042451143265,-0.009260524995625019
1782969686492493600,2.99049365234375,0.004587311763316393,-0.013841988518834114,0.00039730139542371035
1782969686502419700,3.000419677734375,0.009251839481294155,-0.008709011599421501,0.018811462447047234
1782969686512345600,3.010345703125,0.00878970604389906,-0.007385447155684233,0.032349295914173126
1782969686522272500,3.0202724609375,0.0107788210734725,-0.0013459306210279465,0.03989216685295105
1782969686532198700,3.03019873046875,0.01579366996884346,-0.00473724864423275,0.041428595781326294
1782969686542124800,3.040124755859375,0.010397040285170078,0.0018410254269838333,0.03810283914208412
1782969686552051500,3.050051513671875,0.004117639269679785,-0.00570217939093709,0.028779124841094017
1782969686561977600,3.0599775390625,0.0030337327625602484,-0.01158803142607212,0.02260378561913967
1782969686571903700,3.06990380859375,-0.000504626368638128,-0.014772489666938782,0.014690798707306385
1782969686581830700,3.07983056640625,0.0010578501969575882,-0.01595626398921013,0.010430007241666317
1782969686591756500,3.089756591796875,-0.0013544410467147827,-0.012796424329280853,0.004794491920620203
1782969686601682700,3.0996826171875,0.0015979392919689417,-0.013802831992506981,0.007974572479724884
1782969686611608800,3.10960888671875,0.0029320414178073406,-0.014827309176325798,0.01047784835100174
1782969686621535500,3.119535400390625,-0.001431281678378582,-0.01790778711438179,0.017561325803399086
1782969686631461600,3.129461669921875,-0.013582919724285603,-0.018111219629645348,0.020570823922753334
1782969686641387800,3.1393876953125,-0.01869911700487137,0.00010027457028627396,0.0276471097022295
1782969686651314700,3.149314697265625,-0.033419717103242874,-0.014112741686403751,0.05567292869091034
1782969686661240600,3.159240478515625,-0.044496070593595505,-0.0017950893379747868,0.08096177875995636
1782969686671166700,3.169166748046875,-0.0497727170586586,0.004330140072852373,0.10551700741052628
1782969686681092900,3.1790927734375,-0.05254906043410301,0.02091018110513687,0.12354980409145355
1782969686691019500,3.18901953125,-0.052445463836193085,0.03161422163248062,0.13757933676242828
1782969686700945700,3.198945556640625,-0.04995407536625862,0.01736151985824108,0.13342320919036865
1782969686710871800,3.208871826171875,-0.04209224134683609,0.014470542781054974,0.10720551759004593
1782969686720798700,3.218798828125,-0.033158134669065475,0.010921613313257694,0.07375141978263855
1782969686730724600,3.228724609375,-0.019218685105443,-0.022700993344187737,0.06128409132361412
1782969686740650800,3.238650634765625,-0.006853627972304821,-0.03957478329539299,0.059675805270671844
1782969686750577700,3.24857763671875,-0.003524401690810919,-0.028850940987467766,0.049321290105581284
1782969686760503600,3.258503662109375,-0.013295539654791355,-0.018270470201969147,0.04201144725084305
1782969686770429700,3.2684296875,-0.022272923961281776,0.0004674014635384083,0.03551623225212097
1782969686780355600,3.27835546875,-0.02577418088912964,0.0034424192272126675,0.016146264970302582
1782969686790282800,3.28828271484375,-0.023395294323563576,-0.0015032892115414143,0.0032706311903893948
1782969686800208600,3.298208740234375,-0.012101095169782639,-0.004537695087492466,-0.004312719684094191
1782969686810134500,3.308134521484375,-0.003806347493082285,0.00027829734608531,0.0039747850969433784
1782969686820061700,3.318061767578125,0.0030454336665570736,0.012335758656263351,0.011576512828469276
1782969686829987800,3.32798779296875,0.010743391700088978,0.018124083057045937,0.014120634645223618
1782969686839913700,3.337913818359375,0.021185381338000298,0.02566189505159855,0.002072226954624057
1782969686849839600,3.347839599609375,0.031223725527524948,0.01727926917374134,-0.009727115742862225
1782969686859766800,3.357766845703125,0.03242587670683861,0.009203499183058739,-0.02610848657786846
1782969686869692700,3.367692626953125,0.017899107187986374,0.003815916832536459,-0.03367776796221733
1782969686879618600,3.37761865234375,0.004392086062580347,0.002493923529982567,-0.03500455245375633
1782969686889545700,3.387545654296875,-0.00600526062771678,0.0051666381768882275,-0.02706579677760601
1782969686899472000,3.397471923828125,-0.0007926556863822043,0.010084697976708412,-0.014695148915052414
1782969686909397500,3.4073974609375,-0.0014084615977481008,0.009070450440049171,-0.0018706328701227903
1782969686919324700,3.41732470703125,-0.008392867632210255,-0.0034448085352778435,0.007768678478896618
1782969686929250800,3.427250732421875,-0.014853455126285553,-0.0038610687479376793,0.02660224214196205
1782969686939176400,3.437176513671875,-0.020696964114904404,-0.0017252133693546057,0.0275532566010952
1782969686949102600,3.4471025390625,-0.01584320329129696,-0.0008186246268451214,0.026337474584579468
1782969686959029800,3.45702978515625,-0.005783111788332462,-0.001180548220872879,0.025245312601327896
1782969686968955600,3.46695556640625,0.005989658180624247,-0.006349477451294661,0.011077295988798141
1782969686978881500,3.476881591796875,0.010651255026459694,-0.003287641331553459,-0.002291240729391575
1782969686988808700,3.48680859375,0.010740071535110474,-0.004214019514620304,-0.009189387783408165
1782969686998734600,3.496734619140625,0.007082751952111721,0.0008103004656732082,-0.011772919446229935
1782969687008660500,3.506660400390625,-0.0010576401837170124,0.0035716709680855274,-0.01142185740172863
1782969687018586600,3.516586669921875,-0.0030728543642908335,-0.0013647640589624643,-0.012772345915436745
1782969687028513800,3.526513671875,-0.00201414804905653,-0.0025229391176253557,-0.015154683031141758
1782969687038439700,3.536439697265625,0.0013121403753757477,-0.005102743394672871,-0.016269482672214508
1782969687048365600,3.546365478515625,-0.0005624755867756903,-0.008420692756772041,-0.016881132498383522
1782969687058292700,3.556292724609375,-0.002840010914951563,-0.0035124870482832193,-0.01308532990515232
1782969687068218600,3.566218505859375,-0.004646907094866037,-0.004540091846138239,0.005176921840757132
1782969687078144500,3.57614453125,-0.009983349591493607,-0.005111073609441519,0.022382274270057678
1782969687088071700,3.58607177734375,-0.008680306375026703,-0.003914174623787403,0.02777174487709999
1782969687097998000,3.595998046875,-0.007063234690576792,-0.0032462538219988346,0.019558556377887726
1782969687107924000,3.605924072265625,-0.00347152934409678,-0.004576536361128092,0.0064042783342301846
1782969687117850000,3.61585009765625,-0.0026619285345077515,-0.009103643707931042,-0.010237548500299454
1782969687127777000,3.625777099609375,0.0005323251825757325,-0.011355504393577576,-0.023874640464782715
1782969687137703200,3.635703125,0.0016513855662196875,-0.01144205592572689,-0.029098430648446083
1782969687147629000,3.645629150390625,-0.011555047705769539,-0.006596284918487072,-0.02512413263320923
1782969687157556000,3.655555908203125,-0.019518697634339333,-0.0008651623502373695,-0.02374514751136303
1782969687167482000,3.665482177734375,-0.02638145536184311,0.004209116101264954,-0.014466319233179092
1782969687177408000,3.675407958984375,-0.03078445792198181,0.005595558322966099,-0.011338436976075172
1782969687187334100,3.685334228515625,-0.022333351895213127,-0.002480977214872837,-0.01853497140109539
1782969687197261000,3.695260986328125,-0.010985887609422207,-0.004312965553253889,-0.02905845269560814
1782969687207187200,3.705187255859375,0.0009253406897187233,-0.008662980049848557,-0.033303577452898026
1782969687217113000,3.715113037109375,0.007817069068551064,-0.01958087459206581,-0.030026288703083992
1782969687227040000,3.7250400390625,0.014295175671577454,-0.01646374724805355,-0.017077313736081123
1782969687236966100,3.734966064453125,0.012453333474695683,-0.009533936157822609,0.00248520215973258
1782969687246892000,3.74489208984375,0.009866327047348022,0.0061716982163488865,0.025299372151494026
1782969687256819000,3.75481884765625,0.009148871526122093,0.016144171357154846,0.036474261432886124
1782969687266745000,3.7647451171875,0.012901575304567814,0.01111045852303505,0.04280583932995796
1782969687276671200,3.774671142578125,0.02217417024075985,0.004820870701223612,0.03585232421755791
1782969687286597000,3.78459716796875,0.019318146631121635,0.0039047240279614925,0.025457439944148064
1782969687296524000,3.79452392578125,0.013650407083332539,-0.00416199117898941,0.019986508414149284
1782969687306450200,3.8044501953125,-0.0005929186590947211,-0.007761144079267979,0.012860046699643135
1782969687316376000,3.8143759765625,-0.018571119755506516,-0.0010907244868576527,0.009388882666826248
1782969687326303000,3.824302978515625,-0.030351629480719566,0.0012324335984885693,0.008974039927124977
1782969687336229000,3.83422900390625,-0.032987628132104874,-0.000072515569627285,0.007051502820104361
1782969687346155300,3.8441552734375,-0.022024858742952347,-0.0003253803588449955,0.0029917526990175247
1782969687356081000,3.854080810546875,-0.012634551152586937,-0.008042954839766026,-0.002831248566508293
1782969687366008000,3.864008056640625,-0.0020684762857854366,-0.009147020056843758,-0.006430966779589653
1782969687375934200,3.873934326171875,0.0029230862855911255,-0.011609644629061222,-0.009009438566863537
1782969687385859800,3.88385986328125,0.005333621520549059,-0.012362929061055183,0.0019483858486637473
1782969687395787000,3.893787109375,0.005341610871255398,-0.005254153627902269,0.014340073801577091
1782969687405713200,3.903713134765625,-0.0008570875506848097,-0.002442361321300268,0.02521197684109211
1782969687415639000,3.91363916015625,-0.005167413502931595,-0.0010655070655047894,0.03369414806365967
1782969687425566000,3.92356591796875,-0.007659474853426218,0.005187370348721743,0.0267192330211401
1782969687435492000,3.9334921875,0.0007555814809165895,0.008398609235882759,0.019367842003703117
1782969687445418200,3.943418212890625,0.0020488291047513485,0.007927680388092995,0.005926258862018585
1782969687455343900,3.95334375,0.0075506530702114105,-0.000020790379494428635,-0.004860608838498592
1782969687465271000,3.96327099609375,0.004663378931581974,-0.004574221558868885,-0.020070282742381096
1782969687475197200,3.973197265625,0.000983689446002245,-0.0038591630291193724,-0.024050110951066017
1782969687485123000,3.983123046875,0.0026677728164941072,-0.009567681699991226,-0.026928314939141273
1782969687495050000,3.993050048828125,-0.004882289096713066,-0.016476986929774284,-0.022005727514624596
1782969687504976100,4.00297607421875,-0.007657244801521301,-0.0134121123701334,-0.009709224104881287
1782969687514902000,4.012902099609375,-0.008354992605745792,-0.018026838079094887,0.015316767618060112
1782969687524828000,4.022827880859375,-0.00994390994310379,-0.018815426155924797,0.04524955153465271
1782969687534755000,4.032755126953125,-0.0056338501162827015,-0.004082819446921349,0.07167450338602066
1782969687544681000,4.042680908203125,-0.0025696582160890102,0.0011072233319282532,0.09336864948272705
1782969687554607000,4.052607177734375,0.0011608977802097797,0.013432865962386131,0.09791839122772217
1782969687564534000,4.062533935546875,0.009138555265963078,0.01188118476420641,0.08014073967933655
1782969687574460000,4.0724599609375,0.012803331017494202,0.0027872882783412933,0.05215517804026604
1782969687584386000,4.082385986328125,0.01420787163078785,-0.0053988294675946236,0.021648067981004715
1782969687594313200,4.092313232421875,0.00586392218247056,-0.008167451247572899,-0.003465007059276104
1782969687604239000,4.102239013671875,-0.00675241881981492,-0.010186975821852684,-0.01996191032230854
1782969687614165000,4.1121650390625,-0.01708388701081276,-0.01653382182121277,-0.038583796471357346
1782969687624091100,4.122091064453125,-0.01306917890906334,-0.01228031050413847,-0.04655342921614647
1782969687634018000,4.13201806640625,-0.007452839519828558,-0.01128588616847992,-0.033044010400772095
1782969687643944000,4.14194384765625,-0.0004968615830875933,-0.004371854942291975,-0.020734600722789764
1782969687653870000,4.1518701171875,-0.005724912974983454,-0.00044475775212049484,-0.015477522276341915
1782969687663797200,4.16179736328125,-0.009643222205340862,0.008897877298295498,-0.006529034581035376
1782969687673723000,4.171722900390625,-0.015824418514966965,0.008594277314841747,0.004240522626787424
1782969687683649000,4.18164892578125,-0.014959465712308884,0.012463659048080444,0.020009132102131844
1782969687693575200,4.1915751953125,-0.011580979451537132,0.00912618637084961,0.01968396082520485
1782969687703502000,4.201502197265625,-0.007271327544003725,0.0020347610116004944,0.01746332086622715
1782969687713428000,4.211427978515625,0.0010896665044128895,-0.006965658161789179,0.010652553290128708
1782969687723354000,4.22135400390625,0.0027584447525441647,-0.008921824395656586,0.004215926863253117
1782969687733281000,4.231281005859375,0.003539017401635647,-0.009507986716926098,0.0014307931996881962
1782969687743207000,4.24120703125,-0.003823723876848817,-0.010009958408772945,-0.007159372791647911
1782969687753133000,4.251133056640625,-0.003241556929424405,-0.007147326599806547,-0.009286971762776375
1782969687763060000,4.26106005859375,-0.005911600776016712,-0.007589752785861492,-0.008892056532204151
1782969687772986000,4.270986083984375,-0.011092780157923698,-0.005336718168109655,-0.016844788566231728
1782969687782912000,4.280912109375,-0.017729461193084717,-0.004669713322073221,-0.02379957027733326
1782969687792838100,4.290838134765625,-0.018937470391392708,-0.00445106765255332,-0.03192194551229477
1782969687802765000,4.30076513671875,-0.01975061744451523,0.0019412017427384853,-0.029106656089425087
1782969687812691000,4.31069091796875,-0.028022928163409233,-0.0020420881919562817,-0.023559557273983955
1782969687822617000,4.3206171875,-0.03435099869966507,-0.005139479413628578,-0.014353512786328793
1782969687832544000,4.3305439453125,-0.04356127604842186,-0.0017546014860272408,-0.002336797770112753
1782969687842470100,4.34047021484375,-0.04953567683696747,-0.0011027911677956581,0.009803992696106434
1782969687852396000,4.35039599609375,-0.054095540195703506,0.004995048977434635,0.020477674901485443
1782969687862322200,4.360322265625,-0.051618143916130066,-0.002953646704554558,0.021091174334287643
1782969687872249000,4.3702490234375,-0.042889632284641266,-0.0014199323486536741,0.017905235290527344
1782969687882176300,4.38017626953125,-0.029332786798477173,-0.008015509694814682,0.010267067700624466
1782969687892102000,4.390101806640625,-0.01799624226987362,-0.01197855919599533,0.0036712163127958775
1782969687902028000,4.400028076171875,-0.010623583570122719,-0.011179445311427116,-0.004787893500179052
1782969687911955200,4.409955078125,-0.010391355492174625,-0.010996218770742416,-0.010837797075510025
1782969687921881000,4.419881103515625,-0.01375692430883646,-0.012901045382022858,-0.011690037325024605
1782969687931807000,4.429806884765625,-0.02004810981452465,-0.011183572933077812,-0.013009367510676384
1782969687941734100,4.439734130859375,-0.019541826099157333,-0.002900158753618598,-0.01594344899058342
1782969687951660000,4.449659912109375,-0.017749784514307976,-0.0015997372101992369,-0.018072379752993584
1782969687961586000,4.4595859375,-0.011154658161103725,-0.008364671841263771,-0.02018444985151291
1782969687971512000,4.469511962890625,-0.0034397474955767393,-0.009715959429740906,-0.011875920929014683
1782969687981439200,4.479439208984375,0.0005797040648758411,-0.013114262372255325,-0.0008846807759255171
1782969687991364900,4.48936474609375,0.005680989008396864,-0.006234518717974424,0.015803486108779907
1782969688001291000,4.499291015625,0.005100287031382322,-0.0009251097217202187,0.027295852079987526
1782969688011218200,4.50921826171875,0.00321263843216002,0.00455727381631732,0.032114576548337936
1782969688021144000,4.51914404296875,-0.00023349188268184662,0.0062457178719341755,0.035765502601861954
1782969688031070000,4.529070068359375,0.002314887009561062,0.004491493571549654,0.025953618809580803
1782969688040997000,4.5389970703125,0.005563902202993631,-0.0035328019876033068,0.01915779523551464
1782969688050923000,4.548923095703125,0.013212233781814575,0.0002470226027071476,0.007939229719340801
1782969688060849000,4.558848876953125,0.015125981532037258,-0.0005388762801885605,0.011044475249946117
1782969688070775000,4.568775146484375,0.014941424131393433,0.0016268063336610794,0.011849815025925636
1782969688080702000,4.578701904296875,0.0066818553023040295,0.003953152801841497,0.011539855040609837
1782969688090628000,4.588628173828125,-0.0004905702080577612,0.002337945159524679,0.0014299630420282483
1782969688100553700,4.5985537109375,-0.002899357583373785,-0.000031810253858566284,-0.007856245152652264
1782969688110481000,4.60848095703125,-0.002416526433080435,-0.0026065546553581953,-0.017743229866027832
1782969688120406800,4.61840673828125,0.0005046530859544873,-0.0036248723044991493,-0.024679401889443398
1782969688130332700,4.628332763671875,0.003149172058328986,-0.006307740695774555,-0.02823951654136181
1782969688140258800,4.6382587890625,0.004940887913107872,-0.012163341045379639,-0.01936628669500351
1782969688150185700,4.648185791015625,0.003055636305361986,-0.005274009890854359,-0.008920303545892239
1782969688160111900,4.65811181640625,-0.001840917393565178,-0.021440396085381508,0.016025777906179428
1782969688170037800,4.668037841796875,-0.007535821292549372,0.011249106377363205,0.04510137066245079
1782969688179964700,4.677964599609375,-0.02578861080110073,0.004363053943961859,0.052655238658189774
1782969688189890800,4.687890869140625,-0.03029680997133255,0.011328285560011864,0.0495728962123394
1782969688199816700,4.697816650390625,-0.03285263106226921,0.00418081134557724,0.03145027533173561
1782969688209743600,4.70774365234375,-0.026207508519291878,0.001243610866367817,0.014441996812820435
1782969688219669800,4.717669677734375,-0.013443062081933022,-0.007831492461264133,-0.006975082214921713
1782969688229596000,4.727595947265625,0.0006719582015648484,-0.01343691349029541,-0.026549847796559334
1782969688239521800,4.737521728515625,0.0029519149102270603,-0.02189723588526249,-0.029572490602731705
1782969688249448700,4.74744873046875,-0.0033216935116797686,-0.019705189391970634,-0.02702650986611843
1782969688259374800,4.757374755859375,-0.011132611893117428,-0.011227413080632687,-0.017122507095336914
1782969688269300700,4.76730078125,-0.02386385202407837,-0.006450767628848553,-0.0011800252832472324
1782969688279227600,4.7772275390625,-0.030435526743531227,0.0006600301712751389,-0.002796189859509468
1782969688289153800,4.78715380859375,-0.03490644320845604,0.0037407749332487583,0.0019458347233012319
1782969688299080000,4.797079833984375,-0.036456234753131866,-0.002781872870400548,0.009296298958361149
1782969688309005800,4.807005859375,-0.03399574011564255,0.02500847913324833,0.0195742379873991
1782969688318932700,4.8169326171875,-0.045480698347091675,0.0018940791487693787,0.030024932697415352
1782969688328859000,4.82685888671875,-0.03470741584897041,0.011562153697013855,0.024077828973531723
1782969688338784800,4.83678466796875,-0.024638500064611435,0.007484953384846449,0.01148971077054739
1782969688348711700,4.846711669921875,-0.008149804547429085,0.0035248328931629658,0.004289588890969753
1782969688358637800,4.856637939453125,0.005917469039559364,-0.0016441212501376867,-0.0027026215102523565
1782969688368564000,4.86656396484375,0.018384790048003197,-0.0004904400557279587,-0.011488922871649265
1782969688378491000,4.876490966796875,0.02745835669338703,-0.004738921299576759,-0.02023320645093918
1782969688388416800,4.886416748046875,0.03613786771893501,-0.008328329771757126,-0.020565301179885864
1782969688398343000,4.896343017578125,0.041416823863983154,-0.01281476579606533,-0.006004233378916979
1782969688408269000,4.90626904296875,0.027296477928757668,-0.006172842346131802,0.011763843707740307
1782969688418195700,4.91619580078125,0.0081784687936306,0.008358970284461975,0.028073089197278023
1782969688428121900,4.926121826171875,-0.005458780098706484,0.01409941352903843,0.03162441402673721
1782969688438048000,4.936048095703125,-0.013367386534810066,0.015776023268699646,0.0265950970351696
1782969688447975000,4.945974853515625,-0.01658395305275917,0.014111547730863094,0.014729914255440235
1782969688457900800,4.95590087890625,-0.0175338014960289,0.006050991825759411,-0.004239920526742935
1782969688467827000,4.965826904296875,-0.016725532710552216,0.003824855200946331,-0.02251107059419155
1782969688477753900,4.97575390625,-0.014209644868969917,0.0008162828162312508,-0.03950896114110947
1782969688487679700,4.9856796875,-0.0052920496091246605,-0.0005352715961635113,-0.04217052459716797
1782969688497606000,4.99560595703125,-0.005306506063789129,-0.004514593631029129,-0.037241894751787186
1782969688507531800,5.00553173828125,-0.004397302865982056,-0.006992665119469166,-0.032067105174064636
1782969688517459000,5.015458984375,-0.0030758422799408436,0.002173136454075575,-0.01639653369784355
1782969688527384800,5.025384765625,-0.009399251081049442,0.005446694325655699,-0.005216849036514759
1782969688537310700,5.035310791015625,-0.016363834962248802,0.006802727002650499,0.0015862450236454606
1782969688547238000,5.04523779296875,-0.020999066531658173,0.008827527984976768,-0.0049464888870716095
1782969688557163800,5.055163818359375,-0.024951782077550888,0.004125438164919615,-0.01482743863016367
1782969688567090000,5.06508984375,-0.02357732504606247,-0.0037726990412920713,-0.024770084768533707
1782969688577015800,5.075015869140625,-0.016567375510931015,-0.0014861212112009525,-0.028334718197584152
1782969688586943000,5.08494287109375,-0.009290819987654686,-0.0038637914694845676,-0.02102753520011902
1782969688596868900,5.094868896484375,-0.0024791359901428223,-0.0010443520732223988,-0.004730804357677698
1782969688606794800,5.104794677734375,0.0006490132072940469,-0.0019279890693724155,0.00889845471829176
1782969688616722000,5.114721923828125,-0.005569609347730875,-0.00535676721483469,0.016723792999982834
1782969688626647800,5.124647705078125,-0.009787523187696934,-0.004623599350452423,0.020902559161186218
1782969688636573700,5.13457373046875,-0.011605030857026577,-0.0037500483449548483,0.02783435955643654
1782969688646500900,5.1445009765625,-0.0071026915684342384,-0.0015454837121069431,0.023665180429816246
1782969688656427000,5.154427001953125,-0.0017719832248985767,-0.0017345265951007605,0.017465781420469284
1782969688666352600,5.1643525390625,0.010271363891661167,0.0017888355068862438,0.010595624335110188
1782969688676278800,5.17427880859375,0.02238530106842518,0.00014611473307013512,0.0040055555291473866
1782969688686206000,5.1842060546875,0.03389788046479225,0.001016436144709587,-0.0016427431255578995
1782969688696131600,5.194131591796875,0.031507641077041626,-0.0019562027882784605,-0.010811774991452694
1782969688706057700,5.2040576171875,0.026562152430415154,-0.007567216642200947,-0.010896463878452778
1782969688715985000,5.21398486328125,0.017636701464653015,-0.004507376346737146,-0.012782275676727295
1782969688725910800,5.223910888671875,0.011211825534701347,-0.002283636946231127,-0.01220836490392685
1782969688735836700,5.233836669921875,0.0011988976038992405,0.00147595489397645,-0.008929169736802578
1782969688745762800,5.2437626953125,0.00006439106073230505,0.0006389236077666283,-0.010975543409585953
1782969688755690000,5.25368994140625,0.000037102203350514174,-0.0004322407767176628,-0.016465287655591965
1782969688765615600,5.26361572265625,0.0009076895657926798,-0.0010253270156681538,-0.013346727006137371
1782969688775541800,5.273541748046875,0.003751395968720317,-0.00007982226088643074,-0.009135925211012363
1782969688785469000,5.283468994140625,0.007363707758486271,0.010063625872135162,-0.00027638720348477364
1782969688795394800,5.293394775390625,0.005161622539162636,0.008965721353888512,0.014515546150505543
1782969688805320700,5.30332080078125,0.0021112379617989063,0.008728966116905212,0.009604676626622677
1782969688815248000,5.313247802734375,0.002187137957662344,0.0005820896476507187,0.0016032083658501506
1782969688825173800,5.323173828125,0.005260159727185965,-0.001092506106942892,0.0009611203568056226
1782969688835099600,5.333099609375,0.0014490431640297174,-0.0012537585571408272,0.0022974666208028793
1782969688845025800,5.34302587890625,0.0029513323679566383,0.000573968980461359,-0.00038726581260561943
1782969688854952700,5.35295263671875,0.007923745550215244,-0.0012516204733401537,-0.00525947380810976
1782969688864878800,5.36287890625,0.012986415065824986,-0.0035877455957233906,-0.011112568899989128
1782969688874804700,5.3728046875,0.0074262674897909164,-0.00402104202657938,-0.018305765464901924
1782969688884731600,5.382731689453125,0.003999577835202217,-0.005459148902446032,-0.022846989333629608
1782969688894657800,5.39265771484375,-0.0023944054264575243,-0.003082277486100793,-0.02574850246310234
1782969688904584000,5.402583984375,-0.008781997486948967,-0.0044173202477395535,-0.027823105454444885
1782969688914509800,5.412509765625,-0.012153001502156258,-0.004838358610868454,-0.024579064920544624
1782969688924436700,5.422436767578125,-0.014338125474750996,-0.0036572464741766453,-0.019110528752207756
1782969688934363000,5.43236279296875,-0.011057693511247635,-0.0019136897753924131,-0.0067847114987671375
1782969688944288800,5.442288818359375,-0.010431052185595036,0.0030858623795211315,0.0017672315007075667
1782969688954215700,5.452215576171875,-0.011026567779481411,0.004229855258017778,0.003973547834903002
1782969688964141800,5.462141845703125,-0.012526992708444595,0.0028996062465012074,-0.006463912781327963
1782969688974068000,5.47206787109375,-0.009221401996910572,-0.00040375301614403725,-0.015782231464982033
1782969688983994600,5.48199462890625,-0.006717232055962086,-0.00035794638097286224,-0.02449795976281166
1782969688993920800,5.491920654296875,-0.0017333427676931024,0.0015499568544328213,-0.03256618231534958
1782969689003847000,5.501846923828125,0.004802320618182421,-0.0012551506515592337,-0.0355161651968956
1782969689013772800,5.511772705078125,0.005797494202852249,-0.0014892574399709702,-0.0315883606672287
1782969689023699700,5.52169970703125,0.0022248639725148678,-0.001637062756344676,-0.02250698022544384
1782969689033625900,5.5316259765625,-0.010594993829727173,-0.0026749642565846443,-0.01766853593289852
1782969689043552000,5.541552001953125,-0.019521111622452736,-0.004700032062828541,-0.017322057858109474
1782969689053478700,5.551478759765625,-0.030170593410730362,-0.0016167247667908669,-0.018077708780765533
1782969689063404800,5.56140478515625,-0.03171949088573456,-0.008605126291513443,-0.023087913170456886
1782969689073331000,5.5713310546875,-0.025701159611344337,-0.00982357095927,-0.020901676267385483
1782969689083256800,5.5812568359375,-0.01323037501424551,-0.007880263030529022,-0.00900000985711813
1782969689093183700,5.591183837890625,-0.005698223598301411,0.005445730406790972,0.0027519739232957363
1782969689103110000,5.60110986328125,-0.0031474477145820856,0.010202402248978615,0.004356261808425188
1782969689113036000,5.6110361328125,0.0020965246949344873,0.010098963044583797,-0.0008626264752820134
1782969689122962700,5.620962646484375,0.00956589262932539,0.005408603698015213,-0.0175798200070858
1782969689132888800,5.630888916015625,0.014390699565410614,-0.006703910417854786,-0.031072428449988365
1782969689142815000,5.64081494140625,0.012757116928696632,-0.013452094048261642,-0.03664376214146614
1782969689152742000,5.650741943359375,0.005296977236866951,-0.015825709328055382,-0.03027433715760708
1782969689162667800,5.660667724609375,0.00024256360484287143,-0.01244535855948925,-0.011574951931834221
1782969689172594000,5.670593994140625,-0.0015180765185505152,-0.002840679604560137,0.007078902795910835
1782969689182519800,5.680519775390625,-0.002911442192271352,0.003435326274484396,0.01704232208430767
1782969689192446700,5.69044677734375,-0.0051254937425255775,0.007312389090657234,0.01518009789288044
1782969689202372900,5.700372802734375,-0.005363314412534237,0.006239667534828186,0.0030435402877628803
1782969689212298800,5.710298828125,-0.0038698725402355194,0.002837903331965208,-0.019487490877509117
1782969689222226000,5.720225830078125,0.0034562174696475267,-0.004904704634100199,-0.030783023685216904
1782969689232151800,5.73015185546875,0.005672440864145756,-0.005174058489501476,-0.043869152665138245
1782969689242078000,5.740077880859375,0.007552632596343756,-0.008694224990904331,-0.04517117515206337
1782969689252003800,5.75000390625,0.0031355652026832104,-0.004974569659680128,-0.036759812384843826
1782969689261930800,5.7599306640625,-0.003634190419688821,-0.0002306811511516571,-0.025278393179178238
1782969689271857000,5.76985693359375,-0.013822629116475582,0.001512275543063879,-0.01591878943145275
1782969689281782800,5.77978271484375,-0.015808282420039177,0.0026449179276823997,-0.009100831113755703
1782969689291710000,5.7897099609375,-0.00974954105913639,0.0010076211765408516,-0.007741196546703577
1782969689301635800,5.7996357421875,-0.0018005373422056437,-0.0031905858777463436,-0.005753946024924517
1782969689311561700,5.809561767578125,0.00949577521532774,-0.010963471606373787,-0.006113660987466574
1782969689321488000,5.81948779296875,0.013007153756916523,-0.01200663112103939,-0.004445989616215229
1782969689331414800,5.829414794921875,0.014429589733481407,-0.007875344716012478,0.005269989371299744
1782969689341340700,5.839340576171875,0.007468086201697588,-0.0004619029350578785,0.008589886128902435
1782969689351266800,5.849266845703125,-0.0027357395738363266,0.004414103925228119,0.007103922311216593
1782969689361194000,5.859194091796875,-0.015841420739889145,0.005995489656925201,-0.004101860336959362
1782969689371119600,5.86911962890625,-0.016964711248874664,0.001113750971853733,-0.020344367250800133
1782969689381045800,5.879045654296875,-0.012111365795135498,-0.006013134494423866,-0.03277973085641861
1782969689390973000,5.888972900390625,-0.008236415684223175,-0.012222813442349434,-0.041559815406799316
1782969689400898800,5.89889892578125,-0.003451514057815075,-0.015391708351671696,-0.04386371746659279
1782969689410824700,5.90882470703125,0.005849509499967098,-0.0147362370043993,-0.02994099259376526
1782969689420750800,5.918750732421875,0.009580864571034908,-0.01082831434905529,-0.01249861903488636
1782969689430678000,5.928677978515625,0.010440557263791561,-0.007679118774831295,0.009772110730409622
1782969689440603600,5.938603759765625,0.004685999359935522,-0.004291578195989132,0.024727892130613327
1782969689450529800,5.94852978515625,-0.006688977591693401,-0.0035678467247635126,0.038410477340221405
1782969689460457000,5.95845703125,-0.01381612941622734,0.00019599869847297668,0.0465719997882843
1782969689470382800,5.9683828125,-0.014700098894536495,-0.0018710792064666748,0.04128801077604294
1782969689480308700,5.978308837890625,-0.018781393766403198,-0.0004782457835972309,0.026043808087706566
1782969689490235000,5.98823486328125,-0.009828702546656132,-0.0008213701657950878,0.00582173652946949
1782969689500161800,5.998161865234375,-0.0026506849098950624,0.001358427107334137,-0.016234297305345535
1782969689510087700,6.008087646484375,0.005771037191152573,-0.0010098316706717014,-0.034769777208566666
1782969689520013800,6.018013916015625,0.01501939631998539,-0.00464158458635211,-0.04424743354320526
1782969689529940700,6.027940673828125,0.01485863421112299,-0.007624114863574505,-0.04975724220275879
1782969689539867000,6.037866943359375,0.013666336424648762,-0.008168998174369335,-0.04181090369820595
1782969689549792800,6.047792724609375,0.01087590865790844,-0.00728952419012785,-0.021217042580246925
1782969689559719000,6.057718994140625,0.004598837811499834,-0.0023482951801270247,-0.0002451826585456729
1782969689569645800,6.067645751953125,-0.0005168603966012597,-0.0012280014343559742,0.015114963985979557
1782969689579571700,6.07757177734375,-0.006965705193579197,0.001698280218988657,0.0243111252784729
1782969689589497900,6.087497802734375,-0.003305864054709673,0.002959328703582287,0.023753097280859947
1782969689599424800,6.0974248046875,-0.00042565539479255676,0.0033532101660966873,0.020447848364710808
1782969689609351000,6.107350830078125,-0.0013451785780489445,0.004484985489398241,0.01387411542236805
1782969689619276800,6.11727685546875,0.004357448313385248,0.004955566022545099,-0.002934691496193409
1782969689629203700,6.12720361328125,0.004722218494862318,0.0026944265700876713,-0.021730421110987663
1782969689639129900,6.1371298828125,0.00908447615802288,0.006000208202749491,-0.03760978579521179
1782969689649055700,6.1470556640625,0.008132087998092175,0.001994888763874769,-0.04829515516757965
1782969689658982000,6.15698193359375,0.012420576997101307,-0.0060728914104402065,-0.04775666445493698
1782969689668908800,6.16690869140625,0.007131130434572697,-0.008668100461363792,-0.040306564420461655
1782969689678835000,6.1768349609375,-0.0001590066240169108,-0.003461354412138462,-0.030519980937242508
1782969689688760800,6.1867607421875,-0.005847876891493797,-0.0008793589659035206,-0.01641860231757164
1782969689698687700,6.196687744140625,-0.014262400567531586,0.0028410772792994976,-0.003929974045604467
1782969689708614000,6.20661376953125,-0.02040349319577217,0.00512594124302268,0.008824776858091354
1782969689718539800,6.216539794921875,-0.022429360076785088,0.002653729170560837,0.00940188392996788
1782969689728466000,6.2264658203125,-0.02222876437008381,-0.003377689979970455,0.005481601692736149
1782969689738392800,6.236392822265625,-0.007833579555153847,-0.0046613337472081184,0.001096706953831017
1782969689748319000,6.246319091796875,0.000707444385625422,-0.003941215109080076,-0.0012697780039161444
1782969689758244900,6.256244873046875,0.010660743340849876,-0.0013678024988621473,-0.005602741148322821
1782969689768171800,6.266171875,0.0044071488082408905,-0.0031399442814290524,-0.00948113389313221
1782969689778098000,6.276097900390625,0.0010848557576537132,-0.0006504212506115437,-0.01741948537528515
1782969689788023800,6.28602392578125,-0.003669902216643095,-0.006093371193856001,-0.024548998102545738
1782969689797950700,6.29595068359375,-0.006836400832980871,-0.006390579976141453,-0.03008730709552765
1782969689807876900,6.305876953125,-0.011918976902961731,-0.0059594823978841305,-0.030521387234330177
1782969689817803000,6.315802978515625,-0.005448560230433941,-0.00373813952319324,-0.019870607182383537
1782969689827728600,6.325728759765625,0.00514795770868659,0.0024680239148437977,-0.015390092507004738
1782969689837655800,6.33565576171875,0.005288306158035994,0.0030131726525723934,-0.007494885474443436
1782969689847582000,6.34558203125,0.009414991363883018,-0.00019571883603930473,-0.009283947758376598
1782969689857507600,6.355507568359375,0.010974804870784283,-0.003327596001327038,-0.016944531351327896
1782969689867434800,6.365434814453125,0.007011105306446552,-0.007529216818511486,-0.024953238666057587
1782969689877361000,6.37536083984375,-0.0037470003589987755,-0.010242179036140442,-0.033790938556194305
1782969689887286800,6.385286865234375,-0.011671768501400948,-0.00896945409476757,-0.03429507464170456
1782969689897212700,6.395212646484375,-0.018979748710989952,-0.0017102095298469067,-0.029333073645830154
1782969689907139800,6.405139892578125,-0.022274920716881752,-0.002607886213809252,-0.019273215904831886
1782969689917066000,6.41506591796875,-0.010838507674634457,0.019050536677241325,-0.008605658076703548
1782969689926991600,6.42499169921875,-0.017534475773572922,-0.005664744880050421,0.0006490155356004834
1782969689936918800,6.434918701171875,-0.007652284111827612,0.0019391127862036228,0.002380868885666132
1782969689946845000,6.444844970703125,-0.0018185884691774845,0.002598969265818596,-0.006673910189419985
1782969689956770800,6.454770751953125,0.0015399239491671324,0.00686535332351923,-0.011232443153858185
1782969689966696700,6.46469677734375,0.005025043617933989,-0.005483334418386221,-0.01912686787545681
1782969689976623900,6.474623779296875,0.0019240591209381819,-0.010193933732807636,-0.03893306478857994
1782969689986549800,6.4845498046875,-0.0060498532839119434,-0.005594347137957811,-0.04631357640028
1782969689996475600,6.4944755859375,-0.021700186654925346,-0.004987678956240416,-0.040704429149627686
1782969690006402800,6.50440283203125,-0.03274855762720108,-0.004409057088196278,-0.028242774307727814
1782969690016328700,6.51432861328125,-0.038499921560287476,-0.0003663785755634308,-0.013868894428014755
1782969690026254800,6.5242548828125,-0.04219377413392067,0.0015769153833389282,-0.01021273247897625
1782969690036182000,6.53418212890625,-0.03683150187134743,-0.009954039007425308,-0.008006835356354713
1782969690046107600,6.544107666015625,-0.025917591527104378,-0.02075839415192604,-0.004595470614731312
1782969690056033800,6.55403369140625,-0.0197390578687191,-0.025242624804377556,-0.002698234748095274
1782969690065960000,6.5639599609375,-0.02028021216392517,-0.028310319408774376,0.008618867956101894
1782969690075886800,6.573886962890625,-0.029679838567972183,-0.021400215104222298,0.020754626020789146
1782969690085812700,6.583812744140625,-0.0360255129635334,-0.01869325526058674,0.031787555664777756
1782969690095738400,6.59373828125,-0.03720342740416527,-0.012121904641389847,0.034135665744543076
1782969690105665500,6.60366552734375,-0.032004449516534805,-0.006151022855192423,0.02388731762766838
1782969690115591400,6.61359130859375,-0.02281254529953003,-0.0125532615929842,0.0060989996418356895
1782969690125517300,6.623517333984375,-0.01258300244808197,-0.014491485431790352,-0.015400353819131851
1782969690135443500,6.633443359375,-0.010030362755060196,-0.02168974280357361,-0.02422739937901497
1782969690145370400,6.643370361328125,-0.016723766922950745,-0.020562542602419853,-0.020806239917874336
1782969690155296300,6.653296142578125,-0.019397050142288208,-0.015593084506690502,-0.014130494557321072
1782969690165222400,6.663222412109375,-0.023557741194963455,-0.00751288840547204,-0.004700619727373123
1782969690175149600,6.673149658203125,-0.023185163736343384,-0.006650290451943874,0.004380759783089161
1782969690185075500,6.683075439453125,-0.015258006751537323,-0.002016480313614011,0.022411037236452103
1782969690195001300,6.69300146484375,-0.004869014490395784,-0.001961619360372424,0.02631469815969467
1782969690204928500,6.702928466796875,0.002850914839655161,-0.0006901519373059273,0.029356326907873154
1782969690214854400,6.7128544921875,0.006786001846194267,-0.007620762102305889,0.019446704536676407
1782969690224780300,6.7227802734375,0.009527808986604214,-0.016770735383033752,0.021572109311819077
1782969690234706400,6.73270654296875,0.00794136431068182,-0.018466634675860405,0.025464318692684174
1782969690244633300,6.74263330078125,-0.0049001662991940975,-0.016449658200144768,0.03214527666568756
1782969690254559500,6.7525595703125,-0.01655682362616062,-0.005331492982804775,0.035544004291296005
1782969690264485400,6.7624853515625,-0.024771301075816154,-0.004441007040441036,0.03150662034749985
1782969690274412300,6.772412353515625,-0.02811729535460472,-0.00043880846351385117,0.02255254052579403
1782969690284338400,6.78233837890625,-0.030472561717033386,0.0018380284309387207,0.0114904148504138
1782969690294264600,6.7922646484375,-0.03713872283697128,0.0006438670679926872,0.0034396788105368614
1782969690304190500,6.8021904296875,-0.03311224654316902,-0.0009391908533871174,-0.0003287256695330143
1782969690314117400,6.812117431640625,-0.030053606256842613,-0.0016595758497714996,-0.006533358246088028
1782969690324043500,6.82204345703125,-0.01733594574034214,0.0007969238795340061,-0.0009031695662997663
1782969690333969400,6.831969482421875,0.0009586390224285424,0.0038723419420421124,0.006622124928981066
1782969690343896300,6.841896240234375,0.00969616323709488,0.010087436065077782,0.014378346502780914
1782969690353822500,6.851822509765625,0.016484826803207397,0.011662961915135384,0.017376534640789032
1782969690363748600,6.86174853515625,0.01882261410355568,0.014704225584864616,0.021821098402142525
1782969690373674500,6.871674560546875,0.016140544787049294,0.0188228040933609,0.0205885861068964
1782969690383601400,6.881601318359375,0.007659898605197668,0.018909597769379616,0.018059834837913513
1782969690393527600,6.891527587890625,0.005539756268262863,0.025587474927306175,0.00558425672352314
1782969690403453400,6.901453369140625,0.010486671701073647,0.026414860039949417,0.00029894965700805187
1782969690413380400,6.91138037109375,0.01399618573486805,0.022236626595258713,-0.010514283552765846
1782969690423306500,6.921306396484375,0.019155319780111313,0.01827981136739254,-0.021060241386294365
1782969690433232600,6.931232666015625,0.017177922651171684,0.013173466548323631,-0.041884295642375946
1782969690443159300,6.9411591796875,0.02133425883948803,0.009246526286005974,-0.04623366519808769
1782969690453085400,6.95108544921875,0.018362969160079956,0.014799217693507671,-0.03966870531439781
1782969690463011600,6.961011474609375,0.01804853416979313,0.014038467779755592,-0.02610688842833042
1782969690472937500,6.9709375,0.015361671335995197,0.02041194587945938,-0.014496571384370327
1782969690482864400,6.980864501953125,0.021050365641713142,0.017146792262792587,-0.0035439918283373117
1782969690492790500,6.99079052734375,0.020716404542326927,0.019120197743177414,0.005543246399611235
1782969690502716400,7.00071630859375,0.01662779599428177,0.022079724818468094,0.008134330622851849
1782969690512643300,7.010643310546875,0.019477378576993942,0.015890005975961685,-0.0015675651375204325
1782969690522569500,7.020569580078125,0.019459476694464684,0.011243747547268867,-0.009047210216522217
1782969690532495600,7.03049560546875,0.02534186653792858,0.010683150961995125,-0.004225824028253555
1782969690542421200,7.040421142578125,0.021515555679798126,0.012314822524785995,-0.005421267822384834
1782969690552348400,7.050348388671875,0.01677912287414074,0.011116666719317436,-0.0064276764169335365
1782969690562274600,7.060274658203125,0.01393126230686903,0.009941719472408295,-0.008103963918983936
1782969690572200400,7.070200439453125,0.008047274313867092,0.016681116074323654,-0.005327618680894375
1782969690582127400,7.08012744140625,0.0031663579866290092,0.014961553737521172,-0.004315179772675037
1782969690592053500,7.090053466796875,0.00018707974231801927,0.014882991090416908,-0.011458576656877995
1782969690601979400,7.0999794921875,0.006228502374142408,0.010901756584644318,-0.01412256807088852
1782969690611905300,7.1099052734375,0.009777696803212166,0.007998110726475716,-0.01617187075316906
1782969690621832400,7.11983251953125,0.012270806357264519,0.005768287926912308,-0.012533821165561676
1782969690631758300,7.12975830078125,0.014270041137933731,0.007675910368561745,-0.008206983096897602
1782969690641684500,7.1396845703125,0.01428962405771017,0.006645225454121828,-0.00017319712787866592
1782969690651611400,7.149611328125,0.012946591712534428,0.008876955136656761,0.007435719948261976
1782969690661537500,7.15953759765625,0.013146104291081429,0.00705554336309433,0.016218528151512146
1782969690671463400,7.16946337890625,0.009384656324982643,0.00338837131857872,0.015180693939328194
1782969690681390600,7.179390625,0.000038008554838597775,0.0027753948234021664,0.013566629029810429
1782969690691316500,7.18931640625,0.0014798438642174006,0.004823365714401007,0.011731977574527264
1782969690701242400,7.199242431640625,-0.004304366651922464,0.003131784498691559,0.009777157567441463
1782969690711168500,7.20916845703125,-0.001984486822038889,0.005592012777924538,0.008226398378610611
1782969690721095400,7.219095458984375,0.0027657600585371256,0.00890514999628067,0.01465009804815054
1782969690731021300,7.229021240234375,0.006164219696074724,0.00506993243470788,0.01459470484405756
1782969690740947500,7.238947509765625,0.006651162635535002,0.008265676908195019,0.0065048690885305405
1782969690750874600,7.24887451171875,0.008622966706752777,0.007486169226467609,-0.0004774067783728242
1782969690760800300,7.25880029296875,0.0037571468856185675,0.0044029527343809605,-0.00371717382222414
1782969690770726400,7.268726318359375,0.0013682914432138205,0.004615206737071276,-0.005712147802114487
1782969690780652500,7.278652587890625,-0.0018803155981004238,0.006233226973563433,-0.009340908378362656
1782969690790579200,7.2885791015625,-0.0027724746614694595,0.00600712513551116,-0.003376759123057127
1782969690800505300,7.29850537109375,-0.004029762465506792,0.00553112430498004,0.0019156751222908497
1782969690810431500,7.308431396484375,-0.003810850903391838,0.007922111079096794,0.009088899940252304
1782969690820358400,7.3183583984375,-0.003420780645683408,0.005234865006059408,0.013536174781620502
1782969690830284300,7.3282841796875,-0.0036261104978621006,0.004435915965586901,0.01668376475572586
1782969690840210400,7.33821044921875,-0.007245328743010759,0.007906731218099594,0.009757072664797306
1782969690850136600,7.348136474609375,-0.008395281620323658,0.007197265047580004,0.006476323585957289
1782969690860063500,7.3580634765625,-0.004157343879342079,0.007821263745427132,0.003907208330929279
1782969690869989400,7.3679892578125,0.00032448983984068036,0.005080604460090399,-0.0015456139808520675
1782969690879915500,7.37791552734375,-0.0021218564361333847,0.005011459346860647,-0.001361156115308404
1782969690889842400,7.387842529296875,0.0023858100175857544,0.002734723035246134,0.0015456840628758073
1782969690899768300,7.397768310546875,-0.002021597232669592,0.007394763641059399,0.005633010063320398
1782969690909694500,7.407694580078125,-0.010856367647647858,0.006131892092525959,-0.0010256918612867594
1782969690919621400,7.417621337890625,-0.014448096975684166,0.009291226044297218,-0.01232114341109991
1782969690929547500,7.427547607421875,-0.01082912739366293,0.004874107427895069,-0.02118387632071972
1782969690939473400,7.437473388671875,-0.006674180738627911,-0.0021736330818384886,-0.02991642989218235
1782969690949399600,7.447399658203125,0.004112686961889267,-0.00426687765866518,-0.031448014080524445
1782969690959326500,7.457326416015625,0.00966383796185255,-0.013598219491541386,-0.016396470367908478
1782969690969252400,7.46725244140625,0.008866488002240658,-0.008274827152490616,0.009532598778605461
1782969690979178500,7.477178466796875,0.002278184751048684,0.0005708076059818268,0.030804334208369255
1782969690989105400,7.48710546875,-0.003941894043236971,0.008610092103481293,0.04648662731051445
1782969690999031600,7.497031494140625,-0.0055219801142811775,0.012693149037659168,0.04668252170085907
1782969691008957400,7.50695751953125,-0.007506035268306732,0.00873595755547285,0.034447960555553436
1782969691018883600,7.516883544921875,-0.010376556776463985,0.0019926009699702263,0.015096225775778294
1782969691028810500,7.526810546875,-0.01004818920046091,0.0013057715259492397,-0.006527842488139868
1782969691038736400,7.536736328125,-0.008658153004944324,0.0013375948183238506,-0.021488120779395103
1782969691048662500,7.54666259765625,-0.005900715943425894,0.003329638857394457,-0.03013194352388382
1782969691058589400,7.55658935546875,-0.004558240529149771,0.007136354222893715,-0.03441115841269493
1782969691068515600,7.566515625,0.0035817110911011696,0.009272742085158825,-0.02892957255244255
1782969691078441500,7.57644140625,0.011891454458236694,0.005185105372220278,-0.02224348857998848
1782969691088367400,7.586367431640625,0.012196918949484825,0.006416551303118467,-0.017524899914860725
1782969691098294800,7.596294677734375,0.008116500452160835,0.0046389163471758366,-0.008798439987003803
1782969691108221000,7.606220947265625,0.004114834126085043,-0.00012840842828154564,0.002647027373313904
1782969691118146600,7.616146484375,0.0038718953728675842,-0.0016787424683570862,0.0230589359998703
1782969691128073700,7.62607373046875,0.005765935406088829,-0.002633485710248351,0.040712762624025345
1782969691138000000,7.635999755859375,-0.00030514836544170976,0.0005839201621711254,0.05050191283226013
1782969691147925800,7.64592578125,-0.00735453562811017,0.007311864290386438,0.05122309923171997
1782969691157853000,7.65585302734375,-0.01224747858941555,0.009249696508049965,0.0404212586581707
1782969691167778800,7.66577880859375,-0.010882075875997543,0.00879829004406929,0.014921754598617554
1782969691177704700,7.67570458984375,-0.008380350656807423,0.0010346281342208385,-0.013170159421861172
1782969691187630600,7.685630615234375,-0.0026447009295225143,-0.0032759644091129303,-0.035299960523843765
1782969691197557800,7.695557861328125,0.002276437124237418,-0.0061073885299265385,-0.047572389245033264
1782969691207483600,7.705483642578125,0.004490056540817022,-0.007054408546537161,-0.043843433260917664
1782969691217409800,7.715409912109375,0.007301348261535168,-0.004119229968637228,-0.028883766382932663
1782969691227337000,7.7253369140625,0.0026781007181853056,0.000122919213026762,-0.0033251428976655006
1782969691237262800,7.735262939453125,0.004426365252584219,0.0038217506371438503,0.014788486994802952
1782969691247188700,7.745188720703125,0.004638086538761854,0.010245028883218765,0.028811363503336906
1782969691257115000,7.755114990234375,0.00450551975518465,0.009924758225679398,0.0340142697095871
1782969691267041800,7.765041748046875,0.003605904057621956,0.008771343156695366,0.024332083761692047
1782969691276967700,7.7749677734375,0.004380541387945414,0.0035475273616611958,0.01244791317731142
1782969691286893800,7.784893798828125,-0.0017540501430630684,0.0002630511298775673,-0.004706839099526405
1782969691296821000,7.794821044921875,-0.0029785367660224438,-0.00004923716187477112,-0.015223817899823189
1782969691306746600,7.80474658203125,-0.0036648334935307503,0.000937197357416153,-0.016774043440818787
1782969691316672800,7.8146728515625,0.0017872144235298038,0.0007720892317593098,-0.014895936474204063
1782969691326599000,7.824598876953125,0.004923885688185692,0.0027910317294299603,-0.009724344126880169
1782969691336525600,7.834525634765625,0.011224958114326,0.004609272349625826,-0.005853859707713127
1782969691346451700,7.84445166015625,0.014223144389688969,-0.0017586119938641787,-0.004809367470443249
1782969691356377900,7.8543779296875,0.01415330357849598,-0.003837940050289035,-0.005254661664366722
1782969691366304800,7.8643046875,0.006557701621204615,-0.0037865410558879375,-0.0009323513368144631
1782969691376230700,7.874230712890625,0.0035309032537043095,0.0013936222530901432,0.009759125299751759
1782969691386156800,7.88415673828125,-0.0006561186164617538,0.001197347417473793,0.01048670057207346
1782969691396083000,7.8940830078125,-0.0033431483898311853,0.004185181111097336,0.009443401359021664
1782969691406009600,7.904009521484375,-0.006924833636730909,0.004743379540741444,-0.0002600927837193012
1782969691415935700,7.913935791015625,-0.0022021005861461163,-0.0017392379231750965,-0.010976169258356094
1782969691425862000,7.92386181640625,-0.00028861931059509516,-0.006400036159902811,-0.018922243267297745
1782969691435788800,7.933788818359375,-0.0025459392927587032,-0.006583002861589193,-0.022779343649744987
1782969691445714700,7.943714599609375,-0.004627732094377279,-0.0054309191182255745,-0.018262090161442757
1782969691455640800,7.953640869140625,-0.003886259626597166,-0.006115336436778307,-0.006593359634280205
1782969691465567700,7.963567626953125,-0.0030545545741915703,-0.0015943541657179594,0.01199683640152216
1782969691475493600,7.97349365234375,-0.0007578443619422615,0.006207642145454884,0.023808754980564117
1782969691485419800,7.983419677734375,0.004010811913758516,0.006373290903866291,0.02796994335949421
1782969691495346000,7.993345947265625,0.005556078162044287,0.00502390181645751,0.021391795948147774
1782969691505271600,8.003271484375,0.01136842742562294,-0.0027482679579406977,0.01065472885966301
1782969691515197700,8.01319775390625,0.009761185385286808,-0.007372056134045124,-0.0001292550005018711
1782969691525123800,8.023123779296874,0.0067041427828371525,-0.007640236988663673,-0.003401747439056635
1782969691535050800,8.03305078125,0.0029769486282020807,0.000730577390640974,-0.00020954187493771315
1782969691544976600,8.0429765625,0.0011489549651741982,0.002633939031511545,-0.0004407042870298028
1782969691554902800,8.05290283203125,-0.0031416811980307102,0.003035359550267458,0.0006968090310692787
1782969691564830000,8.062829833984376,-0.005635199137032032,0.000026254449039697647,-0.0034033937845379114
1782969691574755600,8.072755615234374,-0.011167057789862156,-0.0012005558237433434,-0.008365770801901817
1782969691584681700,8.082681640625,-0.013715969398617744,0.00009507173672318459,-0.017069779336452484
1782969691594609000,8.09260888671875,-0.014966181479394436,0.0010242080315947533,-0.01734638772904873
1782969691604534800,8.10253466796875,-0.013590925373136997,-0.00017980718985199928,-0.006514779292047024
1782969691614460700,8.112460693359376,-0.006211472675204277,-0.0003108005039393902,0.007323398254811764
1782969691624386800,8.12238671875,0.0017867990536615252,0.00028601381927728653,0.016995733603835106
1782969691634313700,8.132313720703126,0.006858286913484335,0.002605459652841091,0.027518583461642265
1782969691644239600,8.142239501953124,0.012922038324177265,0.0061599803157150745,0.035640161484479904
1782969691654165800,8.152165771484375,0.009862693026661873,0.0058746980503201485,0.0308011993765831
1782969691664092700,8.1620927734375,0.012741570360958576,0.001681018155068159,0.02262209914624691
1782969691674018800,8.172018798828125,0.00813792273402214,-0.0030534067191183567,0.015789777040481567
1782969691683944700,8.18194482421875,0.0021069273352622986,-0.003497355617582798,0.008140378631651402
1782969691693870800,8.191870849609375,-0.0040158494375646114,-0.004154059570282698,0.00203020591288805
1782969691703797800,8.2017978515625,-0.012724652886390686,0.0018295305781066418,0.0048243943601846695
1782969691713723600,8.2117236328125,-0.012985389679670334,0.000046362634748220444,0.009453787468373775
1782969691723649800,8.22164990234375,-0.011321712285280228,-0.00016163010150194168,0.010532899759709835
1782969691733576700,8.23157666015625,-0.010137947276234627,-0.0008546775206923485,0.014937170781195164
1782969691743502800,8.2415029296875,-0.016501037403941154,0.005311339627951384,0.017016032710671425
1782969691753428700,8.2514287109375,-0.018755771219730377,0.00571584003046155,0.013078690506517887
1782969691763355000,8.26135498046875,-0.021332912147045135,0.002167710568755865,0.014218788594007492
1782969691773281800,8.27128173828125,-0.013060507364571095,0.0016672448255121708,0.01373196579515934
1782969691783207700,8.281207763671874,-0.0013556480407714844,0.001064305193722248,0.0137865599244833
1782969691793133800,8.2911337890625,0.002170360181480646,0.0029600257985293865,0.005881044082343578
1782969691803060700,8.301060791015624,0.0023471941240131855,0.0035842708311975002,0.000002115964889526367
1782969691812987000,8.31098681640625,-0.0019390156958252192,0.006437898147851229,-0.007369295693933964
1782969691822912800,8.320912841796876,-0.0015182362403720617,0.005448000971227884,-0.012373642064630985
1782969691832839700,8.330839599609375,-0.0034452402032911777,0.002177746966481209,-0.024960648268461227
1782969691842765800,8.340765869140625,0.003584173507988453,-0.0021560147870332003,-0.02847602218389511
1782969691852692000,8.35069189453125,0.008880526758730412,-0.005500104743987322,-0.029391711577773094
1782969691862617900,8.360617919921875,0.01449873112142086,-0.013564955443143845,-0.018451711162924767
1782969691872544800,8.370544677734374,0.015611184760928154,-0.016033422201871872,0.002279434585943818
1782969691882471000,8.380470947265625,0.014726482331752777,-0.008339549414813519,0.028352314606308937
1782969691892397800,8.390397705078126,0.006940939463675022,-0.0036900448612868786,0.05595875158905983
1782969691902323700,8.40032373046875,-0.004392941482365131,0.0044842613860964775,0.06718583405017853
1782969691912251000,8.4102509765625,-0.011816514655947685,0.007866384461522102,0.06000163033604622
1782969691922176800,8.4201767578125,-0.01972423866391182,0.006725752260535955,0.037536002695560455
1782969691932102700,8.4301025390625,-0.019210953265428543,0.0008760611526668072,0.004435308277606964
1782969691942028800,8.44002880859375,-0.0162335392087698,-0.006860688328742981,-0.02562032826244831
1782969691951955700,8.449955810546875,-0.016298476606607437,-0.011403050273656845,-0.04748491197824478
1782969691961881900,8.4598818359375,-0.019399195909500122,-0.005628784652799368,-0.05820599943399429
1782969691971807700,8.469807861328125,-0.02467285469174385,-0.0020907081197947264,-0.056564174592494965
1782969691981734700,8.479734619140626,-0.01997850090265274,0.002755978610366583,-0.04461669921875
1782969691991660800,8.489660888671875,-0.007983540184795856,0.0017813784070312977,-0.0295477993786335
1782969692001586700,8.499586669921875,-0.0004907363327220082,0.0037201596423983574,-0.011226850561797619
1782969692011513600,8.509513671875,0.004541952628642321,0.000026570633053779602,0.005625739693641663
1782969692021439700,8.519439697265625,0.004532897844910622,-0.0018818504177033901,0.01914261281490326
1782969692031366000,8.529365966796876,0.006561629008501768,-0.0042107184417545795,0.02501380257308483
1782969692041291800,8.539291748046875,-0.0007649934268556535,-0.004549206234514713,0.033638451248407364
1782969692051218700,8.54921875,-0.00562242278829217,-0.005059674382209778,0.04357997328042984
1782969692061144800,8.559144775390624,-0.013729884289205074,-0.001749898074194789,0.05175001546740532
1782969692071070700,8.56907080078125,-0.019279105588793755,-0.0017719119787216187,0.03835976496338844
1782969692080997600,8.57899755859375,-0.021454377099871635,0.0006177425384521484,0.018260356038808823
1782969692090923800,8.588923828125,-0.019657231867313385,-0.004515309352427721,-0.0000566309317946434
1782969692100850000,8.598849853515626,-0.015575938858091831,-0.004645271692425013,-0.01549470890313387
1782969692110775800,8.60877587890625,-0.009008383378386497,-0.002771936822682619,-0.025086363777518272
1782969692120702700,8.61870263671875,-0.003998976666480303,-0.000011038035154342651,-0.020521439611911774
1782969692130628900,8.62862890625,0.0009237931226380169,0.004331662319600582,-0.008337682113051414
1782969692140555000,8.638554931640625,0.005041839089244604,0.005213168449699879,0.002494992222636938
1782969692150481700,8.648481689453124,0.0024482698645442724,0.0016707484610378742,0.012481250800192356
1782969692160407800,8.65840771484375,-0.0010862776543945074,0.0010478352196514606,0.02100975811481476
1782969692170334000,8.668333984375,-0.0067233736626803875,0.0019082198850810528,0.026088329032063484
1782969692180260900,8.6782607421875,-0.004780064802616835,0.004030493553727865,0.03179948031902313
1782969692190186800,8.688186767578125,-0.0027265306562185287,0.006844912655651569,0.029931550845503807
1782969692200113000,8.69811279296875,0.006389469373971224,0.007440129294991493,0.027398882433772087
1782969692210038800,8.708038818359375,0.0067219859920442104,0.007836723700165749,0.016129611060023308
1782969692219965700,8.717965576171874,0.010001402348279953,0.0033319867216050625,0.005979237612336874
1782969692229891800,8.727891845703125,0.008867369964718819,0.0003488711081445217,-0.0072720106691122055
1782969692239818000,8.73781787109375,0.002174579771235585,-0.004533235915005207,-0.00892716459929943
1782969692249745000,8.747744873046875,-0.002549560274928808,-0.006903523579239845,-0.00467119924724102
1782969692259670800,8.7576708984375,-0.010084974579513073,-0.00672162976115942,0.00033208157401531935
1782969692269597000,8.767596923828124,-0.016733190044760704,-0.00618496909737587,0.009582698345184326
1782969692279522800,8.777522705078125,-0.019143883138895035,-0.0012530612293630838,0.02205241657793522
1782969692289450000,8.787449951171874,-0.018679337576031685,0.0028249784372746944,0.027221940457820892
1782969692299375900,8.7973759765625,-0.01985645480453968,0.0036393734626471996,0.029118908569216728
1782969692309301800,8.8073017578125,-0.015869934111833572,0.0054988921619951725,0.016030915081501007
1782969692319229000,8.81722900390625,-0.005320088006556034,-0.0039057950489223003,0.0018224184168502688
1782969692329154800,8.82715478515625,0.0037799158599227667,-0.005021576303988695,-0.011927670799195766
1782969692339080700,8.837080810546874,0.0026153153739869595,-0.007677280344069004,-0.01691630482673645
1782969692349006800,8.8470068359375,-0.00009664689423516393,-0.007789332419633865,-0.016176491975784302
1782969692358934000,8.85693408203125,-0.00447781290858984,-0.003470750292763114,-0.004062572028487921
1782969692368859600,8.866859619140625,-0.009656880050897598,-0.0018701078370213509,0.004031118471175432
1782969692378785800,8.876785888671876,-0.006548438221216202,0.0008234134875237942,0.012284254655241966
1782969692388713000,8.886712890625,-0.0017754381988197565,0.0010232669301331043,0.01678599789738655
1782969692398638800,8.896638916015625,0.00035855278838425875,-0.0018122007604688406,0.014332428574562073
1782969692408564700,8.906564697265624,0.0023417675402015448,-0.004587405826896429,0.015347924083471298
1782969692418491000,8.916490966796875,-0.0003948968951590359,-0.00563269667327404,0.013996370136737823
1782969692428418000,8.92641796875,-0.005539964884519577,-0.005927632562816143,0.0069571188651025295
1782969692438343700,8.93634375,-0.01443039532750845,-0.00831728707998991,0.0032055238261818886
1782969692448269800,8.946269775390626,-0.020553553476929665,-0.004982926417142153,0.0013584326952695847
1782969692458197000,8.956197021484375,-0.018430214375257492,-0.005606106016784906,-0.002403548453003168
1782969692468122600,8.96612255859375,-0.016813185065984726,-0.007793818600475788,-0.0013726077741011977
1782969692478048800,8.976048828125,-0.014592374674975872,-0.007665720302611589,-0.004998501390218735
1782969692487976000,8.985975830078125,-0.011443003080785275,-0.006615485996007919,-0.006824035197496414
1782969692497901800,8.99590185546875,-0.011905594728887081,-0.003118489170446992,-0.007870923727750778
1782969692507827700,9.00582763671875,-0.01017042063176632,-0.004349360242486,-0.01763176918029785
1782969692517753900,9.01575390625,-0.00936321634799242,-0.012822739779949188,-0.020654456689953804
1782969692527680800,9.0256806640625,-0.009267325513064861,-0.008843528106808662,-0.018748510628938675
1782969692537606700,9.035606689453125,-0.01097840629518032,-0.0075079528614878654,-0.017485372722148895
1782969692547532800,9.04553271484375,-0.016038838773965836,-0.006456945091485977,-0.010356374084949493
1782969692557459700,9.055459716796875,-0.01631021499633789,-0.005624440964311361,-0.0011594142997637391
1782969692567385900,9.0653857421875,-0.016024965792894363,-0.0007929257117211819,0.0030806506983935833
1782969692577311700,9.075311767578125,-0.014242778532207012,-0.0015439372509717941,0.006032764911651611
1782969692587238000,9.08523779296875,-0.008400757797062397,-0.003429595148190856,0.0038923081010580063
1782969692597164800,9.095164794921875,-0.007293681614100933,-0.003289512824267149,-0.005506786517798901
1782969692607090700,9.105090576171875,-0.0019781116861850023,-0.00674925884231925,-0.016235457733273506
1782969692617016800,9.115016845703124,-0.0076820701360702515,-0.008219856768846512,-0.0315486341714859
1782969692626943700,9.12494384765625,-0.010710683651268482,-0.006691400893032551,-0.04226653650403023
1782969692636870000,9.134869873046876,-0.01699201576411724,-0.006311634089797735,-0.04618244990706444
1782969692646795800,9.144795654296875,-0.012309814803302288,-0.006693500094115734,-0.044146280735731125
1782969692656722000,9.154721923828125,-0.015877120196819305,-0.00663970410823822,-0.03840956464409828
1782969692666648800,9.16464892578125,-0.01230316236615181,-0.008164189755916595,-0.03228521719574928
1782969692676574700,9.17457470703125,-0.015327448025345802,-0.01011522114276886,-0.023763103410601616
1782969692686500900,9.1845009765625,-0.013568306341767311,-0.010438753291964531,-0.01460964698344469
1782969692696427800,9.194427734375,-0.02000543288886547,-0.008785995654761791,-0.005981537513434887
1782969692706354000,9.20435400390625,-0.028470905497670174,-0.004564202856272459,-0.0034003385808318853
1782969692716279800,9.21427978515625,-0.028007250279188156,-0.003819849342107773,-0.003041876945644617
1782969692726206700,9.224206787109376,-0.02701335772871971,-0.0044222562573850155,-0.0066856141202151775
1782969692736132900,9.2341328125,-0.020073160529136658,-0.013416284695267677,-0.014713180251419544
1782969692746058800,9.244058837890625,-0.011564703658223152,-0.02196905016899109,-0.016372941434383392
1782969692755985000,9.25398486328125,-0.0053145308047533035,-0.025998946279287338,-0.010432761162519455
1782969692765911800,9.263911865234375,-0.005153540521860123,-0.025111712515354156,0.007706798147410154
1782969692775838000,9.273837890625,-0.008861459791660309,-0.01706097647547722,0.02297470159828663
1782969692785763800,9.283763916015625,-0.014905337244272232,-0.009316805750131607,0.035028040409088135
1782969692795690800,9.293690673828126,-0.02404051274061203,-0.004170513246208429,0.0321534238755703
1782969692805617000,9.303616943359375,-0.02522921748459339,-0.0035024587996304035,0.01895882561802864
1782969692815542800,9.313542724609375,-0.025208711624145508,-0.006461763754487038,-0.0017853365279734135
1782969692825468700,9.32346875,-0.027492418885231018,-0.010568906553089619,-0.026907559484243393
1782969692835395800,9.333395751953125,-0.028516404330730438,-0.012730594724416733,-0.04324978217482567
1782969692845322000,9.343322021484376,-0.028841719031333923,-0.011998716741800308,-0.04974612593650818
1782969692855247600,9.35324755859375,-0.018665248528122902,-0.009122236631810665,-0.04895330220460892
1782969692865174800,9.3631748046875,-0.01111780758947134,-0.008473832160234451,-0.03721252456307411
1782969692875101000,9.373100830078124,-0.008796063251793385,-0.003993862308561802,-0.02257898449897766
1782969692885026800,9.38302685546875,-0.01757974922657013,-0.0043933517299592495,-0.008276302367448807
1782969692894952700,9.39295263671875,-0.012745846062898636,-0.0051901694387197495,-0.0006447482155635953
1782969692904879900,9.4028798828125,-0.010406394489109516,-0.00974350981414318,0.00850057601928711
1782969692914806000,9.412805908203126,-0.008386386558413506,-0.008490227162837982,0.012986138463020325
1782969692924731600,9.422731689453125,-0.005269021261483431,-0.010640595108270645,0.017473801970481873
1782969692934658800,9.432658935546876,-0.006719645112752914,-0.006614161655306816,0.017671676352620125
1782969692944585000,9.4425849609375,-0.0073818243108689785,-0.007369385100901127,0.016337649896740913
1782969692954510800,9.4525107421875,-0.0058720787055790424,0.0005234256386756897,0.007953484542667866
1782969692964436700,9.462436767578126,-0.0018014127854257822,-0.0011410429142415524,0.001398958615027368
1782969692974364000,9.472364013671875,-0.0012589269317686558,-0.0038084648549556732,-0.0043862261809408665
1782969692984289800,9.482289794921876,-0.006529305130243301,-0.00047959620133042336,-0.010791205801069736
1782969692994215700,9.492215576171875,-0.00563075440004468,-0.0019909401889890432,-0.010530482977628708
1782969693004142800,9.502142822265625,-0.002517318818718195,-0.003189561888575554,-0.007337899412959814
1782969693014068700,9.51206884765625,0.004153367131948471,0.0014371476136147976,-0.00309974467381835
1782969693023995000,9.521994873046875,0.011286460794508457,0.0022210325114428997,0.0007569821318611503
1782969693033920800,9.531920654296876,0.016851136460900307,0.0019994573667645454,0.0012187742395326495
1782969693043847700,9.54184765625,0.018170857802033424,0.0031332061626017094,-0.000032207113690674305
1782969693053773800,9.55177392578125,0.018644632771611214,0.006230462808161974,0.005061088129878044
1782969693063699700,9.56169970703125,0.014290465041995049,0.005331679247319698,0.007904404774308205
1782969693073627000,9.571626953125,0.01071650255471468,0.005556982941925526,0.009295906871557236
1782969693083552800,9.581552734375,0.008967562578618526,0.003648103680461645,0.011189179494976997
1782969693093479000,9.59147900390625,0.004126469139009714,0.003221199382096529,0.0050561861135065556
1782969693103405300,9.6014052734375,0.00011939386604353786,0.0019254554063081741,-0.0024842252023518085
1782969693113331200,9.611331298828125,0.0030310279689729214,0.0002247607335448265,-0.012882271781563759
1782969693123257000,9.621257080078125,0.0027738912031054497,-0.0008508488535881042,-0.016238747164607048
1782969693133183200,9.631183349609374,0.0019507079850882292,-0.001173357479274273,-0.01383950561285019
1782969693143110100,9.641110107421875,0.004904852248728275,0.003767837304621935,-0.01012665219604969
1782969693153036000,9.6510361328125,0.014301017858088017,0.002793387044221163,-0.0020639325957745314
1782969693162962200,9.660962158203125,0.01572582498192787,0.002598627470433712,0.007536685559898615
1782969693172889300,9.670889404296876,0.017554618418216705,0.001232425682246685,0.01531151868402958
1782969693182815000,9.68081494140625,0.01750504970550537,-0.0008276300504803658,0.0153990238904953
1782969693192741000,9.6907412109375,0.018112782388925552,-0.006715080235153437,0.012087916024029255
1782969693202667300,9.700667236328124,0.006389363668859005,-0.004149806685745716,0.010345879942178726
1782969693212594000,9.710593994140625,0.0037810637149959803,-0.005047291982918978,0.007324523758143187
1782969693222520000,9.72052001953125,-0.003904102835804224,0.0000014118850231170654,0.013400588184595108
1782969693232446200,9.7304462890625,-0.0011679711751639843,0.0017545707523822784,0.0163031667470932
1782969693242373000,9.740373046875,0.0017151599749922752,0.0009856261312961578,0.015918750315904617
1782969693252299000,9.750299072265625,-0.0012233719462528825,-0.0010311859659850597,0.011112011037766933
1782969693262225200,9.76022509765625,-0.006434313487261534,0.00043428409844636917,0.0015102640027180314
1782969693272151300,9.7701513671875,-0.00970946904271841,-0.003243541345000267,-0.008684583008289337
1782969693282078000,9.780077880859375,-0.01386279333382845,-0.004221761599183083,-0.011849654838442802
1782969693292004000,9.790004150390626,-0.017007986083626747,-0.0005039889365434647,-0.019214360043406487
1782969693301930200,9.79993017578125,-0.00900427158921957,0.0015750923193991184,-0.016575118526816368
1782969693311857200,9.809857177734376,-0.0064234016463160515,0.0032478240318596363,-0.017512019723653793
1782969693321783000,9.819782958984375,-0.0010921123903244734,0.001764233224093914,-0.008605346083641052
1782969693331709200,9.829709228515625,-0.00040768005419522524,0.001291788648813963,0.0010350304655730724
1782969693341635300,9.83963525390625,0.0011139726266264915,0.0010214527137577534,0.011265750974416733
1782969693351562200,9.849562255859375,0.004526547156274319,0.00372349563986063,0.016397396102547646
1782969693361488100,9.859488037109376,0.007800424471497536,0.004809283651411533,0.017498379573225975
1782969693371414300,9.869414306640625,0.00830269604921341,0.00009948341175913811,0.01763926073908806
1782969693381341200,9.879341064453126,0.012169980444014072,0.0026162946596741676,0.011906256899237633
1782969693391267000,9.88926708984375,0.019074225798249245,0.002038122620433569,0.010056424885988235
1782969693401193200,9.899193115234375,0.019755544140934944,0.0028885859064757824,0.004588359966874123
1782969693411120000,9.9091201171875,0.018915316089987755,0.004920844454318285,-0.002730805426836014
1782969693421046300,9.91904638671875,0.014454563148319721,0.001744152046740055,-0.00378438294865191
1782969693430972200,9.92897216796875,0.00737747922539711,0.006618003360927105,-0.004653106443583965
1782969693440898300,9.938898193359375,0.002483631018549204,0.01092991791665554,-0.0015071602538228035
1782969693450825200,9.9488251953125,-0.0005481115076690912,0.012775223702192307,0.006780862808227539
1782969693460751000,9.958751220703125,-0.004138485062867403,0.018020885065197945,0.011212755925953388
1782969693470677200,9.96867724609375,-0.006489790044724941,0.00938372127711773,0.011652444489300251
1782969693480604200,9.978604248046874,-0.010042630136013031,0.0040676346980035305,0.003782206680625677
1782969693490530300,9.9885302734375,-0.011118014343082905,0.004490278195589781,-0.002167294966056943
1782969693500456200,9.998456298828126,-0.01534354593604803,-0.0029896169435232878,0.002409863518550992
1782969693510382000,10.008382080078125,-0.018047185614705086,0.0009534591808915138,0.012539195828139782
1782969693520309200,10.018309326171876,-0.011504231952130795,0.006836148910224438,0.013364901766180992
1782969693530235100,10.028235107421875,-0.012293060310184956,0.004012132063508034,0.01847977004945278
1782969693540161000,10.0381611328125,-0.009297637268900871,0.013971789740025997,0.02500811778008938
1782969693550088200,10.048088134765624,-0.02095961943268776,0.009395945817232132,0.02169807441532612
1782969693560014300,10.058014404296875,-0.024225935339927673,0.01640753448009491,0.011445203796029091
1782969693569940000,10.06793994140625,-0.029294196516275406,0.003438472282141447,-0.012544018216431141
1782969693579866000,10.0778662109375,-0.027103962376713753,-0.0032678847201168537,-0.027848048135638237
1782969693589793300,10.087793212890626,-0.027910901233553886,-0.009630975313484669,-0.033973321318626404
1782969693599719200,10.09771923828125,-0.02227158285677433,-0.012484259903430939,-0.03020326793193817
1782969693609645000,10.10764501953125,-0.012919093482196331,-0.006968054920434952,-0.009376016445457935
1782969693619572200,10.117572265625,-0.007280523888766766,-0.002370065776631236,0.012940646149218082
1782969693629498400,10.127498291015625,-0.0025286455638706684,0.002327750436961651,0.03303712606430054
1782969693639424000,10.137424072265626,-0.007690592668950558,0.0005877497605979443,0.04601193964481354
1782969693649350100,10.14735009765625,-0.01464916579425335,0.0007400824688374996,0.03603839874267578
1782969693659277300,10.15727734375,-0.019421294331550598,-0.00010236818343400955,0.027798781171441078
1782969693669203000,10.167202880859374,-0.027477623894810677,-0.00203156191855669,0.005606126505881548
1782969693679129000,10.177129150390625,-0.028738204389810562,-0.0032450228463858366,-0.010233540087938309
1782969693689056300,10.18705615234375,-0.027309417724609375,0.0005656941793859005,-0.024534447118639946
1782969693698982100,10.196982177734375,-0.025323541834950447,0.0033836602233350277,-0.033486634492874146
1782969693708908000,10.206907958984376,-0.022498460486531258,0.00565294036641717,-0.03935624286532402
1782969693718835200,10.216835205078125,-0.014863425865769386,0.007834251970052719,-0.03873207047581673
1782969693728761000,10.226760986328125,-0.012160583399236202,0.009899799712002277,-0.04066605865955353
1782969693738687000,10.23668701171875,-0.007316518574953079,0.005369155202060938,-0.03919229656457901
1782969693748613000,10.246613037109375,-0.0015923199243843555,0.0003360472619533539,-0.0364987775683403
1782969693758540000,10.2565400390625,0.00006672923336736858,-0.004070186521857977,-0.02037000097334385
1782969693768466200,10.266466064453125,0.0014036360662430525,-0.00427098898217082,0.00048281659837812185
1782969693778392000,10.27639208984375,0.00042435034993104637,0.001027977094054222,0.019140955060720444
1782969693788319200,10.2863193359375,-0.00666631618514657,0.008735697716474533,0.027310466393828392
1782969693798245000,10.2962451171875,-0.00789077952504158,0.01103651151061058,0.03370966762304306
1782969693808171000,10.3061708984375,-0.005959720816463232,0.012012826278805733,0.024849332869052887
1782969693818097200,10.31609716796875,0.0011692119296640158,0.0075005171820521355,0.011837721802294254
1782969693828024000,10.326024169921874,0.008263606578111649,0.0009880228899419308,-0.0025803653988987207
1782969693837950200,10.3359501953125,0.0069904625415802,-0.0017185986507683992,-0.015100577846169472
1782969693847876000,10.3458759765625,0.010900248773396015,-0.002872280078008771,-0.02394387125968933
1782969693857803000,10.355802978515625,0.0032186219468712807,-0.004574397578835487,-0.020789213478565216
1782969693867729200,10.365729248046875,-0.000045881024561822414,-0.009321748279035091,-0.016580354422330856
1782969693877655000,10.375655029296874,-0.006071365904062986,-0.008583903312683105,-0.007371080107986927
1782969693887581200,10.385581298828125,-0.011797960847616196,-0.00033502839505672455,-0.0004963960964232683
1782969693897508000,10.395508056640624,-0.01193783525377512,0.0007394487038254738,0.007800258696079254
1782969693907434200,10.405434326171875,-0.012281649746000767,0.00002146046608686447,0.014011282473802567
1782969693917360000,10.415360107421876,-0.012619712390005589,0.0016685016453266144,0.013222470879554749
1782969693927287000,10.425287109375,-0.011456976644694805,0.0013244212605059147,0.007426900323480368
1782969693937213200,10.435213134765625,-0.006550784222781658,0.00010677520185709,0.006646111141890287
1782969693947139300,10.445139404296874,-0.0059944503009319305,-0.0003076125867664814,-0.0011801200453191996
1782969693957065200,10.455065185546875,0.0029849382117390633,0.012162730097770691,-0.011742360889911652
1782969693966992100,10.4649921875,-0.0058748661540448666,-0.009645896963775158,-0.02123120427131653
1782969693976918300,10.474918212890625,-0.0024937582202255726,-0.004786085803061724,-0.023655181750655174
1782969693986844200,10.48484423828125,-0.003974475897848606,-0.011745458468794823,-0.022409887984395027
1782969693996771000,10.49477099609375,-0.010671176947653294,-0.0028434600681066513,-0.011564226821064949
1782969694006697200,10.504697265625,-0.012493845075368881,-0.004206199664622545,0.004199022892862558
1782969694016623400,10.514623291015624,-0.01007907371968031,0.001183889340609312,0.019717732444405556
1782969694026550000,10.524550048828125,-0.004260600078850985,0.0032568941824138165,0.02932109124958515
1782969694036476200,10.53447607421875,0.004453369881957769,0.003563548903912306,0.03335070237517357
1782969694046402300,10.54440234375,0.008527208119630814,-0.0005449098534882069,0.025253895670175552
1782969694056328000,10.554327880859375,0.013206973671913147,-0.0036652283743023872,0.015193961560726166
1782969694066255000,10.564255126953125,0.01178351417183876,-0.00443434901535511,0.008150432258844376
1782969694076181200,10.57418115234375,0.0027717433404177427,-0.006439675576984882,-0.0030144776683300734
1782969694086107100,10.584107177734374,-0.008153341710567474,-0.008717743679881096,-0.009407395496964455
1782969694096034000,10.594033935546875,-0.01547139510512352,-0.009112142026424408,-0.01011037826538086
1782969694105961000,10.6039609375,-0.021714644506573677,-0.0007111998274922371,-0.009943131357431412
1782969694115886800,10.613886962890625,-0.02180379070341587,-0.0007623978890478611,-0.016309993341565132
1782969694125813000,10.62381298828125,-0.017733680084347725,-0.00016505084931850433,-0.01803918369114399
1782969694135740200,10.633740234375,-0.010135640390217304,-0.0008005560375750065,-0.021645402535796165
1782969694145666000,10.643666015625,0.0030075921677052975,-0.0012567555531859398,-0.02089758589863777
1782969694155592000,10.653592041015624,0.0066294800490140915,-0.0035088174045085907,-0.02225373312830925
1782969694165519000,10.66351904296875,0.008816733956336975,-0.0005287402309477329,-0.0143731739372015
1782969694175445000,10.673445068359374,0.01699945703148842,0.0010687652975320816,-0.0020810714922845364
1782969694185371000,10.683370849609375,0.013612449169158936,0.0031849131919443607,0.011128207668662071
1782969694195297000,10.693297119140626,0.009914624504745007,-0.0010657659731805325,0.0134190134704113
1782969694205224000,10.703223876953125,-0.0006519993185065687,-0.0005272747948765755,0.013345776125788689
1782969694215150000,10.713150146484375,-0.0021595563739538193,0.0002065347507596016,0.009065701626241207
1782969694225076000,10.723075927734374,-0.004244545008987188,0.00021905126050114632,0.0006977831944823265
1782969694235003000,10.7330029296875,-0.001186218112707138,-0.0017510803882032633,-0.010913509875535965
1782969694244929000,10.742928955078124,0.0011001055827364326,-0.005992963444441557,-0.014755652286112309
1782969694254855000,10.75285498046875,0.0017758042085915804,-0.0019454751163721085,-0.012542531825602055
1782969694264781000,10.762781005859376,0.0006743208505213261,-0.0011965944431722164,-0.010591499507427216
1782969694274708000,10.7727080078125,-0.001679298235103488,-0.0035547069273889065,-0.0027072750963270664
1782969694284634000,10.782634033203125,-0.0008435980998910964,-0.0023826498072594404,0.001087463111616671
1782969694294560000,10.79256005859375,-0.0018864274024963379,0.001440518070012331,0.00791742093861103
1782969694304487000,10.80248681640625,-0.0004696256364695728,0.00310419499874115,0.004579680971801281
1782969694314413000,10.8124130859375,0.0017549723852425814,-0.00428783381357789,0.004717523232102394
1782969694324339000,10.8223388671875,-0.0002783510135486722,-0.00488864304497838,-0.0011283813510090113
1782969694334265900,10.832265869140626,-0.006170737091451883,-0.005004715174436569,-0.008336054161190987
1782969694344192000,10.84219189453125,-0.0050343661569058895,-0.0013516568578779697,-0.0006632209988310933
1782969694354118100,10.8521181640625,-0.0008720706100575626,0.0007492364384233952,0.001121065579354763
1782969694364044000,10.8620439453125,0.005018042866140604,0.0030717789195477962,0.00459222961217165
1782969694373971000,10.871970947265625,0.00024887194740585983,0.003259980585426092,0.003664040472358465
1782969694383897000,10.88189697265625,-0.0022172152530401945,0.0018042968586087227,0.003715971950441599
1782969694393823000,10.891822998046875,-0.01049829088151455,-0.0023006906267255545,0.0037538346368819475
1782969694403750000,10.90175,-0.014351352117955685,-0.00047749048098921776,-0.00583620835095644
1782969694413676000,10.911676025390625,-0.009879237040877342,-0.0044774254783988,-0.0076269470155239105
1782969694423602200,10.921602294921875,-0.008678684011101723,-0.004182613454759121,-0.008998475037515163
1782969694433528000,10.931528076171874,-0.0005079570692032576,-0.007235345430672169,-0.006652012001723051
1782969694443455000,10.941455078125,0.005260716192424297,-0.01132968906313181,0.0013182965340092778
1782969694453381000,10.951381103515626,0.006746387109160423,-0.007150514982640743,0.01446953509002924
1782969694463307000,10.96130712890625,0.003072822466492653,-0.0021821216214448214,0.02905513532459736
1782969694473234000,10.97123388671875,0.00035666461917571723,0.0014464352279901505,0.03778044879436493
1782969694483160000,10.98116015625,-0.0015131407417356968,0.005117869470268488,0.0361495316028595
1782969694493086200,10.991086181640625,-0.0006944435881450772,0.0036029876209795475,0.026503795757889748
1782969694503011800,11.00101171875,-0.0070945522747933865,0.0014048144221305847,0.009654242545366287
1782969694512939000,11.01093896484375,-0.006014699582010508,0.0006819246336817741,-0.006993867456912994
1782969694522865200,11.020865234375,-0.010170828551054,-0.003486987669020891,-0.01713225618004799
1782969694532791000,11.030791015625,-0.00981876626610756,-0.0008984855376183987,-0.023358581587672234
1782969694542718000,11.040718017578126,-0.009571358561515808,0.00372582720592618,-0.016222376376390457
1782969694552644000,11.05064404296875,-0.006419742945581675,0.004978676792234182,-0.011770732700824738
1782969694562570000,11.060570068359375,0.0021729464642703533,0.004496644716709852,-0.004102693405002356
1782969694572496000,11.070495849609374,0.008114335127174854,0.0035216198302805424,-0.0006990798283368349
1782969694582423000,11.080423095703125,0.016987187787890434,0.0016052089631557465,0.010092048905789852
1782969694592349000,11.090348876953126,0.017325202003121376,-0.0021417501848191023,0.017277948558330536
1782969694602275000,11.100275146484375,0.018096720799803734,0.0013035815209150314,0.02765016071498394
1782969694612202000,11.110201904296876,0.015607772395014763,-0.003772212192416191,0.038248442113399506
1782969694622128000,11.120128173828125,0.007743723224848509,-0.0004038461484014988,0.045774802565574646
1782969694632054000,11.130053955078125,0.006383339408785105,0.004857303574681282,0.04480278119444847
1782969694641980000,11.13997998046875,0.0012959025334566832,0.007176117971539497,0.0347307063639164
1782969694651907000,11.149906982421875,0.0008545161108486354,0.003019156400114298,0.02650381065905094
1782969694661833000,11.1598330078125,0.0013943389058113098,0.0012159300968050957,0.009574894793331623
1782969694671759000,11.169759033203125,0.0032148933969438076,-0.0011258702725172043,-0.009546679444611073
1782969694681686000,11.17968603515625,0.0013424248900264502,-0.0022151030134409666,-0.020703725516796112
1782969694691612000,11.18961181640625,0.0009174496517516673,-0.003647417761385441,-0.022841962054371834
1782969694701538000,11.1995380859375,-0.000767266028560698,-0.004884722176939249,-0.019071726128458977
1782969694711464000,11.2094638671875,0.0025711068883538246,-0.00404100026935339,-0.010236830450594425
1782969694721390800,11.219390869140625,0.008804768323898315,0.0005058147944509983,0.00037453474942594767
1782969694731317000,11.22931689453125,0.017577121034264565,0.002758549526333809,0.008997458033263683
1782969694741243100,11.2392431640625,0.02224750630557537,-0.0023169023916125298,0.01864609122276306
1782969694751169800,11.249169677734375,0.015572783537209034,-0.0032286946661770344,0.01944294013082981
1782969694761096000,11.259095947265624,0.006629089824855328,-0.00031546270474791527,0.0200410857796669
1782969694771022000,11.26902197265625,0.002364729531109333,0.0007472801953554153,0.027511002495884895
1782969694780949000,11.278948974609374,-0.00933160725980997,0.0013845744542777538,0.022942882031202316
1782969694790875000,11.288875,-0.009919309057295322,0.0011338135227560997,0.017485158517956734
1782969694800801000,11.298801025390626,-0.007002081722021103,-0.0011458522640168667,0.006892435718327761
1782969694810727200,11.30872705078125,-0.004228351637721062,-0.00034156162291765213,0.0017076189396902919
1782969694820653800,11.31865380859375,0.0006542879855260253,-0.0034697107039391994,-0.0018261295044794679
1782969694830580000,11.328580078125,0.0037130704149603844,-0.002337376121431589,0.0015809467295184731
1782969694840506000,11.338506103515625,0.0033870995976030827,-0.0029871873557567596,0.004457160830497742
1782969694850433000,11.34843310546875,0.00045959276030771434,0.0013898429460823536,0.010891075246036053
1782969694860359000,11.35835888671875,0.0007176530780270696,0.002889202442020178,0.02354801446199417
1782969694870285000,11.36828515625,-0.002968807704746723,0.0010386230424046516,0.02976585552096367
1782969694880211200,11.378211181640625,-0.005055394489318132,0.0023326529189944267,0.028046254068613052
1782969694890137900,11.388137939453125,-0.005616349633783102,-0.0002910359762609005,0.023054156452417374
1782969694900064000,11.39806396484375,-0.007096002344042063,0.0006495928391814232,0.01486919540911913
1782969694909990100,11.407990234375,-0.004518328700214624,0.0014956789091229439,0.010870193131268024
1782969694919917000,11.4179169921875,0.00019200457609258592,-0.0005435035564005375,0.0010985229164361954
1782969694929843000,11.427843017578125,0.006873685866594315,-0.0026074284687638283,-0.005978215020149946
1782969694939769000,11.43776904296875,0.012340356595814228,-0.005570461507886648,-0.007708470802754164
1782969694949695200,11.4476953125,0.007360293064266443,-0.004595195408910513,-0.005446556024253368
1782969694959622000,11.457621826171875,-0.002000185428187251,-0.0022460210602730513,-0.0005412796745076776
1782969694969548000,11.467548095703124,-0.01258944720029831,-0.0012212367728352547,0.0037775684613734484
1782969694979474200,11.47747412109375,-0.015168985351920128,0.002401994075626135,0.005627932958304882
1782969694989401000,11.487401123046874,-0.014070981182157993,0.0014124470762908459,0.0008385817054659128
1782969694999327000,11.497326904296875,-0.009133214130997658,0.0037456429563462734,-0.008318964391946793
1782969695009253000,11.507253173828126,0.0003113319689873606,0.0005179489962756634,-0.01137580070644617
1782969695019179000,11.517178955078125,0.003081285860389471,-0.003691443707793951,-0.010029040277004242
1782969695029106000,11.52710595703125,0.005195485893636942,-0.0017953887581825256,-0.009044406935572624
1782969695039032000,11.537031982421874,0.002002622466534376,0.0010986682027578354,-0.00829312950372696
1782969695048958000,11.5469580078125,-0.004365646746009588,0.0002598217688500881,-0.0052065737545490265
1782969695058885000,11.556885009765624,-0.008167575113475323,0.0017432025633752346,0.0012766255531460047
1782969695068811000,11.56681103515625,-0.012249462306499481,0.0017715906724333763,0.009285658597946167
1782969695078737000,11.57673681640625,-0.009420386515557766,0.0005310904234647751,0.01107903104275465
1782969695088663000,11.5866630859375,-0.004573396872729063,0.0013035065494477749,0.010556897148489952
1782969695098590200,11.596590087890625,0.0019627995789051056,0.002030815463513136,0.0063395146280527115
1782969695108515800,11.606515869140624,0.008444488048553467,-0.0052686999551951885,0.0010121888481080532
1782969695118441500,11.61644140625,0.008521187119185925,-0.0017610506620258093,-0.008721398189663887
1782969695128368600,11.62636865234375,0.005695307161659002,-0.0016318871639668941,-0.00840927567332983
1782969695138294800,11.636294677734375,0.0056641483679413795,-0.005597600247710943,-0.007974914275109768
1782969695148220400,11.646220458984375,0.0006354059441946447,-0.00747739989310503,-0.003989775665104389
1782969695158146600,11.656146484375,-0.00404563220217824,-0.005368442740291357,0.00017354357987642288
1782969695168073700,11.66607373046875,-0.006287649739533663,-0.0021783022675663233,0.007733725942671299
1782969695177999600,11.67599951171875,-0.011165762320160866,0.0012515829876065254,0.014624122530221939
1782969695187925500,11.685925537109375,-0.013456306420266628,0.0013513769954442978,0.011987295001745224
1782969695197852700,11.695852783203126,-0.008449030108749866,0.0008517680689692497,0.005320870317518711
1782969695207778800,11.70577880859375,-0.0054756756871938705,-0.00027734600007534027,-0.004879051353782415
1782969695217704400,11.715704345703125,-0.00453957449644804,-0.0010944036766886711,-0.01641613245010376
1782969695227630600,11.725630615234374,-0.0006158978794701397,-0.006755560636520386,-0.018679050728678703
1782969695237557800,11.735557861328125,0.0022912088315933943,-0.008240006864070892,-0.016888076439499855
1782969695247483600,11.745483642578124,0.008740567602217197,-0.007945111021399498,-0.0074843754991889
1782969695257409500,11.755409423828125,0.010006634518504143,-0.005469170399010181,0.006780580617487431
1782969695267336700,11.765336669921876,0.003930265549570322,-0.00273653375916183,0.014071390964090824
1782969695277262600,11.7752626953125,-0.0076539525762200356,0.0023050964809954166,0.019222743809223175
