time,seconds_elapsed,z,y,x
1782969724876486100,0.069486083984375,-0.10282090752720832,-0.039732875451445576,-0.057044148801639674
1782969724886412000,0.079412109375,0.02900572973191738,0.018767974964529276,-0.1032946625187993
1782969724896338000,0.089337890625,0.1458785434871912,0.025402152281999588,-0.10591346671506761
1782969724906264000,0.09926416015625,0.25647183858156203,0.008505816408246755,-0.1021383320905268
1782969724916191000,0.10919091796875,0.3740571845203638,-0.0490080687969923,-0.03959010597988963
1782969724926116900,0.119116943359375,0.37980887991487977,0.0064421618767082686,-0.0024695319186896084
1782969724936043000,0.12904296875,0.2984276507794857,0.055255731014907356,0.014511851890012622
1782969724945969200,0.13896923828125,0.2128670901328325,-0.017047288651764393,0.07220379707589746
1782969724955895000,0.14889501953125,0.1892658497929573,-0.02993175853565335,0.06908734555579722
1782969724965822000,0.158822021484375,0.16445055748820303,-0.02760857628509402,0.040619522092863916
1782969724975748000,0.168748046875,0.1212742635846138,-0.08192585740610957,-0.017771072881668806
1782969724985674000,0.178674072265625,0.09839666134417056,-0.12521598694771527,-0.014268836914375424
1782969724995600000,0.188599853515625,0.07284370241463184,-0.11923735092952847,0.008887436136975884
1782969725005527000,0.198527099609375,0.0037701661884784695,-0.09297785116583109,0.006842778566852212
1782969725015453200,0.208453125,-0.06887070713043213,-0.09324833867028355,0.06467698176763952
1782969725025378800,0.21837890625,-0.08925064733624458,-0.02359495672956109,0.11984357319436967
1782969725035305000,0.228304931640625,-0.03520692245960235,-0.008757745342701673,0.1359885061789304
1782969725045232000,0.238232177734375,-0.0060655836492776866,-0.05660363849252462,0.060964610181003805
1782969725055158000,0.248157958984375,0.0031827216893434524,-0.07473463072776794,0.005476604780182242
1782969725065084000,0.258083984375,0.07562602660953999,-0.042274961149692536,-0.002244783252105117
1782969725075010000,0.268010009765625,0.1798725830256939,-0.0018185937292873858,0.08017097656279802
1782969725084937200,0.277937255859375,0.2771376099914312,-0.012891045755147934,0.14009623375870286
1782969725094862800,0.28786279296875,0.2596399472236633,0.00342398309931159,0.14050247647203504
1782969725104789000,0.2977890625,0.11221826594769954,-0.023320377571880817,0.06590118980035185
1782969725114715100,0.307715087890625,-0.023795886129140853,-0.06270370893329381,-0.055765141841769214
1782969725124641000,0.31764111328125,-0.17706103273630142,-0.11138634516820312,-0.2058344880823046
1782969725134567200,0.327567138671875,-0.24663141256868837,-0.07897825964689255,-0.22850020113773642
1782969725144493000,0.3374931640625,-0.18249299465715885,-0.032697131595760584,-0.14535298524312673
1782969725154419200,0.347419189453125,-0.07281798345148563,-0.013382774794846772,-0.017355477818101643
1782969725164345300,0.357345458984375,0.024617723906040192,0.003856675428152084,0.06294497034326195
1782969725174272000,0.36727197265625,0.07483107683956623,0.0008569090902805328,0.08309979655630886
1782969725184198100,0.3771982421875,0.07226736383140087,-0.0854473095305264,0.035218612897396084
1782969725194124300,0.387124267578125,0.04314706780910492,-0.12925547159686684,-0.056691974363103505
1782969725204050200,0.39705029296875,0.013823942691087722,-0.10402473035901784,-0.056065001571178434
1782969725213977000,0.40697705078125,0.008103811478614806,-0.0369388608187437,0.044219080954790116
1782969725223903200,0.4169033203125,0.054368719047307966,-0.02285100649446249,0.08760551047772168
1782969725233829400,0.426829345703125,0.13476210618913173,-0.048404842206835746,0.12280381123945117
1782969725243755000,0.436755126953125,0.17907003447115422,-0.036821664179861546,0.12653773707076907
1782969725253682200,0.44668212890625,0.1615980906665325,-0.016548399218916893,0.1307303664550185
1782969725263608300,0.4566083984375,0.09906593890786171,-0.01713686663135886,0.11721315162554383
1782969725273534000,0.466533935546875,0.04187807078659534,-0.0074298577398061744,0.13744528085850177
1782969725283460000,0.476460205078125,-0.07318915485143661,-0.02141483621150255,0.10840060735568403
1782969725293387300,0.48638720703125,-0.15852935074567795,-0.07618804440647363,0.023024317234754562
1782969725303313200,0.496313232421875,-0.14251286644637584,-0.11251169593632221,-0.030140067524090406
1782969725313239000,0.506239013671875,-0.07804711627662181,-0.1359311499685049,-0.08123422188013792
1782969725323165200,0.516165283203125,-0.003468552893400192,-0.12305237917304038,-0.09683131172358989
1782969725333091300,0.52609130859375,0.08520984751284122,-0.07162818914502858,-0.046617155072465534
1782969725343018000,0.53601806640625,0.11242284860908984,-0.0509611025609076,-0.028937340670824048
1782969725352944000,0.545944091796875,0.09739362178146839,-0.07579729152321815,-0.020260405479371548
1782969725362870300,0.555870361328125,0.03935410526692867,-0.04207110914066434,0.03760799225196242
1782969725372796200,0.565796142578125,-0.005563479346036911,-0.020810002186149357,0.08294716327786446
1782969725382723000,0.57572314453125,-0.025116321077942847,0.009107143302261828,0.10009002125859259
1782969725392649200,0.585649169921875,-0.03939911345243454,0.025582331154495475,0.07421784031204878
1782969725402575400,0.595575439453125,-0.03251403011381626,0.007181289806216955,0.06911993265114724
1782969725412501000,0.6055009765625,0.013977087426185607,-0.01664776794016361,0.06809497351758181
1782969725422428200,0.61542822265625,0.0851455501049757,-0.04108735880032181,0.029552184633538127
1782969725432354300,0.625354248046875,0.12894435982108116,-0.10666764608323573,0.023777327559143302
1782969725442280000,0.635280029296875,0.1350900229692459,-0.09617211716249585,0.0030880291432142256
1782969725452206000,0.6452060546875,0.14041677094995975,-0.08507219260782004,0.020015783068537712
1782969725462133200,0.65513330078125,0.12657470808029175,-0.06967676281630993,0.07528846521824598
1782969725472059100,0.66505908203125,0.0704009854376316,-0.023743571420013904,0.06759856830276549
1782969725481985000,0.674985107421875,0.022404139509797093,-0.011356383533775806,0.032606676833331585
1782969725491911200,0.6849111328125,0.0140209265679121,-0.02948065376728773,0.007111220244690775
1782969725501837300,0.69483740234375,0.04351590112149715,-0.04223199879080057,-0.014273293893784284
1782969725511764000,0.704763916015625,0.07007131509184837,-0.06258125159740448,-0.03859378841891885
1782969725521690000,0.714690185546875,0.10709025540947914,-0.05221227166578173,-0.04390541189573705
1782969725531616300,0.7246162109375,0.15503975506424902,-0.03556815698742866,0.060506345019489524
1782969725541542100,0.734542236328125,0.0809404996305704,-0.08059051714912056,0.019802140317857264
1782969725551469000,0.744468994140625,0.004911737439036369,-0.06274389481320977,-0.012202552034333347
1782969725561395200,0.754395263671875,-0.026353753918409346,-0.07017243737876415,0.0004768967967480421
1782969725571321300,0.7643212890625,-0.0744663351804018,-0.0888585792787373,0.0160866999913007
1782969725581247000,0.7742470703125,-0.15559680442512033,-0.1031907637529075,-0.04689794477522373
1782969725591174100,0.784174072265625,-0.24284663333296774,-0.06383461265936494,-0.12219305892996489
1782969725601100300,0.794100341796875,-0.22592414010465145,-0.027965865290164947,-0.1403045427471399
1782969725611026200,0.804026123046875,-0.08750409592986107,-0.04508694983050227,-0.12349961148388683
1782969725620952000,0.8139521484375,0.10524082815051078,-0.06212020995691418,-0.09121018390618264
1782969725630879200,0.823879150390625,0.22813713997900484,-0.03969780413806438,-0.025157164544984695
1782969725640805000,0.83380517578125,0.30463059707283974,-0.023412732030451296,0.026146613973751662
1782969725650731000,0.84373095703125,0.3206733848571777,-0.03459609708487987,0.04011011126600206
1782969725660657200,0.8536572265625,0.2661924376070499,-0.06472440110594034,0.03714519704580307
1782969725670583300,0.863583251953125,0.10678688854873179,-0.07326558108851314,0.04630991575419902
1782969725680510000,0.873510009765625,-0.021027590459585188,-0.045051732386648655,0.08131503203138708
1782969725690436000,0.88343603515625,-0.0486637854039669,-0.03380567735955119,0.11433803458064794
1782969725700362200,0.8933623046875,-0.031190672555565832,-0.02700403452068567,0.14326236963942646
1782969725710288100,0.9032880859375,0.0033960721790790554,-0.06036109132990241,0.14179397758729756
1782969725720215000,0.913215087890625,0.0524023874104023,-0.07528554260879755,0.11235387502610683
1782969725730141200,0.92314111328125,0.02535539053082466,-0.03868029765859246,0.07127272677086294
1782969725740067300,0.9330673828125,-0.0378846172362566,-0.02242299034073949,0.041870545067265626
1782969725749993000,0.942992919921875,-0.10749766716659069,-0.034657471883296966,0.026460136902332305
1782969725759920000,0.952920166015625,-0.12923954337537288,-0.05359715015292167,-0.026964725423604247
1782969725769846300,0.96284619140625,-0.06908814927339553,-0.055884238176792854,-0.11130531582124531
1782969725779772200,0.972772216796875,-0.011724924585223197,-0.0648152942597866,-0.097752883547917
1782969725789698000,0.982697998046875,0.06393851142525672,-0.06002908289656043,-0.0815426302421838
1782969725799624200,0.992624267578125,0.18482348343133925,-0.06196341196000576,-0.05818718135692179
1782969725809551400,1.00255126953125,0.2981301291376352,-0.07046674415022135,-0.02230162898339331
1782969725819477000,1.01247705078125,0.31097207505404945,-0.05459463675767183,-0.022523381975293157
1782969725829403100,1.022403076171875,0.219367558068037,-0.06454758323431015,-0.008106003435701132
1782969725839329300,1.032329345703125,0.08462298753559588,-0.03200505767837167,0.04373714265674353
1782969725849256000,1.042255859375,-0.032980478581786155,-0.010956716691702603,0.1275451605476439
1782969725859182000,1.05218212890625,-0.11337328120172023,-0.006179273156821727,0.14413308805935085
1782969725869108200,1.062108154296875,-0.12877894012629984,-0.03249927093610167,0.13550028427056968
1782969725879034000,1.0720341796875,-0.08408464287519454,-0.06019099546000361,0.09239413299374281
1782969725888961000,1.0819609375,0.04341244074702263,-0.08705576764047146,0.08885726410448551
1782969725898887200,1.09188720703125,0.1295651220679283,-0.07767462970241903,0.07504238150268792
1782969725908813300,1.101813232421875,0.16078911237120627,-0.037467268607020376,0.013022928506508468
1782969725918739200,1.1117392578125,0.15824468858540058,-0.04678922370374203,-0.0470300467222929
1782969725928666000,1.121666015625,0.12204290986955166,-0.0616761194512248,-0.07858421882800758
1782969725938592300,1.13159228515625,0.04565525123775005,-0.05233911291584372,-0.08842771358080208
1782969725948518100,1.14151806640625,-0.04338905987143516,-0.0027330782257020472,0.006438947006314992
1782969725958444000,1.151444091796875,-0.11430559361577033,0.0018662322632968424,0.07457220670767128
1782969725968370200,1.1613701171875,-0.12221183669567108,-0.025740152064710854,0.055425607689097524
1782969725978297300,1.17129736328125,-0.10647884551286697,-0.09759572022482753,-0.01630596876516938
1782969725988223000,1.181222900390625,-0.07280863110125065,-0.160680537430197,-0.1043343077648431
1782969725998149000,1.191149169921875,-0.0329348858743906,-0.15793474585339426,-0.1434462748389691
1782969726008075300,1.2010751953125,-0.01096972230374813,-0.06952639456018805,-0.10379114079885184
1782969726018002200,1.211002197265625,0.03629296413064003,-0.020094401262700557,-0.04249576429352164
1782969726027928000,1.220927978515625,0.11150456472039222,-0.054768532019853586,0.10410977829396724
1782969726037854200,1.230854248046875,0.16986498375236986,0.04244841802045703,0.11321955194473265
1782969726047780400,1.2407802734375,0.24695699126124382,-0.10252134005874394,0.04924699211940169
1782969726057707000,1.25070703125,0.1811836656242609,-0.058102498748153444,0.17740400095507503
1782969726067633200,1.260633056640625,0.04854278937280178,-0.024873890624195337,0.03296411196887493
1782969726077559300,1.270559326171875,-0.04331190298199653,-0.06188596280962228,-0.06950995488204062
1782969726087485200,1.280485107421875,-0.12937632149755954,-0.09074512367770075,-0.05074154152609408
1782969726097411000,1.2904111328125,-0.16636720476448535,-0.08659998669698835,-0.03935308235362172
1782969726107338200,1.300338134765625,-0.1258306117147207,-0.1199687339439988,0.07420951087512076
1782969726117264400,1.310264404296875,-0.13520283569395541,-0.01541194253489375,0.06888502791672944
1782969726127190000,1.32018994140625,-0.04316811059713364,0.04018339569792151,-0.0050888475716114046
1782969726137117200,1.3301171875,0.015896072790026663,-0.05467530077844858,0.01428980663716793
1782969726147043800,1.3400439453125,0.043455110844969745,-0.09907894451990723,0.08944675443023442
1782969726156970000,1.349969970703125,0.12671908498704432,-0.039258389807492494,0.08924524050876498
1782969726166896000,1.359896240234375,0.19208499886691568,0.07375760238915681,-0.003572670855000615
1782969726176822000,1.369822021484375,0.3084218060493469,-0.008632949919253587,0.06321823432669044
1782969726186749000,1.3797490234375,0.31779636811614037,-0.032926994828879834,0.18166107387766242
1782969726196675000,1.389675048828125,0.27887948522269723,-0.04875453242734074,0.16284684861861168
1782969726206601200,1.399601318359375,0.2319043835580349,-0.04875613986253738,-0.045732700388133526
1782969726216527000,1.409527099609375,0.18273907837271688,-0.08995938012748957,-0.05808781263567507
1782969726226454000,1.4194541015625,0.1704611960798502,-0.14532470899671315,-0.16467640213333068
1782969726236380200,1.429380126953125,0.040616088026762004,-0.1010628118135035,-0.18134601657912133
1782969726246306000,1.43930615234375,-0.11598550952672958,-0.05352218522056937,-0.1301091658167541
1782969726256232000,1.44923193359375,-0.22307167328298091,0.017138181805610657,0.01827325025014579
1782969726266158000,1.459157958984375,-0.2176864731132984,0.05930281444862485,0.2033879717130214
1782969726276085200,1.469085205078125,-0.25159517245590685,0.025483108563721178,0.24438049183674154
1782969726286011000,1.479010986328125,-0.2605769358128309,-0.053754240410774944,0.11506605659425258
1782969726295937000,1.48893701171875,-0.1563572674036026,-0.07366203306019306,0.03625752749107778
1782969726305863200,1.49886328125,-0.016792729368805884,-0.12365385219752788,0.04398761028647422
1782969726315789800,1.508789794921875,0.03980769425332546,-0.09448372568413614,0.0283321413192898
1782969726325716000,1.518716064453125,0.04100245699584484,0.0207232006855309,0.0184711109098047
1782969726335642000,1.52864208984375,0.07143325109481811,0.054162528950721024,0.08938128797858953
1782969726345568000,1.538568115234375,0.15177227770090101,-0.0754978701852262,0.18360168655142187
1782969726355494100,1.548494140625,0.16013795498609543,-0.007888853553682565,0.1081411527018994
1782969726365421000,1.558421142578125,0.13261574181020258,-0.0350863648198545,-0.02526844289973378
1782969726375347200,1.56834716796875,0.10997311736941337,-0.06299962313994766,-0.02391008709333837
1782969726385273000,1.578273193359375,0.047888124856352805,-0.03575432720929384,0.005507949766516685
1782969726395199000,1.588198974609375,-0.07927344320118426,-0.028030747219920157,-0.008266016303002834
1782969726405126100,1.598126220703125,-0.12231412802636622,-0.000506634347885847,-0.10233166270554066
1782969726415052000,1.608052001953125,-0.1308639297068119,0.02269113975763321,-0.05747070365063846
1782969726424978000,1.61797802734375,-0.09836275907456875,-0.000886573576182127,0.06707943979948759
1782969726434904000,1.627904052734375,-0.038600072029232976,-0.05716010333150625,0.09108136989474296
1782969726444831200,1.637831298828125,-0.11970716039836406,-0.05893821891993284,0.03316504136845469
1782969726454756900,1.6477568359375,-0.1372954240590334,-0.036368221323937175,-0.0704772655442357
1782969726464683000,1.65768310546875,-0.07050152320265769,-0.040361382613331075,-0.07296791331619024
1782969726474609200,1.667609130859375,0.04631400740742683,-0.014937164629995822,-0.03776259829178452
1782969726484535000,1.67753515625,0.26554537187516686,-0.02271685872077942,-0.0144016695138067
1782969726494462000,1.6874619140625,0.4168734129399061,-0.01790551291629672,0.010696896711736917
1782969726504388000,1.69738818359375,0.4798714286446571,-0.016658873856067655,0.03889868964962661
1782969726514314000,1.70731396484375,0.5079425078749656,-0.018830957198143004,0.12296221667155623
1782969726524240100,1.717240234375,0.4038327295809984,-0.04618000576421618,0.1822024142127484
1782969726534167000,1.7271669921875,0.24443185669779777,-0.06297799583002925,0.14280067041181027
1782969726544093200,1.73709326171875,0.0791197139441967,-0.09144304281398653,0.11815708141215145
1782969726554019000,1.74701904296875,-0.0637958880841732,-0.08953151010423899,0.07734035624675452
1782969726563945000,1.756945068359375,-0.1274690265715122,-0.08705854411944747,0.04890322018302977
1782969726573872000,1.7668720703125,-0.19205051207542417,-0.07487856924310327,0.02447583121731877
1782969726583798000,1.776798095703125,-0.24545710809230803,-0.05546119045913219,0.024284254167973994
1782969726593724000,1.786723876953125,-0.2520674661427736,-0.04575900387316942,-0.00829670370221138
1782969726603650000,1.796650146484375,-0.2922182747453451,-0.026444062550365924,-0.029059505745768547
1782969726613576000,1.806575927734375,-0.25218378599882124,-0.04440890443846583,0.045574660282209516
1782969726623502800,1.8165029296875,-0.14301321718394755,-0.0501287433899939,0.036471900894120335
1782969726633429000,1.826428955078125,-0.003620528584718704,-0.054299307072907685,-0.068773968757689
1782969726643355100,1.836355224609375,0.11784954983294009,-0.046305677970498796,-0.06746347068101168
1782969726653281000,1.846281005859375,0.2159264777034521,-0.023254034337401388,-0.01877111676968634
1782969726663208000,1.8562080078125,0.2733516617119312,-0.0014094284065067767,-0.0005882482167333364
1782969726673134000,1.866134033203125,0.26510698045790193,-0.03489508003145456,0.030738471808657047
1782969726683060000,1.87606005859375,0.18592472267150878,-0.051956104947626584,0.009607274844124913
1782969726692986000,1.885986083984375,0.07898001321256161,-0.040999826647341246,-0.0014359510872513056
1782969726702913000,1.8959130859375,-0.021173136410117147,-0.043845425336807964,-0.006976341818645596
1782969726712839200,1.905839111328125,-0.06078560035228729,-0.07647752887234091,-0.028080358515307307
1782969726722765000,1.91576513671875,-0.02525426824390888,-0.04962824652194976,-0.0575965219873935
1782969726732691000,1.92569091796875,-0.00009644611179828643,-0.06291252937838435,-0.04635960011482238
1782969726742617000,1.9356171875,-0.04373217422068119,-0.06491627041622997,-0.06567856002561748
1782969726752544000,1.9455439453125,-0.05038637141287326,-0.008196604328602551,-0.06517419070005416
1782969726762470000,1.955469970703125,-0.044592005920410155,0.006073620825260877,-0.000044862055033445356
1782969726772396000,1.96539599609375,-0.03150689889788628,-0.00456204721853137,0.06544328996501862
1782969726782322000,1.975322021484375,-0.015016951867938041,-0.002463905895501375,0.03639072541669011
1782969726792249000,1.9852490234375,0.07922317431867122,-0.09255188083872198,0.01547770124748349
1782969726802175000,1.995175048828125,0.10770049626231193,-0.10789148878976702,0.02337839136943221
1782969726812101000,2.00510107421875,0.07593348512351512,-0.09677782797068357,-0.0037876287799328565
1782969726822027000,2.015027099609375,-0.04555003729760647,-0.0526603076942265,0.010282178431004286
1782969726831954000,2.024953857421875,-0.1894534813195467,-0.010277502255886792,-0.011104089273139833
1782969726841880000,2.034880126953125,-0.2775181337416172,-0.03755348558574915,0.0436478569380939
1782969726851806000,2.044805908203125,-0.3703390407800674,0.004332914637774229,0.013833075845614076
1782969726861732000,2.054732177734375,-0.21824586056172846,-0.06314969913512468,0.02576923202872276
1782969726871658000,2.064657958984375,-0.019292729490995406,0.0237502934217453,0.15789799403958021
1782969726881585200,2.074585205078125,0.13273849140703678,0.02841638553664088,0.10549969828240573
1782969726891511000,2.084510986328125,0.3254594500899315,-0.015906155792623757,0.0857652894385159
1782969726901437000,2.09443701171875,0.5420072745621204,-0.024413287375122307,0.08286978719271719
1782969726911363000,2.104363037109375,0.51533846334517,-0.04404840056300163,0.06184197753742337
1782969726921290000,2.1142900390625,0.3766068690031767,-0.05991115560531616,-0.07037702004015445
1782969726931216100,2.124216064453125,0.28224691582918165,-0.051655076174438,-0.11081629019528627
1782969726941142000,2.13414208984375,0.24607494772970676,-0.05542465784102678,-0.0442466996140778
1782969726951068000,2.14406787109375,0.1735363657414913,-0.0376895330555737,-0.09335954395979643
1782969726960995000,2.1539951171875,0.09177811998724937,-0.05828954575285315,-0.1128094367738813
1782969726970921000,2.1639208984375,0.011239186894893645,-0.06505261014699935,-0.07552402753978968
1782969726980847000,2.17384716796875,-0.05612812993526459,-0.06405570806413889,-0.058212681124359365
1782969726990773000,2.18377294921875,-0.16175006635785102,-0.1456255916394293,0.10882482411712407
1782969727000699100,2.19369921875,-0.2635673498004675,-0.06703253191784024,-0.014388810032233594
1782969727010626000,2.2036259765625,-0.28035131134092806,-0.013617752594500779,-0.007186404372751713
1782969727020552000,2.213552001953125,-0.2070867531657219,-0.01604761008992791,0.060605056153610344
1782969727030478000,2.22347802734375,-0.06739595840275288,-0.08599632171541452,0.14584727156609295
1782969727040404000,2.233404052734375,0.04406184456646442,-0.04783697919100523,0.12199220259562134
1782969727050331100,2.2433310546875,0.10784838030040264,-0.054575639796257014,0.0742064421351999
1782969727060257000,2.253257080078125,0.1050526121020317,-0.09559753214493394,0.04166004412174225
1782969727070183000,2.263182861328125,0.051880993884801864,-0.07357698512524366,0.03588584463447332
1782969727080109000,2.273109130859375,0.04301204325258732,-0.0514262358546257,0.030792467018216845
1782969727090035000,2.283034912109375,0.01761632071137428,-0.034211920072883366,0.09056969404555856
1782969727099962000,2.292962158203125,-0.059956163790822026,-0.02767418886721134,0.05892046406753361
1782969727109888000,2.302887939453125,-0.09468903899788855,-0.0417643812790513,0.012416998502612114
1782969727119814000,2.31281396484375,-0.037435704424977304,-0.04790390694737434,-0.015074965665489434
1782969727129740000,2.322739990234375,0.023783026647567748,-0.04626096204593778,-0.025182956573367117
1782969727139667200,2.332667236328125,0.051772272813320155,-0.08864625170230865,-0.07336399996168912
1782969727149593300,2.34259326171875,0.10456278275847435,-0.06301438231766224,-0.08420176644884049
1782969727159519200,2.352519287109375,0.16937690797448157,-0.03532382683753967,-0.06944660732224583
1782969727169445400,2.3624453125,0.23605448897480963,-0.02235927745476365,-0.04110094893425703
1782969727179372300,2.372372314453125,0.2621323485612869,-0.02464066639021039,0.02774338164590299
1782969727189298200,2.382298095703125,0.20309622222483156,-0.023690233797580004,0.05168927070498466
1782969727199224300,2.392224365234375,0.06609481267631054,-0.02360138647034764,0.0326283772084862
1782969727209150200,2.402150146484375,-0.03034603842496872,-0.10890884913876651,-0.08376520166248083
1782969727219076000,2.412076171875,-0.09705401456356048,-0.18805311300233005,-0.17194142470024526
1782969727229003300,2.422003173828125,-0.11659224324822424,0.11615882026702165,0.14696531581059097
1782969727238929200,2.43192919921875,-0.006657704323530197,-0.039363311486691234,0.04493577785678208
1782969727248855300,2.441855224609375,0.02513444125652313,-0.14451865331083535,-0.08093085501939058
1782969727258781200,2.45178125,0.134006319385767,0.018504063331335783,0.09520838669687509
1782969727268708400,2.461708251953125,0.12165361829102038,0.03286854263991117,0.21083215023912488
1782969727278634200,2.47163427734375,-0.06532149021625519,-0.04498071297705173,0.16063246050477026
1782969727288560000,2.48156005859375,-0.21779870131611823,-0.0805928552366793,0.1584312241334468
1782969727298486300,2.491486328125,-0.30118308696746826,-0.09897533801496028,0.12798435568250716
1782969727308413200,2.5014130859375,-0.26509412097632884,-0.09245368116125464,0.052981283276900645
1782969727318339300,2.51133935546875,-0.1264449442207813,-0.11488412415608763,0.008296630636975168
1782969727328265200,2.52126513671875,0.009791910696029662,-0.12626783408820627,0.02875906149446964
1782969727338191400,2.53119140625,0.07297989601492881,-0.09092179541885852,-0.04307824035659432
1782969727348117200,2.5411171875,0.056521513167023654,-0.05566562699005007,-0.08630984464399516
1782969727358044200,2.551044189453125,0.029230770659446716,-0.05214227516949176,-0.06620674861818551
1782969727367970300,2.56097021484375,0.07108779865801335,-0.0635224779702723,0.013572671343758702
1782969727377896200,2.570896240234375,0.21978023052215576,-0.18758987940475344,0.10094897617548704
1782969727387822000,2.580822021484375,0.2615653623282909,0.005611848532408476,-0.03171403884254396
1782969727397749200,2.590749267578125,0.20554244633316993,0.08779241135194897,-0.14780403165705502
1782969727407675400,2.60067529296875,0.27500995031297204,-0.018265578400343655,-0.14023637288175522
1782969727417601300,2.610601318359375,0.3032897038578987,-0.03273249517008662,-0.023959625323489307
1782969727427527200,2.620527099609375,0.27806115457713604,-0.025330986741930246,0.11146978566795587
1782969727437453300,2.630453369140625,0.20666648192703724,-0.04068973778486252,0.14884645338207483
1782969727447380200,2.640380126953125,0.1217833821505308,-0.02231412313878536,0.18455197301357984
1782969727457306000,2.65030615234375,0.11551730749309062,-0.02863178185299039,0.2552323599144816
1782969727467232300,2.660232177734375,0.11099895328581333,-0.03204305160120129,0.21097952282056212
1782969727477158400,2.670158447265625,0.057634442844986915,-0.05208382298052311,0.16316490159183739
1782969727487085300,2.680085205078125,0.019136077624559402,-0.02918853895291686,0.14454809860102832
1782969727497011200,2.69001123046875,0.01680032815337181,-0.04774477086290717,0.17635719531588256
1782969727506937300,2.699937255859375,-0.05915419975817203,-0.04975274968445301,0.12281170228496194
1782969727516863200,2.70986328125,-0.19205986442565917,-0.05912935757786035,-0.03358648165091872
1782969727526790100,2.7197900390625,-0.27787352305054663,-0.08932312805056572,-0.1071264957666397
1782969727536716300,2.72971630859375,-0.34719723464548585,-0.09291983736827969,-0.11397153935581444
1782969727546642200,2.73964208984375,-0.34603812773823733,-0.08236483334526419,-0.11952332826405763
1782969727556568000,2.749568115234375,-0.2928501429080963,-0.035465865656733514,-0.06546294451355934
1782969727566494200,2.759494140625,-0.19669570753276347,0.023835341356694698,0.14279292549677192
1782969727576421400,2.76942138671875,-0.12037293083071708,0.05580518159121275,0.20224632739722728
1782969727586347300,2.77934716796875,-0.035056115812063214,-0.005473024583607912,-0.03346512029357254
1782969727596273200,2.789273193359375,0.07970891200900078,-0.1224490064524114,-0.42900976787023243
1782969727606199300,2.79919921875,0.3013783172786236,-0.1896278149731457,-0.646584670367837
1782969727616126200,2.809126220703125,0.546112956315279,-0.15096227649226784,-0.33232816681563854
1782969727626052000,2.819052001953125,0.6428104125261307,-0.0024586451984941957,0.19460012349300085
1782969727635978200,2.828978271484375,0.4446037159085274,0.11506094202771783,0.3779343182146549
1782969727645904400,2.838904296875,0.0007972878575325012,0.16020634404718875,0.23569347364269197
1782969727655831300,2.848831298828125,-0.3161509389966726,0.07038418043330312,0.0767401253312826
1782969727665757200,2.858757080078125,-0.3911977044135332,-0.06402458227351307,0.011005597334727644
1782969727675683300,2.868683349609375,-0.35316520313918587,-0.1409498549133539,0.01613813791759312
1782969727685609200,2.878609130859375,-0.27206395998895166,-0.1214350071042776,0.01754259788803756
1782969727695535000,2.88853515625,-0.19354455002546309,-0.05797565749809146,0.049253494925424454
1782969727705462300,2.898462158203125,-0.21238018339872358,-0.032683249200880525,0.1067707411315292
1782969727715388400,2.908388427734375,-0.17824819669425487,0.0008775134868919849,0.0533988511018455
1782969727725314000,2.91831396484375,-0.0204693720549345,-0.006572217997163534,0.008718801571801304
1782969727735240200,2.928240234375,0.18979075044989585,0.008487257838249206,0.006513181286305189
1782969727745167400,2.93816748046875,0.33597324531972406,-0.004295797497779131,0.05257547895498573
1782969727755093200,2.94809326171875,0.4095996225446462,0.018199965818226336,0.07810118455141782
1782969727765019100,2.95801904296875,0.41913375908732414,0.0027989830687642097,0.03663863576315343
1782969727774945300,2.9679453125,0.3067448127478361,-0.011563012021780013,0.00875489579848945
1782969727784871400,2.977871337890625,0.1532633930414915,-0.01309314419850707,-0.054593248518183826
1782969727794798000,2.987798095703125,0.06943886240720748,-0.054300183855742215,-0.1466217630699277
1782969727804724200,2.99772412109375,0.036550153762102126,-0.12375570513680577,-0.17882811547406016
1782969727814650400,3.007650390625,0.06053308689594268,-0.14432283847779034,-0.17934497895501553
1782969727824576300,3.017576171875,0.07114449728131293,-0.09624518239870666,-0.09159647981002926
1782969727834503200,3.027503173828125,-0.010797872868180274,-0.044569794088602066,-0.012496201218664646
1782969727844429300,3.03742919921875,-0.08190963692367076,-0.035930706689506764,-0.03501015777848661
1782969727854355500,3.04735546875,-0.09635258829593658,-0.08458893913552165,-0.07439151637852191
1782969727864281000,3.057281005859375,-0.07911854490041732,-0.13640125169828532,-0.13088840656094253
1782969727874208300,3.067208251953125,0.030825346374511717,-0.109387280305475,-0.03888385740667581
1782969727884134400,3.077134521484375,0.11954349426925182,-0.06674348584339022,0.15044855481646954
1782969727894060000,3.08706005859375,0.09310732276439666,0.003956482540816068,0.19659823850765823
1782969727903986200,3.096986083984375,0.11779109764397144,0.0916163535542786,0.24216690744049846
1782969727913912300,3.106912353515625,0.057113633841276164,0.029542466957122086,0.2837163307946175
1782969727923839200,3.116839111328125,0.028510639691352844,0.0027111586548388003,0.22356880915015934
1782969727933765000,3.12676513671875,0.0339238969117403,-0.028028993654251096,0.11623787685260176
1782969727943691300,3.136691162109375,0.06731237177252769,-0.07926262954622507,0.005532572751119733
1782969727953617400,3.146617431640625,0.04861760817468166,-0.08061813580840825,-0.0471394253809005
1782969727963544000,3.1565439453125,0.02138181072473526,-0.06117781454026699,-0.0613520751286298
1782969727973470200,3.16647021484375,0.028234745359420773,-0.0213854639865458,-0.03558956510163844
1782969727983396400,3.176396240234375,0.013050620231032371,-0.12120295191407203,-0.08275310201048851
1782969727993322200,3.186322265625,0.04869125793278217,-0.18776903536394238,-0.10754990881048142
1782969728003249200,3.196249267578125,0.017706337082386017,-0.08903086710572242,-0.14262830951958894
1782969728013175300,3.20617529296875,-0.04574526760876178,-0.04847556935548782,-0.10449855841584503
1782969728023101400,3.216101318359375,-0.09899287367165088,0.0014516601130366324,-0.018276318990066646
1782969728033027000,3.226027099609375,-0.13916472506225108,0.05553250212967396,0.0026500030521303414
1782969728042953200,3.235953125,-0.06447744060754776,-0.006407967346161603,-0.06500416789539158
1782969728052880400,3.24588037109375,0.06575754354596137,-0.07023512735143303,-0.040410044060647486
1782969728062806000,3.255805908203125,0.17139409301578998,-0.09833996272087096,-0.01711275510340929
1782969728072732200,3.265732177734375,0.13148469195365906,-0.06839023013710975,0.012131021168082953
1782969728082658300,3.275658203125,0.03517944993078709,-0.023924042553454636,0.13758739274293183
1782969728092585200,3.285585205078125,-0.037490064960718154,-0.002815788073092699,0.18497896625399587
1782969728102511000,3.295510986328125,-0.07319032389521599,-0.04125818532258272,0.1717883530303836
1782969728112437200,3.305437255859375,-0.06613865181803703,-0.05423851679638028,0.012259104527160525
1782969728122363400,3.31536328125,-0.09090893593728541,-0.10682897412478923,0.03216872380748391
1782969728132289300,3.325289306640625,-0.09927285965681075,-0.10198533348590134,0.008353840716928244
1782969728142216200,3.33521630859375,-0.010537176105380058,-0.07265329440906644,-0.1322019003123045
1782969728152142300,3.345142333984375,0.1008048915296793,-0.1289202482931316,-0.06667940763123333
1782969728162068200,3.355068115234375,0.14333996492028236,-0.00033858430460095406,-0.1146294918078929
1782969728171994000,3.364994140625,0.18264204773902892,0.03469488128423691,-0.0280843771032989
1782969728181921300,3.37492138671875,0.21799334710538387,0.05724705096259713,0.07571450861059129
1782969728191847400,3.384847412109375,0.15801146435141564,0.14574994867146016,0.03635002808012068
1782969728201773000,3.39477294921875,0.14199030387699604,0.08871259493678808,0.08516739661060273
1782969728211699200,3.40469921875,0.11717793418169022,-0.0436640774205327,0.0983867244720459
1782969728221626400,3.41462646484375,0.04905833767950535,-0.14133607775196433,0.02173266998901963
1782969728231552000,3.424552001953125,-0.04741641569137573,-0.23997882281169294,-0.06693520902320742
1782969728241478100,3.43447802734375,-0.061496378970146176,-0.08962064969241619,-0.04759812893383205
1782969728251404300,3.444404296875,-0.02730652459859848,0.01713145980387926,0.020667159649357197
1782969728261330200,3.454330078125,-0.02821487161517143,-0.017074322789162398,0.019510975351557134
1782969728271257000,3.464257080078125,0.026181319960951802,-0.11401494010612367,-0.006409940107539295
1782969728281183200,3.474183349609375,0.03613514322042465,-0.12117284903675317,-0.04750705311689526
1782969728291109400,3.484109375,-0.04043605528473854,-0.014626052854210137,-0.08764164123702793
1782969728301035300,3.49403515625,-0.03182897045910358,0.11803323583677411,-0.0997322573294863
1782969728310962200,3.503962158203125,0.023528759625554084,-0.0962676864914596,0.05831657989025116
1782969728320888300,3.513888427734375,0.030415012007951735,-0.08010302589312196,0.058015331921353934
1782969728330814200,3.523814208984375,0.05195990433990955,-0.0340744112983346,0.041280945143662394
1782969728340740000,3.533739990234375,0.09176584502756595,-0.017137451153248547,-0.008633388310670852
1782969728350666200,3.543666259765625,0.06613631373047828,-0.14852788895219562,0.02650277046766132
1782969728360593400,3.553593505859375,0.07375438751876354,-0.04053016330897808,0.06240498171504587
1782969728370519000,3.56351904296875,0.0842260971724987,0.16375614548325537,0.20602062177155164
1782969728380445200,3.573445068359375,-0.001513327172398567,0.17817133206576108,0.18913203081283717
1782969728390371300,3.583371337890625,-0.04808744682073593,0.06506590801998972,0.17520963271595535
1782969728400298200,3.59329833984375,-0.025858079355955122,-0.1272602061264217,0.08754194372221827
1782969728410224000,3.60322412109375,0.061898530030250545,-0.22048720974773167,-0.07209346856921911
1782969728420150300,3.613150390625,0.16590952412486076,-0.20239947213232515,-0.12686298696976153
1782969728430076200,3.623076171875,0.20119009634256363,-0.119174807087332,-0.10920797821581363
1782969728440003000,3.633003173828125,0.12756371911764144,0.04217062399238348,-0.04329122552014887
1782969728449929200,3.64292919921875,0.04925356799066066,0.07495221900120377,0.018820033945329485
1782969728459855400,3.65285546875,0.01213701251745224,0.010385638805478811,0.030211963716521857
1782969728469781200,3.66278125,0.013823358169198035,-0.039557080493122336,0.026972835664823648
1782969728479707100,3.67270703125,0.016835399466753005,-0.038339229135960336,0.007988660666346549
1782969728489634300,3.68263427734375,-0.0022001403927803037,-0.041894437399506566,0.02674359348621219
1782969728499560400,3.692560546875,-0.06031856736242771,-0.05106251710876822,0.026159875314123927
1782969728509486000,3.702486083984375,-0.16554770507514477,-0.11400310353785753,0.03311751243229955
1782969728519412200,3.712412109375,-0.21042028150260447,-0.06734364369362593,0.015542765840329228
1782969728529339400,3.72233935546875,-0.01279576868712902,-0.05754822586625814,0.005584558666683733
1782969728539265300,3.732265380859375,0.19846505529284475,-0.002613835760205984,0.007173873684741556
1782969728549191200,3.742191162109375,0.24179975462853906,0.02481923782750964,0.07024426050595939
1782969728559117300,3.752117431640625,0.16267770259678363,0.03346460883691907,0.1062036087680608
1782969728569044200,3.762044189453125,0.08613514566421508,0.038214872103929515,0.09279124255254864
1782969728578970000,3.77197021484375,0.01814063684642315,-0.016061054093390703,0.08363109042141587
1782969728588896300,3.781896240234375,-0.024087562552094457,-0.07115121928304434,0.062479581321217115
1782969728598822400,3.791822509765625,-0.13165478782355786,-0.05936345859467983,-0.004168444791063666
1782969728608748300,3.801748291015625,-0.21669863111972806,-0.08291428392156958,-0.006587817425094545
1782969728618675200,3.81167529296875,-0.14395897360146045,-0.15334434932321309,-0.05093151114024222
1782969728628601300,3.821601318359375,0.01786123538315296,-0.15968874991387128,-0.13111129206400363
1782969728638527200,3.83152734375,0.13334580965042114,-0.10581789738610387,-0.09662106650639325
1782969728648453000,3.841453125,0.17510697605907916,0.009704816934466362,0.012193747673369943
1782969728658380300,3.85138037109375,0.1416734930127859,0.07902779787704348,0.07789809972736984
1782969728668306400,3.861306396484375,0.21958324664533138,0.056886400956660504,0.10461126154270023
1782969728678232300,3.871232421875,0.2970382422477007,-0.03436141154617071,0.08431910921819508
1782969728688158200,3.881158203125,0.29434710346758364,-0.06161123752146959,0.03144205350074917
1782969728698084400,3.89108447265625,0.25091186636686325,-0.07827332624793053,-0.07840601271688938
1782969728708011300,3.90101123046875,0.1080371808707714,-0.08936185262575745,-0.09476780332252382
1782969728717937200,3.910937255859375,-0.060851651325821876,-0.09413403546363115,-0.115050603296794
1782969728727863300,3.92086328125,-0.08798866457641125,0.028654870467633008,-0.15090817168485374
1782969728737789200,3.9307890625,-0.07746259438693523,-0.18498013529777527,-0.01711301083173603
1782969728747716000,3.940716064453125,-0.121622638630867,-0.23050357684940098,-0.07287877372801303
1782969728757642200,3.950642333984375,-0.012372574838995933,0.02396452069431543,0.0011692629750818014
1782969728767568400,3.960568359375,0.0627981092184782,0.12564371084049344,0.15414130838718265
1782969728777494300,3.970494384765625,0.10865969668328762,0.015455489415675401,0.21226598243452607
1782969728787420200,3.980420166015625,0.0741962860673666,0.021345131976157426,0.32583058495726436
1782969728797346300,3.99034619140625,-0.0404378088504076,0.04965571905076503,0.22851934422962367
1782969728807272200,4.000272216796875,-0.13122048805952072,-0.013575667018443345,0.0920807196630165
1782969728817198300,4.0101982421875,-0.17768939376771448,-0.11386647154614328,0.0030824031200259922
1782969728827125200,4.020125244140625,-0.20009177971184253,-0.1361829327724874,-0.08451313395295292
1782969728837051100,4.030051025390625,-0.15244681596159934,-0.06382306835204363,-0.08333828148730099
1782969728846977300,4.039977294921875,-0.02971767739355564,0.02365180148333311,-0.02234353189636022
1782969728856903400,4.0499033203125,0.12667173871397971,0.01279942194893956,0.06085110333655029
1782969728866830300,4.059830322265625,0.18163374747931957,0.004777443534880876,0.0882597366027534
1782969728876756200,4.069756103515625,0.12830956904888152,0.0360686538554728,0.11399426264427602
1782969728886682400,4.079682373046875,0.06177168878018856,0.05494067371636629,0.1408889550389722
1782969728896608300,4.089608154296875,-0.02150514484345913,-0.022832886315882206,0.10786492957640438
1782969728906534100,4.0995341796875,-0.12426584661602973,-0.06884118877500295,0.026927242957428096
1782969728916461300,4.10946142578125,-0.15833587400019167,-0.07067293424680829,-0.02887848662305623
1782969728926387200,4.11938720703125,-0.10911211662590503,-0.0628790655001998,-0.03172474289964884
1782969728936313000,4.12931298828125,-0.014711831441521644,-0.02368731118813157,-0.019949439834058284
1782969728946239200,4.1392392578125,0.07664718635082245,-0.03406052890345454,-0.013579941334761678
1782969728956166100,4.149166259765625,0.0690635993540287,-0.05199965182840824,-0.04765946719963103
1782969728966092300,4.15909228515625,0.03604045067429543,-0.052201604141294954,-0.08634864228442311
1782969728976018200,4.16901806640625,0.03299041545391083,-0.07243935939744114,-0.09272522811163217
1782969728985944300,4.1789443359375,0.02817395508289337,-0.09687836573570967,-0.07309303753320127
1782969728995870500,4.188870361328125,0.0735860452145338,-0.08634601193591952,-0.05745744231026619
1782969729005797000,4.198797119140625,0.12974106315672396,-0.0864667157061398,-0.03189947841204702
1782969729015723300,4.20872314453125,0.13335282391309738,-0.0579921702414751,0.012602328474260866
1782969729025649400,4.2186494140625,0.10772855331301688,0.0009355272844433784,0.07448693957701324
1782969729035575000,4.228574951171875,0.04904197106659412,0.01645516797751188,0.09526530451588332
1782969729045502200,4.238502197265625,0.0025099369943141934,-0.0005815992802381515,0.0809586563417688
1782969729055428400,4.248428466796875,-0.11441548373103141,0.02393938625305891,0.038896022768504915
1782969729065354200,4.258354248046875,-0.24530396335721014,0.006193593943119049,-0.051745859730429944
1782969729075280100,4.268280029296875,-0.15862170520424843,-0.06850275060087442,-0.036206527956202626
1782969729085207300,4.278207275390625,0.014117372679710386,-0.06382540643960237,-0.053337330172955985
1782969729095133200,4.28813330078125,0.17274141597151754,-0.019500088631361722,0.0032068697499111295
1782969729105059000,4.29805908203125,0.2468441785365343,-0.00409063031449914,0.09688179980181157
1782969729114985200,4.307985107421875,0.19812486355304718,0.006432663396000861,0.11821118621956557
1782969729124911400,4.317911376953125,0.056039282608032225,0.016595745491981506,0.057917205309122796
1782969729134838300,4.32783837890625,-0.09760697227120399,0.016302023242413997,0.03577723316084593
1782969729144763100,4.33776318359375,-0.1582698230266571,-0.022769757951796053,0.014010405173897742
1782969729154689000,4.34768896484375,-0.0921603973031044,-0.0364487392142415,-0.01466002818904817
1782969729164615200,4.357615234375,0.07585515919029712,-0.015992080510407684,0.026137736547552047
1782969729174543000,4.367543212890625,0.20168518638312816,0.1069780272066593,-0.2574436427557841
1782969729184469200,4.37746923828125,0.25199673899412156,-0.026075667629390953,0.08732636474277823
1782969729194396000,4.38739599609375,0.264209739357233,-0.11198460332229733,0.2668476501127705
1782969729204322000,4.397322021484375,0.09735270524919032,0.11668182122781873,-0.1315823436418548
1782969729214248200,4.407248291015625,-0.10881751759350299,0.18098785079121588,-0.30706129481848327
1782969729224174000,4.417174072265625,-0.09287760566174984,-0.2803855058714747,0.365428326254338
1782969729234101000,4.42710107421875,0.034333646756410596,-0.2296834926381707,0.15490173483304678
1782969729244027100,4.437027099609375,-0.04440612795948982,0.09204977653548121,-0.42684809632431714
1782969729253953300,4.446953369140625,-0.04352876060307025,-0.10374123724251985,0.042802492155134673
1782969729263879200,4.456879150390625,0.10110416673719883,-0.21817878667488694,0.35555684751607475
1782969729273805000,4.46680517578125,0.0672989277690649,0.141575439465791,0.021298991279490292
1782969729283732200,4.476732177734375,0.051099488118290896,0.16889730776399373,0.15440726584699005
1782969729293658000,4.486658203125,0.02365560087561607,0.07585033688470721,0.20487430128064005
1782969729303584000,4.496583984375,-0.1027215388059616,0.08752002415135503,-0.08445314739402383
1782969729313510100,4.50651025390625,-0.1568751537978649,-0.19149901567250488,0.13720946280863136
1782969729323437300,4.516437255859375,-0.10059621721506118,-0.1915788029104471,-0.07829046004582196
1782969729333363000,4.526363037109375,-0.02198737540245056,-0.06530848460420965,-0.4962942287225276
1782969729343289000,4.5362890625,0.16018062508404254,-0.1925320119820535,-0.08951956393811851
1782969729353215200,4.54621533203125,0.2979565261363983,-0.07836056613996624,-0.09905329862199723
1782969729363141000,4.55614111328125,0.29557459943592546,0.07040186222046613,-0.14366645692829041
1782969729373068000,4.566068115234375,0.28170389499366283,0.10722805644497274,0.0436181559195742
1782969729382994200,4.575994140625,0.2049994254976511,0.08455313716977834,0.21246771555170416
1782969729392920000,4.585920166015625,0.10153086771667003,0.046853228850662704,0.1882937533577904
1782969729402846200,4.59584619140625,0.06290566124618054,-0.03555471298396587,0.022141031594201922
1782969729412773000,4.605773193359375,-0.008014379629492759,-0.0887073342397809,-0.003151194039918482
1782969729422699300,4.61569921875,-0.035629531785845756,-0.10467603387460112,-0.10087828555945307
1782969729432625200,4.625625244140625,0.019362872117757796,-0.09753609899207949,-0.14512809044606984
1782969729442551000,4.635551025390625,0.13074585628509522,-0.11256269547119736,-0.09187292213123291
1782969729452478200,4.645478271484375,0.20957623189389704,-0.14185133379772305,-0.043574024516902864
1782969729462404000,4.655404052734375,0.23558745598495004,-0.10675137884393333,0.10018427541330456
1782969729472330000,4.665330078125,0.11009703601002692,-0.06641352323666215,0.19197540101259947
1782969729482256100,4.675256103515625,-0.05693886179625988,-0.03194704388082027,0.17516433226950465
1782969729492182000,4.68518212890625,-0.17462299193441866,-0.03998115112408995,0.15686331722959876
1782969729502109000,4.69510888671875,-0.23272329872548578,-0.07025295526906848,0.12063260468021035
1782969729512035000,4.70503515625,-0.2523515437811613,-0.10509016763344406,0.06637582157477737
1782969729521961200,4.714961181640625,-0.24258593657016753,-0.10123261542245746,0.07424450912326575
1782969729531887000,4.72488720703125,-0.2210375371068716,-0.10059271008372306,0.12231142461262642
1782969729541814000,4.73481396484375,-0.2040624369084835,-0.06036386780887842,0.14754852252602577
1782969729551740200,4.744740234375,-0.16951485514044762,-0.029321517682820555,0.1221479046139866
1782969729561666000,4.754666015625,-0.1394903037548065,-0.06952654069066047,0.06772957427129149
1782969729571592200,4.76459228515625,-0.10486790318489074,-0.09610416649281978,-0.12912267553005366
1782969729581518000,4.77451806640625,-0.0588373888939619,-0.16057546962052582,-0.27113552003242075
1782969729591445200,4.7844453125,0.021721417942643165,-0.15783479261025785,-0.23823234447054564
1782969729601371100,4.79437109375,0.14444821842312813,-0.12105126848369836,-0.15096023066565392
1782969729611297000,4.804297119140625,0.25657997513115405,-0.0754378105610609,-0.08547153065633029
1782969729621223200,4.81422314453125,0.2921346881151199,-0.004817191023379564,0.040157347941212354
1782969729631150000,4.824150146484375,0.2728898894190788,0.01596957641765475,0.09416008322034031
1782969729641076000,4.834075927734375,0.2456377253562212,-0.04940554368197918,0.08805343690831213
1782969729651002000,4.844002197265625,0.16947510765194893,-0.07872764588668942,0.09086714262217283
1782969729660928000,4.853927978515625,0.06247311504781246,-0.09671981417313218,0.08330273524988442
1782969729670855200,4.863855224609375,-0.041355508217215536,-0.08334113103151321,0.04481456262990832
1782969729680781000,4.873781005859375,-0.04380173232555389,-0.038128508994728326,0.04821432460341602
1782969729690707200,4.883707275390625,0.01736146916747093,-0.09751739429160952,0.14761402551028877
1782969729700633000,4.893633056640625,0.01376256789267063,-0.06822831757366657,0.16160335136353968
1782969729710559200,4.903559326171875,-0.012945406290888785,-0.05492167675495147,-0.020116613094508646
1782969729720486100,4.913486083984375,0.021240356427431106,-0.11694821707904338,-0.10632051314599811
1782969729730412000,4.923412109375,0.045804888841509815,-0.1444945417828858,-0.03361753437630832
1782969729740338200,4.933338134765625,0.09122457775771617,-0.04868234397396445,0.03802124922797084
1782969729750264000,4.94326416015625,0.08591594995558262,-0.03687120241001248,0.003446085333265364
1782969729760191200,4.953191162109375,0.062433952081203455,-0.007044365553557873,-0.012464490906149149
1782969729770117000,4.9631171875,-0.010620762735605239,-0.0320046192869544,-0.023143413569778202
1782969729780043000,4.97304296875,-0.09539397239685057,-0.09231061942875385,-0.05938793544881046
1782969729789969200,4.98296923828125,-0.12460486931204795,-0.12182298350855707,-0.09018599195759743
1782969729799896000,4.99289599609375,-0.18676760323643685,-0.1234238428339362,-0.11490246353037654
1782969729809822200,5.002822265625,-0.3180371911346912,-0.1321811497852206,-0.1949419592006132
1782969729819748000,5.012748046875,-0.20784253996908664,0.02114317966327071,-0.005577836664952337
1782969729829674000,5.022674072265625,-0.03491816864609718,0.03386588311418891,0.14139379928857088
1782969729839600000,5.03260009765625,0.12220248434543608,0.04805588263869285,0.17171930638216434
1782969729849527000,5.042527099609375,0.33388241052031514,0.09415171725079417,0.21375355411116032
1782969729859453200,5.052453125,0.4675859475672245,0.10851941142976283,0.18161255856081843
1782969729869379000,5.062379150390625,0.46865036192834375,0.033495442366600035,0.0749476889565587
1782969729879305200,5.07230517578125,0.3788023332208395,-0.11773542193397879,0.0031945582576096056
1782969729889232100,5.082232177734375,0.2572977680116892,-0.0988924820370972,-0.10737407731954007
1782969729899158000,5.092157958984375,0.1315086573511362,-0.0995310722015798,-0.23471432641223072
1782969729909084200,5.102084228515625,0.12094050158560275,-0.11581979757100343,-0.021766645323857664
1782969729919010000,5.112010009765625,0.16575696391165257,0.07286050741896033,0.293257262404263
1782969729928936000,5.12193603515625,0.14752280356287956,0.1852823331147432,0.32882918225135654
1782969729938863000,5.131863037109375,0.005552373430132865,0.14018530028164386,0.11931173133999108
1782969729948789000,5.1417890625,-0.12590367695093155,0.017279928363859654,-0.04317096014134585
1782969729958715100,5.151715087890625,-0.17877718900442122,-0.08340659748315811,-0.027414661148190498
1782969729968641000,5.16164111328125,-0.19636019196808338,-0.17084230435192585,-0.12026161594334989
1782969729978568200,5.171568115234375,-0.11712649625539778,-0.13467194368764757,-0.23847630929425356
1782969729988494000,5.181494140625,-0.051768765681982035,-0.05740589478611946,-0.18329119583014397
1782969729998420000,5.191419921875,0.043641573327779765,-0.02936550295501947,0.11925452126003801
1782969730008346000,5.20134619140625,0.08776537721455097,-0.01075228016078472,0.2011636467270553
1782969730018273000,5.21127294921875,0.09220949714183807,-0.0060479018621146675,0.16448570186682043
1782969730028199200,5.22119921875,0.023136545437574384,-0.0047090544737875455,0.2085377191590145
1782969730038125000,5.231125,-0.08871697885096072,0.039744419758766886,0.1949860540706664
1782969730048051200,5.24105126953125,-0.15418109240829944,0.016973054371774196,0.05001991272065788
1782969730057977000,5.25097705078125,-0.0946650736004114,-0.08112564693912863,0.012337795786559582
1782969730067904300,5.260904296875,-0.001135141509771347,-0.14014993670731782,-0.02655453718751669
1782969730077830100,5.270830078125,0.03974222780168056,-0.14855185434967277,-0.0595934679582715
1782969730087756000,5.280756103515625,0.04309036918580532,-0.111035924295336,-0.04630534917693585
1782969730097682000,5.290681884765625,0.0005213935256004333,-0.0479556371346116,-0.010304865186847745
1782969730107609000,5.300609130859375,-0.06732289316654205,0.00793722274005413,0.028023440696299074
1782969730117535200,5.31053515625,-0.1253214931488037,0.027173107477277515,0.027292240344919262
1782969730127461000,5.320461181640625,-0.13972820416390894,-0.02946984011232853,-0.09710022832546382
1782969730137387800,5.3303876953125,-0.11534545805752276,-0.07035349303409456,-0.20150877037029713
1782969730147313700,5.340313720703125,-0.03353109820187092,-0.05478314506709575,-0.08413206221349537
1782969730157240600,5.350240478515625,0.07764964139163494,-0.041846360474079844,-0.0492092539248988
1782969730167166700,5.360166748046875,0.12451426841914653,-0.014409049102663994,-0.03757427264545113
1782969730177092600,5.370092529296875,0.13430968624651432,-0.015739128662645815,-0.002229877943918109
1782969730187018800,5.380018798828125,0.0695598584383726,-0.0819983381204307,-0.11161613533608615
1782969730196945700,5.389945556640625,0.050994274178147316,-0.047637949487566944,-0.053730275013297794
1782969730206871800,5.399871826171875,0.09981704953610897,0.005363280598819255,0.13865882136672733
1782969730216797700,5.409797607421875,0.15204700298905371,0.04310074444934726,0.18092746237348764
1782969730226723600,5.4197236328125,0.20627309869527816,0.029523031604290005,0.19547975587174296
1782969730236650800,5.429650634765625,0.28476562065184113,0.0009251520209014415,0.20884514114037156
1782969730246576600,5.43957666015625,0.3232236538618803,-0.031310645673424,0.20115524422489106
1782969730256502500,5.44950244140625,0.33729660287797447,-0.06318915436267852,0.13837141926009208
1782969730266428700,5.4594287109375,0.2857727518677711,-0.11240940460562705,-0.0012954466380178929
1782969730276354600,5.4693544921875,0.17521277452111242,-0.16139569996222852,-0.12827183085437863
1782969730286281500,5.479281494140625,0.021509236496686936,-0.1520746216483414,-0.1886009926760569
1782969730296207600,5.48920751953125,-0.14774199927151202,-0.10746581072360277,-0.14516652276031672
1782969730306133800,5.4991337890625,-0.2958358807206154,-0.02335895601660013,-0.104542909014225
1782969730316059600,5.5090595703125,-0.31808278384208677,-0.04076631015241146,0.013638868447765707
1782969730325986600,5.518986572265625,-0.3043272302120924,-0.027710867615789173,0.0814109666865319
1782969730335912700,5.52891259765625,-0.24923662663102147,0.0038145898520946502,0.10075732606090605
1782969730345838600,5.538838623046875,-0.15765782860815525,-0.004480652545392513,0.14845307015031575
1782969730355764700,5.5487646484375,-0.06401975996792315,-0.030173750597983596,0.12043130995444953
1782969730365690600,5.558690673828125,-0.014281038808822632,-0.03590615677013993,0.02341989242359996
1782969730375617800,5.56861767578125,0.01535071386694908,-0.041417613667994735,-0.026944522885791956
1782969730385543700,5.578543701171875,0.08486614864170551,-0.03821735632196069,-0.03665715780053287
1782969730395469600,5.588469482421875,0.1547445715099573,-0.013132599426060914,-0.0010376359520480037
1782969730405395700,5.598395751953125,0.24218261646628378,-0.017739947091042995,-0.0037985520327463744
1782969730415322600,5.608322509765625,0.2922323032706976,-0.04683642384633421,-0.003654430854320526
1782969730425248500,5.61824853515625,0.33952012414634225,-0.050987552176415915,0.052942924027889963
1782969730435174700,5.628174560546875,0.3772591954320669,-0.051110155642777676,0.06463354448471217
1782969730445100500,5.6381005859375,0.3149444858163595,-0.08992430881410837,0.01002418508194387
1782969730455027500,5.64802734375,0.155097622731328,-0.09291647636741399,-0.01893481943141669
1782969730464953600,5.65795361328125,-0.046395255950093264,-0.08234349829629063,-0.030306546664796766
1782969730474879700,5.667879638671875,-0.20320494329631328,-0.07121843930035829,-0.0016514204688370226
1782969730484805600,5.6778056640625,-0.24867607013881204,-0.04180442102849483,0.09576897972170263
1782969730494731800,5.687731689453125,-0.2067418852508068,0.017896891218423843,0.08546331081725657
1782969730504658700,5.69765869140625,-0.10895897189080715,0.028384382963180542,0.12497205865662545
1782969730514584600,5.70758447265625,-0.03251519915759563,-0.04636047689765691,0.1601255338959396
1782969730524510700,5.7175107421875,0.010355974319577216,-0.11134089859127998,0.029871114389598368
1782969730534436600,5.7274365234375,0.007061608949303627,-0.1489158653564751,-0.1274756755080074
1782969730544363800,5.73736376953125,0.04621639225184917,-0.09084683048650621,-0.2757425389038399
1782969730554289700,5.74728955078125,0.03191372613310814,-0.06013473522812128,-0.16648253823984413
1782969730564215600,5.757215576171875,-0.0007265607088804244,-0.037721681759506465,0.021985585304163394
1782969730574141700,5.7671416015625,-0.03002396686375141,0.05144742477312684,0.07585409974437207
1782969730584067600,5.777067626953125,0.16175824966430663,0.10653276765719055,0.1932387720119208
1782969730593994500,5.786994384765625,0.40180443862378595,0.046752691085636615,0.3648570657050237
1782969730603920600,5.796920654296875,0.3807318399786949,-0.09991305725648998,0.3444512604055926
1782969730613846500,5.806846435546875,0.22321371210217475,-0.09802505155280232,0.14930687396805734
1782969730623772700,5.816772705078125,0.1590758787125349,-0.03549845275208354,-0.01529069077540189
1782969730633699600,5.826699462890625,0.018135960671305656,-0.07458353181928395,-0.15831333337482065
1782969730643625700,5.836625732421875,-0.15482172839939592,-0.08363061549738049,-0.23693306190762667
1782969730653551600,5.846551513671875,-0.2502180388838053,-0.02509893155172467,-0.244708847008273
1782969730663477800,5.856477783203125,-0.1546755979269743,-0.012368629316240548,-0.20779227108657358
1782969730673403600,5.866403564453125,0.08099135303497314,-0.001746697536855936,-0.026797369500063357
1782969730683330800,5.876330810546875,0.27607611823976036,0.03381327614411712,-0.07217486324235796
1782969730693256700,5.886256591796875,0.36450258971154686,-0.12625628978088496,0.0697467593125999
1782969730703182600,5.8961826171875,0.5413625469177961,-0.09127586955353617,-0.021761092365905642
1782969730713108500,5.9061083984375,0.5529366648554802,-0.000825052647292614,0.017142565719783304
1782969730723035600,5.91603564453125,0.3355617419093847,0.0018283844709396362,0.05351425764244049
1782969730732961500,5.92596142578125,0.009447042781114579,0.002624503284692764,0.10108144344873726
1782969730742887700,5.9358876953125,-0.33463352114856243,0.020459289052337407,0.19488281289190051
1782969730752813600,5.9458134765625,-0.5758312182307243,0.011785860992223023,0.2298719278823584
1782969730762739700,5.95573974609375,-0.7667284686177969,-0.11715046165287495,0.13196765316501258
1782969730772666600,5.96566650390625,-0.8183359062582254,-0.21199922125712037,0.007516732305660844
1782969730782592800,5.9755927734375,-0.5907084693670273,-0.17968275954201818,-0.07369293965511023
1782969730792518700,5.9855185546875,-0.2531032389312982,-0.08628668296411633,-0.041056634868495166
1782969730802444800,5.99544482421875,-0.0682926149815321,-0.02621478383913636,0.07371018305085598
1782969730812371700,6.005371826171875,0.013535773399472236,0.013401625625789164,0.14047204480115325
1782969730822297600,6.015297607421875,0.03714870417714119,0.0789003721050918,0.1616040089506656
1782969730832223700,6.0252236328125,0.0848491975069046,0.07750541061535478,0.09324494113679975
1782969730842149600,6.035149658203125,0.20142741222977636,0.04280351506844163,-0.01985664698407054
1782969730852076800,6.045076904296875,0.3344172480493784,-0.008365385024249553,-0.06424903867915273
1782969730862002700,6.055002685546875,0.39057577312290664,0.018722674518078564,-0.1041371777575463
1782969730871928600,6.064928466796875,0.3302414236694574,-0.017193272993713617,-0.07737100711334496
1782969730881854700,6.074854736328125,0.10621931779384612,-0.017671850290894506,-0.08547803346235304
1782969730891780600,6.084780517578125,-0.1213520049959421,-0.013173662088811397,-0.1376635632516816
1782969730901707800,6.094707763671875,-0.3607131343007087,0.031098902618885038,-0.2346055322755128
1782969730911633700,6.104633544921875,-0.4974702136993408,-0.025723054799437522,-0.18290121013186872
1782969730921559600,6.1145595703125,-0.42598143302500246,-0.10399258165508508,0.02790872827544808
1782969730931485700,6.124485595703125,-0.2759492769896984,-0.12145093532577156,0.04175740354899317
1782969730941412600,6.13441259765625,-0.16351882959604264,-0.008880202678591012,0.05501289870236069
1782969730951338800,6.1443388671875,-0.057225277522206304,0.01934358289539814,0.1069415676537901
1782969730961264600,6.1542646484375,0.159969028159976,-0.05073036254495382,0.07041000899430364
1782969730971190800,6.164190673828125,0.39548751056194303,-0.06698591629713774,0.08601341898068786
1782969730981116700,6.17411669921875,0.42980245261788363,-0.04982537652924657,0.04434036924690008
1782969730991043600,6.184043701171875,0.40970834361612796,-0.07431362883672117,-0.04651197766494006
1782969731000969700,6.1939697265625,0.42279286611676214,-0.08445406070947646,-0.13566745753102002
1782969731010895600,6.2038955078125,0.2843447648912668,-0.08778773517683147,-0.1434834285115823
1782969731020821500,6.213821533203125,0.05330488920807838,-0.03173646987006068,-0.0692074282715097
1782969731030748700,6.223748779296875,-0.0775426738858223,0.00967354501336813,-0.010462101575173436
1782969731040674600,6.233674560546875,-0.08155658570230007,-0.022956074304133652,-0.0119767439218238
1782969731050600700,6.2436005859375,-0.025691490617394445,-0.044402328567206856,-0.028876002405025063
1782969731060526600,6.253526611328125,-0.055741760966181754,0.04794453121870756,0.05062821734473109
1782969731070453800,6.263453857421875,-0.10646481698751449,-0.05322101031690836,0.05903915854375809
1782969731080379600,6.273379638671875,-0.18015899875164032,-0.26253756836131215,-0.09199011877011508
1782969731090305500,6.283305419921875,-0.11491875707805156,-0.18787687965258956,-0.005409457828104496
1782969731100231700,6.293231689453125,-0.02057517051696777,0.04714037522897124,0.2731580388359725
1782969731110157800,6.30315771484375,0.03111059305667877,0.14210720825493334,0.3008776377474889
1782969731120084700,6.313084716796875,0.08804244059026241,0.022588848426938056,0.18478311488833277
1782969731130010600,6.3230107421875,0.09339198492467403,-0.04680778227373957,0.0296667874565348
1782969731139937000,6.33293701171875,0.07245090370476245,-0.039438860940933226,-0.0002547419460490346
1782969731149863000,6.34286279296875,0.04857201546728611,-0.09459273901656269,0.009032361033000052
1782969731159790000,6.3527900390625,0.03957622358500957,-0.12927154594883322,-0.062043747187219556
1782969731169716000,6.362716064453125,0.13735446076989172,-0.1302570498548448,-0.06308675343412906
1782969731179641900,6.372641845703125,0.24910277111828324,-0.11505626585260033,0.03262896173037588
1782969731189568000,6.382568115234375,0.23731413364708423,-0.06636617696359753,0.06329382031355053
1782969731199494000,6.392493896484375,0.12368015568256377,0.027795184898376464,0.11246095212977379
1782969731209420800,6.4024208984375,-0.0666974547445774,0.10798267420455812,0.14141615725085138
1782969731219347000,6.412346923828125,-0.23015374049842358,0.07419350958839059,0.16177600451670587
1782969731229273000,6.422273193359375,-0.27925474827587604,0.021022183632105586,0.16551584863215685
1782969731239199000,6.432198974609375,-0.14188508993685245,-0.08284589486047625,0.0496939687019214
1782969731249126000,6.4421259765625,0.12954933997690676,-0.14896072741150856,-0.049612464430928226
1782969731259052000,6.452052001953125,0.3671726857036352,-0.10290288672223687,-0.17081947146560997
1782969731268978000,6.46197802734375,0.400015801641345,-0.019273001877218483,-0.045593255384825164
1782969731278904000,6.471904052734375,0.34387715031206606,0.060454322571307416,0.18842815685980022
1782969731288830000,6.481829833984375,0.23237200106978415,0.1624555842787027,0.1284032386817038
1782969731298757000,6.491757080078125,0.05613923585116863,0.133173521823436,0.06471150509174912
1782969731308683000,6.50168310546875,-0.010560556980967521,-0.04631020801514387,0.03966160031352192
1782969731318609000,6.51160888671875,-0.017523381730914115,-0.09016863896399736,-0.005530490391887724
1782969731328535000,6.52153515625,-0.1493763224750757,-0.007027560549229383,-0.08064126095566898
1782969731338462000,6.5314619140625,-0.2093734027981758,-0.028028701393306255,-0.10449121535960584
1782969731348387800,6.541387939453125,-0.13267477852106094,-0.024722791715711352,-0.14537402803115546
1782969731358314000,6.55131396484375,0.023770167165994643,-0.058266457138210534,-0.18913732804246244
1782969731368239900,6.561239990234375,0.22804946169555185,-0.12602496524304152,-0.21350655708014965
1782969731378166000,6.571166015625,0.3091021895289421,-0.11201558298245072,-0.09005695875044911
1782969731388093000,6.581093017578125,0.2060398744612932,0.055868748346716166,0.008384345453046262
1782969731398019000,6.59101904296875,0.05162321973145008,0.05573036278933286,0.1726101908072829
1782969731407945000,6.600945068359375,-0.09896832375228404,0.027221184402704237,0.25203926296159623
1782969731417871000,6.61087109375,-0.08955167610943317,0.11397548487856983,0.1318508583849296
1782969731427798000,6.620798095703125,-0.00519055438041687,0.07104483629912138,0.0982456720335409
1782969731437724000,6.630723876953125,0.05014321030676364,-0.0779343035519123,-0.003565766190178692
1782969731447650000,6.640650146484375,0.023050620719790457,-0.12778963682800532,-0.03517605239730328
1782969731457576000,6.650575927734375,-0.04601590124368667,-0.03195975723192095,-0.09271642375066876
1782969731467503000,6.660503173828125,-0.10772621522545814,0.05126461555212736,-0.09550912320911883
1782969731477429000,6.670428955078125,-0.1316775841772556,0.06908756475150585,-0.12716193338371812
1782969731487355000,6.68035498046875,-0.0014665654212236404,-0.18080694126635788,-0.07362813079059123
1782969731497281000,6.690281005859375,0.13865736006200313,-0.1755927137494087,-0.04153627161160111
1782969731507207000,6.70020703125,0.19957272427380085,-0.13755319821238518,-0.12614818976391107
1782969731517133800,6.7101337890625,0.15403671550154685,-0.06571209696903825,-0.06726341806426644
1782969731527060000,6.72006005859375,0.0776683460921049,0.01976151604652405,-0.017588738584704697
1782969731536985900,6.72998583984375,0.042889878177642816,-0.010332155052572489,0.009661964173428714
1782969731546912000,6.739912109375,0.1045645363241434,-0.07463672331124543,0.059640485437773165
1782969731556839000,6.7498388671875,0.14031506414115427,-0.0534933975175023,0.068994041249156
1782969731566765000,6.75976513671875,0.07580196769833564,-0.026048048970103262,0.008863945663534104
1782969731576691000,6.76969091796875,-0.031844168028235434,-0.05087459332123399,0.013866101332381368
1782969731586617000,6.7796171875,-0.06398176604509354,-0.03882248260825872,0.07823288463968783
1782969731596543000,6.78954296875,-0.12314531815350055,0.023472645524144173,0.10596826564222574
1782969731606470100,6.79947021484375,-0.09399053533971309,0.011605828250199556,0.036094117090292276
1782969731616396000,6.80939599609375,-0.0924433058977127,0.00829582691937685,-0.06701996469721197
1782969731626322000,6.819322021484375,-0.15864742416739464,0.16065511072799563,0.08697090236861259
1782969731636247800,6.829247802734375,-0.07546469856798649,-0.013881518097221851,-0.22310795017275958
1782969731646175000,6.839175048828125,-0.10098375522792338,-0.4047428301632404,-0.38575978767592456
1782969731656100900,6.849100830078125,-0.18209259716272352,-0.37523967230319977,-0.3878967997046187
1782969731666027000,6.859027099609375,0.10307166741788387,0.37727366234883664,0.1854705856958404
1782969731675953000,6.868952880859375,0.3358288684129715,0.2775391765296459,0.10116155948024243
1782969731685880000,6.878880126953125,0.1935714380323887,-0.5313125698074698,-0.2032785930544138
1782969731695806000,6.888805908203125,0.26671441565454007,-0.6419754230067134,0.03263805835228413
1782969731705732000,6.898732177734375,0.3571060497194528,0.08653072085306047,0.3672874711897224
1782969731715658000,6.908657958984375,0.4188128565698862,0.5270860381536185,0.3148150142177939
1782969731725584100,6.918584228515625,0.4026216002255678,0.29060864759162064,0.3085304905882105
1782969731735511000,6.928510986328125,0.3263333103150129,-0.020148177276551722,0.26545309048183263
1782969731745437000,6.93843701171875,0.19111469253003596,-0.16894333886280655,0.06057356503680348
1782969731755363000,6.948363037109375,-0.03914192382097244,-0.19786139031127095,-0.0997640041746199
1782969731765289000,6.9582890625,-0.14620236861407757,-0.2087178614988923,-0.12473054151833057
1782969731775216000,6.968216064453125,-0.15200199480354784,-0.1996772075615823,-0.0937286330005154
1782969731785142000,6.97814208984375,-0.2097480813294649,-0.16077654515057802,-0.043492301050201056
1782969731795068000,6.98806787109375,-0.29534780494272705,-0.07376812378317117,0.009432977723143995
1782969731804994000,6.997994140625,-0.2806856578618288,-0.06751213212832809,0.014845358160696922
1782969731814920000,7.007919921875,-0.1354822371572256,-0.0787228235810995,0.07433879981059581
1782969731824847000,7.01784716796875,-0.008305471530556678,-0.06067877897694707,0.1361127536131069
1782969731834773000,7.02777294921875,-0.046050388035178184,0.028839287123829126,0.20823073556907473
1782969731844699000,7.037698974609375,-0.21012802055776117,0.007325520582497119,0.22855317343398926
1782969731854625000,7.047625,-0.038682489615678786,-0.13502806364893913,0.10236563804037868
1782969731864552000,7.057552001953125,0.0005927051961421966,-0.1450717571489513,0.08266765221673995
1782969731874478000,7.06747802734375,-0.06629179655313491,-0.11247224070876836,0.08691190219037234
1782969731884404000,7.077404052734375,-0.07674772411584854,-0.17451953155994415,0.12375274599473923
1782969731894330000,7.087330078125,0.3419365376383066,-0.35392230511680245,0.3521810144074261
1782969731904257000,7.097257080078125,0.13728899431824684,0.1727661120213568,-0.09263404269684106
1782969731914183000,7.107182861328125,-0.02068038445711136,0.21841376447454094,-0.30721096895486116
1782969731924109000,7.117109130859375,0.010217442631721496,0.0019319909758865833,-0.19303619864452629
1782969731934035000,7.127034912109375,0.02357376781105995,-0.11021174843087791,-0.06155329678915441
1782969731943960800,7.1369609375,0.11993337036967276,-0.11942469019517302,-0.04577716058436781
1782969731953888000,7.146887939453125,0.1778466301560402,-0.06200768949314951,-0.1290237086676061
1782969731963814100,7.156814208984375,0.24827041194736957,-0.04333996003270149,-0.22993765006233005
1782969731973740000,7.166739990234375,0.30699498811662196,-0.03909048589468002,-0.19392825211342424
1782969731983666000,7.176666015625,0.20428630879223345,-0.05099471256956458,-0.11849256044421344
1782969731993593000,7.186593017578125,0.05202127913832664,-0.05930456801429391,-0.011762224388308823
1782969732003519000,7.19651904296875,0.015359481695294379,-0.0009800970785319805,0.1574658131673932
1782969732013444900,7.20644482421875,0.046509237718582154,0.013231968147307633,0.2311477565044537
1782969732023371000,7.21637109375,0.034337738409638406,-0.02571925540715456,0.2597282830942422
1782969732033297200,7.226297119140625,-0.008541033852100371,0.0026207038924098013,0.29089615929611023
1782969732043224000,7.23622412109375,0.0066927756369113914,0.029882366435974833,0.25146087855175137
1782969732053150000,7.24614990234375,0.07822890258431434,0.01987476716265082,0.20686456178240475
1782969732063076000,7.256076171875,0.14807342318296432,-0.002906973487883806,0.20289810583684592
1782969732073002000,7.266001953125,0.15960019484758375,-0.02550356682986021,0.18073544693272559
1782969732082929000,7.275928955078125,0.16475392434895036,-0.06190875916332006,0.16165281652845442
1782969732092855000,7.28585498046875,0.0915893194168806,-0.02330401095896959,0.06749171039480716
1782969732102781200,7.29578125,-0.0173889416962862,-0.007295417705178261,-0.03454787402898073
1782969732112706800,7.305706787109375,-0.12050912443101405,-0.035698066977411506,-0.1018020128082484
1782969732122633000,7.315633056640625,-0.15965163277387617,-0.009753916773200035,-0.12377630953341721
1782969732132560100,7.32556005859375,-0.18056699503064155,-0.0018207856863737106,-0.09476246956028044
1782969732142486000,7.335486083984375,-0.16225509327054022,0.00395750545412302,-0.0020786694375798105
1782969732152412000,7.345411865234375,-0.08536123868227005,-0.007795622312277555,0.07980444480534643
1782969732162338000,7.355338134765625,-0.001485270121693611,-0.033844401934742925,0.09170330118536948
1782969732172265000,7.365264892578125,-0.005403320348262786,-0.018040245211869477,0.0399281057626009
1782969732182191000,7.375191162109375,-0.03920505218505859,-0.002424304537475109,-0.061792731568217275
1782969732192117000,7.385116943359375,0.005487491500377655,-0.018867489816248417,-0.13192571371942757
1782969732202043100,7.395043212890625,0.054416649842262264,-0.05060352129489183,-0.0807170296056196
1782969732211969000,7.404968994140625,0.03707096276581287,-0.09981485757902264,-0.019810725483112038
1782969732221896000,7.41489599609375,-0.0533779544442892,-0.06651347647979855,-0.011280066894553601
1782969732231822000,7.424822021484375,-0.07136369298994541,0.01416018890812993,-0.01954308752287179
1782969732241748000,7.434748046875,-0.07405775437951087,0.029503596251457927,-0.009537461010925471
1782969732251673900,7.444673828125,-0.013836802172660827,-0.04706102638244629,0.011568345784023404
1782969732261601000,7.45460107421875,0.05133212783038616,-0.09320566857233643,0.12036507631782442
1782969732271527200,7.464527099609375,0.03379939374923706,-0.06526698355004192,0.1099368404796347
1782969732281453000,7.474453125,-0.031252047353982924,0.0061824880272150036,0.09021171092074363
1782969732291379000,7.48437890625,0.004263502663373947,0.023796762911975383,0.057837710332125425
1782969732301306000,7.49430615234375,0.11060147840082644,-0.03424786816909909,-0.012237075358442961
1782969732311232000,7.50423193359375,0.137303607365489,-0.09982698640823363,-0.09241331261824816
1782969732321158000,7.514157958984375,0.08842471790611743,-0.1142864505238831,-0.14285809968747198
1782969732331084000,7.524083984375,0.07473755333721638,-0.023219985937327145,-0.09813139800410717
1782969732341010200,7.53401025390625,0.15659692137837408,0.052632396773993964,0.07892846568841487
1782969732350937000,7.54393701171875,0.18680267454981803,0.020867577592283484,0.18307777227517216
1782969732360863000,7.553863037109375,0.15844576411545275,-0.04291428196653724,0.06671104487851262
1782969732370789000,7.5637890625,0.06514613364934921,-0.10707213523089885,-0.08652801743932068
1782969732380715000,7.573715087890625,-0.05589724378883838,-0.1202218319222331,-0.2753944561185315
1782969732390642000,7.583641845703125,-0.18390987571775913,-0.1149865616172552,-0.2586507900558412
1782969732400568000,7.593568115234375,-0.07824702276289462,-0.039081718066334724,0.008674706701748072
1782969732410494200,7.603494140625,0.050419104638695714,0.031139526890218257,0.16748795242272316
1782969732420419800,7.613419921875,0.05154489379823207,-0.008143558967113494,0.1435692436315119
1782969732430346000,7.623345947265625,0.08157938205599784,-0.06333382353037595,0.08318192188180983
1782969732440273200,7.633273193359375,0.12077975806593894,-0.08378434475436806,0.03257635476030409
1782969732450199000,7.643198974609375,0.14027414760887622,-0.07164850128069519,0.062456675369665024
1782969732460125000,7.653125,0.14608487971425055,-0.055853112386167046,0.09590805939882993
1782969732470051000,7.663051025390625,0.1488023219794035,0.01419394504725933,0.12957341497223823
1782969732479978000,7.67297802734375,0.1342313603132963,0.08028846546262502,0.08260638701617717
1782969732489903900,7.68290380859375,0.12099193951189517,-0.04089578175097704,0.01056932480931282
1782969732499830000,7.692830078125,0.10973697052597998,-0.13766703385040163,-0.045041430188342925
1782969732509756200,7.702756103515625,0.07708440872430801,-0.17385595308467744,-0.06441047631856053
1782969732519682000,7.71268212890625,0.07157879704535007,-0.12010215106531977,-0.0945488998748362
1782969732529609000,7.72260888671875,0.10229834495782851,-0.012173106744140386,-0.12706811762042342
1782969732539535000,7.73253515625,0.11051263107359409,-0.06088686876967549,-0.017382073564082383
1782969732549461200,7.742461181640625,0.13928864370286465,-0.05664046337157488,0.2534984853265807
1782969732559387000,7.752386962890625,0.18803017051815984,0.05799801546037197,0.4005680286966264
1782969732569314000,7.76231396484375,0.1620212845146656,-0.04411079827472567,0.3978301281653344
1782969732579240200,7.772240234375,0.02820259665548801,-0.023226707939058542,0.11263641829453408
1782969732589165800,7.782165771484375,-0.18952596203386782,-0.01984714850336313,-0.1112323967155069
1782969732599092000,7.792092041015625,-0.38285073182880874,-0.16696575517952442,-0.12296524887885897
1782969732609018000,7.80201806640625,-0.4235790480583906,-0.11802636770457028,0.0030955548625439403
1782969732618945000,7.811945068359375,-0.37670097702741623,-0.0861561884522438,0.07694299095962197
1782969732628871000,7.821870849609375,-0.2951806316822767,-0.015758417885005472,0.039177616188861425
1782969732638797000,7.831797119140625,-0.18256313728392123,-0.12321575304120778,0.04666713169403374
1782969732648723200,7.84172314453125,0.11783727487325668,0.09467749469056724,0.01221964929960668
1782969732658649900,7.85164990234375,0.33050913469493387,0.10015987162441015,-0.004123144344612956
1782969732668576000,7.861575927734375,0.4858019877374172,0.013110533724725246,-0.04167027325481176
1782969732678502100,7.871502197265625,0.6140168642401694,-0.02780921342372894,0.05222681164778769
1782969732688428000,7.881427978515625,0.5288543630003929,-0.15743863289952278,0.2501178299123421
1782969732698355000,7.89135498046875,0.4667378063052892,-0.03000087824910879,0.21803353298529982
1782969732708281000,7.901281005859375,0.39395372512340543,0.022441548910737037,0.18935656028371303
1782969732718207200,7.911207275390625,0.27955869965851304,-0.05971899403408169,0.15322839479334652
1782969732728132900,7.9211328125,0.23468963036239146,0.10743190845400094,-0.13902012895978985
1782969732738059000,7.93105908203125,0.07859481328725815,-0.06399389487430453,-0.15287687794193625
1782969732747986200,7.940986083984375,0.0008832125753164291,-0.1639203961342573,-0.13118578207232057
1782969732757911800,7.950911865234375,0.006714987468719482,-0.22800883742421865,-0.030955512092821297
1782969732767838000,7.960837890625,-0.005152560457587242,-0.17427461688816545,0.028938107855804262
1782969732777764000,7.97076416015625,-0.0016325696378946303,0.2360879528529942,-0.22582144691515713
1782969732787691000,7.98069091796875,-0.18736381556391715,0.025776684682816266,-0.1902939507316798
1782969732797615000,7.990614990234375,-0.28577508995532985,-0.1302180330187082,-0.1003337668865919
1782969732807541200,8.000541259765624,-0.31267829445004464,-0.13531038772165774,-0.1881998645292595
1782969732817468000,8.010468017578125,-0.3243541191965341,-0.0875610868141055,-0.22836141372155397
1782969732827394000,8.02039404296875,-0.2536754858613014,-0.023881518585979936,-0.1710877670129761
1782969732837320200,8.0303203125,-0.1702431694149971,-0.04994593416899443,-0.09984664095677435
1782969732847245800,8.040245849609375,-0.13436813843548298,-0.046077276042103765,-0.013684899546578526
1782969732857173000,8.050173095703125,-0.09782733702361583,-0.007764058130234479,0.039805283100530504
1782969732867099100,8.06009912109375,-0.062328738141059874,0.018110972360521553,0.014691848099417983
1782969732877025000,8.07002490234375,-0.1374596747100353,-0.054796004548668856,-0.038390776660107075
1782969732886951000,8.079950927734375,-0.22782149815857408,-0.06580445142760873,-0.09885773951727897
1782969732896877000,8.089876953125,-0.21863690570592878,-0.02977013823315501,-0.09561780774798244
1782969732906804000,8.099803955078125,-0.18052140232324598,-0.07753916675448418,0.02174772142767906
1782969732916729900,8.109729736328125,-0.17369535569548605,-0.051217999931424854,0.08993081162013113
1782969732926656000,8.119656005859374,-0.12101064421236514,0.009144844964146614,0.11834533399324863
1782969732936582100,8.12958203125,-0.05068623114228248,-0.025783698945492504,0.1048501117998734
1782969732946509000,8.139509033203124,-0.056826633593440055,-0.0703489629894495,0.026272614973597227
1782969732956435000,8.14943505859375,-0.10296294634640216,-0.09532470655292272,-0.10624419650677591
1782969732966361000,8.159361083984376,-0.09430617716014385,-0.046221214557439085,0.00015011252779513595
1782969732976287200,8.169287353515625,-0.018977672192454338,-0.010444675516337156,-0.05544993841275572
1782969732986214000,8.1792138671875,0.003679565295577049,-0.0758313399232924,-0.0946278833951801
1782969732996140000,8.18914013671875,-0.04698854566812515,-0.08022095318436623,-0.06412552189733833
1782969733006066200,8.199066162109375,-0.09870938055515288,-0.038600656551122665,-0.055338550460152326
1782969733015991800,8.20899169921875,-0.0755552994608879,-0.033899639253318306,-0.006476100678928196
1782969733025918000,8.21891796875,-0.10515548795461654,-0.006197101074457168,-0.054080001766420895
1782969733035845000,8.22884521484375,-0.22457857071459292,-0.039851971786469216,-0.15831044729799032
1782969733045771000,8.23877099609375,-0.1685609154164791,-0.031172990768402815,-0.10632208404857664
1782969733055697000,8.24869677734375,-0.010005261185765266,0.020364742636680602,-0.03947393225431442
1782969733065623000,8.258623046875,0.193678990060091,0.019093553657084702,-0.0053131578467786305
1782969733075550000,8.268550048828125,0.36352468459010123,-0.013738017973303793,0.023666487595811483
1782969733085475800,8.278475830078126,0.5006488437354565,-0.01347396020963788,0.03883826469928026
1782969733095402000,8.288402099609375,0.5815121864765882,-0.02872808183431625,0.018445428479276597
1782969733105328000,8.298328125,0.6351257032424211,-0.029243484010547396,0.021494733047299087
1782969733115254000,8.30825390625,0.570462384673953,-0.03646642100140452,0.047829380406439304
1782969733125181000,8.318180908203125,0.5196271004498004,-0.023036592194437978,0.05779178883116692
1782969733135107000,8.328107177734376,0.4875783497601747,-0.02627060567960143,0.04159863279070705
1782969733145033000,8.338032958984375,0.4245037616878748,-0.038744887327402826,-0.0018556012714281676
1782969733154958800,8.347958740234375,0.32033786929249763,-0.07029620988890528,0.08222809175569563
1782969733164885800,8.3578857421875,0.18387831153571604,-0.060903089252114295,0.19053886540345846
1782969733174813700,8.367813720703126,-0.010724223110079764,-0.06296557473987341,0.21392573234029114
1782969733184739800,8.37773974609375,-0.3636117783516645,-0.07042217435613274,0.11415106064118444
1782969733194666800,8.387666748046875,-0.6568441985756158,-0.035285979045182464,0.00537208495978266
1782969733204593000,8.397593017578124,-0.7290870124876498,-0.043673137509822844,-0.051925746341980994
1782969733214518800,8.407518798828125,-0.5974386544048785,-0.09701412094458937,-0.035696021150797605
1782969733224445000,8.41744482421875,-0.40957390358150003,-0.11183861898034811,0.026802484066598117
1782969733234371000,8.42737109375,-0.184111535769701,-0.08400003333166241,0.060223290294408795
1782969733244298000,8.437298095703126,0.09359130688905716,-0.017236673744022844,0.06266553234737367
1782969733254224000,8.447223876953124,0.39081893422901626,-0.019916852738708257,0.08406641309875995
1782969733264150000,8.45714990234375,0.5427870267629623,-0.11827654307335614,0.09956259985100477
1782969733274075600,8.46707568359375,0.5612555803894996,-0.130994278088212,0.08067330006174743
1782969733284002800,8.4770029296875,0.5986737491577864,-0.060118660876154896,-0.017178879142180085
1782969733293929000,8.486928955078126,0.5928045648634434,-0.008859306021034716,-0.012205657306872307
1782969733303854800,8.496854736328125,0.44628830799460406,-0.08792670525610446,0.011906564762443303
1782969733313780700,8.50678076171875,0.1856055737197399,-0.13671806256249547,-0.09130129625573753
1782969733323707000,8.516706787109374,0.02506955932676792,-0.000990618472546339,-0.05442158174570649
1782969733333633800,8.5266337890625,-0.18545535159409046,-0.008409224165976047,0.11232253003977238
1782969733343560000,8.536559814453126,-0.5910580134570598,-0.1475745337501168,0.12691975865829735
1782969733353485800,8.54648583984375,-0.8947656504660845,-0.017771949664503336,-0.10993103179335594
1782969733363412000,8.556411865234375,-0.95109719401896,-0.0396283921636641,0.07263206895794719
1782969733373339000,8.5663388671875,-0.7269885789036751,-0.09415347081646323,0.15430665501672775
1782969733383264800,8.5762646484375,-0.44848903290927405,-0.12685834732726214,0.09734313370324671
1782969733393191000,8.58619091796875,-0.003212532305717468,-0.03619461832270026,0.062993850986287
1782969733403117000,8.596116943359375,0.3337415407449007,-0.03175269035249948,0.18762356247864662
1782969733413044000,8.6060439453125,0.46483752564191816,0.011800035648047923,0.24902634488120673
1782969733422969900,8.615969970703125,0.4663116898477077,0.011760288159549236,0.13666666116882115
1782969733432896000,8.62589599609375,0.5349456656128168,-0.058065819999575614,-0.11743614672645926
1782969733442822000,8.63582177734375,0.8482716103166341,-0.1097660504899919,-0.2265875359168276
1782969733452747800,8.645747802734375,1.1730343103140592,0.18615458590462802,-0.2130012744391337
1782969733462675000,8.655675048828124,0.978908161008358,0.08092574045285582,-0.06575071194637566
1782969733472600800,8.665600830078125,0.5337357053011655,-0.29461992905959483,0.07663162345550954
1782969733482526700,8.675526611328126,0.14696166254878043,-0.2876134112983942,-0.1645333038682118
1782969733492452900,8.685452880859375,-0.30711364606022834,-0.1422108147598803,-0.29705844478551297
1782969733502379800,8.6953798828125,-0.6930407165944575,0.08300166994407772,-0.1830983401391655
1782969733512306000,8.705305908203124,-1.019147232416272,0.18418840039819478,-0.117969778679125
1782969733522231800,8.715231689453125,-1.0167150368332862,0.19832038612514732,-0.10928557349666952
1782969733532158000,8.725157958984376,-0.7893050420850515,0.23992913845106958,0.09636314622256904
1782969733542084000,8.735083984375,-0.6104559568881989,0.012794745773822069,0.17948625058922915
1782969733552010800,8.7450107421875,-0.3987257618308067,-0.17101590735316274,0.162691000469774
1782969733561937000,8.75493701171875,-0.19696341855823993,-0.14126900386512278,0.09699654875528067
1782969733571863000,8.764863037109375,0.0386906729221344,-0.13062734447196125,0.15069087567236272
1782969733581788700,8.77478857421875,0.16402736364006995,-0.09439999292343855,0.2673784690538421
1782969733591715800,8.7847158203125,0.16913783852159975,0.06767097595185041,0.31522954983543605
1782969733601642000,8.79464208984375,0.0639876112639904,0.16148732376843689,0.2992506576001644
1782969733611567900,8.80456787109375,0.056282443714141844,0.15660130529254673,0.2665985341899097
1782969733621493800,8.81449365234375,0.15667875444293022,0.06681508977487682,0.13731222906336188
1782969733631420000,8.824419921875,0.27318098132014274,-0.05502864426076412,-0.09985632210057228
1782969733641346800,8.834346923828125,0.3360182535052299,-0.17786708842217921,-0.3008182722430676
1782969733651272700,8.844272705078126,0.27823475757837296,-0.21560542905554175,-0.4280602851256728
1782969733661198800,8.85419873046875,0.1500122822910547,-0.12553835076987743,-0.34973497296217826
1782969733671125000,8.864125,0.03158522483110428,0.053596711761504406,-0.19474340442121027
1782969733681052000,8.874052001953125,0.011024082839488983,0.13797887627854943,0.0019636282231658697
1782969733690977800,8.883977783203125,0.12614917614459992,0.10304434101954102,0.01382913032285869
1782969733700904000,8.893904052734374,0.2138216143786907,0.16913652334734797,-0.09706523007731885
1782969733710830000,8.903830078125,0.282969969406724,0.08617503928318619,-0.10631927103698254
1782969733720755700,8.913755615234376,0.32962826020717617,-0.36597894587442276,-0.3003497048832476
1782969733730683000,8.923682861328125,0.24012568393647668,-0.4126831216432154,-0.42051600722596044
1782969733740609000,8.933609130859375,0.14913140780329703,-0.011159253526479005,-0.08474292412083595
1782969733750534700,8.94353466796875,0.0804267048895359,0.31482582787275315,0.1731874061733484
1782969733760460800,8.953460693359375,-0.06975391970574855,0.01951923172324896,0.013402867734804749
1782969733770388000,8.963387939453124,-0.12040098788142203,-0.18818989112451673,0.05097549641244113
1782969733780313900,8.97331396484375,0.11477496469318867,-0.45589331781640646,0.5743830652490258
1782969733790239700,8.98323974609375,0.09505144256949424,-0.12504662173017858,0.3974788670422509
1782969733800166000,8.993165771484374,-0.078248191806674,0.1635455714724958,0.11299323237556963
1782969733810092800,9.0030927734375,-0.2629167769372463,0.11483999275341629,0.09891184432469308
1782969733820018700,9.013018798828124,-0.3461164536714554,-0.026197248182445763,-0.047148996926844114
1782969733829944800,9.02294482421875,-0.18641747462451458,-0.09599486089944839,-0.14477635439895092
1782969733839871000,9.03287109375,0.08021393892168999,-0.22398075095191597,0.16621720183454453
1782969733849796900,9.042796875,0.3228571586370468,-0.14009616069346664,0.3817718505509197
1782969733859723800,9.052723876953126,0.37920916045606134,0.28068521947041153,0.27694501002877947
1782969733869650000,9.06264990234375,0.29474808548390863,0.306327171857655,0.22553473892826587
1782969733879576000,9.072576171875,0.33047990860044957,0.03210544931292534,0.32701584921907634
1782969733889501700,9.082501708984376,0.40860944246351716,-0.16184695086106657,0.1650700045607984
1782969733899428900,9.092428955078125,0.32022330300211904,-0.1958621793180704,-0.026665084889903663
1782969733909355000,9.10235498046875,0.1681640250533819,-0.1074403840214014,-0.1013085667354986
1782969733919280600,9.11228076171875,0.06308043329119682,-0.039137539906799794,-0.04777235298957675
1782969733929206800,9.122206787109375,0.07237959203422069,-0.014995616818964481,0.008105711174756287
1782969733939133000,9.1321328125,0.13909224434792994,-0.019564532169699667,0.07653086649477481
1782969733949059800,9.142059814453125,0.13303075235188005,-0.047209202681481835,0.06465202998947352
1782969733958985700,9.15198583984375,-0.01240706163048744,-0.046279666746407745,0.004679097726941108
1782969733968912000,9.161911865234375,-0.24474516043066977,-0.053960138246417044,-0.10696144139803945
1782969733978838000,9.171838134765625,-0.4503752850472927,-0.023947715689986944,-0.15265158128608017
1782969733988764700,9.1817646484375,-0.6318120486497879,0.000018266309052705764,-0.17560663267690688
1782969733998690800,9.19169091796875,-0.6657891370534896,-0.023583120161294935,-0.17769370461665093
1782969734008617000,9.201616943359374,-0.49377428179085253,-0.08504574299231171,-0.13205869244933127
1782969734018542800,9.21154296875,-0.2634194657623768,-0.13781491788849234,-0.1056452807655558
1782969734028468700,9.22146875,-0.010296937608718871,-0.1416639945320785,-0.1883969580039382
1782969734038396000,9.23139599609375,0.1868085197687149,-0.10802826691195368,-0.174445662606135
1782969734048322000,9.241322021484375,0.3114297556936741,-0.0805947549328208,-0.043737763711251314
1782969734058247700,9.25124755859375,0.3912842136532068,-0.05776639866158366,0.11112656172085553
1782969734068173800,9.261173828125,0.4066226525604725,-0.03940568932369351,0.16602051021866499
1782969734078101000,9.27110107421875,0.32476211547553535,-0.02710340324193239,0.15698464205432683
1782969734088027000,9.28102685546875,0.10608663132488727,-0.04410173818543553,0.19150160948839037
1782969734097952800,9.290952880859376,-0.133146487686038,0.017295125932991505,0.19090963494461027
1782969734107879000,9.30087890625,-0.1666612192749977,-0.007057078904658555,0.1313722810877487
1782969734117804800,9.3108046875,-0.13332768947184084,-0.09685878425240516,0.0577106498863548
1782969734127731700,9.320731689453124,-0.04098609038293361,-0.1392081258125603,0.037355405730381604
1782969734137657600,9.33065771484375,0.05307692567110062,-0.14086217662990091,0.02771894132439047
1782969734147583700,9.340583740234376,-0.028414778101444244,-0.14015665870904923,-0.0907190759209916
1782969734157510000,9.350510009765625,-0.1739846940308809,-0.12165551798716187,-0.16052896359767763
1782969734167436800,9.360436767578125,-0.21618951255381105,-0.09094649146869778,-0.13806841772552578
1782969734177362700,9.37036279296875,-0.2312596559137106,-0.02142901086732745,-0.10511365810688585
1782969734187288800,9.380288818359375,-0.1630973893135786,0.0437862424954772,-0.05019716898370534
1782969734197214700,9.390214599609376,0.03849719617664814,0.10924699505195021,0.1635443293634802
1782969734207141600,9.4001416015625,0.2777040117025375,0.12236147429943084,0.3687855277277529
1782969734217067800,9.41006787109375,0.3490729653894901,0.06052826459035277,0.3396681543149054
1782969734226994000,9.419993896484375,0.26652210795283315,-0.0635745004184544,0.07896689800266175
1782969734236919600,9.42991943359375,0.11791501628458499,-0.17667159502729773,-0.12462993068806827
1782969734246845700,9.439845703125,0.055066638183593745,-0.19407646494507788,-0.14552092568855732
1782969734256772900,9.44977294921875,0.07945289142131805,-0.1309922322615981,-0.09070164986215531
1782969734266698800,9.45969873046875,0.13944588009119033,-0.06369301223158837,0.024616481797024605
1782969734276624600,9.469624755859375,0.12999883731007575,-0.02083689019307494,0.13203965895529834
1782969734286550800,9.47955078125,0.06612637685835361,0.021413667167723176,0.1723353559212759
1782969734296477700,9.489477783203125,0.032626258316636084,0.048347266800701616,0.13077727433666586
1782969734306403600,9.499403564453125,0.0180120420306921,-0.018293050929158925,0.014885142181813716
1782969734316329700,9.509329833984374,0.007488309928774833,-0.06272913563549518,-0.044005219008401035
1782969734326255900,9.519255859375,0.07418985632658004,-0.05831657989025116,-0.04699084722306579
1782969734336181800,9.529181640625,0.09479892911314963,-0.05839695165008306,-0.047646899979002774
1782969734346108700,9.539108642578125,0.12942016063928605,-0.11076105287671088,-0.0012101795073598623
1782969734356034800,9.549034912109375,0.18810440479815005,0.055982583984732624,-0.02650974819771945
1782969734365961000,9.5589609375,0.12859130859971046,0.04126856058612466,-0.0822811371171847
1782969734375886600,9.568886474609375,0.14834230325222014,-0.054453766982257366,-0.07330094466283917
1782969734385813800,9.578813720703126,0.24945465329587457,-0.16160364362448454,-0.013746347410231828
1782969734395740000,9.588739990234375,0.34559856727719307,-0.14256751924306155,-0.05198171431291848
1782969734405665500,9.59866552734375,0.29852994211018086,-0.037189620709419245,-0.017549794813804327
1782969734415591700,9.608591796875,0.12347732658684253,0.06636909957304596,0.02681143455803394
1782969734425517800,9.618517822265625,-0.12028232993781567,-0.0184312903560698,0.039988859506510196
1782969734435444700,9.62844482421875,-0.2880798597663641,-0.09311828254982829,0.026748123530857263
1782969734445370600,9.63837060546875,-0.3242991741389036,-0.04417641085684299,0.10872991237528622
1782969734455296800,9.648296875,-0.3349135071337223,-0.015626023676991462,0.1035842200499028
1782969734465223000,9.658222900390625,-0.2903063036441803,-0.04882935122922063,0.06188957953881472
1782969734475149600,9.668149658203125,-0.16159224544763565,-0.12179989489391445,-0.02799227837305516
1782969734485075700,9.67807568359375,-0.031234511697292328,-0.167501761752367,-0.07480937646441162
1782969734495001900,9.688001953125,0.11954583235681056,-0.12741349699199198,-0.020684841436520218
1782969734504927700,9.697927734375,0.20279928510487077,-0.04574234499931335,0.015699783032946286
1782969734514853600,9.707853515625,0.15359598599672317,0.012284019772708415,0.08039104905426502
1782969734524780800,9.71778076171875,0.06536708292365073,0.024074849200993776,0.08782554643657058
1782969734534707000,9.72770703125,-0.03578559913039207,0.00283010885939002,0.08341222350634633
1782969734544632600,9.737632568359375,-0.07680033108592033,-0.020876929942518472,0.04166585280802101
1782969734554558700,9.747558837890624,-0.021181904238462446,-0.02146729705110192,0.013254874098859726
1782969734564486000,9.75748583984375,0.05033142635524273,-0.04467676159441471,0.023587284879758953
1782969734574411500,9.76741162109375,0.08140577905476093,-0.07749722730889916,0.03733469173591584
1782969734584337700,9.777337646484375,0.04300093733668327,-0.05262479798942804,0.07258647625055163
1782969734594263800,9.787263916015625,-0.014517770174145697,-0.022661621402204034,0.13247618720903992
1782969734604189700,9.797189697265624,-0.0011363105535507202,-0.023983663786202668,0.11281999470051378
1782969734614116600,9.80711669921875,0.0502934324324131,-0.04243775049597025,0.06434183152914047
1782969734624042800,9.817042724609376,0.09914660292863846,-0.05221227166578173,-0.020088848304748535
1782969734633969000,9.826968994140625,0.10502981574833392,-0.07009294240176678,-0.02038552969638258
1782969734643894800,9.836894775390626,0.088069328597188,-0.06556406680047512,-0.0316049524448812
1782969734653821700,9.84682177734375,0.060411506342887875,-0.06634981035068631,-0.0028133403876796363
1782969734663747800,9.856747802734375,0.08847557131052017,-0.0239048994615674,0.09795775847025215
1782969734673673700,9.866673828125,0.056851768034696576,-0.01498392638117075,0.13624894721340386
1782969734683599600,9.876599609375,0.008716974940896034,-0.01656228161379695,0.15347637820504606
1782969734693525800,9.88652587890625,0.03910100728869438,-0.040990328166633845,0.2741191024204716
1782969734703453000,9.896452880859375,0.016357845082879064,-0.029699557214975355,0.2895700617915019
1782969734713378600,9.906378662109375,-0.07918459587395191,0.061036652503907676,0.06779745187573134
1782969734723304700,9.9163046875,-0.1982242322742939,-0.047663668450713154,-0.07932064334377646
1782969734733230800,9.92623095703125,-0.26743688471019267,-0.12892550899013877,-0.08943137419801205
1782969734743157500,9.936157470703124,-0.20510580848157406,-0.13560294092744588,-0.06758870449587702
1782969734753083600,9.946083740234375,-0.0925040961742401,-0.11145751070827245,-0.12602160424217582
1782969734763009800,9.956009765625,0.06002046119868755,-0.04213189941719174,-0.1347322955727577
1782969734772935700,9.965935791015625,0.2484434304267168,-0.05592632375285029,-0.11502203478943555
1782969734782861800,9.97586181640625,0.38034956266283987,-0.06845145880505442,-0.07096574318092316
1782969734792788700,9.985788818359374,0.43040918633937836,-0.00848667331635952,-0.04215707039106637
1782969734802715000,9.99571484375,0.4543517874628305,-0.0029898294657468793,-0.05496288554817438
1782969734812640800,10.005640869140626,0.3150532068878412,-0.047817251577228305,-0.03545552692580968
1782969734822566700,10.015566650390625,0.08334522268474101,-0.07685454549118877,-0.02952372572403401
1782969734832493800,10.025493896484376,-0.16508710182607172,-0.05650704625025391,-0.05671718186959624
1782969734842419700,10.035419677734374,-0.26034897227585313,-0.04787818798422813,-0.09678918961491435
1782969734852345600,10.045345703125,-0.21606267130374907,-0.04975464938059449,-0.11020900848452002
1782969734862271700,10.055271728515624,-0.0961731400758028,-0.04144669363200664,0.00972680957056582
1782969734872197600,10.06519775390625,0.05026245277225971,0.0044093408748507494,0.10890848381258547
1782969734882124500,10.07512451171875,0.09863631531894207,-0.04039280066490173,0.18853592808321118
1782969734892050700,10.08505078125,0.11185878498554229,-0.06918298794999718,0.22889106361884623
1782969734901976800,10.094976806640625,-0.017328151419758797,-0.09274477306231856,0.20643976049907503
1782969734911902700,10.10490283203125,-0.13514438350498675,-0.04591492508724332,0.052870625976659355
1782969734921829600,10.11482958984375,-0.2221317620843649,-0.08248349128887057,0.0016055355004966259
1782969734931755800,10.124755859375,-0.19105974747240542,-0.10339344671815633,0.0920031243821606
1782969734941681700,10.134681640625,-0.05010638542771339,-0.024258389074355364,-0.03855188550595194
1782969734951607800,10.14460791015625,0.10412614490687847,0.007870879505574703,-0.021405666524358092
1782969734961533700,10.15453369140625,0.2501467272132635,-0.03419891446083784,0.039736638311110434
1782969734971460900,10.1644609375,0.3505319320261478,-0.025181203007698057,0.02168601783569902
1782969734981386800,10.17438671875,0.28356676625609395,-0.036219606633484364,-0.0002477276833727956
1782969734991312600,10.184312744140625,0.18496727581620215,-0.0904369345113635,-0.044182840597629544
1782969735001238800,10.19423876953125,0.0593254646718502,-0.16413813053816556,-0.05563903124406933
1782969735011166000,10.204166015625,-0.12431377741098404,-0.12358765509352088,-0.05330211272910237
1782969735021091600,10.214091552734375,-0.2295727257400751,-0.06996113271564244,-0.04880140377636999
1782969735031017700,10.224017822265624,-0.19705694206058977,-0.029136954896152017,0.026018165288493034
1782969735040943600,10.233943603515625,-0.0754419022142887,-0.02889145570248365,0.10640665705949068
1782969735050869800,10.243869873046876,0.038189153140783305,-0.029459026457369326,0.08003481949511915
1782969735060796700,10.253796630859375,0.1143242983162403,-0.048939971996843815,0.09481836446598171
1782969735070722800,10.263722900390626,0.05110591785907745,-0.03188070064634085,0.1982541524885222
1782969735080648700,10.273648681640625,-0.0015291092634201048,-0.00681333327665925,0.09799345083814114
1782969735090574800,10.283574951171875,0.0087228201597929,-0.07150427050441503,-0.058111010848172
1782969735100501800,10.293501708984374,0.05930325284004211,-0.10130407322347164,-0.10620481434445828
1782969735110428000,10.303427978515625,0.11822773549556731,-0.09605784313306212,-0.10525547773037106
1782969735120353800,10.313353759765626,0.1502051745146513,-0.05989551964476704,-0.1272994056256488
1782969735130279700,10.32327978515625,0.12752514067292212,-0.024844518399238586,-0.013384857154078781
1782969735140205600,10.33320556640625,0.07778758855760097,-0.028899054487049578,-0.0059894862057641145
1782969735150132500,10.343132568359374,0.0660877984136343,-0.03634805531874299,0.03162844291832298
1782969735160058600,10.35305859375,0.010413257464766502,-0.007126783140003681,0.10095405420940369
1782969735169984500,10.362984619140626,-0.05027472773194313,0.012981938908994198,0.06308269831351936
1782969735179910400,10.372910400390625,-0.09960077643692493,-0.015245353796333074,0.0900541092062369
1782969735189837600,10.382837646484376,-0.10855039108991622,0.005824760630726814,0.06394048418663442
1782969735199763500,10.392763427734375,-0.04817629414796829,-0.042567222094535825,0.03743212422840297
1782969735209689600,10.402689697265625,0.0551993246525526,-0.09947758844867348,-0.04677435492817312
1782969735219615500,10.412615478515624,0.14353344166576862,-0.0623687778905034,-0.04491042421981692
1782969735229541600,10.422541748046875,0.19409516964554785,-0.014511924955248832,-0.020863193678110837
1782969735239468500,10.432468505859376,0.1868172875970602,0.010271364776045084,0.03879252586141228
1782969735249394400,10.44239453125,0.16885083827376365,0.01201981587857008,0.08384699819441885
1782969735259320600,10.452320556640625,0.1042816277295351,-0.009474515309929847,0.12904018487837166
1782969735269246500,10.46224658203125,0.012619243076443671,-0.008840601320564747,0.11007500684130936
1782969735279173600,10.472173583984375,-0.1055628997117281,-0.05642857418656349,0.054812115433253344
1782969735289099500,10.482099609375,-0.14370236849188803,-0.0809356773249805,-0.0460774952378124
1782969735299025400,10.492025390625,-0.10107435612082481,-0.08821429002583027,-0.0932736192420125
1782969735308951600,10.50195166015625,-0.05466974782049656,-0.09045739277750253,-0.13113912991899995
1782969735318877400,10.51187744140625,0.0028705870002508163,-0.0504413164705038,-0.061486369032785294
1782969735328804600,10.5218046875,0.05401917495727539,-0.016930530404299496,-0.06505732285473495
1782969735338730500,10.53173046875,0.06290975289940834,-0.04242342970967292,-0.04674129290878772
1782969735348656400,10.541656494140625,0.11548925044238567,-0.02990121726691723,-0.021702238318137824
1782969735358582500,10.55158251953125,0.11012567758262157,-0.07287965051084756,-0.020313268177770075
1782969735368509400,10.561509521484375,0.07250643328428268,-0.06404460214823485,-0.01820058687273413
1782969735378435600,10.571435546875,0.053043023401498794,-0.04706365673094988,0.0074224050857126704
1782969735388361500,10.581361572265624,0.03830371943116188,-0.05756809961050748,0.037711964083090424
1782969735398287600,10.59128759765625,0.04293021018803119,-0.04489785699918866,0.05594875478036701
1782969735408213500,10.601213623046876,0.015960370197892187,-0.04206877105310559,-0.0069576371181756256
1782969735418140700,10.611140625,0.024216157367825508,-0.09365048973038792,0.03453497801478952
1782969735428066600,10.621066650390626,-0.003929740664362907,-0.08101853330284356,0.0570065202049911
1782969735437992400,10.630992431640625,-0.06595511194467545,-0.03488777350783348,0.11179317240342497
1782969735447918300,10.64091845703125,-0.036360184147953986,0.013886632663756608,0.1795931815624237
1782969735457845500,10.650845458984374,0.008939093258976936,-0.02276040560156107,0.15919318494927137
1782969735467771600,10.660771728515625,0.019826982498168944,-0.07661956769153476,0.06931899888720362
1782969735477697500,10.670697509765626,0.030526071166992186,-0.0864890736684203,-0.0028317893598228693
1782969735487623400,10.68062353515625,0.02294891391098499,-0.09426014606133103,-0.09979754111804068
1782969735497549600,10.690549560546875,0.048612931999564166,-0.09743234635666012,-0.1705618799753487
1782969735507476500,10.7004765625,0.14219313297271727,-0.079233841843158,-0.0867239053376019
1782969735517402600,10.710402587890625,0.17808628413081168,-0.002286503501981497,-0.011768800259567797
1782969735527328500,10.72032861328125,0.13723521830439567,0.01542246392890811,-0.011965126549266278
1782969735537254700,10.730254638671875,0.05707154826521873,0.02680675838291645,0.0010028203669935464
1782969735547181600,10.740181640625,-0.0862958891838789,-0.050653059525042766,-0.09270696180257945
1782969735557107500,10.750107421875,-0.19996084680855272,-0.07787614362388849,-0.12091660925336181
1782969735567033600,10.76003369140625,-0.27188509629070756,-0.051474166649579996,-0.1862900123199448
1782969735576959500,10.76995947265625,-0.253223065918684,-0.07411474526375532,-0.19010072971452027
1782969735586885400,10.779885498046875,-0.19038228660225867,-0.07847893182262777,-0.0780544958654791
1782969735596812500,10.7898125,0.0020189386069774627,-0.09615253567919134,0.04968359343837946
1782969735606738700,10.79973876953125,0.14009060773551463,-0.061330374753475185,0.04931245857104659
1782969735616664600,10.80966455078125,0.2072159325033426,-0.1592035967454314,0.1347841353578493
1782969735626590500,10.819590576171874,0.2713362302362919,-0.13049977256953715,0.1079332455722615
1782969735636517600,10.829517578125,0.20016075329482555,-0.20381533027961848,-0.10415288678333162
1782969735646443500,10.839443603515624,-0.03765840726494789,-0.09051189944371581,0.10106061985641718
1782969735656369400,10.849369384765625,0.17650982859432696,0.43025209608152504,0.11219335070215165
1782969735666295600,10.859295654296876,0.029618893194198605,-0.16404738351479173,0.06082984135281294
1782969735676221700,10.8692216796875,0.10484744491875171,-0.08368775251209735,-0.09135890819448977
1782969735686148600,10.879148681640626,0.1569312678992748,-0.1361971074283123,-0.05336250114683062
1782969735696074500,10.889074462890624,0.22919980077445506,-0.07443170225843787,-0.009527962530218065
1782969735706000600,10.899000732421875,0.2180529683381319,-0.0159347973652184,-0.028275040837191043
1782969735715926500,10.908926513671876,0.133077514103055,-0.0699506113216281,-0.03244695622697472
