time,seconds_elapsed,z,y,x
1782969302419303400,0.045303466796875,-1.557342529296875,-0.3355865478515625,-0.19573974609375
1782969302429229300,0.055229248046875,-1.747161865234375,-0.3684539794921875,-0.265594482421875
1782969302439156200,0.06515625,-1.964508056640625,-0.4349212646484375,-0.316131591796875
1782969302449082400,0.075082275390625,-2.164581298828125,-0.4318389892578125,-0.2419586181640625
1782969302459008500,0.085008544921875,-2.396881103515625,-0.5115966796875,-0.2619476318359375
1782969302468934400,0.094934326171875,-2.523956298828125,-0.47589111328125,-0.111541748046875
1782969302478858500,0.1048583984375,-2.6106719970703125,-0.463623046875,-0.0346527099609375
1782969302488784400,0.114784423828125,-2.6422119140625,-0.450958251953125,-0.004913330078125
1782969302498711300,0.124711181640625,-2.6020965576171875,-0.4114990234375,0.0367431640625
1782969302508637400,0.134637451171875,-2.4513702392578125,-0.3920745849609375,0.0709075927734375
1782969302518563300,0.144563232421875,-2.24713134765625,-0.3867950439453125,0.0867919921875
1782969302528489500,0.154489501953125,-2.0348663330078125,-0.3690643310546875,0.07269287109375
1782969302538416400,0.16441650390625,-1.81781005859375,-0.312103271484375,0.0355682373046875
1782969302548342500,0.174342529296875,-1.59954833984375,-0.2609405517578125,0.00421142578125
1782969302558268400,0.184268310546875,-1.3973846435546875,-0.2182769775390625,-0.0138702392578125
1782969302568194300,0.1941943359375,-1.20599365234375,-0.179107666015625,-0.00970458984375
1782969302578121500,0.20412158203125,-1.03582763671875,-0.1348724365234375,0.0063323974609375
1782969302588047400,0.21404736328125,-0.872528076171875,-0.1052093505859375,0.03118896484375
1782969302597973200,0.22397314453125,-0.704986572265625,-0.066680908203125,0.0201416015625
1782969302607899400,0.2338994140625,-0.5296783447265625,-0.0330047607421875,0.0066986083984375
1782969302617826600,0.24382666015625,-0.381622314453125,0.00250244140625,-0.0410919189453125
1782969302627752200,0.253752197265625,-0.272552490234375,0.048309326171875,0.007354736328125
1782969302637678300,0.26367822265625,-0.2192840576171875,0.0661163330078125,0.0237274169921875
1782969302647604500,0.2736044921875,-0.18389892578125,0.0595245361328125,0.0260162353515625
1782969302657531100,0.28353125,-0.1143035888671875,0.0531005859375,0.0265045166015625
1782969302667457300,0.293457275390625,-0.022369384765625,0.05364990234375,0.0150909423828125
1782969302677383400,0.303383544921875,0.0698394775390625,0.0258941650390625,0.009613037109375
1782969302687309300,0.313309326171875,0.1381378173828125,-0.011627197265625,0.006866455078125
1782969302697235500,0.3232353515625,0.1745147705078125,-0.0203704833984375,0.0139923095703125
1782969302707162400,0.333162353515625,0.179534912109375,0.0032806396484375,0.0308380126953125
1782969302717088500,0.343088623046875,0.15948486328125,0.0364990234375,0.037322998046875
1782969302727014400,0.353014404296875,0.144195556640625,0.07110595703125,0.0107421875
1782969302736940000,0.36293994140625,0.142242431640625,0.0957794189453125,-0.020599365234375
1782969302746867200,0.3728671875,0.1660919189453125,0.107513427734375,-0.0388031005859375
1782969302756793300,0.38279345703125,0.19586181640625,0.1205596923828125,-0.0654449462890625
1782969302766719000,0.392718994140625,0.1995391845703125,0.1414337158203125,-0.079864501953125
1782969302776645000,0.40264501953125,0.2009429931640625,0.183135986328125,-0.09539794921875
1782969302786572300,0.412572265625,0.1950531005859375,0.161773681640625,-0.063140869140625
1782969302796498200,0.422498291015625,0.17724609375,0.07415771484375,-0.005035400390625
1782969302806424000,0.432424072265625,0.147796630859375,0.0418701171875,0.0248870849609375
1782969302816350200,0.44235009765625,0.1151580810546875,0.013397216796875,-0.0123748779296875
1782969302826277400,0.45227734375,0.038055419921875,-0.012298583984375,-0.0590667724609375
1782969302836203000,0.462203125,-0.08514404296875,-0.040435791015625,-0.0791473388671875
1782969302846129200,0.472129150390625,-0.224639892578125,-0.079833984375,-0.0569305419921875
1782969302856058000,0.48205810546875,-0.3441925048828125,-0.154876708984375,-0.0315093994140625
1782969302865984300,0.491984375,-0.494964599609375,-0.2189788818359375,-0.0125274658203125
1782969302875910400,0.501910400390625,-0.75140380859375,-0.3079833984375,0.004180908203125
1782969302885836000,0.5118359375,-1.1741943359375,-0.398529052734375,0.021331787109375
1782969302895763200,0.52176318359375,-1.750579833984375,-0.377532958984375,0.0333709716796875
1782969302905689300,0.531689453125,-2.3574371337890625,-0.3443603515625,0.074127197265625
1782969302915615200,0.541615234375,-2.8923492431640625,-0.2966156005859375,0.102783203125
1782969302925541000,0.551541015625,-3.3994293212890625,-0.3846282958984375,0.0915374755859375
1782969302935468300,0.56146826171875,-3.618255615234375,-0.489349365234375,0.161956787109375
1782969302945394200,0.571394287109375,-3.94873046875,-0.579376220703125,0.3713836669921875
1782969302955320000,0.581320068359375,-4.246185302734375,-0.636444091796875,0.4935150146484375
1782969302965246200,0.59124609375,-4.2839202880859375,-0.5287322998046875,0.330413818359375
1782969302975173000,0.601173095703125,-4.03643798828125,-0.42523193359375,0.2589569091796875
1782969302985099300,0.611099365234375,-3.5423583984375,-0.454833984375,0.1823272705078125
1782969302995025200,0.621025146484375,-2.91583251953125,-0.4229736328125,0.095672607421875
1782969303004951300,0.630951416015625,-2.3427581787109375,-0.421539306640625,0.00396728515625
1782969303014878200,0.640878173828125,-1.9437713623046875,-0.38800048828125,-0.0294342041015625
1782969303024804000,0.65080419921875,-1.660186767578125,-0.32049560546875,-0.001495361328125
1782969303034730200,0.660730224609375,-1.4840545654296875,-0.196044921875,0.060699462890625
1782969303044656400,0.670656494140625,-1.3617706298828125,-0.1292572021484375,0.095489501953125
1782969303054583300,0.680583251953125,-1.2133636474609375,0.043426513671875,0.12738037109375
1782969303064509200,0.69050927734375,-1.0968780517578125,-0.034942626953125,0.0253753662109375
1782969303074435300,0.700435302734375,-0.9210205078125,-0.0318756103515625,0.081451416015625
1782969303084361200,0.710361328125,-0.713897705078125,0.03216552734375,0.1226654052734375
1782969303094287000,0.720287109375,-0.5389404296875,0.034332275390625,0.0962066650390625
1782969303104214300,0.73021435546875,-0.3682098388671875,-0.0059051513671875,0.1155548095703125
1782969303114140200,0.74014013671875,-0.169891357421875,-0.038238525390625,0.0873565673828125
1782969303124066000,0.750066162109375,0.015045166015625,-0.0127410888671875,0.0244293212890625
1782969303133992200,0.7599921875,0.187347412109375,0.0121917724609375,-0.00909423828125
1782969303143919000,0.769919189453125,0.3185272216796875,-0.0290985107421875,-0.0385284423828125
1782969303153845200,0.77984521484375,0.392822265625,-0.03118896484375,-0.036590576171875
1782969303163771100,0.789771240234375,0.44610595703125,-0.004547119140625,-0.0377044677734375
1782969303173697300,0.799697265625,0.4603271484375,0.0009307861328125,-0.0045318603515625
1782969303183624200,0.809624267578125,0.4458465576171875,-0.0083160400390625,-0.008819580078125
1782969303193550000,0.819550048828125,0.42913818359375,-0.006500244140625,-0.024627685546875
1782969303203476200,0.829476318359375,0.4098968505859375,-0.0092315673828125,-0.010894775390625
1782969303213402400,0.83940234375,0.4337615966796875,-0.0059356689453125,0.0119476318359375
1782969303223329300,0.849329345703125,0.4765167236328125,0.0354461669921875,0.0066986083984375
1782969303233255200,0.859255126953125,0.4372406005859375,0.0582427978515625,-0.012237548828125
1782969303243181300,0.869181396484375,0.3264312744140625,0.103912353515625,-0.1899261474609375
1782969303253107200,0.879107177734375,0.351318359375,0.2356719970703125,-0.1364288330078125
1782969303263034000,0.8890341796875,0.6791839599609375,0.1383209228515625,0.3604278564453125
1782969303272960300,0.898960205078125,0.352081298828125,0.0774993896484375,0.0723419189453125
1782969303282886100,0.90888623046875,0.1875152587890625,0.191009521484375,-0.00213623046875
1782969303292812000,0.91881201171875,0.14227294921875,0.14111328125,-0.01226806640625
1782969303302739200,0.9287392578125,0.0132293701171875,0.091552734375,-0.0379791259765625
1782969303312665300,0.938665283203125,-0.0041351318359375,0.05120849609375,-0.0943450927734375
1782969303322591200,0.94859130859375,-0.0436248779296875,-0.042205810546875,-0.1700286865234375
1782969303332517000,0.95851708984375,-0.06884765625,-0.0759429931640625,-0.1147003173828125
1782969303342443300,0.968443359375,-0.1802825927734375,-0.145050048828125,0.0683135986328125
1782969303352370200,0.9783701171875,-0.3964080810546875,-0.166473388671875,0.142852783203125
1782969303362296000,0.988296142578125,-0.7285919189453125,-0.130584716796875,-0.016082763671875
1782969303372222200,0.99822216796875,-1.0568695068359375,-0.2247314453125,-0.236083984375
1782969303382148400,1.0081484375,-1.56085205078125,-0.261505126953125,-0.41558837890625
1782969303392075300,1.0180751953125,-2.225982666015625,-0.2810211181640625,-0.5149078369140625
1782969303402001200,1.028001220703125,-2.755462646484375,-0.3320770263671875,-0.5496368408203125
1782969303411927300,1.03792724609375,-3.087249755859375,-0.23748779296875,-0.538543701171875
1782969303421853200,1.047853271484375,-3.1712646484375,-0.118255615234375,-0.63812255859375
1782969303431780000,1.057780029296875,-3.133697509765625,-0.146453857421875,-0.8181915283203125
1782969303441706200,1.067706298828125,-3.1289215087890625,-0.323760986328125,-0.9971923828125
1782969303451632400,1.07763232421875,-3.2590179443359375,-0.5977325439453125,-1.0742340087890625
1782969303461558000,1.08755810546875,-3.542205810546875,-0.688568115234375,-1.105743408203125
1782969303471485200,1.097485107421875,-3.6663055419921875,-0.485260009765625,-1.2184906005859375
1782969303481411300,1.107411376953125,-3.5489044189453125,-0.3087158203125,-1.1171112060546875
1782969303491337200,1.117337158203125,-3.2938995361328125,-0.226898193359375,-0.864990234375
1782969303501263000,1.12726318359375,-2.8987579345703125,-0.1814727783203125,-0.6663360595703125
1782969303511190300,1.137190185546875,-2.4352874755859375,-0.03875732421875,-0.6454315185546875
1782969303521116200,1.1471162109375,-2.1491241455078125,-0.0997161865234375,-0.5178985595703125
1782969303531042000,1.1570419921875,-1.9943695068359375,-0.23614501953125,-0.378448486328125
1782969303540968200,1.16696826171875,-1.8460845947265625,-0.285308837890625,-0.291900634765625
1782969303550895000,1.17689501953125,-1.687408447265625,-0.2544403076171875,-0.205596923828125
1782969303560821200,1.1868212890625,-1.491241455078125,-0.030242919921875,-0.257080078125
1782969303570747100,1.1967470703125,-1.3267974853515625,0.139678955078125,-0.2891998291015625
1782969303580673300,1.20667333984375,-1.215728759765625,0.177459716796875,-0.1388397216796875
1782969303590600200,1.21660009765625,-1.0442047119140625,0.1828460693359375,0.083038330078125
1782969303600526000,1.226526123046875,-0.8197021484375,0.234375,0.140045166015625
1782969303610452200,1.2364521484375,-0.5485076904296875,0.2813262939453125,0.1679534912109375
1782969303620378400,1.24637841796875,-0.2987823486328125,0.242767333984375,0.1528167724609375
1782969303630304000,1.256303955078125,-0.052276611328125,0.176116943359375,0.1522216796875
1782969303640231200,1.266231201171875,0.163818359375,0.1229095458984375,0.15118408203125
1782969303650157300,1.2761572265625,0.36468505859375,0.067962646484375,0.1508026123046875
1782969303660083200,1.286083251953125,0.5201416015625,0.043365478515625,0.15679931640625
1782969303670009000,1.296009033203125,0.5992889404296875,0.0414276123046875,0.175628662109375
1782969303679936300,1.305936279296875,0.594085693359375,0.046295166015625,0.19879150390625
1782969303689862100,1.315862060546875,0.5320587158203125,0.0648651123046875,0.2031707763671875
1782969303699788000,1.3257880859375,0.51226806640625,0.0955810546875,0.1465606689453125
1782969303709714200,1.335714111328125,0.433197021484375,0.0782012939453125,0.1632843017578125
1782969303719642000,1.34564208984375,0.4257049560546875,0.0691680908203125,0.1428070068359375
1782969303729568000,1.355568115234375,0.5518646240234375,0.0638580322265625,0.16314697265625
1782969303739494100,1.365494140625,0.71893310546875,0.0450439453125,0.2144317626953125
1782969303749420300,1.375420166015625,0.892364501953125,0.0291900634765625,0.209259033203125
1782969303759347000,1.385346923828125,0.984344482421875,-0.016387939453125,0.1614990234375
1782969303769273000,1.395273193359375,0.9273223876953125,-0.0417327880859375,0.050811767578125
1782969303779199200,1.40519921875,0.728057861328125,-0.033233642578125,-0.059814453125
1782969303789124900,1.415124755859375,0.5240478515625,0.01226806640625,-0.1880035400390625
1782969303799051000,1.425051025390625,0.34222412109375,-0.0786590576171875,-0.0660552978515625
1782969303808978200,1.434978271484375,0.215301513671875,-0.0655364990234375,-0.0274658203125
1782969303818904000,1.444904052734375,0.1661834716796875,-0.0146026611328125,-0.087066650390625
1782969303828830000,1.454829833984375,0.1370697021484375,0.0178680419921875,-0.1145477294921875
1782969303838756000,1.464756103515625,0.0646514892578125,0.0370941162109375,-0.1147003173828125
1782969303848683000,1.47468310546875,-0.1242218017578125,0.071746826171875,-0.169281005859375
1782969303858609000,1.48460888671875,-0.3377532958984375,0.0682830810546875,-0.0968170166015625
1782969303868535000,1.49453515625,-0.6773681640625,0.0239105224609375,-0.120208740234375
1782969303878461200,1.504461181640625,-0.9791259765625,0.0476226806640625,-0.18658447265625
1782969303888388000,1.51438818359375,-1.2329864501953125,0.0005340576171875,-0.21240234375
1782969303898314000,1.52431396484375,-1.4380645751953125,-0.1285400390625,-0.139617919921875
1782969303908240100,1.534240234375,-1.614288330078125,-0.148040771484375,-0.1249847412109375
1782969303918166300,1.544166259765625,-1.8720703125,-0.146820068359375,-0.1105804443359375
1782969303928093200,1.55409326171875,-2.2229156494140625,-0.166351318359375,-0.096527099609375
1782969303938019000,1.56401904296875,-2.640625,-0.19903564453125,-0.225616455078125
1782969303947945200,1.5739453125,-3.19647216796875,-0.2680206298828125,-0.5272674560546875
1782969303957870800,1.583870849609375,-3.876190185546875,-0.3391265869140625,-0.8968353271484375
1782969303967798000,1.593798095703125,-4.51287841796875,-0.363525390625,-1.219207763671875
1782969303977724200,1.60372412109375,-4.8627777099609375,-0.299224853515625,-1.3524017333984375
1782969303987650000,1.613650146484375,-4.796417236328125,-0.2248382568359375,-1.3172149658203125
1782969303997576000,1.623575927734375,-4.387481689453125,-0.2478790283203125,-1.162139892578125
1782969304007502000,1.633502197265625,-3.7660675048828125,-0.2708892822265625,-0.99920654296875
1782969304017429000,1.643428955078125,-3.129364013671875,-0.2843170166015625,-0.8521270751953125
1782969304027355100,1.653355224609375,-2.5368194580078125,-0.3063507080078125,-0.684783935546875
1782969304037281000,1.663281005859375,-2.0693206787109375,-0.304901123046875,-0.564788818359375
1782969304047207200,1.673207275390625,-1.788116455078125,-0.2626190185546875,-0.47454833984375
1782969304057134000,1.683134033203125,-1.6136322021484375,-0.169677734375,-0.345489501953125
1782969304067060000,1.69306005859375,-1.518157958984375,-0.0460205078125,-0.2290802001953125
1782969304076986000,1.702986083984375,-1.43255615234375,0.050994873046875,-0.1738739013671875
1782969304086912300,1.712912353515625,-1.24517822265625,0.0974273681640625,-0.1518096923828125
1782969304096839200,1.722839111328125,-0.9544219970703125,0.1034698486328125,-0.1544342041015625
1782969304106765000,1.73276513671875,-0.64935302734375,0.0926513671875,-0.162445068359375
1782969304116691200,1.742691162109375,-0.390411376953125,0.083251953125,-0.162078857421875
1782969304126617000,1.7526171875,-0.1810455322265625,0.072906494140625,-0.1527862548828125
1782969304136544000,1.7625439453125,0.0265960693359375,0.07135009765625,-0.0936431884765625
1782969304146470100,1.77247021484375,0.2440643310546875,0.0808868408203125,-0.0172576904296875
1782969304156396000,1.78239599609375,0.4101409912109375,0.09100341796875,0.08477783203125
1782969304166322000,1.792322021484375,0.4961090087890625,0.0865478515625,0.0939483642578125
1782969304176249000,1.8022490234375,0.557373046875,0.08349609375,0.0992279052734375
1782969304186175200,1.81217529296875,0.609832763671875,0.079132080078125,0.0717315673828125
1782969304196101000,1.82210107421875,0.6195831298828125,0.064971923828125,0.0391387939453125
1782969304206027000,1.832027099609375,0.61962890625,0.0592803955078125,0.018341064453125
1782969304215953200,1.841953125,0.647216796875,0.0579071044921875,0.0185699462890625
1782969304225880000,1.851880126953125,0.715667724609375,0.05645751953125,0.0284576416015625
1782969304235806000,1.861805908203125,0.7922821044921875,0.0554962158203125,0.0484619140625
1782969304245732000,1.871732177734375,0.8507232666015625,0.03863525390625,0.0832977294921875
1782969304255658200,1.881658203125,0.8797760009765625,0.036865234375,0.0978546142578125
1782969304265585200,1.891585205078125,0.8528594970703125,0.03204345703125,0.0711212158203125
1782969304275511000,1.901510986328125,0.7548828125,0.027557373046875,0.068511962890625
1782969304285437200,1.911437255859375,0.6148834228515625,0.0449066162109375,0.0616607666015625
1782969304295363000,1.921363037109375,0.41748046875,0.0548248291015625,0.03662109375
1782969304305290000,1.9312900390625,0.1905364990234375,0.0736236572265625,0.000030517578125
1782969304315216100,1.941216064453125,-0.00701904296875,0.0941314697265625,-0.0359344482421875
1782969304325142300,1.951142333984375,-0.1358489990234375,0.061798095703125,-0.0967254638671875
1782969304335068000,1.96106787109375,-0.1820068359375,0.0230865478515625,-0.1226043701171875
1782969304344995000,1.9709951171875,-0.1865386962890625,-0.0006561279296875,-0.1379852294921875
1782969304354921200,1.980921142578125,-0.2169036865234375,-0.0476531982421875,-0.1749420166015625
1782969304364847000,1.99084716796875,-0.3410797119140625,-0.1324005126953125,-0.233123779296875
1782969304374773000,2.00077294921875,-0.59393310546875,-0.19805908203125,-0.2496795654296875
1782969304384700200,2.0107001953125,-0.9268035888671875,-0.2280426025390625,-0.1561126708984375
1782969304394626000,2.0206259765625,-1.262115478515625,-0.10675048828125,0.049560546875
1782969304404552000,2.030552001953125,-1.557525634765625,-0.068145751953125,0.11859130859375
1782969304414478000,2.04047802734375,-1.9256134033203125,-0.1676483154296875,-0.0068511962890625
1782969304424404200,2.050404296875,-2.234100341796875,-0.2763824462890625,-0.113555908203125
1782969304434331100,2.0603310546875,-2.4440460205078125,-0.192626953125,-0.256805419921875
1782969304444257000,2.070257080078125,-2.752593994140625,-0.1987762451171875,-0.495086669921875
1782969304454183200,2.08018310546875,-3.094024658203125,-0.5971832275390625,-0.889068603515625
1782969304464109000,2.090109130859375,-3.3742828369140625,-0.6661224365234375,-1.2512969970703125
1782969304474036000,2.100035888671875,-3.6427764892578125,-0.7916717529296875,-1.618133544921875
1782969304483962000,2.109962158203125,-3.8379058837890625,-0.9572296142578125,-1.8205413818359375
1782969304493888300,2.11988818359375,-3.8481292724609375,-0.9558868408203125,-1.8441925048828125
1782969304503814000,2.12981396484375,-3.640380859375,-0.808074951171875,-1.6754150390625
1782969304513741000,2.139740966796875,-3.2349853515625,-0.6734619140625,-1.356658935546875
1782969304523667200,2.149667236328125,-2.7660980224609375,-0.4954833984375,-1.09002685546875
1782969304533593000,2.159593017578125,-2.2752532958984375,-0.2715606689453125,-0.83111572265625
1782969304543519000,2.16951904296875,-1.95458984375,-0.250244140625,-0.5804290771484375
1782969304553445000,2.179445068359375,-1.798187255859375,-0.230712890625,-0.5162506103515625
1782969304563372000,2.1893720703125,-1.73602294921875,-0.1784820556640625,-0.481231689453125
1782969304573298000,2.1992978515625,-1.656829833984375,-0.127288818359375,-0.530120849609375
1782969304583224000,2.20922412109375,-1.473419189453125,-0.1239013671875,-0.4478759765625
1782969304593150200,2.219150146484375,-1.2860107421875,-0.086578369140625,-0.3729095458984375
1782969304603077000,2.2290771484375,-1.1767120361328125,0.1178436279296875,-0.4415130615234375
1782969304613003000,2.2390029296875,-0.9229736328125,0.22930908203125,-0.0737152099609375
1782969304622929200,2.24892919921875,-0.6249237060546875,0.2878265380859375,0.097198486328125
1782969304632855300,2.258855224609375,-0.341766357421875,0.3033599853515625,0.204681396484375
1782969304642782000,2.268781982421875,-0.1300506591796875,0.2831268310546875,0.243621826171875
1782969304652708000,2.2787080078125,0.0193023681640625,0.2461395263671875,0.1110992431640625
1782969304662634200,2.28863427734375,0.146331787109375,0.1789093017578125,-0.0041961669921875
1782969304672559900,2.298559814453125,0.26629638671875,0.10028076171875,-0.0809478759765625
1782969304682487000,2.308487060546875,0.392822265625,0.0736236572265625,-0.097198486328125
1782969304692413200,2.3184130859375,0.5561981201171875,0.08221435546875,-0.12408447265625
1782969304702339000,2.328339111328125,0.684661865234375,0.03955078125,-0.130615234375
1782969304712265000,2.338264892578125,0.8220672607421875,0.02191162109375,-0.1563262939453125
1782969304722192100,2.348192138671875,0.9493560791015625,0.0383453369140625,-0.1291961669921875
1782969304732118000,2.358117919921875,1.0307464599609375,0.040924072265625,-0.0458526611328125
1782969304742044000,2.3680439453125,1.0607757568359375,0.0487060546875,-0.035064697265625
1782969304751970000,2.377969970703125,1.0767364501953125,0.0800933837890625,-0.0220489501953125
1782969304761896000,2.38789599609375,1.06976318359375,0.090087890625,-0.0169219970703125
1782969304771822800,2.39782275390625,1.0140533447265625,0.05963134765625,-0.0465240478515625
1782969304781749000,2.4077490234375,0.9329986572265625,0.0228424072265625,-0.095672607421875
1782969304791675000,2.4176748046875,0.8091888427734375,0.0037384033203125,-0.1552581787109375
1782969304801601000,2.42760107421875,0.6549072265625,-0.0085601806640625,-0.1898193359375
1782969304811528000,2.43752783203125,0.5046539306640625,-0.0047149658203125,-0.1881256103515625
1782969304821454000,2.4474541015625,0.3394775390625,0.0250701904296875,-0.1620330810546875
1782969304831380000,2.4573798828125,0.1579437255859375,0.06268310546875,-0.1104278564453125
1782969304841305900,2.467305908203125,-0.0758056640625,0.0873260498046875,-0.065704345703125
1782969304851233000,2.47723291015625,-0.3451995849609375,0.0771636962890625,-0.039947509765625
1782969304861159000,2.487158935546875,-0.58636474609375,0.035980224609375,-0.02197265625
1782969304871085000,2.4970849609375,-0.7808074951171875,-0.0210723876953125,0.0263824462890625
1782969304881011000,2.507010986328125,-1.056610107421875,-0.0377044677734375,0.0615234375
1782969304890938000,2.516938232421875,-1.56414794921875,-0.000244140625,0.0355987548828125
1782969304900864000,2.526864013671875,-2.2791290283203125,0.0444488525390625,-0.0012054443359375
1782969304910790000,2.536789794921875,-2.978240966796875,0.074951171875,-0.053192138671875
1782969304920716000,2.546716064453125,-3.4971923828125,0.08697509765625,-0.1843109130859375
1782969304930643000,2.556642822265625,-3.89996337890625,0.09954833984375,-0.414276123046875
1782969304940568800,2.56656884765625,-4.1855316162109375,0.04705810546875,-0.64111328125
1782969304950495000,2.576494873046875,-4.3388824462890625,-0.0211181640625,-0.946319580078125
1782969304960420900,2.5864208984375,-4.3466339111328125,-0.0961151123046875,-1.192596435546875
1782969304970347000,2.596346923828125,-4.09674072265625,-0.1541290283203125,-1.2672119140625
1782969304980274000,2.60627392578125,-3.6250762939453125,-0.2110595703125,-1.12884521484375
1782969304990200000,2.616199951171875,-3.0432586669921875,-0.186431884765625,-0.91204833984375
1782969305000126000,2.6261259765625,-2.48126220703125,-0.1428680419921875,-0.6963958740234375
1782969305010051800,2.6360517578125,-2.100372314453125,-0.1559295654296875,-0.554962158203125
1782969305019979000,2.64597900390625,-1.8861236572265625,-0.15582275390625,-0.5124969482421875
1782969305029905000,2.65590478515625,-1.7940521240234375,-0.1269073486328125,-0.483917236328125
1782969305039831000,2.6658310546875,-1.71502685546875,-0.0686492919921875,-0.446075439453125
1782969305049757000,2.6757568359375,-1.5767974853515625,-0.0069580078125,-0.4091949462890625
1782969305059684000,2.68568408203125,-1.3985595703125,0.0350799560546875,-0.3759918212890625
1782969305069610000,2.69560986328125,-1.20037841796875,0.065826416015625,-0.3454132080078125
1782969305079535900,2.705535888671875,-0.987548828125,0.1016845703125,-0.3008575439453125
1782969305089462000,2.7154619140625,-0.7806854248046875,0.1376495361328125,-0.2386322021484375
1782969305099389000,2.725388916015625,-0.5485382080078125,0.1674041748046875,-0.127410888671875
1782969305109314800,2.735314697265625,-0.295562744140625,0.1842498779296875,-0.028900146484375
1782969305119241000,2.745240966796875,-0.0556640625,0.1684112548828125,0.052581787109375
1782969305129166800,2.755166748046875,0.16473388671875,0.1273956298828125,0.097808837890625
1782969305139093000,2.765093017578125,0.317413330078125,0.07611083984375,0.1118011474609375
1782969305149020000,2.77502001953125,0.4157257080078125,0.0472869873046875,0.1026153564453125
1782969305158946000,2.784946044921875,0.4942626953125,0.0248260498046875,0.0763397216796875
1782969305168872000,2.794871826171875,0.5787200927734375,0.011627197265625,0.05560302734375
1782969305178798000,2.804798095703125,0.666290283203125,0.0132904052734375,0.03704833984375
1782969305188725000,2.81472509765625,0.7184295654296875,-0.0014190673828125,0.0211944580078125
1782969305198651000,2.82465087890625,0.7475128173828125,-0.005035400390625,0.02044677734375
1782969305208577000,2.834576904296875,0.7700653076171875,0.0202484130859375,0.034454345703125
1782969305218503000,2.8445029296875,0.777099609375,0.0381622314453125,0.065277099609375
1782969305228430000,2.85443017578125,0.7479705810546875,0.048095703125,0.0817413330078125
1782969305238356000,2.86435595703125,0.6813812255859375,0.0553741455078125,0.0554962158203125
1782969305248281900,2.87428173828125,0.593353271484375,0.046875,0.0486297607421875
1782969305258208000,2.8842080078125,0.48382568359375,0.06317138671875,0.068450927734375
1782969305268135200,2.89413525390625,0.350555419921875,0.0797271728515625,0.080047607421875
1782969305278060800,2.904060791015625,0.20867919921875,0.0666961669921875,0.0414886474609375
1782969305287987000,2.913987060546875,0.0971221923828125,0.0397796630859375,-0.009368896484375
1782969305297912800,2.923912841796875,0.0185394287109375,0.0041961669921875,-0.055755615234375
1782969305307839000,2.9338388671875,-0.029327392578125,-0.031402587890625,-0.0974884033203125
1782969305317766000,2.943765869140625,-0.070343017578125,-0.0624237060546875,-0.0996551513671875
1782969305327692000,2.953692138671875,-0.1403961181640625,-0.1049652099609375,-0.1094207763671875
1782969305337618000,2.963617919921875,-0.2698211669921875,-0.1410064697265625,-0.1399688720703125
1782969305347544000,2.9735439453125,-0.501708984375,-0.1553192138671875,-0.18341064453125
1782969305357471000,2.983470947265625,-0.809173583984375,-0.172027587890625,-0.201171875
1782969305367397000,2.993397216796875,-1.2366943359375,-0.1368865966796875,-0.13507080078125
1782969305377323000,3.003322998046875,-1.776763916015625,-0.0447998046875,-0.121795654296875
1782969305387249000,3.013248779296875,-2.3902435302734375,0.0007781982421875,-0.2632598876953125
1782969305397176000,3.023176025390625,-3.0157928466796875,-0.0152130126953125,-0.505615234375
1782969305407102000,3.03310205078125,-3.56231689453125,-0.053680419921875,-0.764556884765625
1782969305417027800,3.04302783203125,-3.94549560546875,-0.1400299072265625,-0.9634246826171875
1782969305426954000,3.0529541015625,-4.1128082275390625,-0.13568115234375,-1.185272216796875
1782969305436881200,3.062881103515625,-4.1583099365234375,-0.138580322265625,-1.3260498046875
1782969305446806800,3.072806884765625,-3.918365478515625,-0.2225799560546875,-1.2045440673828125
1782969305456733000,3.08273291015625,-3.4865570068359375,-0.181427001953125,-1.0735626220703125
1782969305466659000,3.0926591796875,-2.98529052734375,-0.1657257080078125,-0.8822174072265625
1782969305476586000,3.1025859375,-2.492919921875,-0.160614013671875,-0.698089599609375
1782969305486511900,3.112511962890625,-1.7795867919921875,-0.221893310546875,-0.6613922119140625
1782969305496438000,3.12243798828125,-1.262939453125,-0.3135833740234375,-0.6252899169921875
1782969305506364000,3.132364013671875,-1.3352203369140625,-0.269287109375,-0.578704833984375
1782969305516290000,3.1422900390625,-1.21173095703125,-0.165618896484375,-0.5083465576171875
1782969305526217000,3.152217041015625,-1.165191650390625,-0.1092681884765625,-0.4532470703125
1782969305536143000,3.16214306640625,-1.086578369140625,-0.0695953369140625,-0.402618408203125
1782969305546069000,3.172069091796875,-1.009246826171875,-0.0193328857421875,-0.3661956787109375
1782969305555995000,3.181994873046875,-0.94415283203125,0.0438385009765625,-0.3117523193359375
1782969305565922000,3.191922119140625,-0.9095001220703125,0.0766143798828125,-0.2274322509765625
1782969305575848000,3.201847900390625,-0.73272705078125,0.0845184326171875,-0.14105224609375
1782969305585773800,3.21177392578125,-0.5603485107421875,0.0624237060546875,-0.103363037109375
1782969305595700000,3.221699951171875,-0.460205078125,0.0471343994140625,-0.04058837890625
1782969305605627100,3.231627197265625,-0.442169189453125,0.0521087646484375,-0.039520263671875
1782969305615553000,3.241552978515625,-0.6865692138671875,0.014068603515625,-0.095306396484375
1782969305625479000,3.25147900390625,-0.4688873291015625,0.03192138671875,-0.0080718994140625
1782969305635405000,3.261405029296875,-0.3014984130859375,0.0307769775390625,0.0036468505859375
1782969305645332000,3.27133203125,-0.1939544677734375,-0.0150604248046875,0.0004425048828125
1782969305655257900,3.2812578125,-0.0541534423828125,-0.0102081298828125,0.060272216796875
1782969305665184000,3.29118408203125,0.051544189453125,0.0088958740234375,0.097686767578125
1782969305675110000,3.30110986328125,0.1215057373046875,0.004608154296875,0.1093902587890625
1782969305685036000,3.3110361328125,0.1948394775390625,0.0006256103515625,0.1106719970703125
1782969305694963000,3.320962890625,0.264434814453125,-0.0039215087890625,0.102294921875
1782969305704889000,3.33088916015625,0.2974395751953125,-0.0239410400390625,0.1186676025390625
1782969305714815000,3.34081494140625,0.298980712890625,-0.0042724609375,0.115570068359375
1782969305724740400,3.350740234375,0.3387298583984375,0.0224151611328125,0.1456756591796875
1782969305734667300,3.360667236328125,0.3788604736328125,0.055938720703125,0.1916961669921875
1782969305744593400,3.370593505859375,0.4153594970703125,0.0793609619140625,0.19891357421875
1782969305754519600,3.38051953125,0.4471435546875,0.066253662109375,0.1818084716796875
1782969305764445200,3.390445068359375,0.4944000244140625,0.0648956298828125,0.1687469482421875
1782969305774372400,3.400372314453125,0.4902801513671875,0.05426025390625,0.132476806640625
1782969305784298500,3.410298583984375,0.4185333251953125,0.04730224609375,0.104156494140625
1782969305794224400,3.420224365234375,0.2861328125,0.0593719482421875,0.0557403564453125
1782969305804150300,3.430150390625,0.118804931640625,0.0566558837890625,0.023529052734375
1782969305814077400,3.440077392578125,-0.02117919921875,0.0406951904296875,-0.0177154541015625
1782969305824003600,3.450003662109375,-0.1541595458984375,0.0198516845703125,-0.080169677734375
1782969305833929200,3.45992919921875,-0.2933502197265625,0.0003509521484375,-0.1631317138671875
1782969305843855400,3.46985546875,-0.5255126953125,-0.0507965087890625,-0.329376220703125
1782969305853781500,3.479781494140625,-0.9383697509765625,-0.15301513671875,-0.48529052734375
1782969305863708200,3.489708251953125,-1.426605224609375,-0.16619873046875,-0.40570068359375
1782969305873634300,3.49963427734375,-1.97381591796875,-0.110595703125,-0.2509613037109375
1782969305883560400,3.509560546875,-2.503692626953125,-0.037933349609375,-0.14031982421875
1782969305893486300,3.519486328125,-3.1192169189453125,0.149932861328125,-0.1158447265625
1782969305903413200,3.529413330078125,-3.8887481689453125,0.257110595703125,-0.260894775390625
1782969305913339400,3.53933935546875,-4.553680419921875,0.22698974609375,-0.58428955078125
1782969305923265500,3.549265625,-4.893798828125,0.143707275390625,-0.9337921142578125
1782969305933191400,3.55919140625,-4.7296295166015625,0.0352935791015625,-1.21893310546875
1782969305943118300,3.569118408203125,-4.0997314453125,-0.1155548095703125,-1.3031463623046875
1782969305953044500,3.57904443359375,-3.27764892578125,-0.18310546875,-1.1758270263671875
1782969305962970400,3.588970458984375,-2.6278533935546875,-0.1234130859375,-0.9448394775390625
1782969305972896300,3.598896240234375,-2.282958984375,-0.0566864013671875,-0.740509033203125
1782969305982823400,3.608823486328125,-2.00482177734375,-0.0252227783203125,-0.6791839599609375
1782969305992749600,3.61874951171875,-1.7950286865234375,-0.0113372802734375,-0.5992279052734375
1782969306002675200,3.62867529296875,-1.635498046875,0.031097412109375,-0.476715087890625
1782969306012601300,3.638601318359375,-1.4855194091796875,0.0862579345703125,-0.303436279296875
1782969306022527500,3.648527587890625,-1.303497314453125,0.1228790283203125,-0.184417724609375
1782969306032454100,3.6584541015625,-1.0890960693359375,0.1310272216796875,-0.121734619140625
1782969306042380300,3.66838037109375,-0.869293212890625,0.115875244140625,-0.0720062255859375
1782969306052306400,3.678306396484375,-0.6861724853515625,0.091827392578125,-0.0501556396484375
1782969306062232300,3.688232421875,-0.5592498779296875,0.066131591796875,-0.0388336181640625
1782969306072159200,3.6981591796875,-0.411163330078125,0.05126953125,-0.0325469970703125
1782969306082085400,3.70808544921875,-0.265625,0.021209716796875,-0.0329742431640625
1782969306092011500,3.718011474609375,-0.13775634765625,-0.0189208984375,-0.0285186767578125
1782969306101937400,3.7279375,-0.013641357421875,-0.0292816162109375,-0.0101470947265625
1782969306111864300,3.7378642578125,0.0912933349609375,-0.0474853515625,0.00323486328125
1782969306121790500,3.74779052734375,0.2030487060546875,-0.0709075927734375,0.007293701171875
1782969306131716600,3.757716552734375,0.3013153076171875,-0.083740234375,0.020477294921875
1782969306141642200,3.767642333984375,0.39215087890625,-0.08441162109375,0.03173828125
1782969306151569400,3.7775693359375,0.4715728759765625,-0.09136962890625,0.0287628173828125
1782969306161495600,3.78749560546875,0.501800537109375,-0.1110382080078125,0.003204345703125
1782969306171421200,3.797421142578125,0.518585205078125,-0.1147308349609375,0.0047454833984375
1782969306181347300,3.807347412109375,0.54730224609375,-0.103515625,0.0308990478515625
1782969306191274500,3.8172744140625,0.58349609375,-0.0966644287109375,0.0563201904296875
1782969306201200400,3.827200439453125,0.615264892578125,-0.0995941162109375,0.0532073974609375
1782969306211126300,3.837126220703125,0.5956268310546875,-0.11273193359375,0.026702880859375
1782969306221052400,3.847052490234375,0.5247344970703125,-0.1123504638671875,0.0102386474609375
1782969306230978600,3.856978515625,0.473480224609375,-0.0882568359375,0.0193634033203125
1782969306240905200,3.8669052734375,0.4114227294921875,-0.072509765625,0.0234832763671875
1782969306250831400,3.876831298828125,0.327606201171875,-0.0790863037109375,-0.0101165771484375
1782969306260757500,3.886757568359375,0.2776031494140625,-0.10614013671875,-0.0589141845703125
1782969306270683400,3.896683349609375,0.174835205078125,-0.100067138671875,-0.0748291015625
1782969306280610300,3.9066103515625,0.080810546875,-0.067779541015625,-0.0673675537109375
1782969306290536400,3.916536376953125,-0.040740966796875,-0.0480499267578125,-0.0731201171875
1782969306300462600,3.926462646484375,-0.2086944580078125,-0.01702880859375,-0.071533203125
1782969306310388200,3.93638818359375,-0.332794189453125,-0.03045654296875,-0.089813232421875
1782969306320315400,3.9463154296875,-0.3578338623046875,-0.128936767578125,-0.15899658203125
1782969306330241500,3.956241455078125,-0.37017822265625,-0.16094970703125,-0.2612152099609375
1782969306340167200,3.966167236328125,-0.5077362060546875,-0.209197998046875,-0.3336181640625
1782969306351332400,3.977332275390625,-0.8153076171875,-0.2425689697265625,-0.401824951171875
1782969306361258200,3.98725830078125,-1.2202606201171875,-0.2781524658203125,-0.5345916748046875
1782969306371184400,3.997184326171875,-1.6286163330078125,-0.260986328125,-0.7832183837890625
1782969306381110500,4.007110595703125,-2.0803375244140625,-0.2481536865234375,-1.1489410400390625
1782969306391037400,4.017037353515625,-2.6211395263671875,-0.3213958740234375,-1.5322265625
1782969306400963300,4.02696337890625,-3.27325439453125,-0.324737548828125,-1.7745208740234375
1782969306410889500,4.036889404296875,-3.9185943603515625,-0.25634765625,-1.87353515625
1782969306420815400,4.0468154296875,-4.375946044921875,-0.2168426513671875,-1.8420867919921875
1782969306430742300,4.0567421875,-4.50927734375,-0.1968536376953125,-1.8055419921875
1782969306440668400,4.06666845703125,-4.3529510498046875,-0.172271728515625,-1.873992919921875
1782969306450594300,4.07659423828125,-3.8470611572265625,-0.2475433349609375,-1.736785888671875
1782969306460520200,4.086520263671875,-3.1327056884765625,-0.281768798828125,-1.5155029296875
1782969306470447400,4.096447265625,-2.3806915283203125,-0.2249603271484375,-1.3080902099609375
1782969306480373500,4.10637353515625,-1.8353729248046875,-0.2637176513671875,-1.11883544921875
1782969306490299400,4.11629931640625,-1.6131134033203125,-0.3370361328125,-0.9980926513671875
1782969306500225300,4.126225341796875,-1.620330810546875,-0.2912139892578125,-0.8909149169921875
1782969306510151400,4.1361513671875,-1.6624298095703125,-0.20257568359375,-0.737060546875
1782969306520078300,4.146078369140625,-1.6070709228515625,-0.1728668212890625,-0.5592041015625
1782969306530004200,4.156004150390625,-1.4840240478515625,-0.15277099609375,-0.383941650390625
1782969306539930400,4.165930419921875,-1.2678680419921875,-0.013519287109375,-0.3258209228515625
1782969306549856500,4.1758564453125,-0.93756103515625,0.134857177734375,-0.2246856689453125
1782969306559783400,4.185783447265625,-0.669891357421875,0.1672515869140625,-0.15985107421875
1782969306569709300,4.195709228515625,-0.4797821044921875,0.1764068603515625,-0.1359100341796875
1782969306579635500,4.205635498046875,-0.2950439453125,0.162811279296875,-0.11920166015625
1782969306589561300,4.215561279296875,-0.0865020751953125,0.137115478515625,-0.10589599609375
1782969306599488300,4.22548828125,0.10052490234375,0.130950927734375,-0.0897064208984375
1782969306609414400,4.235414306640625,0.3102569580078125,0.123138427734375,-0.0262908935546875
1782969306619340500,4.245340576171875,0.5541534423828125,0.1079254150390625,0.0634613037109375
1782969306629266200,4.25526611328125,0.7560882568359375,0.057403564453125,0.1286773681640625
1782969306639193300,4.265193359375,0.8757476806640625,0.0306396484375,0.122589111328125
1782969306649119500,4.275119384765625,0.933258056640625,0.0360870361328125,0.1218414306640625
1782969306659045400,4.28504541015625,0.9663238525390625,0.0374908447265625,0.13201904296875
1782969306668971300,4.29497119140625,0.9979400634765625,0.032623291015625,0.1151123046875
1782969306678897400,4.3048974609375,1.039642333984375,0.0435333251953125,0.1287841796875
1782969306688824300,4.31482421875,1.05718994140625,0.0460205078125,0.121307373046875
1782969306698750200,4.324750244140625,1.03973388671875,0.026947021484375,0.1158447265625
1782969306708676400,4.33467626953125,0.9841461181640625,0.0168609619140625,0.07830810546875
1782969306718602500,4.3446025390625,0.8577880859375,0.0120697021484375,0.05615234375
1782969306728530000,4.354530029296875,0.6988067626953125,0.0125579833984375,0.0383148193359375
1782969306738456000,4.3644560546875,0.49481201171875,0.0126495361328125,0.016082763671875
1782969306748382200,4.37438232421875,0.2582550048828125,0.0194091796875,-0.005462646484375
1782969306758307800,4.384307861328125,0.0684051513671875,0.027618408203125,-0.019866943359375
1782969306768235000,4.394235107421875,-0.05474853515625,0.0206756591796875,-0.0272216796875
1782969306778161200,4.4041611328125,-0.0972137451171875,-0.03533935546875,-0.0164947509765625
1782969306788086800,4.414086669921875,-0.1049041748046875,-0.0094757080078125,0.0818634033203125
1782969306798013000,4.424012939453125,-0.167449951171875,-0.1109466552734375,0.0549468994140625
1782969306807940000,4.433940185546875,-0.4064483642578125,-0.31787109375,-0.05023193359375
1782969306817866000,4.443865966796875,-0.665283203125,-0.3095855712890625,0.1002655029296875
1782969306827792000,4.4537919921875,-0.8150787353515625,-0.307403564453125,0.052337646484375
1782969306837718000,4.463718017578125,-1.08819580078125,-0.3709716796875,0.0176849365234375
1782969306847644200,4.47364404296875,-1.4768829345703125,-0.3836669921875,-0.1068878173828125
1782969306857570800,4.48357080078125,-1.802581787109375,-0.267822265625,-0.316619873046875
1782969306867497000,4.4934970703125,-2.150543212890625,-0.128509521484375,-0.5352783203125
1782969306877423000,4.503423095703125,-2.40911865234375,-0.14227294921875,-0.576507568359375
1782969306887349000,4.513348876953125,-2.960845947265625,-0.2541046142578125,-0.6668853759765625
1782969306897276000,4.52327587890625,-3.2764892578125,-0.3465423583984375,-0.7152252197265625
1782969306907202000,4.5332021484375,-3.266632080078125,-0.3707427978515625,-0.789886474609375
1782969306917128200,4.543128173828125,-3.35791015625,-0.383056640625,-1.0323333740234375
1782969306927053800,4.5530537109375,-3.216461181640625,-0.4637603759765625,-1.2451019287109375
1782969306936981000,4.56298095703125,-3.168212890625,-0.463836669921875,-1.3892822265625
1782969306946907100,4.5729072265625,-3.203277587890625,-0.3892364501953125,-1.40069580078125
1782969306956832800,4.582832763671875,-3.3294525146484375,-0.456756591796875,-1.1844482421875
1782969306966759000,4.592759033203125,-3.2465057373046875,-0.484710693359375,-0.763153076171875
1782969306976686000,4.60268603515625,-3.0147705078125,-0.29095458984375,-0.638702392578125
1782969306986612000,4.612612060546875,-2.6931304931640625,-0.025482177734375,-0.7492523193359375
1782969306996537900,4.622537841796875,-2.4692230224609375,-0.0879669189453125,-0.6437835693359375
1782969307006464000,4.632464111328125,-2.338134765625,-0.1583099365234375,-0.661590576171875
1782969307016391000,4.642390869140625,-2.2245635986328125,-0.1688385009765625,-0.7064361572265625
1782969307026316800,4.65231689453125,-2.0427093505859375,-0.09625244140625,-0.628662109375
1782969307036243000,4.662242919921875,-1.7962799072265625,0.0372772216796875,-0.5391845703125
1782969307046169000,4.672169189453125,-1.529937744140625,0.104339599609375,-0.4521331787109375
1782969307056095000,4.682094970703125,-1.2171478271484375,0.1583709716796875,-0.35443115234375
1782969307066022000,4.69202197265625,-0.92156982421875,0.207672119140625,-0.2711334228515625
1782969307075948000,4.701947998046875,-0.6448211669921875,0.2512969970703125,-0.207275390625
1782969307085874200,4.711874267578125,-0.3509521484375,0.2759246826171875,-0.1452484130859375
1782969307095799800,4.7217998046875,-0.0131988525390625,0.261749267578125,-0.06396484375
1782969307105727000,4.73172705078125,0.302825927734375,0.233795166015625,0.059906005859375
1782969307115653000,4.741653076171875,0.5218658447265625,0.2236328125,0.130126953125
1782969307125579000,4.7515791015625,0.6316070556640625,0.221160888671875,0.123260498046875
1782969307135505000,4.7615048828125,0.676025390625,0.2381439208984375,0.0795135498046875
1782969307145432000,4.77143212890625,0.7589111328125,0.2383880615234375,-0.0235595703125
1782969307155358000,4.78135791015625,0.923919677734375,0.1883544921875,-0.1156768798828125
1782969307165283800,4.791283935546875,1.1506805419921875,0.1688690185546875,-0.1240234375
1782969307175210000,4.8012099609375,1.3588104248046875,0.15655517578125,-0.0814971923828125
1782969307185136000,4.81113623046875,1.4936676025390625,0.1578216552734375,-0.01043701171875
1782969307195063000,4.82106298828125,1.52630615234375,0.185455322265625,0.0326995849609375
1782969307204989000,4.830989013671875,1.44854736328125,0.2220306396484375,0.06787109375
1782969307214915000,4.8409150390625,1.282012939453125,0.255615234375,0.094757080078125
1782969307224841000,4.850841064453125,1.090301513671875,0.2985076904296875,0.0929107666015625
1782969307234768000,4.860767822265625,0.872100830078125,0.33050537109375,0.081756591796875
1782969307244694000,4.870694091796875,0.619384765625,0.3616485595703125,0.074462890625
1782969307254620200,4.8806201171875,0.3896636962890625,0.3960113525390625,0.0590972900390625
1782969307264545800,4.8905458984375,0.1812744140625,0.4118804931640625,0.063323974609375
1782969307274473000,4.900472900390625,0.0316925048828125,0.389434814453125,0.05865478515625
1782969307284399000,4.910399169921875,-0.027587890625,0.3437652587890625,0.0149688720703125
1782969307294325000,4.920324951171875,-0.0180511474609375,0.271087646484375,-0.05499267578125
1782969307304251000,4.9302509765625,0.0041046142578125,0.1700897216796875,-0.180572509765625
1782969307314178000,4.940177978515625,-0.02899169921875,0.0338134765625,-0.3533172607421875
1782969307324104200,4.950104248046875,-0.144683837890625,-0.1321258544921875,-0.542388916015625
1782969307334029800,4.96002978515625,-0.3451995849609375,-0.318695068359375,-0.69189453125
1782969307343956000,4.9699560546875,-0.726318359375,-0.296234130859375,-0.5913238525390625
1782969307353882000,4.979882080078125,-1.2066802978515625,-0.28118896484375,-0.3961639404296875
1782969307363809000,4.98980908203125,-1.780517578125,-0.1562957763671875,-0.40380859375
1782969307373735000,4.99973486328125,-2.3613128662109375,-0.088348388671875,-0.4130859375
1782969307383661000,5.0096611328125,-2.8757171630859375,-0.04852294921875,-0.3588409423828125
1782969307393587200,5.019587158203125,-3.186309814453125,-0.133514404296875,-0.34173583984375
1782969307403513900,5.029513916015625,-3.5839385986328125,-0.1646270751953125,-0.4654541015625
1782969307413440000,5.03943994140625,-4.127166748046875,-0.1823272705078125,-0.6757049560546875
1782969307423366100,5.0493662109375,-4.608154296875,-0.1423492431640625,-0.822967529296875
1782969307433292000,5.0592919921875,-4.750732421875,-0.1168365478515625,-0.8755950927734375
1782969307443219000,5.069218994140625,-4.6283416748046875,-0.09326171875,-0.7469940185546875
1782969307453145000,5.07914501953125,-4.3881378173828125,-0.0209197998046875,-0.618560791015625
1782969307463071200,5.0890712890625,-3.883392333984375,0.0018157958984375,-0.553741455078125
1782969307472996900,5.098996826171875,-3.3136138916015625,-0.0799102783203125,-0.58087158203125
1782969307482924000,5.108924072265625,-2.7806549072265625,-0.18609619140625,-0.6746978759765625
1782969307492850200,5.11885009765625,-2.35137939453125,-0.25811767578125,-0.7439117431640625
1782969307502775800,5.12877587890625,-2.07635498046875,-0.2891082763671875,-0.7234649658203125
1782969307512702000,5.138701904296875,-1.9025421142578125,-0.2181396484375,-0.65301513671875
1782969307522629000,5.148629150390625,-1.7601165771484375,-0.1290435791015625,-0.5019989013671875
1782969307532555000,5.158554931640625,-1.599365234375,-0.0228729248046875,-0.375579833984375
1782969307542481000,5.16848095703125,-1.378570556640625,0.0749359130859375,-0.29327392578125
1782969307552407000,5.178406982421875,-1.142913818359375,0.107666015625,-0.1901092529296875
1782969307562333200,5.188333251953125,-0.8985748291015625,0.1367034912109375,-0.1280364990234375
1782969307572259800,5.198259765625,-0.628814697265625,0.1602630615234375,-0.059906005859375
1782969307582186000,5.20818603515625,-0.351470947265625,0.16839599609375,-0.0310211181640625
1782969307592112000,5.218112060546875,-0.1114959716796875,0.1833343505859375,-0.0064239501953125
1782969307602038000,5.2280380859375,0.0722198486328125,0.171661376953125,0.0227508544921875
1782969307611965000,5.23796484375,0.1760101318359375,0.1662750244140625,0.0159454345703125
1782969307621891000,5.24789111328125,0.2601165771484375,0.1687469482421875,0.0221099853515625
1782969307631817200,5.257817138671875,0.340179443359375,0.17047119140625,0.0090179443359375
1782969307641742800,5.267742919921875,0.395416259765625,0.1584320068359375,-0.0211944580078125
1782969307651670000,5.277669921875,0.456634521484375,0.13824462890625,-0.060272216796875
1782969307661596200,5.28759619140625,0.533538818359375,0.130706787109375,-0.077789306640625
1782969307671521800,5.297521728515625,0.601531982421875,0.112548828125,-0.0583648681640625
1782969307681448000,5.307447998046875,0.670928955078125,0.0958709716796875,-0.0447998046875
1782969307691375000,5.317375,0.71221923828125,0.0931854248046875,-0.014434814453125
1782969307701301000,5.327301025390625,0.700775146484375,0.0940704345703125,0.0259857177734375
1782969307711227000,5.337226806640625,0.684844970703125,0.0879974365234375,0.04736328125
1782969307721153000,5.347153076171875,0.67486572265625,0.0710296630859375,0.0606231689453125
1782969307731079000,5.357078857421875,0.6428070068359375,0.064117431640625,0.05841064453125
1782969307741005800,5.367005859375,0.5354766845703125,0.071044921875,0.0551910400390625
1782969307750932000,5.376931884765625,0.366851806640625,0.087799072265625,0.0667572021484375
1782969307760858000,5.386858154296875,0.2171783447265625,0.1016693115234375,0.063629150390625
1782969307770784000,5.396783935546875,0.1057891845703125,0.092987060546875,0.0363006591796875
1782969307780711000,5.4067109375,0.0275115966796875,0.064300537109375,-0.0239105224609375
1782969307790637000,5.416636962890625,-0.046051025390625,0.0175628662109375,-0.109893798828125
1782969307800563000,5.42656298828125,-0.1248779296875,-0.0416107177734375,-0.171356201171875
1782969307810488800,5.43648876953125,-0.208770751953125,-0.0871124267578125,-0.2137603759765625
1782969307820416000,5.446416015625,-0.2978515625,-0.11285400390625,-0.2115325927734375
1782969307830342100,5.456342041015625,-0.4121246337890625,-0.120147705078125,-0.1646728515625
1782969307840267800,5.466267822265625,-0.5664825439453125,-0.112091064453125,-0.128631591796875
1782969307850194000,5.47619384765625,-0.74993896484375,-0.1207427978515625,-0.116607666015625
1782969307860120000,5.4861201171875,-0.99371337890625,-0.1729736328125,-0.175201416015625
1782969307870047000,5.496046875,-1.28753662109375,-0.2626800537109375,-0.257965087890625
1782969307879972900,5.505972900390625,-1.53265380859375,-0.338623046875,-0.26409912109375
1782969307889899000,5.51589892578125,-1.714813232421875,-0.35662841796875,-0.2142791748046875
1782969307899825000,5.525824951171875,-1.896270751953125,-0.3685302734375,-0.1904754638671875
1782969307909751800,5.535751708984375,-2.09149169921875,-0.4138946533203125,-0.2211456298828125
1782969307919678000,5.545677978515625,-2.3340911865234375,-0.4649658203125,-0.3016815185546875
1782969307929604000,5.55560400390625,-2.64019775390625,-0.468780517578125,-0.403411865234375
1782969307939530000,5.565530029296875,-2.9803924560546875,-0.440673828125,-0.57843017578125
1782969307949457000,5.575456787109375,-3.363922119140625,-0.3983001708984375,-0.71429443359375
1782969307959383000,5.585383056640625,-3.697235107421875,-0.3016204833984375,-0.7208099365234375
1782969307969309000,5.595308837890625,-3.947967529296875,-0.21026611328125,-0.6761932373046875
1782969307979234800,5.60523486328125,-4.018280029296875,-0.0652313232421875,-0.6694793701171875
1782969307989162000,5.615161865234375,-3.739013671875,-0.0779876708984375,-0.5646209716796875
1782969307999088000,5.625088134765625,-3.239044189453125,-0.160614013671875,-0.4860687255859375
1782969308009014000,5.635013916015625,-2.7052001953125,-0.2175750732421875,-0.46820068359375
1782969308018940000,5.64493994140625,-2.287933349609375,-0.259521484375,-0.42327880859375
1782969308028866000,5.654865966796875,-1.986602783203125,-0.2610626220703125,-0.367645263671875
1782969308038793000,5.66479296875,-1.7829132080078125,-0.2351226806640625,-0.3219451904296875
1782969308048718800,5.67471875,-1.640777587890625,-0.1986236572265625,-0.26953125
1782969308058645000,5.68464501953125,-1.482574462890625,-0.15478515625,-0.2211761474609375
1782969308068571000,5.69457080078125,-1.3035430908203125,-0.12139892578125,-0.192352294921875
1782969308078497800,5.704497802734375,-1.1361846923828125,-0.0888671875,-0.165557861328125
1782969308088424000,5.714423828125,-0.942108154296875,-0.0688934326171875,-0.154296875
1782969308098350000,5.72435009765625,-0.73004150390625,-0.05712890625,-0.1587982177734375
1782969308108276000,5.73427587890625,-0.5121002197265625,-0.0441131591796875,-0.1542205810546875
1782969308118203000,5.744202880859375,-0.3183441162109375,-0.041015625,-0.139984130859375
1782969308128129000,5.75412890625,-0.1384735107421875,-0.02838134765625,-0.1101531982421875
1782969308138055000,5.764054931640625,0.0092926025390625,0.003936767578125,-0.0633392333984375
1782969308147981000,5.77398095703125,0.1071624755859375,0.040374755859375,-0.028533935546875
1782969308157908000,5.783907958984375,0.172088623046875,0.0699005126953125,-0.0117950439453125
1782969308167834000,5.793834228515625,0.232879638671875,0.099273681640625,-0.010711669921875
1782969308177760000,5.803760009765625,0.3092193603515625,0.13287353515625,-0.005035400390625
1782969308187686000,5.813685791015625,0.3894805908203125,0.1357421875,-0.0218048095703125
1782969308197612000,5.823612060546875,0.482818603515625,0.141571044921875,-0.00531005859375
1782969308207539000,5.8335390625,0.61895751953125,0.1196746826171875,0.0206756591796875
1782969308217464800,5.84346484375,0.814422607421875,0.0619659423828125,0.0563201904296875
1782969308227391000,5.853390869140625,1.0378265380859375,-0.00823974609375,0.083892822265625
1782969308237316900,5.86331689453125,1.198486328125,-0.06243896484375,0.0599517822265625
1782969308247243800,5.873243896484375,1.229095458984375,-0.0752716064453125,0.0392303466796875
1782969308257170000,5.883169921875,1.1189422607421875,-0.0813140869140625,0.0154266357421875
1782969308267096000,5.893095947265625,0.8723297119140625,-0.072021484375,-0.0335235595703125
1782969308277022000,5.90302197265625,0.5689697265625,-0.03564453125,-0.0516815185546875
1782969308286948900,5.912948974609375,0.320587158203125,0.019134521484375,-0.0271148681640625
1782969308296875000,5.922875,0.16815185546875,0.0740509033203125,-0.006103515625
1782969308306801000,5.93280078125,0.0696258544921875,0.0846710205078125,-0.02685546875
1782969308316727000,5.94272705078125,-0.035186767578125,0.0561370849609375,-0.0683441162109375
1782969308326653000,5.95265283203125,-0.096038818359375,0.0105133056640625,-0.1200408935546875
1782969308336580000,5.962580078125,-0.1106414794921875,-0.0484771728515625,-0.1829833984375
1782969308346506000,5.972506103515625,-0.1532135009765625,-0.1100006103515625,-0.2284698486328125
1782969308356432000,5.982431884765625,-0.2577972412109375,-0.1376800537109375,-0.23016357421875
1782969308366358000,5.99235791015625,-0.371673583984375,-0.154937744140625,-0.2624664306640625
1782969308376285000,6.002284912109375,-0.575286865234375,-0.152191162109375,-0.34332275390625
1782969308386210800,6.0122109375,-0.9066009521484375,-0.151763916015625,-0.3523406982421875
1782969308396137000,6.022136962890625,-1.295989990234375,-0.076080322265625,-0.246856689453125
1782969308406062800,6.032062744140625,-1.66632080078125,0.0677337646484375,-0.12994384765625
1782969308415989800,6.04198974609375,-2.0086212158203125,0.0988922119140625,-0.1094512939453125
1782969308425916000,6.051916015625,-2.30474853515625,0.052215576171875,-0.185150146484375
1782969308435842000,6.061842041015625,-2.545135498046875,-0.0175018310546875,-0.37109375
1782969308445768000,6.071767822265625,-2.7909698486328125,-0.095489501953125,-0.6941680908203125
1782969308455694800,6.08169482421875,-3.2895355224609375,-0.084197998046875,-1.09967041015625
1782969308465621000,6.09162109375,-3.9124908447265625,-0.0292205810546875,-1.4888916015625
1782969308475547000,6.101546875,-4.357757568359375,-0.0687255859375,-1.7743988037109375
1782969308485473000,6.11147314453125,-4.5460662841796875,-0.0469818115234375,-1.97296142578125
1782969308495399000,6.12139892578125,-4.2490692138671875,-0.06158447265625,-1.820037841796875
1782969308505326000,6.131326171875,-3.5239715576171875,-0.1280670166015625,-1.4384002685546875
1782969308515252000,6.141251953125,-2.7348785400390625,-0.11297607421875,-1.1300811767578125
1782969308525177900,6.151177734375,-2.111602783203125,-0.1237640380859375,-0.8739776611328125
1782969308535104000,6.16110400390625,-1.7486572265625,-0.1469268798828125,-0.7083587646484375
1782969308545031200,6.17103125,-1.5696258544921875,-0.1649169921875,-0.595672607421875
1782969308554956800,6.180956787109375,-1.4451141357421875,-0.1464385986328125,-0.4911346435546875
1782969308564883000,6.190883056640625,-1.3472442626953125,-0.075531005859375,-0.38616943359375
1782969308574808800,6.200808837890625,-1.251739501953125,-0.0056304931640625,-0.2970733642578125
1782969308584735700,6.21073583984375,-1.15777587890625,0.037384033203125,-0.246856689453125
1782969308594662000,6.220661865234375,-1.1047515869140625,0.073760986328125,-0.21551513671875
1782969308604588000,6.230588134765625,-1.0260162353515625,0.11639404296875,-0.1947784423828125
1782969308614514000,6.240513916015625,-0.902679443359375,0.14251708984375,-0.183197021484375
1782969308624440800,6.25044091796875,-0.7520294189453125,0.1530609130859375,-0.1595458984375
1782969308634367000,6.260366943359375,-0.5827178955078125,0.1573944091796875,-0.1130523681640625
1782969308644293000,6.270293212890625,-0.406890869140625,0.1603240966796875,-0.049652099609375
1782969308654219000,6.280218994140625,-0.2336883544921875,0.1551666259765625,-0.0080413818359375
1782969308664145000,6.290144775390625,-0.06964111328125,0.1443023681640625,0.011962890625
1782969308674072000,6.300072021484375,0.0756072998046875,0.1158905029296875,0.0088348388671875
1782969308683998000,6.309998046875,0.224151611328125,0.0805511474609375,0.0454254150390625
1782969308693923800,6.319923828125,0.407989501953125,0.0514984130859375,0.106170654296875
1782969308703850000,6.32985009765625,0.576446533203125,0.0230255126953125,0.1454620361328125
1782969308713777200,6.339777099609375,0.7123565673828125,-0.013214111328125,0.171051025390625
1782969308723702800,6.349702880859375,0.8186492919921875,-0.0455322265625,0.1642608642578125
1782969308733628400,6.35962841796875,0.8657379150390625,-0.0609283447265625,0.1633148193359375
1782969308743554300,6.36955419921875,0.83935546875,-0.0718994140625,0.144744873046875
1782969308753481500,6.3794814453125,0.748687744140625,-0.0752410888671875,0.093719482421875
1782969308763407400,6.389407470703125,0.62786865234375,-0.07476806640625,0.0626983642578125
1782969308773333500,6.39933349609375,0.51373291015625,-0.0808563232421875,0.0107574462890625
1782969308783259400,6.40925927734375,0.4115753173828125,-0.087799072265625,-0.036834716796875
1782969308793186300,6.419186279296875,0.3318328857421875,-0.10107421875,-0.0742034912109375
1782969308803112400,6.429112548828125,0.2465667724609375,-0.0915679931640625,-0.0675506591796875
1782969308813038300,6.439038330078125,0.1154022216796875,-0.0422515869140625,-0.0266571044921875
1782969308822964500,6.448964599609375,-0.0348052978515625,-0.0001983642578125,-0.03564453125
1782969308832890600,6.458890625,-0.1174774169921875,-0.028076171875,-0.0634765625
1782969308842817500,6.468817626953125,-0.1661529541015625,-0.063507080078125,-0.0424041748046875
1782969308852743400,6.478743408203125,-0.1388702392578125,-0.0826263427734375,-0.0338592529296875
1782969308862669600,6.488669677734375,-0.1378173828125,-0.1136474609375,-0.0374908447265625
1782969308872595500,6.498595458984375,-0.3013916015625,-0.103515625,-0.057037353515625
1782969308882522400,6.5085224609375,-0.6317138671875,-0.0453948974609375,-0.097076416015625
1782969308892448500,6.518448486328125,-1.0243072509765625,-0.011444091796875,-0.1360626220703125
1782969308902374400,6.52837451171875,-1.3695526123046875,-0.012939453125,-0.197967529296875
1782969308912300300,6.53830029296875,-1.6165924072265625,-0.047760009765625,-0.275787353515625
1782969308922227500,6.5482275390625,-1.8220672607421875,-0.085723876953125,-0.3729248046875
1782969308932153300,6.5581533203125,-2.05084228515625,-0.118560791015625,-0.52899169921875
1782969308942079500,6.56807958984375,-2.4634552001953125,-0.1020660400390625,-0.6949310302734375
1782969308952005400,6.57800537109375,-3.066314697265625,-0.02618408203125,-0.837249755859375
1782969308961931500,6.587931640625,-3.644012451171875,0.0554656982421875,-0.955413818359375
1782969308971858400,6.5978583984375,-4.0941619873046875,0.09857177734375,-0.948883056640625
1782969308981784300,6.607784423828125,-4.3354339599609375,0.2187347412109375,-1.016571044921875
1782969308991710500,6.61771044921875,-4.21282958984375,0.228515625,-1.036041259765625
1782969309001636600,6.62763671875,-3.73870849609375,0.0881805419921875,-0.874969482421875
1782969309011563500,6.6375634765625,-3.1451568603515625,0.06298828125,-0.763519287109375
1782969309021489400,6.647489501953125,-2.5793914794921875,-0.004058837890625,-0.6647796630859375
1782969309031415600,6.65741552734375,-2.202789306640625,-0.079803466796875,-0.614166259765625
1782969309041341400,6.667341552734375,-2.0527801513671875,-0.109832763671875,-0.5727691650390625
1782969309051268400,6.677268310546875,-2.0377349853515625,-0.0601654052734375,-0.4970703125
1782969309061194500,6.687194580078125,-2.06805419921875,0.04742431640625,-0.3897247314453125
1782969309071120400,6.697120361328125,-2.0575714111328125,0.173736572265625,-0.2898712158203125
1782969309081046300,6.70704638671875,-1.93927001953125,0.2636566162109375,-0.224853515625
1782969309090973400,6.716973388671875,-1.71563720703125,0.3001861572265625,-0.2067718505859375
1782969309100899600,6.726899658203125,-1.42108154296875,0.2978363037109375,-0.2134857177734375
1782969309110825500,6.736825439453125,-1.10809326171875,0.2638702392578125,-0.2551116943359375
1782969309120751400,6.74675146484375,-0.775482177734375,0.2164154052734375,-0.2493896484375
1782969309130677500,6.756677490234375,-0.413909912109375,0.1777801513671875,-0.188323974609375
1782969309140604400,6.7666044921875,-0.0757598876953125,0.15081787109375,-0.131683349609375
1782969309150530300,6.7765302734375,0.17315673828125,0.1190643310546875,-0.0933990478515625
1782969309160456400,6.78645654296875,0.326568603515625,0.081207275390625,-0.046142578125
1782969309170382600,6.796382568359375,0.425018310546875,0.0472259521484375,-0.0247955322265625
1782969309180309500,6.8063095703125,0.50299072265625,0.0420989990234375,-0.025970458984375
1782969309190235400,6.8162353515625,0.54388427734375,0.0411376953125,-0.0128173828125
1782969309200161500,6.82616162109375,0.56890869140625,0.017669677734375,-0.034759521484375
1782969309210087400,6.83608740234375,0.625732421875,0.004608154296875,-0.0640411376953125
1782969309220014600,6.8460146484375,0.6976470947265625,0.0001678466796875,-0.0695343017578125
1782969309229940500,6.8559404296875,0.7512359619140625,0.0047454833984375,-0.074005126953125
1782969309239866400,6.865866455078125,0.7903594970703125,0.0116729736328125,-0.08636474609375
1782969309249792300,6.875792236328125,0.8287811279296875,0.0156402587890625,-0.07293701171875
1782969309259719400,6.885719482421875,0.89019775390625,0.01995849609375,-0.054962158203125
1782969309269645600,6.8956455078125,0.9290618896484375,0.0352630615234375,-0.048736572265625
1782969309279571500,6.905571533203125,0.89996337890625,0.0525665283203125,-0.0426483154296875
1782969309289497300,6.915497314453125,0.8089141845703125,0.06561279296875,-0.0418853759765625
1782969309299423500,6.925423583984375,0.68792724609375,0.09027099609375,-0.05572509765625
1782969309309350400,6.935350341796875,0.5583648681640625,0.1096038818359375,-0.075653076171875
1782969309319276500,6.945276611328125,0.4064788818359375,0.1210174560546875,-0.0930633544921875
1782969309329202400,6.955202392578125,0.2399139404296875,0.139678955078125,-0.1055450439453125
1782969309339128600,6.965128662109375,0.0735931396484375,0.1576385498046875,-0.1348114013671875
1782969309349055500,6.975055419921875,-0.0776214599609375,0.14886474609375,-0.20501708984375
1782969309358981400,6.9849814453125,-0.2093505859375,0.1194915771484375,-0.2812957763671875
1782969309368907500,6.994907470703125,-0.3292999267578125,0.0722808837890625,-0.3883209228515625
1782969309378833400,7.00483349609375,-0.47576904296875,0.0066986083984375,-0.4968719482421875
1782969309388760600,7.014760498046875,-0.6179351806640625,-0.045013427734375,-0.5485382080078125
1782969309398686500,7.0246865234375,-0.7498321533203125,-0.08184814453125,-0.5313262939453125
1782969309408612600,7.034612548828125,-0.9482879638671875,-0.0952911376953125,-0.4251708984375
1782969309418538500,7.04453857421875,-1.2911224365234375,-0.0345306396484375,-0.25018310546875
1782969309428465400,7.05446533203125,-1.76470947265625,0.1080780029296875,-0.104248046875
1782969309438391600,7.0643916015625,-2.369232177734375,0.224822998046875,-0.0845947265625
1782969309448317400,7.0743173828125,-2.9752197265625,0.23089599609375,-0.167022705078125
1782969309458243300,7.084243408203125,-3.4205322265625,0.17431640625,-0.32421875
1782969309468169500,7.09416943359375,-3.67022705078125,0.071075439453125,-0.52825927734375
1782969309478096400,7.104096435546875,-3.9227142333984375,-0.03033447265625,-0.7616424560546875
1782969309488022500,7.1140224609375,-4.17242431640625,-0.06536865234375,-0.9189453125
1782969309497948400,7.123948486328125,-4.3050079345703125,-0.0314483642578125,-0.952423095703125
1782969309507874600,7.13387451171875,-4.2513275146484375,0.0311431884765625,-0.87744140625
1782969309517801500,7.143801513671875,-3.9119415283203125,0.057037353515625,-0.75347900390625
1782969309527727400,7.153727294921875,-3.38494873046875,0.039642333984375,-0.63714599609375
1782969309537653500,7.163653564453125,-2.820953369140625,-0.0144195556640625,-0.5727691650390625
1782969309547579600,7.17357958984375,-2.346649169921875,-0.090728759765625,-0.5464935302734375
1782969309557506600,7.183506591796875,-2.0332183837890625,-0.1338958740234375,-0.5188751220703125
1782969309567432400,7.193432373046875,-1.8236846923828125,-0.1061248779296875,-0.4685821533203125
1782969309577358600,7.203358642578125,-1.6259613037109375,-0.0425262451171875,-0.3827972412109375
1782969309587284500,7.213284423828125,-1.422210693359375,0.0150299072265625,-0.3013458251953125
1782969309597211400,7.22321142578125,-1.2383270263671875,0.035980224609375,-0.25390625
1782969309607137500,7.233137451171875,-1.07861328125,0.045440673828125,-0.22149658203125
1782969309617063400,7.2430634765625,-0.9699859619140625,0.05926513671875,-0.2024078369140625
1782969309626989300,7.2529892578125,-0.87921142578125,0.0731048583984375,-0.197845458984375
1782969309636915500,7.26291552734375,-0.7757110595703125,0.09197998046875,-0.18682861328125
1782969309646842400,7.27284228515625,-0.6381072998046875,0.1078643798828125,-0.16851806640625
1782969309656768500,7.2827685546875,-0.4590606689453125,0.1171875,-0.1370849609375
1782969309666694400,7.2926943359375,-0.242462158203125,0.1028289794921875,-0.092315673828125
1782969309676620500,7.30262060546875,-0.0506744384765625,0.082183837890625,-0.041900634765625
1782969309686547500,7.31254736328125,0.10345458984375,0.060272216796875,0.0086212158203125
1782969309696473300,7.322473388671875,0.2566070556640625,0.0466156005859375,0.04522705078125
1782969309706399500,7.3323994140625,0.387420654296875,0.0371246337890625,0.0498199462890625
1782969309716325600,7.34232568359375,0.50958251953125,0.01318359375,0.030059814453125
1782969309726252500,7.35225244140625,0.6241302490234375,-0.0193939208984375,-0.001129150390625
1782969309736178400,7.362178466796875,0.7060089111328125,-0.035125732421875,-0.0252227783203125
1782969309746104600,7.3721044921875,0.7535247802734375,-0.048492431640625,-0.03741455078125
1782969309756030500,7.382030517578125,0.78656005859375,-0.0670623779296875,-0.049072265625
1782969309765957600,7.39195751953125,0.79473876953125,-0.0694427490234375,-0.0447998046875
1782969309775883500,7.401883544921875,0.7876739501953125,-0.08331298828125,-0.0658416748046875
1782969309785809400,7.411809326171875,0.7482757568359375,-0.0936737060546875,-0.076629638671875
1782969309795735600,7.421735595703125,0.668212890625,-0.068817138671875,-0.0684661865234375
1782969309805661400,7.431661376953125,0.542572021484375,-0.0218505859375,-0.038543701171875
1782969309815588400,7.44158837890625,0.400909423828125,0.0198974609375,-0.0078887939453125
1782969309825514500,7.451514404296875,0.2787017822265625,0.0472869873046875,-0.0008544921875
1782969309835440400,7.4614404296875,0.1613922119140625,0.0594635009765625,-0.007415771484375
1782969309845366500,7.471366455078125,0.0688629150390625,0.0736083984375,-0.022735595703125
1782969309855293400,7.48129345703125,-0.0063934326171875,0.0740966796875,-0.0501556396484375
1782969309865219600,7.491219482421875,-0.0597686767578125,0.05609130859375,-0.10430908203125
1782969309875145500,7.5011455078125,-0.103424072265625,0.0203704833984375,-0.1823883056640625
1782969309885071600,7.511071533203125,-0.1747283935546875,-0.03240966796875,-0.2880859375
1782969309894998500,7.52099853515625,-0.3217620849609375,-0.0948028564453125,-0.39935302734375
1782969309904924400,7.53092431640625,-0.569580078125,-0.1508941650390625,-0.4770355224609375
1782969309914850600,7.5408505859375,-0.848358154296875,-0.1465301513671875,-0.436004638671875
1782969309924776400,7.5507763671875,-1.0957489013671875,-0.0556488037109375,-0.3059844970703125
1782969309934702300,7.560702392578125,-1.371124267578125,0.053253173828125,-0.1949462890625
1782969309944629500,7.57062939453125,-1.792022705078125,0.1556243896484375,-0.1832427978515625
1782969309954555400,7.580555419921875,-2.332489013671875,0.200775146484375,-0.3237762451171875
1782969309964481500,7.5904814453125,-2.951629638671875,0.1203460693359375,-0.61083984375
1782969309974407400,7.600407470703125,-3.5663299560546875,0.076568603515625,-0.6939849853515625
1782969309984334600,7.61033447265625,-4.1166839599609375,0.0130767822265625,-0.99517822265625
1782969309994260500,7.620260498046875,-4.4304656982421875,-0.0569915771484375,-1.274566650390625
1782969310004186400,7.630186279296875,-4.4949798583984375,-0.1358489990234375,-1.509735107421875
1782969310014112500,7.640112548828125,-4.2474517822265625,-0.1901092529296875,-1.5800628662109375
1782969310024039400,7.650039306640625,-3.747528076171875,-0.2235870361328125,-1.4682464599609375
1782969310033965600,7.659965576171875,-3.196075439453125,-0.1901092529296875,-1.2176666259765625
1782969310043891500,7.669891357421875,-2.656280517578125,-0.1212921142578125,-0.900482177734375
1782969310053817600,7.679817626953125,-2.209075927734375,-0.09100341796875,-0.6395721435546875
1782969310063744500,7.68974462890625,-1.9217529296875,-0.080596923828125,-0.48858642578125
1782969310073670400,7.69967041015625,-1.7333984375,-0.0679473876953125,-0.410003662109375
1782969310083596500,7.709596435546875,-1.54791259765625,-0.01690673828125,-0.3399810791015625
1782969310093522400,7.7195224609375,-1.3726043701171875,0.0577545166015625,-0.3006134033203125
1782969310103448300,7.7294482421875,-1.2048187255859375,0.100616455078125,-0.266571044921875
1782969310113375500,7.73937548828125,-1.0172882080078125,0.1286773681640625,-0.2382049560546875
1782969310123301600,7.749301513671875,-0.8161468505859375,0.147918701171875,-0.2132110595703125
1782969310133227500,7.7592275390625,-0.5983428955078125,0.1472015380859375,-0.18017578125
1782969310143153400,7.7691533203125,-0.393707275390625,0.1468048095703125,-0.1279296875
1782969310153080600,7.77908056640625,-0.2060394287109375,0.1373138427734375,-0.0695037841796875
1782969310163006500,7.78900634765625,-0.04864501953125,0.125274658203125,-0.016845703125
1782969310172932400,7.798932373046875,0.0724639892578125,0.1076202392578125,0.01861572265625
1782969310182858500,7.8088583984375,0.18280029296875,0.0644989013671875,0.050506591796875
1782969310192785400,7.818785400390625,0.254547119140625,0.0147857666015625,0.0720672607421875
1782969310202711600,7.828711669921875,0.3562469482421875,0.024322509765625,0.0767059326171875
1782969310212637400,7.838637451171875,0.6453094482421875,0.0491485595703125,0.1175689697265625
1782969310222563600,7.8485634765625,0.781494140625,-0.0108489990234375,0.04827880859375
1782969310232489500,7.858489501953125,0.823333740234375,-0.0634613037109375,-0.061187744140625
1782969310242416400,7.86841650390625,0.8706512451171875,-0.0730438232421875,-0.024627685546875
1782969310252342500,7.878342529296875,0.901397705078125,-0.0533905029296875,0.0093231201171875
1782969310262268400,7.888268310546875,0.8803253173828125,-0.0480194091796875,-0.005096435546875
1782969310272194300,7.8981943359375,0.810272216796875,-0.05230712890625,-0.03106689453125
1782969310282121500,7.90812158203125,0.6838836669921875,-0.0447235107421875,-0.0336151123046875
1782969310292047600,7.918047607421875,0.541900634765625,-0.0294647216796875,-0.0267333984375
1782969310301973500,7.927973388671875,0.3630523681640625,-0.0045013427734375,-0.0299835205078125
1782969310311899400,7.9378994140625,0.2052459716796875,0.01385498046875,-0.05035400390625
1782969310321826600,7.94782666015625,0.10784912109375,0.009429931640625,-0.067047119140625
1782969310331752400,7.95775244140625,0.0428314208984375,0.002166748046875,-0.0923004150390625
1782969310341678300,7.96767822265625,-0.004302978515625,-0.014923095703125,-0.1483154296875
1782969310351604500,7.9776044921875,-0.0772247314453125,-0.0478515625,-0.224365234375
1782969310361531400,7.987531494140625,-0.1872711181640625,-0.07452392578125,-0.2676849365234375
1782969310371457500,7.99745751953125,-0.29803466796875,-0.0783233642578125,-0.31146240234375
1782969310381383400,8.007383544921876,-0.4224090576171875,-0.0865936279296875,-0.3200836181640625
1782969310391309600,8.0173095703125,-0.5696868896484375,-0.107757568359375,-0.263214111328125
1782969310401235500,8.0272353515625,-0.7852935791015625,-0.1014556884765625,-0.169891357421875
1782969310411162600,8.03716259765625,-1.1112060546875,-0.036163330078125,-0.1192779541015625
1782969310421088500,8.047088623046875,-1.567291259765625,0.0363006591796875,-0.1215667724609375
1782969310431014700,8.0570146484375,-2.0937652587890625,0.0907135009765625,-0.1194305419921875
1782969310440940300,8.066940185546875,-2.5621337890625,0.14166259765625,-0.159942626953125
1782969310450867500,8.076867431640625,-2.907196044921875,0.148590087890625,-0.259307861328125
1782969310460793600,8.086793701171874,-3.149627685546875,0.0836334228515625,-0.45556640625
1782969310470719500,8.096719482421875,-3.32513427734375,-0.035003662109375,-0.740631103515625
1782969310480645400,8.106645263671876,-3.5307159423828125,-0.1500701904296875,-1.00762939453125
1782969310490572500,8.116572509765625,-3.736968994140625,-0.19287109375,-1.2324371337890625
1782969310500498400,8.12649853515625,-3.8933868408203125,-0.19415283203125,-1.3625640869140625
1782969310510424600,8.136424560546875,-3.8989410400390625,-0.1600341796875,-1.3287353515625
1782969310520350500,8.1463505859375,-3.6657257080078125,-0.1092987060546875,-1.189544677734375
1782969310530276600,8.156276611328124,-3.2539825439453125,-0.0977325439453125,-1.0294036865234375
1782969310540203500,8.16620361328125,-2.7908172607421875,-0.1093902587890625,-0.897857666015625
1782969310550129400,8.17612939453125,-2.4095306396484375,-0.1150970458984375,-0.8031768798828125
1782969310560055600,8.1860556640625,-2.1236572265625,-0.097930908203125,-0.69683837890625
1782969310569981700,8.195981689453125,-1.87469482421875,-0.0567779541015625,-0.58795166015625
1782969310579908600,8.20590869140625,-1.6686248779296875,-0.0211029052734375,-0.4933624267578125
1782969310589834500,8.21583447265625,-1.5013580322265625,0.0297698974609375,-0.3952789306640625
1782969310599760600,8.2257607421875,-1.3622894287109375,0.0907135009765625,-0.3275604248046875
1782969310609686500,8.2356865234375,-1.2360382080078125,0.123870849609375,-0.2952728271484375
1782969310619613400,8.245613525390626,-1.07177734375,0.1325836181640625,-0.247406005859375
1782969310629539600,8.25553955078125,-0.88818359375,0.157196044921875,-0.2138214111328125
1782969310639465500,8.265465576171875,-0.691131591796875,0.163299560546875,-0.19195556640625
1782969310649391400,8.275391357421874,-0.45550537109375,0.144622802734375,-0.182586669921875
1782969310659318500,8.285318603515625,-0.21917724609375,0.1272430419921875,-0.17974853515625
1782969310669244400,8.295244384765626,-0.022430419921875,0.110748291015625,-0.165374755859375
1782969310679170600,8.305170654296875,0.1595916748046875,0.090667724609375,-0.123504638671875
1782969310689096400,8.315096435546875,0.3736572265625,0.0678863525390625,-0.0716705322265625
1782969310699022600,8.325022705078124,0.581329345703125,0.0468902587890625,-0.0151824951171875
1782969310708949500,8.334949462890625,0.7628173828125,0.0388031005859375,0.027252197265625
1782969310718875400,8.34487548828125,0.9009857177734375,0.04638671875,0.050506591796875
1782969310728801500,8.354801513671875,0.9925537109375,0.0558624267578125,0.0484619140625
1782969310738727700,8.364727783203126,1.061798095703125,0.038543701171875,0.0222320556640625
1782969310748654300,8.374654296875,1.105712890625,0.028411865234375,0.025909423828125
1782969310758581500,8.38458154296875,1.1252593994140625,0.0319366455078125,0.026092529296875
1782969310768508400,8.39450830078125,1.11419677734375,0.02203369140625,0.0466766357421875
1782969310778434600,8.4044345703125,1.056488037109375,0.013519287109375,0.0376434326171875
1782969310788360400,8.4143603515625,0.9266357421875,0.0197296142578125,0.0076904296875
1782969310798286300,8.424286376953125,0.7518463134765625,0.0260162353515625,-0.0102386474609375
1782969310808213500,8.434213623046874,0.569427490234375,0.0445404052734375,-0.0170135498046875
1782969310818139600,8.4441396484375,0.374664306640625,0.0738372802734375,-0.0131683349609375
1782969310828065300,8.454065185546876,0.1842193603515625,0.094818115234375,-0.0090484619140625
1782969310837991400,8.463991455078125,0.05322265625,0.0950775146484375,-0.013824462890625
1782969310847918600,8.473918701171876,-0.0030517578125,0.07745361328125,-0.04547119140625
1782969310857844500,8.483844482421874,-0.04156494140625,0.038177490234375,-0.118377685546875
1782969310867770400,8.493770263671875,-0.109466552734375,-0.02984619140625,-0.2330169677734375
1782969310877696500,8.503696533203126,-0.2254638671875,-0.102630615234375,-0.3569793701171875
1782969310887622400,8.513622314453125,-0.3672027587890625,-0.1547698974609375,-0.4437408447265625
1782969310897549300,8.52354931640625,-0.5429229736328125,-0.171051025390625,-0.467864990234375
1782969310907475500,8.533475341796875,-0.7734222412109375,-0.174774169921875,-0.444366455078125
1782969310917401600,8.543401611328125,-1.062652587890625,-0.1654205322265625,-0.3834228515625
1782969310927327500,8.553327392578124,-1.3909454345703125,-0.1410369873046875,-0.293365478515625
1782969310937254400,8.56325439453125,-1.857147216796875,-0.0834503173828125,-0.2394561767578125
1782969310947180500,8.5731806640625,-2.456787109375,-0.011810302734375,-0.20599365234375
1782969310957106400,8.5831064453125,-2.9790191650390625,0.036163330078125,-0.1640777587890625
1782969310967032300,8.5930322265625,-3.2761688232421875,0.0293426513671875,-0.1664581298828125
1782969310976959500,8.60295947265625,-3.395965576171875,-0.0721282958984375,-0.3292083740234375
1782969310986885600,8.6128857421875,-3.554473876953125,-0.2054595947265625,-0.6448822021484375
1782969310996811300,8.622811279296876,-3.788055419921875,-0.30511474609375,-0.9941864013671875
1782969311006737400,8.6327373046875,-3.9519805908203125,-0.376495361328125,-1.263458251953125
1782969311016664600,8.64266455078125,-3.9416351318359375,-0.398681640625,-1.33636474609375
1782969311026590500,8.652590576171875,-3.679107666015625,-0.345703125,-1.207916259765625
1782969311036516400,8.662516357421875,-3.21673583984375,-0.28802490234375,-0.96453857421875
1782969311046442500,8.6724423828125,-2.7205963134765625,-0.244537353515625,-0.7221832275390625
1782969311056368400,8.682368408203125,-2.3047027587890625,-0.22412109375,-0.5486907958984375
1782969311066295300,8.69229541015625,-2.0407257080078125,-0.2264862060546875,-0.4669189453125
1782969311076221400,8.702221435546875,-1.8594512939453125,-0.2340087890625,-0.4401397705078125
1782969311086147600,8.712147705078126,-1.6979522705078125,-0.208099365234375,-0.41278076171875
1782969311096073500,8.722073486328124,-1.5722808837890625,-0.1448974609375,-0.3928375244140625
1782969311106000400,8.73200048828125,-1.45880126953125,-0.0886383056640625,-0.3919525146484375
1782969311115926500,8.741926513671874,-1.341949462890625,-0.0303955078125,-0.372314453125
1782969311125852400,8.751852294921875,-1.1746826171875,0.02294921875,-0.3199462890625
1782969311135778300,8.7617783203125,-0.93994140625,0.0518646240234375,-0.2875213623046875
1782969311145705500,8.77170556640625,-0.73956298828125,0.0632171630859375,-0.2645416259765625
1782969311155631600,8.781631591796875,-0.5807952880859375,0.07000732421875,-0.23248291015625
1782969311165557500,8.7915576171875,-0.4195098876953125,0.0839385986328125,-0.2019500732421875
1782969311175483400,8.8014833984375,-0.2515716552734375,0.10162353515625,-0.14813232421875
1782969311185410600,8.81141064453125,-0.0538177490234375,0.09600830078125,-0.090423583984375
1782969311195336400,8.82133642578125,0.14068603515625,0.0790252685546875,-0.0308380126953125
1782969311205262300,8.831262451171876,0.324371337890625,0.0716094970703125,0.0139617919921875
1782969311215188500,8.8411884765625,0.4937286376953125,0.0468902587890625,0.0414581298828125
1782969311225114400,8.8511142578125,0.6638336181640625,0.0311431884765625,0.076568603515625
1782969311235041300,8.861041259765624,0.83477783203125,0.031524658203125,0.1016845703125
1782969311244967400,8.870967529296875,0.994964599609375,0.0277862548828125,0.11492919921875
1782969311254893600,8.8808935546875,1.115875244140625,0.023651123046875,0.126220703125
1782969311264819500,8.8908193359375,1.1601715087890625,-0.0061187744140625,0.10784912109375
1782969311274746400,8.900746337890626,1.1480712890625,-0.0493316650390625,0.06787109375
1782969311284672500,8.910672607421875,1.058502197265625,-0.061004638671875,0.046356201171875
1782969311294598400,8.920598388671875,0.8948516845703125,-0.0503997802734375,0.0240020751953125
1782969311304524500,8.930524658203124,0.732025146484375,-0.04986572265625,-0.01153564453125
1782969311314451500,8.940451416015625,0.5588531494140625,-0.0442352294921875,-0.0267333984375
1782969311324377600,8.950377685546876,0.3820648193359375,-0.028228759765625,-0.0148162841796875
1782969311334303500,8.960303466796875,0.23236083984375,-0.0090179443359375,0.0164794921875
1782969311344229400,8.9702294921875,0.11566162109375,0.007293701171875,0.051605224609375
1782969311354155500,8.980155517578124,0.0481719970703125,-0.0023193359375,0.0675201416015625
1782969311364082400,8.99008251953125,0.018768310546875,-0.029022216796875,0.0528564453125
1782969311374008300,9.00000830078125,-0.0110321044921875,-0.072723388671875,0.007598876953125
1782969311383934500,9.0099345703125,-0.0729217529296875,-0.1428070068359375,-0.0706787109375
1782969311393860400,9.0198603515625,-0.247039794921875,-0.1839752197265625,-0.14862060546875
1782969311403787300,9.029787353515625,-0.96728515625,-0.1470489501953125,-0.2882537841796875
1782969311413713400,9.03971337890625,-1.83172607421875,-0.2050323486328125,-0.1897735595703125
1782969311423639600,9.0496396484375,-2.7117919921875,0.049041748046875,-0.0248565673828125
1782969311433565400,9.0595654296875,-2.9099273681640625,0.1009979248046875,-0.0535736083984375
1782969311443492400,9.069492431640626,-3.029815673828125,-0.167144775390625,-0.031768798828125
1782969311453418500,9.07941845703125,-3.107574462890625,-0.2211761474609375,-0.3222808837890625
1782969311463344400,9.089344482421875,-3.1073455810546875,-0.408233642578125,-0.514862060546875
1782969311473270500,9.0992705078125,-3.032135009765625,-0.538726806640625,-0.7098541259765625
1782969311483197400,9.109197509765625,-3.08477783203125,-0.4953460693359375,-0.8105621337890625
1782969311493123600,9.11912353515625,-3.1791229248046875,-0.3232269287109375,-0.744720458984375
1782969311503049500,9.129049560546875,-3.1092529296875,-0.1441497802734375,-0.648529052734375
1782969311512975400,9.138975341796876,-2.9074554443359375,-0.050079345703125,-0.5814056396484375
1782969311522901500,9.148901611328125,-2.6423492431640625,0.006561279296875,-0.546112060546875
1782969311532828700,9.15882861328125,-2.365447998046875,0.0283050537109375,-0.537384033203125
1782969311542754300,9.16875439453125,-2.08807373046875,0.0263519287109375,-0.535369873046875
1782969311552680400,9.178680419921875,-1.844512939453125,0.048583984375,-0.47930908203125
1782969311562606600,9.188606689453126,-1.5686798095703125,0.0389556884765625,-0.4444122314453125
1782969311572533200,9.198533203125,-1.371337890625,0.0214691162109375,-0.4025115966796875
1782969311582459400,9.20845947265625,-1.217864990234375,0.01580810546875,-0.36376953125
1782969311592385500,9.218385498046874,-1.1271820068359375,0.012359619140625,-0.3237457275390625
1782969311602311400,9.2283115234375,-1.0536956787109375,0.0081329345703125,-0.2820587158203125
1782969311612238300,9.23823828125,-0.9438934326171875,0.007354736328125,-0.242401123046875
1782969311622164500,9.24816455078125,-0.8463897705078125,0.010345458984375,-0.195404052734375
1782969311632090600,9.258090576171876,-0.7674560546875,0.0028076171875,-0.1613311767578125
1782969311642016500,9.2680166015625,-0.674652099609375,-0.0247802734375,-0.155670166015625
1782969311651943400,9.277943359375,-0.56781005859375,-0.0374755859375,-0.1300506591796875
1782969311661869600,9.28786962890625,-0.4455718994140625,-0.0161895751953125,-0.0677947998046875
1782969311671795500,9.29779541015625,-0.3137054443359375,-0.02838134765625,-0.0363006591796875
1782969311681721300,9.307721435546876,-0.2057037353515625,-0.0641937255859375,-0.0109100341796875
1782969311691647500,9.3176474609375,-0.095611572265625,-0.0785675048828125,0.0145263671875
1782969311701574700,9.32757470703125,0.0152435302734375,-0.09503173828125,0.0319671630859375
1782969311711500300,9.337500244140625,0.1466827392578125,-0.121917724609375,0.066009521484375
1782969311721426400,9.347426513671875,0.3331756591796875,-0.16375732421875,0.095733642578125
1782969311731353000,9.35735302734375,0.500213623046875,-0.19561767578125,0.112152099609375
1782969311741279700,9.36727978515625,0.5982208251953125,-0.2081756591796875,0.1299591064453125
1782969311751206000,9.377205810546876,0.641448974609375,-0.2127685546875,0.129119873046875
1782969311761132000,9.387132080078125,0.654205322265625,-0.2209014892578125,0.11126708984375
1782969311771058000,9.397057861328125,0.6302947998046875,-0.203704833984375,0.127777099609375
1782969311780984800,9.40698486328125,0.56939697265625,-0.15301513671875,0.131378173828125
1782969311790911000,9.416910888671875,0.463836669921875,-0.1053924560546875,0.147979736328125
1782969311800837000,9.426837158203124,0.3466339111328125,-0.0616302490234375,0.1475982666015625
1782969311810763000,9.436762939453125,0.1830902099609375,-0.03131103515625,0.1203460693359375
1782969311820689000,9.44668896484375,0.02105712890625,-0.0122528076171875,0.07012939453125
1782969311830616000,9.456615966796875,-0.1474456787109375,-0.009033203125,0.0128936767578125
1782969311840542000,9.4665419921875,-0.3396148681640625,-0.034881591796875,-0.044189453125
1782969311850467800,9.4764677734375,-0.57794189453125,-0.079833984375,-0.1267242431640625
1782969311860394000,9.48639404296875,-0.8860626220703125,-0.113555908203125,-0.178802490234375
1782969311870321200,9.496321044921874,-1.262298583984375,-0.1257171630859375,-0.1747589111328125
1782969311880246800,9.506246826171875,-1.5987548828125,-0.072845458984375,-0.1029052734375
1782969311890173000,9.5161728515625,-1.85980224609375,-0.0153961181640625,-0.0336456298828125
1782969311900099000,9.52609912109375,-2.139190673828125,0.0145416259765625,0.0228729248046875
1782969311910026000,9.53602587890625,-2.3827667236328125,0.0376129150390625,0.0178985595703125
1782969311919952000,9.545951904296874,-2.6815948486328125,0.03228759765625,-0.0570526123046875
1782969311929878000,9.5558779296875,-2.937164306640625,0.0399932861328125,-0.1127777099609375
1782969311939804000,9.565803955078126,-3.0016937255859375,0.0249786376953125,-0.183013916015625
1782969311949729800,9.575729736328125,-2.9276275634765625,-0.029327392578125,-0.2965087890625
1782969311959657000,9.585656982421876,-2.811981201171875,-0.049896240234375,-0.4118499755859375
1782969311969583000,9.5955830078125,-2.6807098388671875,-0.044891357421875,-0.4837799072265625
1782969311979509000,9.605509033203125,-2.49444580078125,-0.051239013671875,-0.5130615234375
1782969311989435000,9.615434814453126,-2.2401580810546875,-0.066436767578125,-0.499908447265625
1782969311999362000,9.625362060546875,-1.9381256103515625,-0.0855560302734375,-0.47314453125
1782969312009288200,9.6352880859375,-1.6361083984375,-0.08966064453125,-0.41241455078125
1782969312019213800,9.6452138671875,-1.3985595703125,-0.0796356201171875,-0.3352508544921875
1782969312029140000,9.655139892578125,-1.2173919677734375,-0.1112060546875,-0.2956390380859375
1782969312039067100,9.665067138671875,-1.0625457763671875,-0.1438446044921875,-0.26678466796875
1782969312048992800,9.67499267578125,-0.937835693359375,-0.14788818359375,-0.20477294921875
1782969312058919000,9.6849189453125,-0.8299407958984375,-0.1337432861328125,-0.1293792724609375
1782969312068845000,9.694844970703125,-0.7433013916015625,-0.114532470703125,-0.059967041015625
1782969312078772000,9.70477197265625,-0.68438720703125,-0.100830078125,-0.0147247314453125
1782969312088697900,9.71469775390625,-0.6227569580078125,-0.1016845703125,0.003265380859375
1782969312098624000,9.7246240234375,-0.5720367431640625,-0.1070098876953125,0.0058746337890625
1782969312108550100,9.734550048828124,-0.520660400390625,-0.12664794921875,-0.0193328857421875
1782969312118476000,9.74447607421875,-0.456298828125,-0.1669158935546875,-0.0563201904296875
1782969312128403000,9.75440283203125,-0.414520263671875,-0.1808624267578125,-0.0637664794921875
1782969312138329000,9.7643291015625,-0.3888397216796875,-0.1854095458984375,-0.0501861572265625
1782969312148255000,9.7742548828125,-0.348358154296875,-0.1963348388671875,-0.04376220703125
1782969312158180900,9.784180908203124,-0.325836181640625,-0.1969451904296875,-0.0306243896484375
1782969312168108000,9.79410791015625,-0.329925537109375,-0.182037353515625,0.0084991455078125
1782969312178034200,9.8040341796875,-0.3392333984375,-0.161468505859375,0.038726806640625
1782969312187959800,9.813959716796875,-0.3570404052734375,-0.1441497802734375,0.0559844970703125
1782969312197886000,9.823885986328126,-0.3831787109375,-0.1232147216796875,0.0623931884765625
1782969312207813000,9.833813232421875,-0.416961669921875,-0.117340087890625,0.0569000244140625
1782969312217738800,9.84373876953125,-0.4656829833984375,-0.11962890625,0.03515625
1782969312227665000,9.853664794921874,-0.5198211669921875,-0.1343231201171875,-0.0120849609375
1782969312237591000,9.863591064453125,-0.5429534912109375,-0.1450347900390625,-0.046966552734375
1782969312247517000,9.873516845703126,-0.534423828125,-0.1442108154296875,-0.0575103759765625
1782969312257443800,9.88344384765625,-0.5312652587890625,-0.1333160400390625,-0.0508270263671875
1782969312267370000,9.893369873046876,-0.4912872314453125,-0.1055450439453125,-0.04669189453125
1782969312277296000,9.903296142578125,-0.5335693359375,-0.13525390625,-0.0386199951171875
1782969312287222000,9.913221923828125,-0.5729827880859375,-0.132659912109375,-0.0543975830078125
1782969312297149000,9.92314892578125,-0.692108154296875,-0.1168975830078125,-0.066009521484375
1782969312307075000,9.933074951171875,-0.836639404296875,-0.134185791015625,-0.0802764892578125
1782969312317001000,9.9430009765625,-0.95501708984375,-0.145294189453125,-0.0978546142578125
1782969312326926800,9.9529267578125,-1.041412353515625,-0.148223876953125,-0.0880584716796875
1782969312336854000,9.96285400390625,-1.1007080078125,-0.1391754150390625,-0.0617218017578125
