time,seconds_elapsed,z,y,x
1782969302419303400,0.045303466796875,0.0285916980355978,0.07893103361129761,-0.7078397274017334
1782969302429229300,0.055229248046875,-0.018095646053552628,0.30067408084869385,-0.5474290251731873
1782969302439156200,0.06515625,0.013144563883543015,0.4550143778324127,-0.4111126959323883
1782969302449082400,0.075082275390625,-0.030302245169878006,0.7068439722061157,-0.21757254004478455
1782969302459008500,0.085008544921875,-0.058281149715185165,0.8662362694740295,-0.0022386531345546246
1782969302468934400,0.094934326171875,-0.01817900314927101,0.8774463534355164,0.1960504651069641
1782969302478858500,0.1048583984375,0.03648637235164642,0.7991206049919128,0.5012940168380737
1782969302488784400,0.114784423828125,0.11359979957342148,0.5943139791488647,0.9527066946029663
1782969302498711300,0.124711181640625,0.19490504264831543,0.43728092312812805,1.3914430141448975
1782969302508637400,0.134637451171875,0.26024195551872253,0.2813462018966675,1.619952917098999
1782969302518563300,0.144563232421875,0.3005976378917694,0.07761143893003464,1.7145401239395142
1782969302528489500,0.154489501953125,0.31989356875419617,-0.08779430389404297,1.755922794342041
1782969302538416400,0.16441650390625,0.3358813226222992,-0.1666765958070755,1.7917108535766602
1782969302548342500,0.174342529296875,0.34638163447380066,-0.22436466813087463,1.823549509048462
1782969302558268400,0.184268310546875,0.3574571907520294,-0.22906726598739624,1.8580962419509888
1782969302568194300,0.1941943359375,0.36345356702804565,-0.16566939651966095,1.9021375179290771
1782969302578121500,0.20412158203125,0.3923792243003845,-0.06100849434733391,1.9363188743591309
1782969302588047400,0.21404736328125,0.3678280711174011,0.011437743902206421,1.942937970161438
1782969302597973200,0.22397314453125,0.3264361619949341,-0.03139680624008179,1.8776146173477173
1782969302607899400,0.2338994140625,0.2573646903038025,-0.09623492509126663,1.755468726158142
1782969302617826600,0.24382666015625,0.14025405049324036,-0.15627002716064453,1.5656968355178833
1782969302627752200,0.253752197265625,0.005653358530253172,-0.2324042171239853,1.4022387266159058
1782969302637678300,0.26367822265625,-0.10373704880475998,-0.44914957880973816,1.3156650066375732
1782969302647604500,0.2736044921875,-0.15690359473228455,-0.6766626238822937,1.2710967063903809
1782969302657531100,0.28353125,-0.15690040588378906,-0.7623785734176636,1.1898367404937744
1782969302667457300,0.293457275390625,-0.1205061748623848,-0.6713035702705383,1.0215398073196411
1782969302677383400,0.303383544921875,-0.052383314818143845,-0.47825899720191956,0.7940582036972046
1782969302687309300,0.313309326171875,0.0133877107873559,-0.2806148827075958,0.5602151155471802
1782969302697235500,0.3232353515625,0.04945090785622597,-0.12522263824939728,0.36382216215133667
1782969302707162400,0.333162353515625,0.0724337175488472,-0.024521321058273315,0.21386834979057312
1782969302717088500,0.343088623046875,0.12102255970239639,0.029703833162784576,0.06590364873409271
1782969302727014400,0.353014404296875,0.1646784245967865,0.0688357874751091,-0.06190944090485573
1782969302736940000,0.36293994140625,0.17661204934120178,0.135668084025383,-0.17814870178699493
1782969302746867200,0.3728671875,0.17737478017807007,0.19888167083263397,-0.3497990071773529
1782969302756793300,0.38279345703125,0.189015194773674,0.25604164600372314,-0.5624555945396423
1782969302766719000,0.392718994140625,0.1500539481639862,0.2589561939239502,-0.7639729976654053
1782969302776645000,0.40264501953125,0.02110981196165085,0.2288169413805008,-0.8964027166366577
1782969302786572300,0.412572265625,-0.09584876149892807,0.297193318605423,-1.030653715133667
1782969302796498200,0.422498291015625,-0.13598713278770447,0.49089089035987854,-1.2130144834518433
1782969302806424000,0.432424072265625,-0.09518803656101227,0.7260677218437195,-1.4528508186340332
1782969302816350200,0.44235009765625,0.0037377465050667524,0.8380837440490723,-1.6570340394973755
1782969302826277400,0.45227734375,0.0687369853258133,0.9158259630203247,-1.8466212749481201
1782969302836203000,0.462203125,0.09882937371730804,0.8493587374687195,-2.0132148265838623
1782969302846129200,0.472129150390625,0.12037594616413116,0.7383443713188171,-2.127683639526367
1782969302856058000,0.48205810546875,0.1411864161491394,0.6459909677505493,-2.1861307621002197
1782969302865984300,0.491984375,0.10780929028987885,0.5953166484832764,-2.219167709350586
1782969302875910400,0.501910400390625,-0.020305005833506584,0.5730257034301758,-2.304335355758667
1782969302885836000,0.5118359375,-0.1757875382900238,0.5720192790031433,-2.4307444095611572
1782969302895763200,0.52176318359375,-0.28852900862693787,0.6358613967895508,-2.546325206756592
1782969302905689300,0.531689453125,-0.42393794655799866,0.9074942469596863,-2.539824962615967
1782969302915615200,0.541615234375,-0.5526487827301025,0.8724417090415955,-2.3941988945007324
1782969302925541000,0.551541015625,-0.800226628780365,0.8788447380065918,-2.2269139289855957
1782969302935468300,0.56146826171875,-0.9181919097900391,0.9027956128120422,-2.0183098316192627
1782969302945394200,0.571394287109375,-0.5406467318534851,0.6790770292282104,-1.6169039011001587
1782969302955320000,0.581320068359375,-0.2648513615131378,0.17294062674045563,-0.7995307445526123
1782969302965246200,0.59124609375,-0.13368801772594452,-0.2996538281440735,0.20497338473796844
1782969302975173000,0.601173095703125,0.08119259029626846,-0.4776046574115753,1.0216737985610962
1782969302985099300,0.611099365234375,0.31823548674583435,-0.36600542068481445,1.4081709384918213
1782969302995025200,0.621025146484375,0.35303395986557007,-0.2798050045967102,1.586553931236267
1782969303004951300,0.630951416015625,0.2204250544309616,-0.3496552109718323,1.6637324094772339
1782969303014878200,0.640878173828125,0.125299870967865,-0.3594290018081665,1.7162411212921143
1782969303024804000,0.65080419921875,0.03760649636387825,-0.3687482178211212,1.6599701642990112
1782969303034730200,0.660730224609375,-0.05421050637960434,-0.5158790946006775,1.668668508529663
1782969303044656400,0.670656494140625,-0.03310655429959297,-0.8575128316879272,1.9177467823028564
1782969303054583300,0.680583251953125,-0.02743162401020527,-1.0459320545196533,2.2352254390716553
1782969303064509200,0.69050927734375,-0.006839530076831579,-1.066873550415039,2.2379140853881836
1782969303074435300,0.700435302734375,0.022792929783463478,-1.091620683670044,2.113330602645874
1782969303084361200,0.710361328125,-0.006727677304297686,-1.0150779485702515,2.027637004852295
1782969303094287000,0.720287109375,-0.021869612857699394,-0.8080843091011047,1.9787763357162476
1782969303104214300,0.73021435546875,-0.021273063495755196,-0.5796106457710266,1.9265503883361816
1782969303114140200,0.74014013671875,-0.06492307037115097,-0.29510167241096497,1.8248906135559082
1782969303124066000,0.750066162109375,-0.18060040473937988,-0.012998889200389385,1.6197060346603394
1782969303133992200,0.7599921875,-0.28103700280189514,0.34580081701278687,1.324534296989441
1782969303143919000,0.769919189453125,-0.3439760208129883,0.6555155515670776,1.1265554428100586
1782969303153845200,0.77984521484375,-0.4026411771774292,0.7231518030166626,0.8923056721687317
1782969303163771100,0.789771240234375,-0.3786833882331848,0.8167065382003784,0.6408771872520447
1782969303173697300,0.799697265625,-0.3108755946159363,0.8916388154029846,0.41216224431991577
1782969303183624200,0.809624267578125,-0.2393966019153595,0.7483900785446167,0.32598423957824707
1782969303193550000,0.819550048828125,-0.21404358744621277,0.49465155601501465,0.3303443491458893
1782969303203476200,0.829476318359375,-0.21084699034690857,0.33917540311813354,0.19432340562343597
1782969303213402400,0.83940234375,-0.19538015127182007,0.1732119917869568,0.04128032922744751
1782969303223329300,0.849329345703125,-0.23151472210884094,0.0368240624666214,-0.17761020362377167
1782969303233255200,0.859255126953125,-0.3539745807647705,-0.24145816266536713,-0.37737178802490234
1782969303243181300,0.869181396484375,-0.7068162560462952,-0.6830001473426819,-0.47322747111320496
1782969303253107200,0.879107177734375,-0.6003659963607788,-0.28773990273475647,-0.7659906148910522
1782969303263034000,0.8890341796875,-0.3751896023750305,-0.30053427815437317,-1.2657066583633423
1782969303272960300,0.898960205078125,-0.3062765598297119,-0.43284517526626587,-1.4503588676452637
1782969303282886100,0.90888623046875,-0.15004515647888184,-0.6600087881088257,-1.5652306079864502
1782969303292812000,0.91881201171875,-0.04586708918213844,-0.7422938346862793,-1.6557785272598267
1782969303302739200,0.9287392578125,0.0417674221098423,-0.8644514083862305,-1.71444833278656
1782969303312665300,0.938665283203125,0.12460824102163315,-1.1406852006912231,-1.8426709175109863
1782969303322591200,0.94859130859375,0.04699653759598732,-1.3949224948883057,-2.052690029144287
1782969303332517000,0.95851708984375,0.1424008160829544,-1.424950122833252,-2.3317081928253174
1782969303342443300,0.968443359375,0.37756115198135376,-1.1956983804702759,-2.7099640369415283
1782969303352370200,0.9783701171875,0.6039146780967712,-0.7630223035812378,-3.067579984664917
1782969303362296000,0.988296142578125,0.6339665651321411,-0.6090415120124817,-3.398660659790039
1782969303372222200,0.99822216796875,0.4049602746963501,-0.8540331721305847,-3.527353286743164
1782969303382148400,1.0081484375,0.11200855672359467,-1.6379282474517822,-3.096099615097046
1782969303392075300,1.0180751953125,-0.15821866691112518,-2.768561840057373,-2.1724343299865723
1782969303402001200,1.028001220703125,-0.36011797189712524,-3.265944480895996,-1.0511051416397095
1782969303411927300,1.03792724609375,-0.3462897539138794,-3.368495225906372,0.010187390260398388
1782969303421853200,1.047853271484375,-0.1521218866109848,-3.251910448074341,0.5028354525566101
1782969303431780000,1.057780029296875,0.09832897037267685,-2.795121431350708,0.32636985182762146
1782969303441706200,1.067706298828125,0.38301849365234375,-2.0709500312805176,-0.2370077520608902
1782969303451632400,1.07763232421875,0.534610390663147,-1.271476149559021,-0.5690922141075134
1782969303461558000,1.08755810546875,0.16899621486663818,-0.13857226073741913,-0.49761006236076355
1782969303471485200,1.097485107421875,-0.26104676723480225,0.8602321743965149,-0.18409313261508942
1782969303481411300,1.107411376953125,-0.3489936888217926,1.589023232460022,0.31018662452697754
1782969303491337200,1.117337158203125,-0.24822525680065155,2.0340940952301025,0.8135251402854919
1782969303501263000,1.12726318359375,-0.19559825956821442,2.0103654861450195,1.0656846761703491
1782969303511190300,1.137190185546875,-0.29381829500198364,1.8817187547683716,1.1801308393478394
1782969303521116200,1.1471162109375,-0.36356621980667114,1.662108063697815,1.3720712661743164
1782969303531042000,1.1570419921875,-0.4448853135108948,1.4809942245483398,1.6088895797729492
1782969303540968200,1.16696826171875,-0.4686487019062042,1.5351070165634155,1.8528889417648315
1782969303550895000,1.17689501953125,-0.5125080347061157,1.5091688632965088,1.971855640411377
1782969303560821200,1.1868212890625,-0.6549477577209473,1.5739260911941528,1.9859540462493896
1782969303570747100,1.1967470703125,-0.800075888633728,1.7696417570114136,2.0522780418395996
1782969303580673300,1.20667333984375,-0.779231071472168,2.110720157623291,2.2156083583831787
1782969303590600200,1.21660009765625,-0.6354411244392395,2.338827133178711,2.381025791168213
1782969303600526000,1.226526123046875,-0.45381036400794983,2.510915517807007,2.4684154987335205
1782969303610452200,1.2364521484375,-0.2856184244155884,2.4976820945739746,2.511713743209839
1782969303620378400,1.24637841796875,-0.17237550020217896,2.3204455375671387,2.539304733276367
1782969303630304000,1.256303955078125,-0.11329859495162964,1.9198181629180908,2.516616106033325
1782969303640231200,1.266231201171875,-0.10577835887670517,1.4080921411514282,2.397198438644409
1782969303650157300,1.2761572265625,-0.1471172720193863,0.9205077886581421,2.1469438076019287
1782969303660083200,1.286083251953125,-0.17266738414764404,0.5848040580749512,1.7565031051635742
1782969303670009000,1.296009033203125,-0.1765310913324356,0.42662960290908813,1.2889763116836548
1782969303679936300,1.305936279296875,-0.16434898972511292,0.49648138880729675,0.8345747590065002
1782969303689862100,1.315862060546875,-0.13860288262367249,0.7190215587615967,0.4241259694099426
1782969303699788000,1.3257880859375,-0.1375482678413391,0.9788379073143005,0.10993955284357071
1782969303709714200,1.335714111328125,-0.10968122631311417,1.2553560733795166,-0.04923279210925102
1782969303719641000,1.34564111328125,-0.06554359197616577,1.4137572050094604,-0.14135046303272247
1782969303729568000,1.355568115234375,0.012165586464107037,1.2885440587997437,-0.2511371672153473
1782969303739494100,1.365494140625,0.10495784133672714,0.8907386660575867,-0.4411395788192749
1782969303749420300,1.375420166015625,0.1792999804019928,0.25279176235198975,-0.7129066586494446
1782969303759347000,1.385346923828125,0.1665559560060501,-0.46657782793045044,-1.0038570165634155
1782969303769273000,1.395273193359375,0.11598972231149673,-1.1722761392593384,-1.1882745027542114
1782969303779199200,1.40519921875,-0.02532852627336979,-1.7150640487670898,-1.2214710712432861
1782969303789124900,1.415124755859375,-0.02484169974923134,-2.111724853515625,-1.2445260286331177
1782969303799051000,1.425051025390625,0.09739286452531815,-2.3437066078186035,-1.2072029113769531
1782969303808978200,1.434978271484375,0.2511368989944458,-2.3775463104248047,-1.296591877937317
1782969303818904000,1.444904052734375,0.3295123875141144,-2.1872103214263916,-1.517805814743042
1782969303828830000,1.454829833984375,0.39218083024024963,-1.878618836402893,-1.8989337682724
1782969303838756000,1.464756103515625,0.43220946192741394,-1.4901916980743408,-2.2617383003234863
1782969303848683000,1.47468310546875,0.457307368516922,-1.0920960903167725,-2.6042678356170654
1782969303858609000,1.48460888671875,0.5690006017684937,-0.856338381767273,-2.743001937866211
1782969303868535000,1.49453515625,0.5775365829467773,-0.6552382707595825,-2.692744731903076
1782969303878461200,1.504461181640625,0.5031057596206665,-0.5160407423973083,-2.547131299972534
1782969303888388000,1.51438818359375,0.4723275899887085,-0.5339057445526123,-2.3551840782165527
1782969303898314000,1.52431396484375,0.5022301077842712,-0.845719039440155,-2.1733953952789307
1782969303908240100,1.534240234375,0.5782141089439392,-1.3824405670166016,-2.033630847930908
1782969303918166300,1.544166259765625,0.7504590749740601,-2.113543748855591,-1.8513259887695312
1782969303928093200,1.55409326171875,0.9674326777458191,-2.9508187770843506,-1.6880640983581543
1782969303938019000,1.56401904296875,1.082899570465088,-3.58127498626709,-1.566087007522583
1782969303947945200,1.5739453125,0.9972915053367615,-3.833066701889038,-1.3157850503921509
1782969303957870800,1.583870849609375,0.7300946712493896,-3.533579111099243,-0.8695042729377747
1782969303967798000,1.593798095703125,0.3996898829936981,-2.483964681625366,-0.2741125226020813
1782969303977724200,1.60372412109375,0.14896924793720245,-0.8902790546417236,0.23263271152973175
1782969303987650000,1.613650146484375,0.009002549573779106,0.7442983984947205,0.636884331703186
1782969303997576000,1.623575927734375,-0.07949056476354599,2.001922845840454,0.8903355002403259
1782969304007502000,1.633502197265625,-0.2041826993227005,2.760831356048584,1.0529224872589111
1782969304017429000,1.643428955078125,-0.3478682339191437,2.9914090633392334,1.1796314716339111
1782969304027355100,1.653355224609375,-0.4943689703941345,2.7520253658294678,1.2323048114776611
1782969304037281000,1.663281005859375,-0.6737424731254578,2.308598041534424,1.2848840951919556
1782969304047207200,1.673207275390625,-0.7950832843780518,1.8412201404571533,1.400802493095398
1782969304057134000,1.683134033203125,-0.8135451078414917,1.4903600215911865,1.5824692249298096
1782969304067060000,1.69306005859375,-0.7193804979324341,1.4144299030303955,1.8558698892593384
1782969304076986000,1.702986083984375,-0.6090061068534851,1.555530309677124,2.154900550842285
1782969304086912300,1.712912353515625,-0.5185185074806213,1.7955577373504639,2.355111598968506
1782969304096839200,1.722839111328125,-0.4934062361717224,2.0021047592163086,2.4313530921936035
1782969304106765000,1.73276513671875,-0.5060498714447021,2.1234233379364014,2.4220120906829834
1782969304116691200,1.742691162109375,-0.5610233545303345,2.1552627086639404,2.372506856918335
1782969304126617000,1.7526171875,-0.6099618673324585,2.0794689655303955,2.3108558654785156
1782969304136544000,1.7625439453125,-0.6152395009994507,1.8129820823669434,2.2039120197296143
1782969304146470100,1.77247021484375,-0.5333448648452759,1.4150301218032837,2.038137435913086
1782969304156396000,1.78239599609375,-0.4285455048084259,0.9946488738059998,1.8475182056427002
1782969304166322000,1.792322021484375,-0.32562682032585144,0.6277499198913574,1.6494925022125244
1782969304176249000,1.8022490234375,-0.24866867065429688,0.35102033615112305,1.4220187664031982
1782969304186175200,1.81217529296875,-0.21568861603736877,0.20895054936408997,1.1740942001342773
1782969304196101000,1.82210107421875,-0.22060108184814453,0.21956750750541687,0.9447627663612366
1782969304206027000,1.832027099609375,-0.24267150461673737,0.3300122618675232,0.7337509393692017
1782969304215953200,1.841953125,-0.2726943790912628,0.43806684017181396,0.5103008151054382
1782969304225880000,1.851880126953125,-0.28636491298675537,0.4614989161491394,0.23439864814281464
1782969304235806000,1.861805908203125,-0.28099703788757324,0.3820517659187317,-0.09143564105033875
1782969304245732000,1.871732177734375,-0.2650332748889923,0.17598727345466614,-0.4674034118652344
1782969304255658200,1.881658203125,-0.26894357800483704,-0.1804499328136444,-0.8506296277046204
1782969304265585200,1.891585205078125,-0.275559663772583,-0.6316240429878235,-1.167091727256775
1782969304275511000,1.901510986328125,-0.2765581011772156,-1.1561610698699951,-1.3926383256912231
1782969304285437200,1.911437255859375,-0.245671808719635,-1.7366611957550049,-1.485975980758667
1782969304295363000,1.921363037109375,-0.19469864666461945,-2.2809455394744873,-1.4200395345687866
1782969304305290000,1.9312900390625,-0.12245960533618927,-2.660247802734375,-1.2349216938018799
1782969304315216100,1.941216064453125,-0.05165307596325874,-2.8381333351135254,-1.032968521118164
1782969304325142300,1.951142333984375,-0.02610830031335354,-2.823500871658325,-0.9452962279319763
1782969304335068000,1.96106787109375,-0.03985100984573364,-2.607907295227051,-1.0515155792236328
1782969304344995000,1.9709951171875,-0.0623435340821743,-2.2453908920288086,-1.3903812170028687
1782969304354921200,1.980921142578125,-0.09371130913496017,-1.9070627689361572,-1.8590244054794312
1782969304364847000,1.99084716796875,-0.21574720740318298,-1.7553983926773071,-2.265195369720459
1782969304374773000,2.00077294921875,-0.4061459004878998,-1.7884085178375244,-2.4558308124542236
1782969304384700200,2.0107001953125,-0.5006103515625,-1.8521113395690918,-2.457977056503296
1782969304394626000,2.0206259765625,-0.2793285846710205,-2.107909679412842,-2.3621256351470947
1782969304404552000,2.030552001953125,-0.09850287437438965,-2.438080072402954,-2.0395913124084473
1782969304414478000,2.04047802734375,-0.23479892313480377,-2.967017650604248,-1.2388322353363037
1782969304424404200,2.050404296875,-0.17169825732707977,-3.7920148372650146,-0.4521844983100891
1782969304434331100,2.0603310546875,0.26232457160949707,-4.287205696105957,0.2575218081474304
1782969304444257000,2.070257080078125,0.6810320615768433,-4.243691444396973,0.6961390972137451
1782969304454183200,2.08018310546875,0.9678401350975037,-3.861947774887085,0.8035449385643005
1782969304464109000,2.090109130859375,0.9423643350601196,-3.0828182697296143,0.5779762864112854
1782969304474036000,2.100035888671875,0.7374103665351868,-1.7887747287750244,0.21429285407066345
1782969304483962000,2.109962158203125,0.481737345457077,-0.22273507714271545,-0.1109161302447319
1782969304493888300,2.11988818359375,0.22898684442043304,1.398359775543213,-0.22222667932510376
1782969304503814000,2.12981396484375,0.030641797930002213,2.6959228515625,-0.0949302390217781
1782969304513741000,2.139740966796875,0.030314229428768158,3.476724863052368,0.13365153968334198
1782969304523667200,2.149667236328125,0.16426190733909607,3.7273051738739014,0.3368925452232361
1782969304533593000,2.159593017578125,0.5784558653831482,3.6954002380371094,0.4450554847717285
1782969304543519000,2.16951904296875,1.0470167398452759,3.323951244354248,0.5949059724807739
1782969304553445000,2.179445068359375,1.4570308923721313,2.918527364730835,0.7880775928497314
1782969304563372000,2.1893720703125,1.6378240585327148,2.706636667251587,1.0434776544570923
1782969304573298000,2.1992978515625,1.3873761892318726,2.753706693649292,1.3188447952270508
1782969304583224000,2.20922412109375,0.744189441204071,2.884779214859009,1.6558672189712524
1782969304593150200,2.219150146484375,-0.10882049053907394,3.06168794631958,2.241849899291992
1782969304603077000,2.2290771484375,-0.30449146032333374,2.683706045150757,2.639915704727173
1782969304613003000,2.2390029296875,-0.14311081171035767,2.3897182941436768,2.8479936122894287
1782969304622929200,2.24892919921875,0.005776662845164537,2.0547640323638916,2.9212968349456787
1782969304632855300,2.258855224609375,0.3034861087799072,1.6688107252120972,2.833319902420044
1782969304642782000,2.268781982421875,0.4984896779060364,1.343868613243103,2.691201686859131
1782969304652708000,2.2787080078125,0.528850793838501,1.0826356410980225,2.523782968521118
1782969304662634200,2.28863427734375,0.4497711658477783,0.9588674306869507,2.3072285652160645
1782969304672559900,2.298559814453125,0.30889686942100525,0.9717733860015869,2.0282864570617676
1782969304682487000,2.308487060546875,0.17692656815052032,1.158872127532959,1.6459829807281494
1782969304692413200,2.3184130859375,0.02274392731487751,1.3951717615127563,1.2043973207473755
1782969304702339000,2.328339111328125,-0.14437662065029144,1.5153272151947021,0.7847228050231934
1782969304712265000,2.338264892578125,-0.3091370761394501,1.5199488401412964,0.35754507780075073
1782969304722192100,2.348192138671875,-0.38766783475875854,1.405441164970398,-0.05667766183614731
1782969304732118000,2.358117919921875,-0.410984605550766,1.1806302070617676,-0.42416912317276
1782969304742044000,2.3680439453125,-0.39580193161964417,0.8733988404273987,-0.744256854057312
1782969304751970000,2.377969970703125,-0.34312060475349426,0.5176961421966553,-1.0480694770812988
1782969304761896000,2.38789599609375,-0.27631333470344543,0.14758333563804626,-1.3405433893203735
1782969304771822800,2.39782275390625,-0.23777954280376434,-0.27284005284309387,-1.593514084815979
1782969304781749000,2.4077490234375,-0.27018460631370544,-0.6945399045944214,-1.8231561183929443
1782969304791675000,2.4176748046875,-0.3492565155029297,-1.0690373182296753,-2.010216474533081
1782969304801601000,2.42760107421875,-0.4490654170513153,-1.347687840461731,-2.2064120769500732
1782969304811528000,2.43752783203125,-0.5338367819786072,-1.5058966875076294,-2.4230244159698486
1782969304821454000,2.4474541015625,-0.5608406662940979,-1.5426464080810547,-2.652043104171753
1782969304831380000,2.4573798828125,-0.5294135212898254,-1.4994337558746338,-2.877347946166992
1782969304841305900,2.467305908203125,-0.4605090320110321,-1.4584170579910278,-3.019615650177002
1782969304851233000,2.47723291015625,-0.40919390320777893,-1.4795918464660645,-3.086634874343872
1782969304861159000,2.487158935546875,-0.36739104986190796,-1.5727713108062744,-3.2316384315490723
1782969304871085000,2.4970849609375,-0.3094542622566223,-1.8015110492706299,-3.540264129638672
1782969304881011000,2.507010986328125,-0.26525190472602844,-2.2515921592712402,-3.7648630142211914
1782969304890938000,2.516938232421875,-0.21310988068580627,-3.046322822570801,-3.571957588195801
1782969304900864000,2.526864013671875,-0.06257975846529007,-4.049188613891602,-2.857208728790283
1782969304910790000,2.536789794921875,0.265468955039978,-4.8643083572387695,-1.9914660453796387
1782969304920716000,2.546716064453125,0.5934532284736633,-4.999549388885498,-1.2793354988098145
1782969304930643000,2.556642822265625,0.9473534822463989,-4.231342792510986,-0.8352682590484619
1782969304940568800,2.56656884765625,1.1468210220336914,-2.902111768722534,-0.5358607769012451
1782969304950495000,2.576494873046875,1.0668811798095703,-1.342437744140625,-0.18136367201805115
1782969304960420900,2.5864208984375,0.7773489952087402,0.20473982393741608,0.2782478630542755
1782969304970347000,2.596346923828125,0.4270373582839966,1.3895500898361206,0.74150151014328
1782969304980274000,2.60627392578125,0.15477493405342102,2.112848997116089,1.1239533424377441
1782969304990200000,2.616199951171875,0.01811961457133293,2.465463876724243,1.2867182493209839
1782969305000126000,2.6261259765625,-0.0100198769941926,2.4053494930267334,1.34183669090271
1782969305010051800,2.6360517578125,-0.05799619108438492,2.000304698944092,1.4220588207244873
1782969305019979000,2.64597900390625,-0.14829279482364655,1.4487963914871216,1.6010982990264893
1782969305029905000,2.65590478515625,-0.23345056176185608,1.0256637334823608,1.8315349817276
1782969305039831000,2.6658310546875,-0.29810893535614014,0.8304239511489868,2.022243022918701
1782969305049757000,2.6757568359375,-0.3590148985385895,0.8183379769325256,2.1560521125793457
1782969305059684000,2.68568408203125,-0.43095725774765015,0.9752413034439087,2.2444112300872803
1782969305069610000,2.69560986328125,-0.49634212255477905,1.2415350675582886,2.272758960723877
1782969305079535900,2.705535888671875,-0.5499789714813232,1.563461184501648,2.266378879547119
1782969305089462000,2.7154619140625,-0.5358676910400391,1.8904558420181274,2.213475465774536
1782969305099389000,2.725388916015625,-0.43723031878471375,2.099348306655884,2.12076473236084
1782969305109314800,2.735314697265625,-0.30715301632881165,2.098499059677124,2.0177464485168457
1782969305119241000,2.745240966796875,-0.18258285522460938,1.797864317893982,1.927645206451416
1782969305129166800,2.755166748046875,-0.10652484744787216,1.2486052513122559,1.8572182655334473
1782969305139093000,2.765093017578125,-0.08432313799858093,0.6541938185691833,1.8007863759994507
1782969305149020000,2.77502001953125,-0.0869159922003746,0.18916858732700348,1.6952786445617676
1782969305158946000,2.784946044921875,-0.1072462946176529,-0.04332111030817032,1.4739701747894287
1782969305168872000,2.794871826171875,-0.11936021596193314,-0.07339485734701157,1.1265323162078857
1782969305178798000,2.804798095703125,-0.14107535779476166,0.035587556660175323,0.6935608983039856
1782969305188725000,2.81472509765625,-0.16855040192604065,0.20372676849365234,0.23621226847171783
1782969305198651000,2.82465087890625,-0.20053257048130035,0.3454354405403137,-0.19693569839000702
1782969305208577000,2.834576904296875,-0.20720484852790833,0.4072079658508301,-0.6086196303367615
1782969305218503000,2.8445029296875,-0.17361333966255188,0.36665523052215576,-0.9792224764823914
1782969305228430000,2.85443017578125,-0.16020458936691284,0.23390516638755798,-1.2677645683288574
1782969305238356000,2.86435595703125,-0.16612505912780762,-0.04282549396157265,-1.427107572555542
1782969305248281900,2.87428173828125,-0.149511456489563,-0.4479258358478546,-1.4636757373809814
1782969305258208000,2.8842080078125,-0.0638042762875557,-0.8924646973609924,-1.4007021188735962
1782969305268135200,2.89413525390625,0.05533968657255173,-1.279377818107605,-1.2606645822525024
1782969305278060800,2.904060791015625,0.15231522917747498,-1.554338812828064,-1.0871614217758179
1782969305287987000,2.913987060546875,0.2209414392709732,-1.7109047174453735,-0.9448027014732361
1782969305297912800,2.923912841796875,0.25345197319984436,-1.681495189666748,-0.928219199180603
1782969305307839000,2.9338388671875,0.27120834589004517,-1.441956877708435,-1.1038740873336792
1782969305317766000,2.943765869140625,0.2993374466896057,-1.0801531076431274,-1.4712958335876465
1782969305327692000,2.953692138671875,0.28212568163871765,-0.7240259051322937,-1.9733043909072876
1782969305337618000,2.963617919921875,0.2087915688753128,-0.5125074982643127,-2.452418804168701
1782969305347544000,2.9735439453125,0.08182429522275925,-0.6835711002349854,-2.7536962032318115
1782969305357471000,2.983470947265625,-0.009482983499765396,-1.426215648651123,-2.772758722305298
1782969305367397000,2.993397216796875,0.09204097837209702,-2.486907958984375,-2.5236918926239014
1782969305377323000,3.003322998046875,0.29420074820518494,-3.4951863288879395,-2.1010756492614746
1782969305387249000,3.013248779296875,0.49198439717292786,-4.040277481079102,-1.6078094244003296
1782969305397176000,3.023176025390625,0.6154735684394836,-3.9436070919036865,-1.1438117027282715
1782969305407102000,3.03310205078125,0.6702819466590881,-3.2053656578063965,-0.7322452068328857
1782969305417027800,3.04302783203125,0.6450136303901672,-2.099945306777954,-0.4535829424858093
1782969305426954000,3.0529541015625,0.41607391834259033,-0.7007051110267639,-0.16312101483345032
1782969305436881200,3.062881103515625,0.20891380310058594,0.46410509943962097,0.14456303417682648
1782969305446806800,3.072806884765625,-0.005663211923092604,1.3525882959365845,0.48907727003097534
1782969305456733000,3.08273291015625,-0.14410658180713654,1.917311668395996,0.7467088103294373
1782969305466659000,3.0926591796875,-0.21894486248493195,2.1765472888946533,0.9841203093528748
1782969305476586000,3.1025859375,-0.2842298746109009,1.9704097509384155,1.0953139066696167
1782969305486511900,3.112511962890625,-0.489021897315979,1.319652795791626,0.8811725974082947
1782969305496438000,3.12243798828125,-0.6030986309051514,0.7860863208770752,0.9867011904716492
1782969305506364000,3.132364013671875,-0.7264557480812073,0.3611358404159546,1.015034794807434
1782969305516290000,3.1422900390625,-0.7976316809654236,0.11295957118272781,1.0477468967437744
1782969305526217000,3.152217041015625,-0.8214770555496216,0.08746087551116943,1.0432251691818237
1782969305536143000,3.16214306640625,-0.8469014763832092,0.2635781168937683,0.9552527070045471
1782969305546069000,3.172069091796875,-0.8408409357070923,0.5658154487609863,0.854325532913208
1782969305555995000,3.181994873046875,-0.8106499910354614,0.9157857298851013,0.8267812728881836
1782969305565922000,3.191922119140625,-0.7445743083953857,1.1327718496322632,0.7965549230575562
1782969305575848000,3.201847900390625,-0.7194372415542603,1.1399599313735962,0.6846669912338257
1782969305585773800,3.21177392578125,-0.6541341543197632,1.0567731857299805,0.5918909907341003
1782969305595700000,3.221699951171875,-0.6077695488929749,0.9341615438461304,0.4739478528499603
1782969305605627100,3.231627197265625,-0.6152762174606323,0.9671205282211304,0.6553525328636169
1782969305615553000,3.241552978515625,-0.5833766460418701,0.885094940662384,0.8174706101417542
1782969305625479000,3.25147900390625,-0.5371585488319397,0.8110931515693665,0.8662440180778503
1782969305635405000,3.261405029296875,-0.5012173056602478,0.7322744727134705,0.8839436173439026
1782969305645332000,3.27133203125,-0.44636815786361694,0.6563930511474609,0.8288817405700684
1782969305655257900,3.2812578125,-0.37388119101524353,0.6313108801841736,0.6617148518562317
1782969305665184000,3.29118408203125,-0.29161641001701355,0.6568667888641357,0.4606451094150543
1782969305675110000,3.30110986328125,-0.22479742765426636,0.6732391119003296,0.26178181171417236
1782969305685036000,3.3110361328125,-0.17640060186386108,0.6506432890892029,0.08098272979259491
1782969305694963000,3.320962890625,-0.19044344127178192,0.5282393097877502,-0.07808148860931396
1782969305704889000,3.33088916015625,-0.17864936590194702,0.4260948598384857,-0.17107826471328735
1782969305714815000,3.34081494140625,-0.14905819296836853,0.3087490499019623,-0.22664779424667358
1782969305724740400,3.350740234375,-0.07558796554803848,0.15694648027420044,-0.27475112676620483
1782969305734667300,3.360667236328125,0.041433725506067276,-0.003963849041610956,-0.34050777554512024
1782969305744593400,3.370593505859375,0.15367931127548218,-0.2366950958967209,-0.4157942831516266
1782969305754519600,3.38051953125,0.23721441626548767,-0.4699555039405823,-0.5501320958137512
1782969305764445200,3.390445068359375,0.31494754552841187,-0.709819495677948,-0.7641006112098694
1782969305774372400,3.400372314453125,0.3808983564376831,-0.9306738376617432,-0.9857107400894165
1782969305784298500,3.410298583984375,0.4528353810310364,-1.0745748281478882,-1.1862208843231201
1782969305794224400,3.420224365234375,0.5541361570358276,-1.1790785789489746,-1.2869209051132202
1782969305804150300,3.430150390625,0.6650016903877258,-1.2005388736724854,-1.3218623399734497
1782969305814077400,3.440077392578125,0.7490159273147583,-1.1434156894683838,-1.3430131673812866
1782969305824003600,3.450003662109375,0.7978657484054565,-0.9620155096054077,-1.4024478197097778
1782969305833929200,3.45992919921875,0.7636771202087402,-0.6072121858596802,-1.6169973611831665
1782969305843855400,3.46985546875,0.5194298624992371,-0.13167306780815125,-1.9389402866363525
1782969305853781500,3.479781494140625,0.20974098145961761,0.19577881693840027,-2.2550742626190186
1782969305863708200,3.489708251953125,0.0738459974527359,0.22793063521385193,-2.430122137069702
1782969305873634300,3.49963427734375,0.09909143298864365,-0.15407665073871613,-2.56561279296875
1782969305883560400,3.509560546875,0.25835883617401123,-0.7855568528175354,-2.6708006858825684
1782969305893486300,3.519486328125,0.4725930988788605,-1.4138869047164917,-2.4092469215393066
1782969305903413200,3.529413330078125,0.5819350481033325,-1.875174880027771,-1.6473523378372192
1782969305913339400,3.53933935546875,0.47984328866004944,-2.0357859134674072,-0.46738502383232117
1782969305923265500,3.549265625,0.25693032145500183,-1.7752448320388794,0.7766686081886292
1782969305933191400,3.55919140625,0.027968518435955048,-1.1564496755599976,1.7065163850784302
1782969305943118300,3.569118408203125,-0.08632024377584457,-0.36204981803894043,2.082613468170166
1782969305953044500,3.57904443359375,-0.024623055011034012,0.43977975845336914,1.986007571220398
1782969305962970400,3.588970458984375,0.16709071397781372,1.0847523212432861,1.8264826536178589
1782969305972896300,3.598896240234375,0.2088586688041687,1.4426122903823853,1.6947057247161865
1782969305982823400,3.608823486328125,0.12074931710958481,1.584675669670105,1.6104683876037598
1782969305992749600,3.61874951171875,-0.03886404260993004,1.5805860757827759,1.5965440273284912
1782969306002675200,3.62867529296875,-0.137947216629982,1.5017884969711304,1.7019530534744263
1782969306012601300,3.638601318359375,-0.16551493108272552,1.4065442085266113,1.875556468963623
1782969306022527500,3.648527587890625,-0.17510603368282318,1.3512485027313232,2.0208957195281982
1782969306032454100,3.6584541015625,-0.16545633971691132,1.3122483491897583,2.0750014781951904
1782969306042380300,3.66838037109375,-0.16987505555152893,1.2787154912948608,2.0492537021636963
1782969306052306400,3.678306396484375,-0.1868276745080948,1.331969141960144,2.0141334533691406
1782969306062232300,3.688232421875,-0.20616860687732697,1.3930816650390625,1.9777132272720337
1782969306072159200,3.6981591796875,-0.21679116785526276,1.4168858528137207,1.926134705543518
1782969306082085400,3.70808544921875,-0.24226535856723785,1.3590880632400513,1.8960212469100952
1782969306092011500,3.718011474609375,-0.243936225771904,1.2511740922927856,1.8575798273086548
1782969306101937400,3.7279375,-0.23681627213954926,1.1236233711242676,1.8006141185760498
1782969306111864300,3.7378642578125,-0.23563170433044434,0.9939857125282288,1.7008816003799438
1782969306121790500,3.74779052734375,-0.2637735903263092,0.8863751292228699,1.545143961906433
1782969306131716600,3.757716552734375,-0.29476267099380493,0.7982470989227295,1.3323661088943481
1782969306141642200,3.767642333984375,-0.34458082914352417,0.7165535688400269,1.062105655670166
1782969306151569400,3.7775693359375,-0.4281902313232422,0.6007859706878662,0.7970824837684631
1782969306161495600,3.78749560546875,-0.514872133731842,0.45827516913414,0.5818191766738892
1782969306171421200,3.797421142578125,-0.5745338797569275,0.28512150049209595,0.39924219250679016
1782969306181347300,3.807347412109375,-0.5957363247871399,0.07527957111597061,0.20125721395015717
1782969306191274500,3.8172744140625,-0.5832296013832092,-0.17839503288269043,-0.04273761063814163
1782969306201200400,3.827200439453125,-0.5509198904037476,-0.4408160150051117,-0.32612085342407227
1782969306211126300,3.837126220703125,-0.5056368112564087,-0.6284924149513245,-0.5953584313392639
1782969306221052400,3.847052490234375,-0.3959481418132782,-0.8318445086479187,-0.8563445210456848
1782969306230978600,3.856978515625,-0.2637637257575989,-1.0294665098190308,-1.1272433996200562
1782969306240905200,3.8669052734375,-0.17384237051010132,-1.1684595346450806,-1.3810999393463135
1782969306250831400,3.876831298828125,-0.11113318055868149,-1.5402556657791138,-1.5176353454589844
1782969306260757500,3.886757568359375,-0.1532907485961914,-1.819909691810608,-1.6211990118026733
1782969306270683400,3.896683349609375,-0.14831623435020447,-2.198131799697876,-1.6035518646240234
1782969306280610300,3.9066103515625,-0.07410698384046555,-2.7104380130767822,-1.4011173248291016
1782969306290536400,3.916536376953125,-0.014495319686830044,-3.213789224624634,-1.0215606689453125
1782969306300462600,3.926462646484375,-0.02225417271256447,-3.6020615100860596,-0.4934659004211426
1782969306310388200,3.93638818359375,0.07660529762506485,-3.8813517093658447,-0.056070726364851
1782969306320315400,3.9463154296875,0.14535479247570038,-4.044960975646973,-0.006139917764812708
1782969306330241500,3.956241455078125,0.13432584702968597,-4.126531600952148,-0.3457832336425781
1782969306340167200,3.966167236328125,0.11428582668304443,-4.070953845977783,-0.8364088535308838
1782969306351332400,3.977332275390625,0.0026144252624362707,-3.671673536300659,-1.4042856693267822
1782969306361258200,3.98725830078125,-0.1083453819155693,-3.3163764476776123,-1.880880355834961
1782969306371184400,3.997184326171875,-0.2228218913078308,-3.0352423191070557,-2.1997220516204834
1782969306381110500,4.007110595703125,-0.36958950757980347,-3.009335517883301,-2.39157772064209
1782969306391037400,4.017037353515625,-0.45448413491249084,-2.932931900024414,-2.3514013290405273
1782969306400963300,4.02696337890625,-0.3823345899581909,-2.4500973224639893,-1.9688763618469238
1782969306410889500,4.036889404296875,-0.12301114201545715,-1.6565197706222534,-1.2533766031265259
1782969306420815400,4.0468154296875,0.3602604568004608,-0.6640128493309021,-0.4190571904182434
1782969306430742300,4.0567421875,0.4950946867465973,0.6006339192390442,0.5504535436630249
1782969306440668400,4.06666845703125,0.4670630693435669,1.8720847368240356,1.5358878374099731
1782969306450594300,4.07659423828125,0.6526134610176086,2.912663221359253,2.118260145187378
1782969306460520200,4.086520263671875,1.0267095565795898,3.595252752304077,2.1100099086761475
1782969306470447400,4.096447265625,1.4544994831085205,3.839778423309326,1.683542251586914
1782969306480373500,4.10637353515625,1.6940490007400513,3.7364871501922607,1.1870454549789429
1782969306490299400,4.11629931640625,1.7845232486724854,3.4140775203704834,0.8781557679176331
1782969306500225300,4.126225341796875,1.653856635093689,3.1735644340515137,0.9231477379798889
1782969306510151400,4.1361513671875,1.1475270986557007,3.0492560863494873,1.2192460298538208
1782969306520078300,4.146078369140625,0.5265945792198181,3.079490900039673,1.8367280960083008
1782969306530004200,4.156004150390625,0.16737967729568481,2.8235135078430176,2.56069278717041
1782969306539930400,4.165930419921875,0.08790136128664017,2.3972008228302,3.013098955154419
1782969306549856500,4.1758564453125,0.050750795751810074,2.157951593399048,3.2718541622161865
1782969306559783400,4.185783447265625,-0.025678731501102448,2.021048069000244,3.4394686222076416
1782969306569709300,4.195709228515625,-0.12660162150859833,1.9097198247909546,3.5522446632385254
1782969306579635500,4.205635498046875,-0.21575039625167847,1.9277379512786865,3.5126750469207764
1782969306589561300,4.215561279296875,-0.3065042793750763,1.9840526580810547,3.3495404720306396
1782969306599488300,4.22548828125,-0.37977370619773865,2.037301778793335,3.097973585128784
1782969306609414400,4.235414306640625,-0.35833099484443665,2.0143239498138428,2.7407033443450928
1782969306619340500,4.245340576171875,-0.2955019474029541,1.8701558113098145,2.2555699348449707
1782969306629266200,4.25526611328125,-0.25689998269081116,1.6808279752731323,1.7208023071289062
1782969306639193300,4.265193359375,-0.2487831860780716,1.557576060295105,1.1978912353515625
1782969306649119500,4.275119384765625,-0.23085744678974152,1.4897371530532837,0.7004350423812866
1782969306659045400,4.28504541015625,-0.25769758224487305,1.4691778421401978,0.22879110276699066
1782969306668971300,4.29497119140625,-0.27403953671455383,1.4959346055984497,-0.2477935552597046
1782969306678897400,4.3048974609375,-0.3054712414741516,1.4373881816864014,-0.7203760147094727
1782969306688824300,4.31482421875,-0.327375203371048,1.267822027206421,-1.145647644996643
1782969306698750200,4.324750244140625,-0.3670094311237335,0.9550883769989014,-1.5390716791152954
1782969306708676400,4.33467626953125,-0.3995220959186554,0.498218834400177,-1.8300678730010986
1782969306718602500,4.3446025390625,-0.41183575987815857,-0.013321930542588234,-1.9740025997161865
1782969306728530000,4.354530029296875,-0.40055593848228455,-0.6168887615203857,-1.964767575263977
1782969306738456000,4.3644560546875,-0.37393417954444885,-1.223854899406433,-1.7819799184799194
1782969306748382200,4.37438232421875,-0.32932329177856445,-1.6806221008300781,-1.486856460571289
1782969306758307800,4.384307861328125,-0.2526647448539734,-1.9079601764678955,-1.2275537252426147
1782969306768235000,4.394235107421875,-0.1506723314523697,-1.9020253419876099,-1.143107295036316
1782969306778161200,4.4041611328125,0.023310648277401924,-1.7284623384475708,-1.3623133897781372
1782969306788086800,4.414086669921875,0.34661760926246643,-1.619802474975586,-1.9603824615478516
1782969306798013000,4.424012939453125,0.3904236853122711,-1.4021474123001099,-2.6560652256011963
1782969306807940000,4.433940185546875,0.4234530031681061,-1.4265938997268677,-3.1582136154174805
1782969306817866000,4.443865966796875,0.2914281189441681,-1.6805838346481323,-3.2794570922851562
1782969306827792000,4.4537919921875,0.27201953530311584,-2.686171531677246,-3.146218776702881
1782969306837718000,4.463718017578125,0.25980842113494873,-3.058358669281006,-2.824995756149292
1782969306847644200,4.47364404296875,0.16980288922786713,-2.918304443359375,-2.5306882858276367
1782969306857570800,4.48357080078125,0.03693431615829468,-2.7515170574188232,-2.1978094577789307
1782969306867497000,4.4934970703125,0.1481202244758606,-2.5566728115081787,-1.7125635147094727
1782969306877423000,4.503423095703125,0.5493339896202087,-2.442471504211426,-1.2169450521469116
1782969306887349000,4.513348876953125,0.6528962850570679,-2.4682488441467285,-0.6145246624946594
1782969306897276000,4.52327587890625,0.6013731956481934,-2.251591682434082,-0.07086964696645737
1782969306907202000,4.5332021484375,0.5196368098258972,-1.6027723550796509,0.419310986995697
1782969306917128200,4.543128173828125,0.43374931812286377,-1.0661424398422241,0.5348447561264038
1782969306927053800,4.5530537109375,0.15820534527301788,-0.5827379822731018,0.34527483582496643
1782969306936981000,4.56298095703125,-0.2102144956588745,-0.02243739925324917,0.06055096164345741
1782969306946907100,4.5729072265625,-0.4923210144042969,0.7532053589820862,0.1493077278137207
1782969306956832800,4.582832763671875,-0.5008585453033447,1.5128393173217773,0.5823819041252136
1782969306966759000,4.592759033203125,-0.1364755481481552,2.068638563156128,1.0342351198196411
1782969306976686000,4.60268603515625,0.08880843222141266,2.354952573776245,1.2878793478012085
1782969306986612000,4.612612060546875,0.28947097063064575,2.427521228790283,1.4087799787521362
1782969306996537900,4.622537841796875,0.34563037753105164,2.2304584980010986,1.6048402786254883
1782969307006464000,4.632464111328125,0.08057287335395813,1.8848048448562622,2.008549213409424
1782969307016391000,4.642390869140625,-0.2446209341287613,1.5285860300064087,2.51633620262146
1782969307026316800,4.65231689453125,-0.39467141032218933,1.3859820365905762,2.879626989364624
1782969307036243000,4.662242919921875,-0.4940113127231598,1.6029614210128784,3.122285842895508
1782969307046169000,4.672169189453125,-0.5088845491409302,1.9972903728485107,3.194004535675049
1782969307056095000,4.682094970703125,-0.4824153780937195,2.506736993789673,3.1308581829071045
1782969307066022000,4.69202197265625,-0.430525541305542,3.0104873180389404,3.0457334518432617
1782969307075948000,4.701947998046875,-0.37477439641952515,3.286813974380493,2.9859941005706787
1782969307085874200,4.711874267578125,-0.3306884467601776,3.1228585243225098,2.9961185455322266
1782969307095799800,4.7217998046875,-0.25959402322769165,2.5759646892547607,2.9781980514526367
1782969307105727000,4.73172705078125,-0.153694748878479,1.8065159320831299,2.9111995697021484
1782969307115653000,4.741653076171875,-0.048401087522506714,1.1036627292633057,2.804023027420044
1782969307125579000,4.7515791015625,0.028550684452056885,0.6821918487548828,2.687232255935669
1782969307135505000,4.7615048828125,0.050157178193330765,0.5641408562660217,2.531355619430542
1782969307145432000,4.77143212890625,-0.03993809595704079,0.7005059123039246,2.2236831188201904
1782969307155358000,4.78135791015625,-0.16344165802001953,0.9872519373893738,1.711978793144226
1782969307165283800,4.791283935546875,-0.28104206919670105,1.303528904914856,0.9621934294700623
1782969307175210000,4.8012099609375,-0.37249767780303955,1.4834121465682983,0.09655477106571198
1782969307185136000,4.81113623046875,-0.43776455521583557,1.4516699314117432,-0.7667600512504578
1782969307195063000,4.82106298828125,-0.49084988236427307,1.2552945613861084,-1.5438361167907715
1782969307204989000,4.830989013671875,-0.505841076374054,0.8933621644973755,-2.1586549282073975
1782969307214915000,4.8409150390625,-0.4862261116504669,0.4689379334449768,-2.607758045196533
1782969307224841000,4.850841064453125,-0.44375374913215637,-0.032823462039232254,-2.9023280143737793
1782969307234768000,4.860767822265625,-0.3498128652572632,-0.5685340166091919,-3.028247117996216
1782969307244694000,4.870694091796875,-0.18647080659866333,-1.0166974067687988,-3.0073611736297607
1782969307254620200,4.8806201171875,0.05384325608611107,-1.3819360733032227,-2.8559231758117676
1782969307264545800,4.8905458984375,0.3716164231300354,-1.679430365562439,-2.6025519371032715
1782969307274473000,4.900472900390625,0.7181243300437927,-1.887440800666809,-2.3509435653686523
1782969307284399000,4.910399169921875,1.0109732151031494,-1.977387547492981,-2.211465835571289
1782969307294325000,4.920324951171875,1.2105557918548584,-1.9650424718856812,-2.264967918395996
1782969307304251000,4.9302509765625,1.2340819835662842,-1.8824412822723389,-2.5015392303466797
1782969307314178000,4.940177978515625,1.0025768280029297,-1.7703168392181396,-2.9118499755859375
1782969307324104200,4.950104248046875,0.5172631144523621,-1.5878671407699585,-3.5335347652435303
1782969307334029800,4.96002978515625,-0.03665361925959587,-1.505035400390625,-4.11331844329834
1782969307343956000,4.9699560546875,-0.3987489938735962,-2.066473960876465,-4.2447357177734375
1782969307353882000,4.979882080078125,-0.6030387282371521,-2.7146360874176025,-4.078873157501221
1782969307363809000,4.98980908203125,-0.6676121354103088,-3.095109224319458,-3.696702480316162
1782969307373735000,4.99973486328125,-0.5906718373298645,-3.3004188537597656,-3.1704938411712646
1782969307383661000,5.0096611328125,-0.3488813042640686,-3.1204020977020264,-2.920264482498169
1782969307393587200,5.019587158203125,-0.05004958435893059,-2.5823404788970947,-2.96246337890625
1782969307403513900,5.029513916015625,0.08488906174898148,-2.0152645111083984,-2.7697861194610596
1782969307413440000,5.03943994140625,0.024523718282580376,-1.5959320068359375,-2.023977279663086
1782969307423366100,5.0493662109375,-0.17035149037837982,-1.1913070678710938,-0.9055339097976685
1782969307433292000,5.0592919921875,-0.24620258808135986,-0.8243050575256348,0.10430270433425903
1782969307443219000,5.069218994140625,-0.16765530407428741,-0.3282228708267212,1.0902129411697388
1782969307453145000,5.07914501953125,0.034753452986478806,0.2863478660583496,1.8026466369628906
1782969307463071200,5.0890712890625,0.19488373398780823,0.8590294718742371,2.1590631008148193
1782969307472996900,5.098996826171875,0.16043893992900848,1.3641067743301392,2.2139623165130615
1782969307482924000,5.108924072265625,-0.05710270255804062,1.7506989240646362,2.035099744796753
1782969307492850200,5.11885009765625,-0.3939153552055359,2.0058255195617676,1.7811434268951416
1782969307502775800,5.12877587890625,-0.7209949493408203,2.13788104057312,1.607398509979248
1782969307512702000,5.138701904296875,-0.9591025710105896,2.220357894897461,1.5628864765167236
1782969307522629000,5.148629150390625,-1.0357691049575806,2.249417781829834,1.6879059076309204
1782969307532555000,5.158554931640625,-1.0548455715179443,2.2692880630493164,1.9285377264022827
1782969307542481000,5.16848095703125,-1.0036053657531738,2.2326667308807373,2.1931662559509277
1782969307552407000,5.178406982421875,-0.9290000796318054,2.1785755157470703,2.4729015827178955
1782969307562333200,5.188333251953125,-0.8335438370704651,2.057830333709717,2.6890506744384766
1782969307572259800,5.198259765625,-0.7182042002677917,1.9114748239517212,2.796229839324951
1782969307582186000,5.20818603515625,-0.6058646440505981,1.6766843795776367,2.793348789215088
1782969307592112000,5.218112060546875,-0.4797210693359375,1.390122413635254,2.706901788711548
1782969307602038000,5.2280380859375,-0.3732406795024872,1.0753282308578491,2.5969386100769043
1782969307611965000,5.23796484375,-0.28166070580482483,0.8184937834739685,2.476656436920166
1782969307621891000,5.24789111328125,-0.20121939480304718,0.6425773501396179,2.3030223846435547
1782969307631817200,5.257817138671875,-0.13756930828094482,0.5330039858818054,2.1115572452545166
1782969307641742800,5.267742919921875,-0.11342136561870575,0.48433631658554077,1.8998147249221802
1782969307651670000,5.277669921875,-0.11943904310464859,0.48010003566741943,1.6605453491210938
1782969307661596200,5.28759619140625,-0.13456100225448608,0.5210743546485901,1.3580925464630127
1782969307671521800,5.297521728515625,-0.15309260785579681,0.5815646052360535,1.0102791786193848
1782969307681448000,5.307447998046875,-0.15786314010620117,0.5934958457946777,0.614698052406311
1782969307691375000,5.317375,-0.14418567717075348,0.5683577060699463,0.2307479977607727
1782969307701301000,5.327301025390625,-0.11020639538764954,0.47720596194267273,-0.11451805382966995
1782969307711227000,5.337226806640625,-0.07934542000293732,0.31871911883354187,-0.45685675740242004
1782969307721153000,5.347153076171875,-0.057496316730976105,0.11762410402297974,-0.8163052201271057
1782969307731079000,5.357078857421875,-0.04899017885327339,-0.14875219762325287,-1.1328991651535034
1782969307741005800,5.367005859375,-0.012695555575191975,-0.4752994179725647,-1.2993462085723877
1782969307750932000,5.376931884765625,0.07933024317026138,-0.8023231029510498,-1.3139674663543701
1782969307760858000,5.386858154296875,0.19349223375320435,-1.125924825668335,-1.2360633611679077
1782969307770784000,5.396783935546875,0.286315381526947,-1.4064867496490479,-1.1304415464401245
1782969307780711000,5.4067109375,0.31425565481185913,-1.6223005056381226,-1.0440651178359985
1782969307790637000,5.416636962890625,0.2870751917362213,-1.7689114809036255,-0.9996041655540466
1782969307800563000,5.42656298828125,0.22284665703773499,-1.8185797929763794,-1.0356532335281372
1782969307810488800,5.43648876953125,0.16552451252937317,-1.7472912073135376,-1.182112216949463
1782969307820416000,5.446416015625,0.15995930135250092,-1.5646086931228638,-1.4450863599777222
1782969307830342100,5.456342041015625,0.23043321073055267,-1.326447606086731,-1.7388486862182617
1782969307840267800,5.466267822265625,0.3538145422935486,-1.0842535495758057,-1.9951339960098267
1782969307850194000,5.47619384765625,0.4270375967025757,-0.8879775404930115,-2.162034749984741
1782969307860120000,5.4861201171875,0.36108097434043884,-0.7889090180397034,-2.134847402572632
1782969307870047000,5.496046875,0.2234831601381302,-0.8921461701393127,-1.9283232688903809
1782969307879972900,5.505972900390625,0.13113164901733398,-1.1107012033462524,-1.7274943590164185
1782969307889899000,5.51589892578125,0.11804594844579697,-1.32347571849823,-1.6166160106658936
1782969307899825000,5.525824951171875,0.1493130475282669,-1.5413085222244263,-1.6346663236618042
1782969307909751800,5.535751708984375,0.15406839549541473,-1.7941242456436157,-1.759747862815857
1782969307919678000,5.545677978515625,0.12073919922113419,-2.015212059020996,-1.9057735204696655
1782969307929604000,5.55560400390625,0.03593349829316139,-2.108335018157959,-2.013594627380371
1782969307939530000,5.565530029296875,-0.1311875879764557,-1.9946008920669556,-1.9859498739242554
1782969307949457000,5.575456787109375,-0.2509816288948059,-1.6256020069122314,-1.744958519935608
1782969307959383000,5.585383056640625,-0.22889550030231476,-1.0200903415679932,-1.2568188905715942
1782969307969309000,5.595308837890625,-0.18001636862754822,-0.24453385174274445,-0.5060173869132996
1782969307979234800,5.60523486328125,-0.0641142725944519,0.624036431312561,0.2983696460723877
1782969307989162000,5.615161865234375,0.08437506854534149,1.2120850086212158,0.8868259787559509
1782969307999088000,5.625088134765625,0.13680818676948547,1.5583007335662842,1.176711082458496
1782969308009014000,5.635013916015625,0.11003382503986359,1.7130378484725952,1.2239248752593994
1782969308018940000,5.64493994140625,0.06289134919643402,1.7561126947402954,1.1831189393997192
1782969308028866000,5.654865966796875,0.005152417812496424,1.7215677499771118,1.1373919248580933
1782969308038793000,5.66479296875,-0.051895420998334885,1.6466010808944702,1.207366943359375
1782969308048718800,5.67471875,-0.07209549844264984,1.5849446058273315,1.388167142868042
1782969308058645000,5.68464501953125,-0.06186949089169502,1.565163254737854,1.5772912502288818
1782969308068571000,5.69457080078125,-0.046484943479299545,1.6146026849746704,1.7682108879089355
1782969308078497800,5.704497802734375,-0.030707046389579773,1.7325057983398438,1.9498029947280884
1782969308088424000,5.714423828125,-0.039860330522060394,1.8630162477493286,2.1060240268707275
1782969308098350000,5.72435009765625,-0.08387599140405655,1.9980860948562622,2.202531337738037
1782969308108276000,5.73427587890625,-0.16502463817596436,2.1105904579162598,2.2300469875335693
1782969308118203000,5.744202880859375,-0.25248631834983826,2.1896004676818848,2.198943853378296
1782969308128129000,5.75412890625,-0.29925113916397095,2.245105743408203,2.09833025932312
1782969308138055000,5.764054931640625,-0.2916467487812042,2.2899537086486816,1.98085355758667
1782969308147981000,5.77398095703125,-0.23843121528625488,2.31840181350708,1.91200852394104
1782969308157908000,5.783907958984375,-0.15548066794872284,2.2998812198638916,1.903578519821167
1782969308167834000,5.793834228515625,-0.04622528702020645,2.2358880043029785,1.9419856071472168
1782969308177760000,5.803760009765625,0.03829492628574371,2.1181752681732178,1.9891993999481201
1782969308187686000,5.813685791015625,0.11329140514135361,1.9492405652999878,2.025923728942871
1782969308197612000,5.823612060546875,0.19597989320755005,1.73360276222229,1.987847089767456
1782969308207539000,5.8335390625,0.2747495472431183,1.5280706882476807,1.772537112236023
1782969308217464800,5.84346484375,0.3448854982852936,1.278059482574463,1.3001989126205444
1782969308227391000,5.853390869140625,0.3591903746128082,0.9711331129074097,0.5615490674972534
1782969308237316900,5.86331689453125,0.3101125955581665,0.6371357440948486,-0.3071429133415222
1782969308247243800,5.873243896484375,0.20551267266273499,0.19927528500556946,-1.1190850734710693
1782969308257170000,5.883169921875,0.044560011476278305,-0.3896777331829071,-1.6891506910324097
1782969308267096000,5.893095947265625,-0.12906424701213837,-1.0558991432189941,-1.9326103925704956
1782969308277022000,5.90302197265625,-0.1969149261713028,-1.6824450492858887,-1.900438904762268
1782969308286948900,5.912948974609375,-0.11527013033628464,-2.195781946182251,-1.742856502532959
1782969308296875000,5.922875,0.04478824511170387,-2.5750088691711426,-1.5936115980148315
1782969308306801000,5.93280078125,0.20706956088542938,-2.8312880992889404,-1.4725371599197388
1782969308316727000,5.94272705078125,0.34370648860931396,-2.89699649810791,-1.4289398193359375
1782969308326653000,5.95265283203125,0.4063400626182556,-2.7619478702545166,-1.5493298768997192
1782969308336580000,5.962580078125,0.37900882959365845,-2.507307767868042,-1.835425615310669
1782969308346506000,5.972506103515625,0.3140721917152405,-2.1914544105529785,-2.230379343032837
1782969308356432000,5.982431884765625,0.25239071249961853,-1.8279706239700317,-2.69221830368042
1782969308366358000,5.99235791015625,0.07024966180324554,-1.5005497932434082,-3.1568245887756348
1782969308376285000,6.002284912109375,-0.19825103878974915,-1.497551679611206,-3.3410584926605225
1782969308386210800,6.0122109375,-0.41068899631500244,-1.9151870012283325,-3.221895217895508
1782969308396137000,6.022136962890625,-0.36372148990631104,-2.54794979095459,-2.8990800380706787
1782969308406062800,6.032062744140625,-0.08442620187997818,-3.3190433979034424,-2.450117588043213
1782969308415989800,6.04198974609375,0.29432404041290283,-4.145178318023682,-2.021340847015381
1782969308425916000,6.051916015625,0.6946570873260498,-4.925117492675781,-1.725303292274475
1782969308435842000,6.061842041015625,0.9947673678398132,-5.396981239318848,-1.7741681337356567
1782969308445768000,6.071767822265625,1.125314474105835,-5.513757228851318,-1.958656907081604
1782969308455694800,6.08169482421875,1.1169129610061646,-5.087403774261475,-1.884892225265503
1782969308465621000,6.09162109375,0.9313090443611145,-4.0343170166015625,-1.4347383975982666
1782969308475547000,6.101546875,0.5014705657958984,-2.554377555847168,-0.660879909992218
1782969308485473000,6.11147314453125,-0.04453897103667259,-0.5444893836975098,0.232631653547287
1782969308495399000,6.12139892578125,-0.29424920678138733,1.324522852897644,0.7338449358940125
1782969308505326000,6.131326171875,-0.429623007774353,2.8385236263275146,0.8280966281890869
1782969308515252000,6.141251953125,-0.4574386477470398,3.7532687187194824,0.6596649885177612
1782969308525177900,6.151177734375,-0.47031185030937195,4.008735656738281,0.48155465722084045
1782969308535104000,6.16110400390625,-0.5501281023025513,3.740290880203247,0.5299330949783325
1782969308545031200,6.17103125,-0.6725711822509766,3.1028013229370117,0.7818977236747742
1782969308554956800,6.180956787109375,-0.7668489813804626,2.344014883041382,1.1162642240524292
1782969308564883000,6.190883056640625,-0.7908485531806946,1.7086436748504639,1.4255602359771729
1782969308574808800,6.200808837890625,-0.7656787633895874,1.2548590898513794,1.62009596824646
1782969308584735700,6.21073583984375,-0.7481805086135864,1.0260502099990845,1.761478066444397
1782969308594662000,6.220661865234375,-0.7341392040252686,1.034002423286438,1.8883551359176636
1782969308604588000,6.230588134765625,-0.7505805492401123,1.1758381128311157,1.9898817539215088
1782969308614514000,6.240513916015625,-0.7843496799468994,1.3778222799301147,2.0801424980163574
1782969308624440800,6.25044091796875,-0.8121224641799927,1.6214184761047363,2.1277430057525635
1782969308634367000,6.260366943359375,-0.7929972410202026,1.895730972290039,2.1204328536987305
1782969308644293000,6.270293212890625,-0.7268325686454773,2.196974992752075,2.0367093086242676
1782969308654219000,6.280218994140625,-0.6388800740242004,2.4945614337921143,1.8909181356430054
1782969308664145000,6.290144775390625,-0.5689494609832764,2.6792709827423096,1.7342911958694458
1782969308674072000,6.300072021484375,-0.5070642828941345,2.693290948867798,1.6174874305725098
1782969308683998000,6.309998046875,-0.4035506546497345,2.504645347595215,1.5064882040023804
1782969308693923800,6.319923828125,-0.28522640466690063,2.1304774284362793,1.3373154401779175
1782969308703850000,6.32985009765625,-0.15417306125164032,1.6706041097640991,1.0975466966629028
1782969308713777200,6.339777099609375,-0.05260302498936653,1.1915816068649292,0.7815077900886536
1782969308723702800,6.349702880859375,0.03989921137690544,0.7124967575073242,0.4149079918861389
1782969308733628400,6.35962841796875,0.1383940875530243,0.27177000045776367,0.027242805808782578
1782969308743554300,6.36955419921875,0.1973130702972412,-0.11084289103746414,-0.3294178545475006
1782969308753481500,6.3794814453125,0.25110864639282227,-0.4263286888599396,-0.6153931617736816
1782969308763407400,6.389407470703125,0.2735993266105652,-0.6810855865478516,-0.8158953189849854
1782969308773333500,6.39933349609375,0.2594262361526489,-0.8975270986557007,-0.9595835208892822
1782969308783259400,6.40925927734375,0.20287135243415833,-1.0691736936569214,-1.0640428066253662
1782969308793186300,6.419186279296875,0.12289316207170486,-1.2395116090774536,-1.1643813848495483
1782969308803112400,6.429112548828125,0.09505993872880936,-1.3641403913497925,-1.2327396869659424
1782969308813038300,6.439038330078125,0.12981098890304565,-1.404013752937317,-1.2259811162948608
1782969308822964500,6.448964599609375,0.15654753148555756,-1.3773589134216309,-1.217313289642334
1782969308832890600,6.458890625,0.19728058576583862,-1.299241542816162,-1.2514820098876953
1782969308842817500,6.468817626953125,0.2662804126739502,-1.1970897912979126,-1.444045066833496
1782969308852743400,6.478743408203125,0.31583893299102783,-1.122843861579895,-1.8923072814941406
1782969308862669600,6.488669677734375,0.35431069135665894,-1.121431589126587,-2.4684560298919678
1782969308872595500,6.498595458984375,0.37337785959243774,-1.2216202020645142,-2.8907830715179443
1782969308882522400,6.5085224609375,0.38356950879096985,-1.4934477806091309,-2.9683165550231934
1782969308892448500,6.518448486328125,0.3830280900001526,-1.9698587656021118,-2.729609251022339
1782969308902374400,6.52837451171875,0.37252724170684814,-2.5536162853240967,-2.4175193309783936
1782969308912300300,6.53830029296875,0.34205347299575806,-3.047010660171509,-2.213275194168091
1782969308922227500,6.5482275390625,0.27041709423065186,-3.3242273330688477,-2.2353451251983643
1782969308932153300,6.5581533203125,0.14619529247283936,-3.377523183822632,-2.467780113220215
1782969308942079500,6.56807958984375,0.049078863114118576,-3.0530941486358643,-2.582746982574463
1782969308952005400,6.57800537109375,-0.020131366327404976,-2.457160711288452,-2.4022364616394043
1782969308961931500,6.587931640625,-0.02599751204252243,-1.691238522529602,-1.8060556650161743
1782969308971858400,6.5978583984375,0.05733519420027733,-0.8400262594223022,-0.9080934524536133
1782969308981784300,6.607784423828125,0.004309260752052069,0.23842322826385498,0.16329331696033478
1782969308991710500,6.61771044921875,0.015717975795269012,1.1923043727874756,0.9359831213951111
1782969309001636600,6.62763671875,0.024936508387327194,2.0505881309509277,1.3547260761260986
1782969309011563500,6.6375634765625,0.049426671117544174,2.6443541049957275,1.3976088762283325
1782969309021489400,6.647489501953125,-0.006060555577278137,2.8885385990142822,1.2147860527038574
1782969309031415600,6.65741552734375,-0.16598764061927795,2.829153060913086,1.0567282438278198
1782969309041341400,6.667341552734375,-0.33773836493492126,2.5125460624694824,1.0750371217727661
1782969309051268400,6.677268310546875,-0.42990848422050476,2.148928165435791,1.2979512214660645
1782969309061194500,6.687194580078125,-0.40834808349609375,1.8639945983886719,1.7010754346847534
1782969309071120400,6.697120361328125,-0.29080042243003845,1.6970863342285156,2.1966400146484375
1782969309081046300,6.70704638671875,-0.16418388485908508,1.6400877237319946,2.6610546112060547
1782969309090973400,6.716973388671875,-0.07753713428974152,1.6991654634475708,3.0367817878723145
1782969309100899600,6.726899658203125,-0.07438048720359802,1.8235652446746826,3.3307719230651855
1782969309110825500,6.736825439453125,-0.1546628177165985,1.9296127557754517,3.534499168395996
1782969309120751400,6.74675146484375,-0.235881507396698,1.9870356321334839,3.5717525482177734
1782969309130677500,6.756677490234375,-0.278884619474411,1.9730830192565918,3.3946588039398193
1782969309140604400,6.7666044921875,-0.289384663105011,1.891704797744751,3.0571820735931396
1782969309150530300,6.7765302734375,-0.276674747467041,1.7470650672912598,2.65116548538208
1782969309160456400,6.78645654296875,-0.23116238415241241,1.614363193511963,2.2558326721191406
1782969309170382600,6.796382568359375,-0.18888762593269348,1.4718455076217651,1.8733588457107544
1782969309180309500,6.8063095703125,-0.1358308047056198,1.3312004804611206,1.5223557949066162
1782969309190235400,6.8162353515625,-0.09326336532831192,1.2136919498443604,1.2302813529968262
1782969309200161500,6.82616162109375,-0.09367429465055466,1.1311603784561157,0.968115508556366
1782969309210087400,6.83608740234375,-0.11999298632144928,1.06033194065094,0.689117968082428
1782969309220014600,6.8460146484375,-0.15662290155887604,0.9599449038505554,0.4039898216724396
1782969309229940500,6.8559404296875,-0.19939513504505157,0.8226028084754944,0.13031353056430817
1782969309239866400,6.865866455078125,-0.2440299689769745,0.6405626535415649,-0.10438712686300278
1782969309249792300,6.875792236328125,-0.25690317153930664,0.36154595017433167,-0.34728631377220154
1782969309259719400,6.885719482421875,-0.26204174757003784,-0.012823120690882206,-0.651979386806488
1782969309269645600,6.8956455078125,-0.24583080410957336,-0.4362388253211975,-0.9796874523162842
1782969309279571500,6.905571533203125,-0.2126462161540985,-0.9061794281005859,-1.262279987335205
1782969309289497300,6.915497314453125,-0.15916807949543,-1.4027388095855713,-1.4702845811843872
1782969309299423500,6.925423583984375,-0.08359582722187042,-1.8908307552337646,-1.612680435180664
1782969309309350400,6.935350341796875,0.006107427179813385,-2.332336187362671,-1.6886504888534546
1782969309319276500,6.945276611328125,0.126907616853714,-2.682180404663086,-1.7175564765930176
1782969309329202400,6.955202392578125,0.2992469072341919,-2.8867413997650146,-1.7070471048355103
1782969309339128600,6.965128662109375,0.4540655016899109,-2.912480115890503,-1.6854310035705566
1782969309349055500,6.975055419921875,0.5525691509246826,-2.7592313289642334,-1.7023026943206787
1782969309358981400,6.9849814453125,0.5483201146125793,-2.46944522857666,-1.7874170541763306
1782969309368907500,6.994907470703125,0.39241573214530945,-2.0990779399871826,-1.9480160474777222
1782969309378833400,7.00483349609375,0.14475345611572266,-1.7024867534637451,-2.18041729927063
1782969309388760600,7.014760498046875,-0.1311795860528946,-1.4143611192703247,-2.5340824127197266
1782969309398686500,7.0246865234375,-0.3801840841770172,-1.321992039680481,-2.981107234954834
1782969309408612600,7.034612548828125,-0.5149349570274353,-1.4242241382598877,-3.360837459564209
1782969309418538500,7.04453857421875,-0.400378555059433,-1.704464077949524,-3.5356340408325195
1782969309428465400,7.05446533203125,-0.1269901692867279,-2.1303329467773438,-3.3610801696777344
1782969309438391600,7.0643916015625,0.19506429135799408,-2.563180923461914,-2.7842793464660645
1782969309448317400,7.0743173828125,0.4622323513031006,-2.8080008029937744,-2.013784885406494
1782969309458243300,7.084243408203125,0.603719174861908,-2.765754222869873,-1.406167984008789
1782969309468169500,7.09416943359375,0.5405948162078857,-2.453617811203003,-1.0447596311569214
1782969309478096400,7.104096435546875,0.3438412547111511,-1.762211799621582,-0.7335945963859558
1782969309488022500,7.1140224609375,0.12633129954338074,-0.7966329455375671,-0.3850454092025757
1782969309497948400,7.123948486328125,0.007677627261728048,0.31912684440612793,0.09537684917449951
1782969309507874600,7.13387451171875,0.017768876627087593,1.379576563835144,0.6297534108161926
1782969309517801500,7.143801513671875,0.09426551312208176,2.198246955871582,1.045750379562378
1782969309527727400,7.153727294921875,0.1540609449148178,2.6722874641418457,1.3080503940582275
1782969309537653500,7.163653564453125,0.11855567246675491,2.738158702850342,1.4261394739151
1782969309547579600,7.17357958984375,-0.013511015102267265,2.508012294769287,1.5190407037734985
1782969309557506600,7.183506591796875,-0.18051677942276,2.1396963596343994,1.6905418634414673
1782969309567432400,7.193432373046875,-0.2964087724685669,1.8542174100875854,1.8823167085647583
1782969309577358600,7.203358642578125,-0.31996655464172363,1.6448966264724731,1.9896732568740845
1782969309587284500,7.213284423828125,-0.30457988381385803,1.5436182022094727,2.0219886302948
1782969309597211400,7.22321142578125,-0.2741548418998718,1.4780988693237305,1.9760290384292603
1782969309607137500,7.233137451171875,-0.24859090149402618,1.4428257942199707,1.918894648551941
1782969309617063400,7.2430634765625,-0.24612614512443542,1.4858068227767944,1.895264983177185
1782969309626989300,7.2529892578125,-0.2619514465332031,1.6065587997436523,1.928916096687317
1782969309636915500,7.26291552734375,-0.27972590923309326,1.7612922191619873,1.9751672744750977
1782969309646842400,7.27284228515625,-0.2831387519836426,1.9166775941848755,2.018805742263794
1782969309656768500,7.2827685546875,-0.2819989323616028,1.9268444776535034,2.0469963550567627
1782969309666694400,7.2926943359375,-0.25820252299308777,1.7540340423583984,2.0635604858398438
1782969309676620500,7.30262060546875,-0.2154254913330078,1.4609265327453613,2.083038568496704
1782969309686547500,7.31254736328125,-0.14182211458683014,1.1571059226989746,2.0574398040771484
1782969309696473300,7.322473388671875,-0.047879908233881,0.9168355464935303,1.9563871622085571
1782969309706399500,7.3323994140625,0.03585733473300934,0.7401350736618042,1.788527011871338
1782969309716325600,7.34232568359375,0.0963774025440216,0.6271246075630188,1.5229603052139282
1782969309726252500,7.35225244140625,0.1125505119562149,0.5773575901985168,1.1784725189208984
1782969309736178400,7.362178466796875,0.13104616105556488,0.5241122245788574,0.7995920181274414
1782969309746104600,7.3721044921875,0.11578305810689926,0.4217272698879242,0.43455252051353455
1782969309756030500,7.382030517578125,0.09621521830558777,0.22771304845809937,0.10097721219062805
1782969309765957600,7.39195751953125,0.05464779958128929,-0.04613393917679787,-0.22040215134620667
1782969309775883500,7.401883544921875,-0.020904749631881714,-0.36415451765060425,-0.5276268124580383
1782969309785809400,7.411809326171875,-0.10268323868513107,-0.6963212490081787,-0.8104430437088013
1782969309795735600,7.421735595703125,-0.1353980451822281,-1.0003427267074585,-1.0439079999923706
1782969309805661400,7.431661376953125,-0.08326452970504761,-1.2688928842544556,-1.188517689704895
1782969309815588400,7.44158837890625,0.027838023379445076,-1.5186138153076172,-1.2501800060272217
1782969309825514500,7.451514404296875,0.16699564456939697,-1.7484067678451538,-1.2409489154815674
1782969309835440400,7.4614404296875,0.3293059766292572,-1.9295142889022827,-1.1990395784378052
1782969309845366500,7.471366455078125,0.49759194254875183,-2.031040668487549,-1.1792863607406616
1782969309855293400,7.48129345703125,0.6566447019577026,-2.0035288333892822,-1.2519112825393677
1782969309865219600,7.491219482421875,0.761000394821167,-1.8535329103469849,-1.4412686824798584
1782969309875145500,7.5011455078125,0.7516276836395264,-1.6654127836227417,-1.7359861135482788
1782969309885071600,7.511071533203125,0.5988181829452515,-1.559808373451233,-2.0653207302093506
1782969309894998500,7.52099853515625,0.30827420949935913,-1.6166037321090698,-2.3106467723846436
1782969309904924400,7.53092431640625,-0.02689153514802456,-1.7833261489868164,-2.4408650398254395
1782969309914850600,7.5408505859375,-0.1797383427619934,-1.9621363878250122,-2.5487444400787354
1782969309924776400,7.5507763671875,-0.09781204909086227,-2.143944025039673,-2.707310676574707
1782969309934702300,7.560702392578125,0.15134425461292267,-2.3803179264068604,-2.774630308151245
1782969309944629500,7.57062939453125,0.4680854380130768,-2.7129316329956055,-2.5543787479400635
1782969309954555400,7.580555419921875,0.6498944163322449,-3.2128093242645264,-2.0688881874084473
1782969309964481500,7.5904814453125,0.7958710193634033,-3.8255326747894287,-1.3669489622116089
1782969309974407400,7.600407470703125,0.838107168674469,-4.102807521820068,-0.4685584306716919
1782969309984334600,7.61033447265625,0.7718208432197571,-3.617621660232544,0.2906123995780945
1782969309994260500,7.620260498046875,0.5553990602493286,-2.3538928031921387,0.7601612210273743
1782969310004186400,7.630186279296875,0.23747967183589935,-0.43107283115386963,0.932249903678894
1782969310014112500,7.640112548828125,-0.0976429358124733,1.5622323751449585,0.8014155030250549
1782969310024039400,7.650039306640625,-0.39025723934173584,3.2039873600006104,0.6184978485107422
1782969310033965600,7.659965576171875,-0.5604739785194397,4.160394668579102,0.551032543182373
1782969310043891500,7.669891357421875,-0.6021694540977478,4.293497562408447,0.6449997425079346
1782969310053817600,7.679817626953125,-0.5923011302947998,3.7865333557128906,0.8979377746582031
1782969310063744500,7.68974462890625,-0.5971070528030396,2.951751947402954,1.301811933517456
1782969310073670400,7.69967041015625,-0.6056358218193054,2.1178243160247803,1.7333029508590698
1782969310083596500,7.709596435546875,-0.5736140012741089,1.4827018976211548,2.0908753871917725
1782969310093522400,7.7195224609375,-0.5293381214141846,1.1496083736419678,2.349097967147827
1782969310103448300,7.7294482421875,-0.4830534756183624,1.104557991027832,2.4687838554382324
1782969310113375500,7.73937548828125,-0.45252007246017456,1.2873011827468872,2.445530891418457
1782969310123301600,7.749301513671875,-0.4314368963241577,1.6060874462127686,2.313781261444092
1782969310133227500,7.7592275390625,-0.40485242009162903,1.9491246938705444,2.109445095062256
1782969310143153400,7.7691533203125,-0.3645388185977936,2.202833890914917,1.8845700025558472
1782969310153080600,7.77908056640625,-0.2991155982017517,2.291616916656494,1.7026598453521729
1782969310163006500,7.78900634765625,-0.24092286825180054,2.2015507221221924,1.5873653888702393
1782969310172932400,7.798932373046875,-0.16848835349082947,1.9183313846588135,1.5671366453170776
1782969310182858500,7.8088583984375,-0.08933307230472565,1.5592509508132935,1.5867542028427124
1782969310192785400,7.818785400390625,-0.016415990889072418,1.4562785625457764,1.5820132493972778
1782969310202711600,7.828711669921875,0.12549826502799988,1.113511562347412,1.4520288705825806
1782969310212637400,7.838637451171875,0.19353431463241577,0.7857864499092102,1.165432333946228
1782969310222563600,7.8485634765625,0.1385919600725174,0.572256863117218,0.810910701751709
1782969310232489500,7.858489501953125,0.0569053590297699,0.4198065996170044,0.4013543426990509
1782969310242416400,7.86841650390625,0.024119185283780098,0.28783151507377625,-0.04892173781991005
1782969310252342500,7.878342529296875,0.017495103180408478,0.1279374659061432,-0.497132271528244
1782969310262268400,7.888268310546875,-0.0007448861724697053,-0.12888900935649872,-0.8676365613937378
1782969310272194300,7.8981943359375,-0.015776831656694412,-0.472324937582016,-1.132933259010315
1782969310282121500,7.90812158203125,0.0036946034524589777,-0.8572872877120972,-1.3009659051895142
1782969310292047600,7.918047607421875,0.05309624224901199,-1.2087925672531128,-1.3783419132232666
1782969310301973500,7.927973388671875,0.14073927700519562,-1.430538296699524,-1.3673185110092163
1782969310311899400,7.9378994140625,0.24036945402622223,-1.5884202718734741,-1.317795753479004
1782969310321826600,7.94782666015625,0.33276090025901794,-1.6600873470306396,-1.2748326063156128
1782969310331752400,7.95775244140625,0.3862299919128418,-1.6397356986999512,-1.295896053314209
1782969310341678300,7.96767822265625,0.3724931478500366,-1.5747835636138916,-1.3952751159667969
1782969310351604500,7.9776044921875,0.2972702980041504,-1.4484539031982422,-1.5288376808166504
1782969310361531400,7.987531494140625,0.18760132789611816,-1.263857364654541,-1.7258154153823853
1782969310371457500,7.99745751953125,0.0627288967370987,-1.0816774368286133,-1.9908782243728638
1782969310381383400,8.007383544921876,-0.031091073527932167,-1.0188095569610596,-2.305684804916382
1782969310391309600,8.0173095703125,-0.04629239812493324,-1.1348581314086914,-2.627934217453003
1782969310401235500,8.0272353515625,0.02887772023677826,-1.3860539197921753,-2.8666703701019287
1782969310411162600,8.03716259765625,0.16942045092582703,-1.780804991722107,-2.8857483863830566
1782969310421088500,8.047088623046875,0.3822762668132782,-2.3174798488616943,-2.5734291076660156
1782969310431014700,8.0570146484375,0.6912562251091003,-2.8563315868377686,-1.9785702228546143
1782969310440940300,8.066940185546875,1.0469608306884766,-3.2109568119049072,-1.3242664337158203
1782969310450867500,8.076867431640625,1.345062017440796,-3.284694194793701,-0.7552514672279358
1782969310460793600,8.086793701171874,1.4713551998138428,-3.1476612091064453,-0.4200492203235626
1782969310470719500,8.096719482421875,1.3744094371795654,-2.793229818344116,-0.28289666771888733
1782969310480645400,8.106645263671876,1.1198339462280273,-2.159376382827759,-0.2054429054260254
1782969310490572500,8.116572509765625,0.7542207837104797,-1.2957639694213867,-0.020295152440667152
1782969310500498400,8.12649853515625,0.3975500166416168,-0.2782380282878876,0.35379961133003235
1782969310510424600,8.136424560546875,0.175081267952919,0.7686037421226501,0.7869057655334473
1782969310520350500,8.1463505859375,0.07281907647848129,1.721571445465088,1.1323422193527222
1782969310530276600,8.156276611328124,0.04422125592827797,2.4248874187469482,1.3353662490844727
1782969310540203500,8.16620361328125,-0.009438775479793549,2.723752021789551,1.4646563529968262
1782969310550129400,8.17612939453125,-0.09061192721128464,2.724492311477661,1.6250441074371338
1782969310560055600,8.1860556640625,-0.16469015181064606,2.545535087585449,1.7973765134811401
1782969310569981700,8.195981689453125,-0.21944020688533783,2.278404951095581,1.9504810571670532
1782969310579908600,8.20590869140625,-0.24800501763820648,1.999442458152771,2.0933868885040283
1782969310589834500,8.21583447265625,-0.24687422811985016,1.741522192955017,2.252427101135254
1782969310599760600,8.2257607421875,-0.2477394938468933,1.593590259552002,2.4671599864959717
1782969310609686500,8.2356865234375,-0.24907533824443817,1.5157709121704102,2.685015916824341
1782969310619613400,8.245613525390626,-0.2503555119037628,1.510424017906189,2.8560242652893066
1782969310629539600,8.25553955078125,-0.25411856174468994,1.6120086908340454,2.992952585220337
1782969310639465500,8.265465576171875,-0.27391329407691956,1.797791600227356,3.030017375946045
1782969310649391400,8.275391357421874,-0.322551429271698,2.0333564281463623,2.9392287731170654
1782969310659318500,8.285318603515625,-0.39429378509521484,2.2374167442321777,2.766237735748291
1782969310669244400,8.295244384765626,-0.45656752586364746,2.3372604846954346,2.606106996536255
1782969310679170600,8.305170654296875,-0.4855632483959198,2.2798941135406494,2.435987949371338
1782969310689096400,8.315096435546875,-0.49464860558509827,2.065565824508667,2.230238199234009
1782969310699022600,8.325022705078124,-0.4692668318748474,1.7322262525558472,1.9652965068817139
1782969310708949500,8.334949462890625,-0.4232886731624603,1.410292625427246,1.6408246755599976
1782969310718875400,8.34487548828125,-0.357673704624176,1.163283348083496,1.2765982151031494
1782969310728801500,8.354801513671875,-0.3272537589073181,0.9476746916770935,0.8867833614349365
1782969310738727700,8.364727783203126,-0.3064289093017578,0.7383866906166077,0.4718594253063202
1782969310748654300,8.374654296875,-0.28575077652931213,0.5334348678588867,0.028314994648098946
1782969310758581500,8.38458154296875,-0.24615730345249176,0.3015385568141937,-0.44391751289367676
1782969310768508400,8.39450830078125,-0.19553141295909882,0.02185043692588806,-0.932987630367279
1782969310778434600,8.4044345703125,-0.16959995031356812,-0.2744688391685486,-1.3859952688217163
1782969310788360400,8.4143603515625,-0.1491074562072754,-0.6029213070869446,-1.7079235315322876
1782969310798286300,8.424286376953125,-0.11837271600961685,-0.9566410183906555,-1.8990916013717651
1782969310808213500,8.434213623046874,-0.05687127262353897,-1.2962257862091064,-1.961553692817688
1782969310818139600,8.4441396484375,0.05812322348356247,-1.5833057165145874,-1.8870946168899536
1782969310828065300,8.454065185546876,0.20577925443649292,-1.8057299852371216,-1.7181037664413452
1782969310837991400,8.463991455078125,0.36437663435935974,-1.958282470703125,-1.5623122453689575
1782969310847918600,8.473918701171876,0.474753201007843,-2.0481557846069336,-1.4840174913406372
1782969310857844500,8.483844482421874,0.4716671407222748,-2.0602059364318848,-1.4836326837539673
1782969310867770400,8.493770263671875,0.32641273736953735,-1.9915927648544312,-1.5592586994171143
1782969310877696500,8.503696533203126,0.06638141721487045,-1.8367012739181519,-1.7368133068084717
1782969310887622400,8.513622314453125,-0.2320987433195114,-1.6575047969818115,-2.009310483932495
1782969310897549300,8.52354931640625,-0.4956827163696289,-1.532228708267212,-2.3152685165405273
1782969310907475500,8.533475341796875,-0.7007027268409729,-1.4748969078063965,-2.5808682441711426
1782969310917401600,8.543401611328125,-0.7785719633102417,-1.49711275100708,-2.7829034328460693
1782969310927327500,8.553327392578124,-0.7423420548439026,-1.6850323677062988,-2.8895206451416016
1782969310937254400,8.56325439453125,-0.578687310218811,-2.0070390701293945,-2.673409938812256
1782969310947180500,8.5731806640625,-0.2558102011680603,-2.440063714981079,-2.038299560546875
1782969310957106400,8.5831064453125,0.23743651807308197,-2.8334176540374756,-1.2461953163146973
1782969310967032300,8.5930322265625,0.7509978413581848,-3.1684536933898926,-0.6587371230125427
1782969310976959500,8.60295947265625,1.0569708347320557,-3.274282932281494,-0.42703068256378174
1782969310986885600,8.6128857421875,1.0827491283416748,-2.9327495098114014,-0.31750258803367615
1782969310996811300,8.622811279296876,0.843106210231781,-2.174509286880493,-0.1513839215040207
1782969311006737400,8.6327373046875,0.4220457673072815,-1.0817960500717163,0.10112768411636353
1782969311016664600,8.64266455078125,0.044198352843523026,0.2536280155181885,0.3896937072277069
1782969311026590500,8.652590576171875,-0.17425063252449036,1.530829668045044,0.5669201612472534
1782969311036516400,8.662516357421875,-0.21268349885940552,2.4716451168060303,0.6551133990287781
1782969311046442500,8.6724423828125,-0.1361788809299469,2.8321194648742676,0.723197877407074
1782969311056368400,8.682368408203125,-0.04195171222090721,2.6751232147216797,0.8847782611846924
1782969311066295300,8.69229541015625,-0.0070552462711930275,2.231715679168701,1.154821753501892
1782969311076221400,8.702221435546875,-0.030841002240777016,1.680849313735962,1.4291046857833862
1782969311086147600,8.712147705078126,-0.08312870562076569,1.1899112462997437,1.6848329305648804
1782969311096073500,8.722073486328124,-0.15848471224308014,0.9107110500335693,1.9247533082962036
1782969311106000400,8.73200048828125,-0.24343129992485046,0.8719375729560852,2.1444716453552246
1782969311115926500,8.741926513671874,-0.2885444462299347,1.0277210474014282,2.334134101867676
1782969311125852400,8.751852294921875,-0.29788708686828613,1.2714178562164307,2.3827481269836426
1782969311135778300,8.7617783203125,-0.3182211220264435,1.5702296495437622,2.291900157928467
1782969311145705500,8.77170556640625,-0.3461470305919647,1.9133349657058716,2.1772916316986084
1782969311155631600,8.781631591796875,-0.3815111517906189,2.256864070892334,2.0719540119171143
1782969311165557500,8.7915576171875,-0.401162326335907,2.517969846725464,2.0057106018066406
1782969311175483400,8.8014833984375,-0.41452422738075256,2.5854759216308594,1.9925373792648315
1782969311185410600,8.81141064453125,-0.4089134633541107,2.4763057231903076,1.9991027116775513
1782969311195336400,8.82133642578125,-0.3868824541568756,2.21500301361084,1.998219609260559
1782969311205262300,8.831262451171876,-0.3755131661891937,1.831103801727295,2.001384735107422
1782969311215188500,8.8411884765625,-0.36567091941833496,1.381526231765747,1.9775856733322144
1782969311225114400,8.8511142578125,-0.32752886414527893,0.9558165073394775,1.845744252204895
1782969311235041300,8.861041259765624,-0.26609134674072266,0.6280572414398193,1.5303058624267578
1782969311244967400,8.870967529296875,-0.19019576907157898,0.4312078654766083,1.0303093194961548
1782969311254893600,8.8808935546875,-0.11084821820259094,0.2746925354003906,0.43362361192703247
1782969311264819500,8.8908193359375,-0.06594466418027878,0.10379990190267563,-0.18480074405670166
1782969311274746400,8.900746337890626,-0.047379765659570694,-0.0919637456536293,-0.7772587537765503
1782969311284672500,8.910672607421875,-0.03835111856460571,-0.2932281494140625,-1.2669544219970703
1782969311294598400,8.920598388671875,-0.04381725564599037,-0.4885238707065582,-1.6234744787216187
1782969311304524500,8.930524658203124,-0.05957038700580597,-0.7065267562866211,-1.8486833572387695
1782969311314451500,8.940451416015625,-0.06746000051498413,-0.9360971450805664,-1.946147084236145
1782969311324377600,8.950377685546876,-0.031623706221580505,-1.1114617586135864,-1.950563669204712
1782969311334303500,8.960303466796875,0.06684187799692154,-1.2277960777282715,-1.9078412055969238
1782969311344229400,8.9702294921875,0.21071863174438477,-1.2915574312210083,-1.8809083700180054
1782969311354155500,8.980155517578124,0.3521748185157776,-1.2754626274108887,-1.9529058933258057
1782969311364082400,8.99008251953125,0.4499296247959137,-1.2040941715240479,-2.184271812438965
1782969311374008300,9.00000830078125,0.44428664445877075,-1.1024315357208252,-2.574035406112671
1782969311383934500,9.0099345703125,0.3158591687679291,-1.134130597114563,-3.0966036319732666
1782969311393860400,9.0198603515625,0.11283547431230545,-1.1334043741226196,-3.451573371887207
1782969311403787300,9.029787353515625,-0.189280703663826,-1.7580972909927368,-3.285651445388794
1782969311413713400,9.03971337890625,-0.155521422624588,-1.7269387245178223,-2.2972540855407715
1782969311423639600,9.0496396484375,0.16403208673000336,-1.991292119026184,-1.5407973527908325
1782969311433565400,9.0595654296875,0.43575093150138855,-2.217747211456299,-0.6955202221870422
1782969311443492400,9.069492431640626,0.6356552839279175,-1.8286595344543457,-0.5322338342666626
1782969311453418500,9.07941845703125,0.674019455909729,-1.228712797164917,-0.6883230209350586
1782969311463344400,9.089344482421875,0.4709571301937103,-0.6126053333282471,-1.0843795537948608
1782969311473270500,9.0992705078125,0.11283840239048004,-0.35602256655693054,-1.3082040548324585
1782969311483197400,9.109197509765625,-0.2069462537765503,-0.31912580132484436,-1.0693696737289429
1782969311493123600,9.11912353515625,-0.35737332701683044,-0.3276878595352173,-0.584358811378479
1782969311503049500,9.129049560546875,-0.40227100253105164,-0.3409213721752167,-0.04860508814454079
1782969311512975400,9.138975341796876,-0.3813399076461792,-0.34871405363082886,0.4523352384567261
1782969311522901500,9.148901611328125,-0.3404819369316101,-0.28193020820617676,0.8726662397384644
1782969311532828700,9.15882861328125,-0.30584993958473206,-0.14618517458438873,1.197856068611145
1782969311542754300,9.16875439453125,-0.2355526089668274,0.12221699208021164,1.3885689973831177
1782969311552680400,9.178680419921875,-0.18649238348007202,0.36687707901000977,1.3711590766906738
1782969311562606600,9.188606689453126,-0.19024105370044708,0.5915985703468323,1.240256428718567
1782969311572533200,9.198533203125,-0.22512899339199066,0.7604957222938538,1.0475491285324097
1782969311582459400,9.20845947265625,-0.29334452748298645,0.8688291311264038,0.8715660572052002
1782969311592385500,9.218385498046874,-0.38500094413757324,0.9528891444206238,0.799780011177063
1782969311602311400,9.2283115234375,-0.4744003415107727,0.9823769927024841,0.79164057970047
1782969311612238300,9.23823828125,-0.5329475402832031,0.9428287744522095,0.8044469356536865
1782969311622164500,9.24816455078125,-0.581906795501709,0.8971406817436218,0.8685559034347534
1782969311632090600,9.258090576171876,-0.6383354663848877,0.8510426878929138,0.9992212057113647
1782969311642016500,9.2680166015625,-0.7066897749900818,0.7879191040992737,1.1668493747711182
1782969311651943400,9.277943359375,-0.7056993246078491,0.7718570232391357,1.3224639892578125
1782969311661869600,9.28786962890625,-0.6495846509933472,0.8201217651367188,1.3888016939163208
1782969311671795500,9.29779541015625,-0.5872962474822998,0.9242444634437561,1.3861638307571411
1782969311681721300,9.307721435546876,-0.5169424414634705,1.0595308542251587,1.343274712562561
1782969311691647500,9.3176474609375,-0.4419310688972473,1.1966376304626465,1.2765673398971558
1782969311701574700,9.32757470703125,-0.3641590476036072,1.284299612045288,1.2140322923660278
1782969311711500300,9.337500244140625,-0.29950255155563354,1.210347056388855,1.114479660987854
1782969311721426400,9.347426513671875,-0.27687501907348633,0.9440538287162781,0.9292154908180237
1782969311731353000,9.35735302734375,-0.286580353975296,0.6195743083953857,0.6712950468063354
1782969311741279700,9.36727978515625,-0.2920217514038086,0.3200616240501404,0.35561296343803406
1782969311751206000,9.377205810546876,-0.32903939485549927,0.05961672589182854,0.0015195996966212988
1782969311761132000,9.387132080078125,-0.3486133813858032,-0.1853291094303131,-0.3863370418548584
1782969311771058000,9.397057861328125,-0.3396747410297394,-0.3903954327106476,-0.7961559891700745
1782969311780984800,9.40698486328125,-0.29781490564346313,-0.5736851096153259,-1.177996039390564
1782969311790911000,9.416910888671875,-0.21052314341068268,-0.7723824977874756,-1.4839245080947876
1782969311800837000,9.426837158203124,-0.08878099918365479,-0.9030880331993103,-1.7093405723571777
1782969311810763000,9.436762939453125,0.05366802215576172,-0.946303129196167,-1.8859537839889526
1782969311820689000,9.44668896484375,0.20104336738586426,-0.8719322681427002,-2.045896291732788
1782969311830616000,9.456615966796875,0.3510429859161377,-0.6592564582824707,-2.2376933097839355
1782969311840542000,9.4665419921875,0.44775938987731934,-0.41959941387176514,-2.4687201976776123
1782969311850467800,9.4764677734375,0.45675981044769287,-0.15949565172195435,-2.670865774154663
1782969311860394000,9.48639404296875,0.40389928221702576,0.09595422446727753,-2.7024316787719727
1782969311870321200,9.496321044921874,0.36939534544944763,0.24265845119953156,-2.4760732650756836
1782969311880246800,9.506246826171875,0.3595573604106903,0.09085826575756073,-2.136256694793701
1782969311890173000,9.5161728515625,0.3782077431678772,-0.20896120369434357,-1.682340145111084
1782969311900099000,9.52609912109375,0.41944679617881775,-0.6092993021011353,-1.3010929822921753
1782969311910026000,9.53602587890625,0.3964591920375824,-1.0081596374511719,-0.9323404431343079
1782969311919952000,9.545951904296874,0.3544081449508667,-1.267369031906128,-0.488615483045578
1782969311929878000,9.5558779296875,0.3049844205379486,-1.3574845790863037,-0.11044874787330627
1782969311939804000,9.565803955078126,0.23828713595867157,-1.3550206422805786,0.15005208551883698
1782969311949729800,9.575729736328125,0.15348196029663086,-1.3112914562225342,0.3821481764316559
1782969311959657000,9.585656982421876,0.08796687424182892,-1.171182632446289,0.620751142501831
1782969311969583000,9.5955830078125,0.059174906462430954,-0.8854267597198486,0.8793544769287109
1782969311979509000,9.605509033203125,0.04334241524338722,-0.5220323204994202,1.1024738550186157
1782969311989435000,9.615434814453126,0.021134845912456512,-0.14413321018218994,1.2387001514434814
1782969311999362000,9.625362060546875,0.0007134608458727598,0.17883846163749695,1.2818561792373657
1782969312009288200,9.6352880859375,0.017309747636318207,0.5228911638259888,1.1718199253082275
1782969312019213800,9.6452138671875,0.002159024588763714,0.8166157603263855,1.0158816576004028
1782969312029140000,9.655139892578125,-0.0773770809173584,1.010401964187622,0.9032770991325378
1782969312039067100,9.665067138671875,-0.1761569231748581,1.0710996389389038,0.8356288075447083
1782969312048992800,9.67499267578125,-0.2583996057510376,1.0090738534927368,0.8026881814002991
1782969312058919000,9.6849189453125,-0.294423371553421,0.8590105772018433,0.8104816675186157
1782969312068845000,9.694844970703125,-0.2883705496788025,0.6854044198989868,0.8696839809417725
1782969312078772000,9.70477197265625,-0.2466968595981598,0.49120861291885376,0.9484139680862427
1782969312088697900,9.71469775390625,-0.18419939279556274,0.316387802362442,1.02245032787323
1782969312098624000,9.7246240234375,-0.12249661982059479,0.1809828281402588,1.0800782442092896
1782969312108550100,9.734550048828124,-0.08727765083312988,0.10934086889028549,1.0609759092330933
1782969312118476000,9.74447607421875,-0.08160910755395889,0.0824647843837738,0.9853165745735168
1782969312128403000,9.75440283203125,-0.07131492346525192,0.16745078563690186,0.854235827922821
1782969312138329000,9.7643291015625,-0.08550797402858734,0.28854018449783325,0.6618306636810303
1782969312148255000,9.7742548828125,-0.12284975498914719,0.36596572399139404,0.448830246925354
1782969312158180900,9.784180908203124,-0.16056011617183685,0.40126940608024597,0.2601120173931122
1782969312168108000,9.79410791015625,-0.17801687121391296,0.3507614731788635,0.11568718403577805
1782969312178034200,9.8040341796875,-0.1954619139432907,0.23172616958618164,0.019093533977866173
1782969312187959800,9.813959716796875,-0.18855153024196625,0.07108935713768005,-0.04580823332071304
1782969312197886000,9.823885986328126,-0.17889943718910217,-0.1278117597103119,-0.08774290233850479
1782969312207813000,9.833813232421875,-0.16045598685741425,-0.31910982728004456,-0.09174750000238419
1782969312217738800,9.84373876953125,-0.14794258773326874,-0.3927438259124756,-0.09435766190290451
1782969312227665000,9.853664794921874,-0.143907368183136,-0.38756877183914185,-0.11145142465829849
1782969312237591000,9.863591064453125,-0.14397048950195312,-0.35829421877861023,-0.1428128182888031
1782969312247517000,9.873516845703126,-0.13123339414596558,-0.3852539360523224,-0.024055534973740578
1782969312257443800,9.88344384765625,-0.0969633013010025,-0.39120984077453613,-0.1750442534685135
1782969312267370000,9.893369873046876,-0.059297677129507065,-0.19815729558467865,-0.34292885661125183
1782969312277296000,9.903296142578125,-0.0035502600949257612,-0.05344857648015022,-0.5980695486068726
1782969312287222000,9.913221923828125,0.038538336753845215,0.1395871937274933,-0.796424150466919
1782969312297149000,9.92314892578125,0.07829400897026062,0.3191167414188385,-0.8808567523956299
1782969312307075000,9.933074951171875,0.07252346724271774,0.426787793636322,-0.8487502336502075
1782969312317001000,9.9430009765625,0.05029752478003502,0.417556494474411,-0.7229494452476501
1782969312326926800,9.9529267578125,0.03398832678794861,0.33027005195617676,-0.54013592004776
1782969312336854000,9.96285400390625,0.05365630239248276,0.22153425216674805,-0.3850288987159729
