time,seconds_elapsed,z,y,x
1782952417697431800,0.056431884765625,-0.6744384765625,-0.0863189697265625,-0.0614471435546875
1782952417707359700,0.06635986328125,-0.778656005859375,-0.091461181640625,-0.063018798828125
1782952417717287000,0.076286865234375,-0.868988037109375,-0.095672607421875,-0.069091796875
1782952417727213800,0.0862138671875,-0.94989013671875,-0.1131591796875,-0.09490966796875
1782952417737141000,0.09614111328125,-0.9915618896484375,-0.1188812255859375,-0.1300811767578125
1782952417747069000,0.10606884765625,-1.0240020751953125,-0.120513916015625,-0.1152801513671875
1782952417756995800,0.115995849609375,-1.13177490234375,-0.1331787109375,-0.061370849609375
1782952417766923000,0.125923095703125,-1.3312530517578125,-0.1444854736328125,-0.0354461669921875
1782952417776850000,0.135849853515625,-1.547515869140625,-0.1576385498046875,-0.050018310546875
1782952417786777900,0.14577783203125,-1.76385498046875,-0.197662353515625,-0.0628662109375
1782952417796705000,0.155705078125,-2.0061492919921875,-0.254486083984375,-0.0707550048828125
1782952417806631700,0.165631591796875,-2.2707672119140625,-0.2855072021484375,-0.0874176025390625
1782952417816559900,0.175559814453125,-2.49395751953125,-0.278472900390625,-0.1302032470703125
1782952417826486800,0.18548681640625,-2.6199188232421875,-0.2404327392578125,-0.1777496337890625
1782952417836414000,0.1954140625,-2.6024932861328125,-0.19940185546875,-0.2176055908203125
1782952417846340400,0.20534033203125,-2.4656219482421875,-0.1783447265625,-0.2233428955078125
1782952417856268500,0.2152685546875,-2.2821044921875,-0.186492919921875,-0.1992645263671875
1782952417866195500,0.225195556640625,-2.111663818359375,-0.19390869140625,-0.1689910888671875
1782952417876122400,0.235122314453125,-1.941619873046875,-0.183197021484375,-0.1589813232421875
1782952417886049500,0.245049560546875,-1.75274658203125,-0.1691436767578125,-0.1713409423828125
1782952417895977500,0.2549775390625,-1.55792236328125,-0.157135009765625,-0.16925048828125
1782952417905904600,0.264904541015625,-1.392486572265625,-0.1440277099609375,-0.1419525146484375
1782952417915831600,0.27483154296875,-1.2528076171875,-0.13336181640625,-0.1191253662109375
1782952417925759500,0.284759521484375,-1.1446990966796875,-0.1299285888671875,-0.10546875
1782952417935686700,0.294686767578125,-1.045196533203125,-0.1321868896484375,-0.1022186279296875
1782952417945613600,0.304613525390625,-0.9521331787109375,-0.1301422119140625,-0.093719482421875
1782952417955540500,0.31454052734375,-0.8527984619140625,-0.126495361328125,-0.0841522216796875
1782952417965468700,0.32446875,-0.7467803955078125,-0.1268157958984375,-0.071868896484375
1782952417975395300,0.334395263671875,-0.650390625,-0.1281585693359375,-0.0620574951171875
1782952417985322500,0.344322509765625,-0.5636749267578125,-0.1243896484375,-0.0516510009765625
1782952417995249400,0.35424951171875,-0.483428955078125,-0.1173248291015625,-0.039154052734375
1782952418005177600,0.364177490234375,-0.4172515869140625,-0.1084747314453125,-0.026824951171875
1782952418015104500,0.3741044921875,-0.3691864013671875,-0.0996246337890625,-0.02166748046875
1782952418025031700,0.38403173828125,-0.3646392822265625,-0.095489501953125,-0.0115203857421875
1782952418034958600,0.39395849609375,-0.3927001953125,-0.0873565673828125,-0.0094757080078125
1782952418044886500,0.403886474609375,-0.4134674072265625,-0.072357177734375,-0.02777099609375
1782952418054813700,0.413813720703125,-0.4466094970703125,-0.064544677734375,-0.0356903076171875
1782952418064740400,0.423740234375,-0.4761505126953125,-0.06671142578125,-0.05108642578125
1782952418074667500,0.43366748046875,-0.4897308349609375,-0.0733795166015625,-0.0699462890625
1782952418084595500,0.443595458984375,-0.51898193359375,-0.07806396484375,-0.0618133544921875
1782952418094522400,0.4535224609375,-0.54473876953125,-0.0819854736328125,-0.055328369140625
1782952418104449500,0.463449462890625,-0.570587158203125,-0.0905303955078125,-0.0538177490234375
1782952418114377500,0.47337744140625,-0.587615966796875,-0.096343994140625,-0.0604705810546875
1782952418124304600,0.4833046875,-0.5772247314453125,-0.1009521484375,-0.0658416748046875
1782952418134231600,0.4932314453125,-0.5807037353515625,-0.1171722412109375,-0.062530517578125
1782952418144158700,0.50315869140625,-0.563140869140625,-0.140167236328125,-0.0656890869140625
1782952418154086700,0.513086669921875,-0.5388031005859375,-0.1550750732421875,-0.07427978515625
1782952418164013600,0.523013671875,-0.505615234375,-0.14996337890625,-0.072540283203125
1782952418173940500,0.5329404296875,-0.479034423828125,-0.1303558349609375,-0.07403564453125
1782952418183867400,0.542867431640625,-0.5379486083984375,-0.1077728271484375,-0.107330322265625
1782952418193795300,0.55279541015625,-0.725067138671875,-0.0818023681640625,-0.1384735107421875
1782952418203722500,0.562722412109375,-0.9853973388671875,-0.0633087158203125,-0.14447021484375
1782952418213649400,0.5726494140625,-1.24505615234375,-0.0498809814453125,-0.146697998046875
1782952418223576600,0.58257666015625,-1.3522796630859375,-0.0149383544921875,-0.1665191650390625
1782952418233504500,0.59250439453125,-1.3072662353515625,0.00433349609375,-0.1550140380859375
1782952418243431700,0.602431640625,-1.16876220703125,-0.0207672119140625,-0.1148529052734375
1782952418253358600,0.612358642578125,-1.02044677734375,-0.0610809326171875,-0.0900421142578125
1782952418263286500,0.62228662109375,-0.8582763671875,-0.0543060302734375,-0.0855712890625
1782952418273213700,0.632213623046875,-0.685821533203125,-0.0399932861328125,-0.063690185546875
1782952418283140400,0.642140380859375,-0.5414581298828125,-0.0364532470703125,-0.043548583984375
1782952418293067500,0.652067626953125,-0.4195404052734375,-0.0487518310546875,-0.0252838134765625
1782952418302995500,0.661995361328125,-0.3348388671875,-0.0646514892578125,-0.0055389404296875
1782952418312922400,0.67192236328125,-0.2919769287109375,-0.08648681640625,-0.0012969970703125
1782952418322849500,0.681849609375,-0.27838134765625,-0.109222412109375,-0.0028533935546875
1782952418332776400,0.6917763671875,-0.308319091796875,-0.1220703125,0.00341796875
1782952418342704600,0.70170458984375,-0.39044189453125,-0.1193695068359375,0.01654052734375
1782952418352631600,0.711631591796875,-0.509796142578125,-0.10406494140625,0.0072021484375
1782952418362558700,0.721558837890625,-0.648468017578125,-0.0899200439453125,-0.0013885498046875
1782952418372485600,0.731485595703125,-0.7779083251953125,-0.0941009521484375,-0.0054931640625
1782952418382413600,0.74141357421875,-0.8705902099609375,-0.1128082275390625,-0.0095977783203125
1782952418392340500,0.751340576171875,-0.93817138671875,-0.1313018798828125,0.0042266845703125
1782952418402267400,0.761267333984375,-0.9976348876953125,-0.1515960693359375,0.004730224609375
1782952418412194600,0.771194580078125,-0.9722747802734375,-0.1463165283203125,-0.0220794677734375
1782952418422122500,0.78112255859375,-0.889129638671875,-0.1428985595703125,-0.0590667724609375
1782952418432049400,0.79104931640625,-0.8098907470703125,-0.1327972412109375,-0.1336669921875
1782952418441976600,0.8009765625,-0.7548065185546875,-0.118804931640625,-0.1676788330078125
1782952418451904500,0.810904541015625,-0.7298736572265625,-0.1011199951171875,-0.14044189453125
1782952418461831700,0.820831787109375,-0.7742767333984375,-0.0957489013671875,-0.0873260498046875
1782952418471758600,0.830758544921875,-0.869232177734375,-0.097930908203125,-0.0354766845703125
1782952418481685800,0.840685791015625,-0.96038818359375,-0.0968780517578125,-0.011871337890625
1782952418491613700,0.85061376953125,-1.0491180419921875,-0.087799072265625,0.0023193359375
1782952418501540400,0.860540283203125,-1.2191619873046875,-0.0942535400390625,0.0521087646484375
1782952418511467500,0.870467529296875,-1.4302215576171875,-0.1390533447265625,0.092193603515625
1782952418521394400,0.88039453125,-1.6510772705078125,-0.181793212890625,0.0557403564453125
1782952418531322400,0.890322265625,-1.8674774169921875,-0.1959228515625,-0.0113067626953125
1782952418541249500,0.90024951171875,-2.065765380859375,-0.1916351318359375,-0.0373992919921875
1782952418551176400,0.910176513671875,-2.3001708984375,-0.1813812255859375,-0.0329742431640625
1782952418561103600,0.920103515625,-2.53192138671875,-0.193267822265625,-0.0282745361328125
1782952418571031600,0.930031494140625,-2.658843994140625,-0.20843505859375,-0.0171966552734375
1782952418580958700,0.939958740234375,-2.6701507568359375,-0.18255615234375,-0.007781982421875
1782952418590885600,0.9498857421875,-2.5846099853515625,-0.1670684814453125,-0.0019073486328125
1782952418600813600,0.9598134765625,-2.423309326171875,-0.166961669921875,-0.0211029052734375
1782952418610740500,0.969740478515625,-2.2298736572265625,-0.166778564453125,-0.063934326171875
1782952418620667400,0.97966748046875,-2.0303802490234375,-0.17083740234375,-0.0929718017578125
1782952418630594600,0.989594482421875,-1.8606414794921875,-0.1543731689453125,-0.1321563720703125
1782952418640522500,0.9995224609375,-1.731964111328125,-0.1394500732421875,-0.171295166015625
1782952418650449400,1.009449462890625,-1.6202850341796875,-0.154296875,-0.192962646484375
1782952418660376600,1.01937646484375,-1.531219482421875,-0.1596832275390625,-0.2017974853515625
1782952418670303500,1.029303466796875,-1.4744873046875,-0.1633453369140625,-0.19061279296875
1782952418680231700,1.039231689453125,-1.4258575439453125,-0.1732635498046875,-0.1672515869140625
1782952418690158600,1.04915869140625,-1.3722686767578125,-0.1773529052734375,-0.1421356201171875
1782952418700085800,1.059085693359375,-1.3072357177734375,-0.1785430908203125,-0.110687255859375
1782952418710012400,1.069012451171875,-1.1656341552734375,-0.1875457763671875,-0.0841064453125
1782952418719940400,1.0789404296875,-0.98040771484375,-0.182708740234375,-0.0651397705078125
1782952418729867500,1.088867431640625,-0.8014984130859375,-0.1679534912109375,-0.047454833984375
1782952418739794400,1.09879443359375,-0.6283721923828125,-0.15240478515625,-0.0220184326171875
1782952418749721600,1.1087216796875,-0.46697998046875,-0.1365814208984375,0.003570556640625
1782952418759649500,1.1186494140625,-0.3280181884765625,-0.1306915283203125,0.018524169921875
1782952418769576400,1.128576416015625,-0.23883056640625,-0.126434326171875,0.0214691162109375
1782952418779503600,1.138503662109375,-0.213531494140625,-0.1021881103515625,0.01495361328125
1782952418789430500,1.148430419921875,-0.225830078125,-0.1001434326171875,0.044525146484375
1782952418799358700,1.158358642578125,-0.26422119140625,-0.0995941162109375,0.039794921875
1782952418809285600,1.16828564453125,-0.3068695068359375,-0.0676116943359375,0.0075225830078125
1782952418819212500,1.178212646484375,-0.338958740234375,-0.0420379638671875,-0.0128021240234375
1782952418829140500,1.188140380859375,-0.388397216796875,-0.0006103515625,-0.0574951171875
1782952418839067400,1.1980673828125,-0.3896331787109375,-0.0109710693359375,-0.0701446533203125
1782952418848995000,1.2079951171875,-0.4016876220703125,-0.0680999755859375,-0.0923919677734375
1782952418858922000,1.217921875,-0.4573211669921875,-0.109130859375,-0.074798583984375
1782952418868850000,1.227849853515625,-0.5167236328125,-0.1499176025390625,-0.02197265625
1782952418878776800,1.23777685546875,-0.546173095703125,-0.184844970703125,0.010528564453125
1782952418888703700,1.247703857421875,-0.536163330078125,-0.22039794921875,0.0232086181640625
1782952418898631000,1.257630859375,-0.51812744140625,-0.2387847900390625,0.01141357421875
1782952418908558800,1.267558837890625,-0.533538818359375,-0.210540771484375,-0.0472412109375
1782952418918485800,1.27748583984375,-0.5718841552734375,-0.18609619140625,-0.0741424560546875
1782952418928413000,1.287412841796875,-0.6428375244140625,-0.18316650390625,-0.043853759765625
1782952418938339800,1.29733984375,-0.7517242431640625,-0.157379150390625,-0.041839599609375
1782952418948268000,1.30726806640625,-0.8694305419921875,-0.158477783203125,-0.0102691650390625
1782952418958195000,1.31719482421875,-0.963470458984375,-0.179840087890625,0.0219573974609375
1782952418968122000,1.3271220703125,-1.057891845703125,-0.1790618896484375,0.03350830078125
1782952418978048800,1.337048828125,-1.122314453125,-0.1748199462890625,0.0345611572265625
1782952418987976700,1.346976806640625,-1.13641357421875,-0.1620635986328125,0.0221710205078125
1782952418997904000,1.35690380859375,-1.117401123046875,-0.14410400390625,0.01837158203125
1782952419007830800,1.366830810546875,-1.093109130859375,-0.1334381103515625,0.055389404296875
1782952419017758000,1.376758056640625,-1.0520782470703125,-0.1295623779296875,0.0446319580078125
1782952419027686000,1.386685791015625,-0.9853668212890625,-0.122955322265625,-0.0021514892578125
1782952419037612800,1.39661279296875,-0.904998779296875,-0.1095733642578125,-0.01953125
1782952419047540000,1.4065400390625,-0.8207550048828125,-0.0946807861328125,-0.01995849609375
1782952419057468000,1.416468017578125,-0.75103759765625,-0.09027099609375,-0.0174407958984375
1782952419067395000,1.42639501953125,-0.701385498046875,-0.0852203369140625,-0.015533447265625
1782952419077322000,1.436322021484375,-0.65252685546875,-0.0795440673828125,-0.0150146484375
1782952419087249000,1.446248779296875,-0.6161651611328125,-0.074981689453125,-0.0215911865234375
1782952419097176800,1.4561767578125,-0.61907958984375,-0.06097412109375,-0.0164642333984375
1782952419107103700,1.466103759765625,-0.6445770263671875,-0.04071044921875,-0.00787353515625
1782952419117031000,1.476031005859375,-0.6486358642578125,-0.032501220703125,-0.012237548828125
1782952419126957800,1.485957763671875,-0.608367919921875,-0.0460052490234375,-0.00213623046875
1782952419136885800,1.4958857421875,-0.5521392822265625,-0.068756103515625,0.019622802734375
1782952419146813000,1.50581298828125,-0.52252197265625,-0.0891571044921875,0.041290283203125
1782952419156739800,1.51573974609375,-0.5518341064453125,-0.096832275390625,0.0811309814453125
1782952419166667000,1.5256669921875,-0.655120849609375,-0.088409423828125,0.0839080810546875
1782952419176595000,1.535594970703125,-0.7529449462890625,-0.084259033203125,0.0648040771484375
1782952419186522000,1.545522216796875,-0.7817840576171875,-0.0759735107421875,0.02923583984375
1782952419196448800,1.55544873046875,-0.7417449951171875,-0.077362060546875,-0.0072174072265625
1782952419206376000,1.5653759765625,-0.6590423583984375,-0.0935516357421875,-0.027191162109375
1782952419216303900,1.575303955078125,-0.584747314453125,-0.1140289306640625,-0.02862548828125
1782952419226230800,1.585230712890625,-0.510040283203125,-0.116943359375,-0.04693603515625
1782952419236158000,1.595157958984375,-0.4552001953125,-0.1076202392578125,-0.07794189453125
1782952419246084900,1.6050849609375,-0.46026611328125,-0.113677978515625,-0.1215667724609375
1782952419256012800,1.6150126953125,-0.498870849609375,-0.144256591796875,-0.15625
1782952419265940000,1.62493994140625,-0.554931640625,-0.171356201171875,-0.152862548828125
1782952419275867000,1.634866943359375,-0.6694488525390625,-0.1987457275390625,-0.118072509765625
1782952419285794000,1.6447939453125,-0.878173828125,-0.242828369140625,-0.068572998046875
1782952419295722000,1.654721923828125,-1.1790008544921875,-0.303131103515625,-0.01324462890625
1782952419305649000,1.66464892578125,-1.5396881103515625,-0.370361328125,0.0501708984375
1782952419315575800,1.674575927734375,-1.8990631103515625,-0.4407196044921875,0.1180267333984375
1782952419325503700,1.684503662109375,-2.138946533203125,-0.474884033203125,0.1421966552734375
1782952419335431000,1.694430908203125,-2.2094879150390625,-0.46368408203125,0.1666412353515625
1782952419345357800,1.70435791015625,-2.2115325927734375,-0.4390411376953125,0.15838623046875
1782952419355285000,1.714284912109375,-2.2412567138671875,-0.4208221435546875,0.093475341796875
1782952419365213000,1.724212890625,-2.327606201171875,-0.4244384765625,0.0367584228515625
1782952419375139800,1.734139892578125,-2.4273834228515625,-0.4374237060546875,0.006744384765625
1782952419385067000,1.74406689453125,-2.48956298828125,-0.4468231201171875,-0.005706787109375
1782952419394994000,1.753993896484375,-2.487213134765625,-0.43646240234375,-0.008148193359375
1782952419404922000,1.763922119140625,-2.4123687744140625,-0.4151153564453125,-0.0177154541015625
1782952419414848800,1.773848876953125,-2.29443359375,-0.38922119140625,-0.039215087890625
1782952419424776000,1.78377587890625,-2.13671875,-0.3641815185546875,-0.070709228515625
1782952419434702800,1.793702880859375,-1.9510650634765625,-0.33734130859375,-0.087982177734375
1782952419444630800,1.803630859375,-1.7547607421875,-0.3041229248046875,-0.09771728515625
1782952419454558000,1.813557861328125,-1.5534515380859375,-0.2796478271484375,-0.103302001953125
1782952419464484900,1.82348486328125,-1.371856689453125,-0.262451171875,-0.0988311767578125
1782952419474412000,1.833412109375,-1.2126312255859375,-0.2464599609375,-0.089019775390625
1782952419484340000,1.843340087890625,-1.0657806396484375,-0.227294921875,-0.08123779296875
1782952419494267000,1.853266845703125,-0.9343109130859375,-0.2111968994140625,-0.0697021484375
1782952419504194000,1.863194091796875,-0.810516357421875,-0.1957550048828125,-0.0592803955078125
1782952419514120700,1.87312060546875,-0.69940185546875,-0.175048828125,-0.058013916015625
1782952419524049000,1.883048828125,-0.6024169921875,-0.14874267578125,-0.0577545166015625
1782952419533975800,1.892975830078125,-0.52557373046875,-0.12432861328125,-0.0438385009765625
1782952419543903000,1.902903076171875,-0.4579925537109375,-0.1067962646484375,-0.0421142578125
1782952419553830000,1.912829833984375,-0.388519287109375,-0.1036376953125,-0.061004638671875
1782952419563757800,1.9227578125,-0.339141845703125,-0.100555419921875,-0.0731048583984375
1782952419573685000,1.93268505859375,-0.29345703125,-0.090301513671875,-0.0638580322265625
1782952419583612000,1.94261181640625,-0.253509521484375,-0.0836944580078125,-0.04827880859375
1782952419593539000,1.9525390625,-0.22943115234375,-0.080718994140625,-0.03192138671875
1782952419603467000,1.962467041015625,-0.233856201171875,-0.0784149169921875,-0.018402099609375
1782952419613394000,1.972393798828125,-0.2734222412109375,-0.0831146240234375,-0.002838134765625
1782952419623320800,1.98232080078125,-0.3172760009765625,-0.08831787109375,0.002288818359375
1782952419633248800,1.992248779296875,-0.3441162109375,-0.08868408203125,0.0017547607421875
1782952419643176000,2.002176025390625,-0.35467529296875,-0.0934295654296875,-0.00262451171875
1782952419653102800,2.012102783203125,-0.372772216796875,-0.1184539794921875,-0.0228118896484375
1782952419663030000,2.022030029296875,-0.3986358642578125,-0.144378662109375,-0.03900146484375
1782952419672958000,2.0319580078125,-0.4090576171875,-0.1620635986328125,-0.0449371337890625
1782952419682884900,2.041884765625,-0.4382781982421875,-0.1862030029296875,-0.031402587890625
1782952419692812000,2.05181201171875,-0.500762939453125,-0.206756591796875,-0.016571044921875
1782952419702739000,2.061739013671875,-0.578948974609375,-0.210723876953125,-0.011505126953125
1782952419712667000,2.0716669921875,-0.68145751953125,-0.2093658447265625,-0.0186309814453125
1782952419722594000,2.081593994140625,-0.7577362060546875,-0.2085418701171875,-0.033294677734375
1782952419732520700,2.091520751953125,-0.883209228515625,-0.17095947265625,-0.0620880126953125
1782952419742447900,2.10144775390625,-1.083984375,-0.149688720703125,-0.074249267578125
1782952419752375800,2.111375732421875,-1.2825927734375,-0.16973876953125,-0.0779266357421875
1782952419762303000,2.121302978515625,-1.3994903564453125,-0.201416015625,-0.065277099609375
1782952419772230000,2.13122998046875,-1.4167633056640625,-0.2056121826171875,-0.0263824462890625
1782952419782157000,2.141156982421875,-1.37603759765625,-0.181854248046875,0.0017242431640625
1782952419792085000,2.1510849609375,-1.2921142578125,-0.1536102294921875,0.0094451904296875
1782952419802012000,2.161011962890625,-1.167022705078125,-0.130279541015625,-0.002105712890625
1782952419811939000,2.17093896484375,-1.0135498046875,-0.12127685546875,-0.02056884765625
1782952419821865700,2.18086572265625,-0.8791961669921875,-0.122955322265625,-0.014404296875
1782952419831793700,2.190793701171875,-0.780303955078125,-0.124420166015625,0.0002593994140625
1782952419841721300,2.200721435546875,-0.705078125,-0.12176513671875,0.012481689453125
1782952419851648300,2.210648193359375,-0.6419219970703125,-0.1267242431640625,0.011810302734375
1782952419861576200,2.220576171875,-0.576904296875,-0.1399993896484375,0.000701904296875
1782952419871503400,2.23050341796875,-0.5242767333984375,-0.145050048828125,0.003631591796875
1782952419881430300,2.24043017578125,-0.4898223876953125,-0.142730712890625,0.0138092041015625
1782952419891357400,2.250357421875,-0.476226806640625,-0.1369171142578125,0.0159912109375
1782952419901285400,2.260285400390625,-0.49395751953125,-0.123931884765625,0.011627197265625
1782952419911212500,2.270212646484375,-0.5296478271484375,-0.1100616455078125,0.0131988525390625
1782952419921139500,2.280139404296875,-0.55755615234375,-0.0989990234375,0.0117034912109375
1782952419931066600,2.290066650390625,-0.5731353759765625,-0.0911865234375,0.006683349609375
1782952419940994600,2.29999462890625,-0.597442626953125,-0.08642578125,-0.0110626220703125
1782952419950921200,2.309921142578125,-0.62066650390625,-0.0779571533203125,-0.026885986328125
1782952419960848400,2.319848388671875,-0.6492919921875,-0.075714111328125,-0.036407470703125
1782952419970775300,2.329775390625,-0.6622314453125,-0.09759521484375,-0.04803466796875
1782952419980703200,2.339703125,-0.669036865234375,-0.131988525390625,-0.051361083984375
1782952419990630400,2.34963037109375,-0.63641357421875,-0.1556243896484375,-0.0641021728515625
1782952420000557300,2.359557373046875,-0.581298828125,-0.163421630859375,-0.0552520751953125
1782952420010484500,2.369484375,-0.559661865234375,-0.1700439453125,-0.0299224853515625
1782952420020412400,2.379412353515625,-0.5761566162109375,-0.1759033203125,-0.018157958984375
1782952420030339600,2.389339599609375,-0.6185760498046875,-0.1778564453125,0.003143310546875
1782952420040266500,2.3992666015625,-0.7091217041015625,-0.158966064453125,0.02960205078125
1782952420050193400,2.409193359375,-0.79693603515625,-0.1400146484375,0.02679443359375
1782952420060121300,2.419121337890625,-0.9076995849609375,-0.1394195556640625,0.008544921875
1782952420070048300,2.42904833984375,-1.0504913330078125,-0.1526031494140625,-0.01214599609375
1782952420079975400,2.438975341796875,-1.2108306884765625,-0.182525634765625,-0.014862060546875
1782952420089902300,2.44890234375,-1.38226318359375,-0.234619140625,-0.00048828125
1782952420099830300,2.458830322265625,-1.541748046875,-0.2956085205078125,0.012939453125
1782952420109757400,2.46875732421875,-1.6881256103515625,-0.3435821533203125,0.0391387939453125
1782952420119684400,2.478684326171875,-1.79779052734375,-0.3579864501953125,0.06842041015625
1782952420129611500,2.488611572265625,-1.9133453369140625,-0.3394012451171875,0.0791778564453125
1782952420139539500,2.49853955078125,-2.051422119140625,-0.3011016845703125,0.0639495849609375
1782952420149466600,2.508466552734375,-2.2031402587890625,-0.2662506103515625,0.0288238525390625
1782952420159393300,2.518393310546875,-2.336883544921875,-0.24871826171875,-0.0074005126953125
1782952420169320400,2.528320556640625,-2.4484405517578125,-0.2450103759765625,-0.0289306640625
1782952420179248400,2.538248291015625,-2.5365753173828125,-0.2571563720703125,-0.0485687255859375
1782952420189175300,2.54817529296875,-2.5463409423828125,-0.2776031494140625,-0.0693817138671875
1782952420199102500,2.5581025390625,-2.46466064453125,-0.2869873046875,-0.073577880859375
1782952420209030400,2.568030517578125,-2.2873382568359375,-0.2809600830078125,-0.0758056640625
1782952420218957300,2.577957275390625,-2.077178955078125,-0.2514495849609375,-0.08526611328125
1782952420228884500,2.587884521484375,-1.820648193359375,-0.2637481689453125,-0.0595855712890625
1782952420238811400,2.597811279296875,-1.608184814453125,-0.2678680419921875,-0.028717041015625
1782952420248739600,2.607739501953125,-1.44439697265625,-0.28021240234375,-0.0092010498046875
1782952420258666500,2.61766650390625,-1.3149566650390625,-0.29351806640625,0.0123748779296875
1782952420268593400,2.627593505859375,-1.22149658203125,-0.29644775390625,0.0207061767578125
1782952420278520300,2.637520263671875,-1.152191162109375,-0.2852325439453125,0.017669677734375
1782952420288448300,2.6474482421875,-1.0762176513671875,-0.265289306640625,0.0186920166015625
1782952420298375400,2.65737548828125,-0.9886322021484375,-0.2417755126953125,0.017303466796875
1782952420308302300,2.66730224609375,-0.8934783935546875,-0.2246856689453125,0.006195068359375
1782952420318229500,2.6772294921875,-0.7911224365234375,-0.2118072509765625,-0.0116729736328125
1782952420328157400,2.687157470703125,-0.6868896484375,-0.199249267578125,-0.0344696044921875
1782952420338084400,2.69708447265625,-0.58294677734375,-0.1739501953125,-0.0427398681640625
1782952420348011500,2.707011474609375,-0.470977783203125,-0.1394195556640625,-0.046539306640625
1782952420357938200,2.716938232421875,-0.3782196044921875,-0.09197998046875,-0.058135986328125
1782952420367866600,2.72686669921875,-0.3134918212890625,-0.0756988525390625,-0.041534423828125
1782952420377793300,2.736793212890625,-0.28662109375,-0.0709228515625,-0.025665283203125
1782952420387720400,2.746720458984375,-0.319854736328125,-0.0632781982421875,-0.0235137939453125
1782952420397647400,2.7566474609375,-0.3645172119140625,-0.0608367919921875,-0.0154876708984375
1782952420407575300,2.7665751953125,-0.391815185546875,-0.0581817626953125,0.0146026611328125
1782952420417502500,2.77650244140625,-0.4282684326171875,-0.0530242919921875,0.0662384033203125
1782952420427429400,2.786429443359375,-0.478240966796875,-0.054962158203125,0.116851806640625
1782952420437356500,2.7963564453125,-0.5095977783203125,-0.072509765625,0.138641357421875
1782952420447284500,2.806284423828125,-0.5372314453125,-0.108001708984375,0.1122894287109375
1782952420457211400,2.81621142578125,-0.5333099365234375,-0.130859375,0.0543975830078125
1782952420467138300,2.82613818359375,-0.515716552734375,-0.112518310546875,-0.0251922607421875
1782952420477065200,2.836065185546875,-0.4435577392578125,-0.1057281494140625,-0.0874481201171875
1782952420486993400,2.845993408203125,-0.3218231201171875,-0.117218017578125,-0.1278228759765625
1782952420496920300,2.85592041015625,-0.2339019775390625,-0.142730712890625,-0.12841796875
1782952420506847500,2.865847412109375,-0.232452392578125,-0.1511383056640625,-0.143218994140625
1782952420516775400,2.875775390625,-0.3032989501953125,-0.15338134765625,-0.191436767578125
1782952420526702300,2.885702392578125,-0.43035888671875,-0.129119873046875,-0.2017364501953125
1782952420536629500,2.89562939453125,-0.6175689697265625,-0.110992431640625,-0.15997314453125
1782952420546556400,2.905556396484375,-0.8825225830078125,-0.0855255126953125,-0.1174774169921875
1782952420556484400,2.915484375,-1.170166015625,-0.05767822265625,-0.10919189453125
1782952420566411500,2.92541162109375,-1.3105621337890625,-0.03997802734375,-0.1083221435546875
1782952420576338200,2.935338134765625,-1.2675018310546875,-0.036376953125,-0.095458984375
1782952420586265300,2.945265380859375,-1.1410675048828125,-0.0712432861328125,-0.0729217529296875
1782952420596193300,2.955193359375,-1.0014190673828125,-0.0872802734375,-0.0874481201171875
1782952420606120400,2.965120361328125,-0.81689453125,-0.08135986328125,-0.075408935546875
1782952420616047400,2.97504736328125,-0.6405487060546875,-0.08294677734375,-0.0304412841796875
1782952420625974500,2.984974609375,-0.4883880615234375,-0.0968475341796875,-0.0208587646484375
1782952420635902500,2.99490234375,-0.3721771240234375,-0.1051788330078125,-0.0276336669921875
1782952420645829400,3.004829345703125,-0.33642578125,-0.09619140625,-0.033233642578125
1782952420655756500,3.014756591796875,-0.3765411376953125,-0.0816192626953125,-0.03765869140625
1782952420665683500,3.024683349609375,-0.4685821533203125,-0.0774688720703125,-0.04022216796875
1782952420675611400,3.034611328125,-0.568206787109375,-0.0836181640625,-0.0596923828125
1782952420685538300,3.044538330078125,-0.6427459716796875,-0.092437744140625,-0.064178466796875
1782952420695465200,3.05446533203125,-0.672637939453125,-0.1014556884765625,-0.0382537841796875
1782952420705392400,3.064392333984375,-0.7067413330078125,-0.108123779296875,-0.0088653564453125
1782952420715320300,3.0743203125,-0.755645751953125,-0.128326416015625,0.0361785888671875
1782952420725247500,3.08424755859375,-0.8286895751953125,-0.152679443359375,0.0924072265625
1782952420735174400,3.09417431640625,-0.917755126953125,-0.1703643798828125,0.132659912109375
1782952420745101600,3.1041015625,-1.00677490234375,-0.1798248291015625,0.1298065185546875
1782952420755029500,3.114029541015625,-1.024505615234375,-0.1852264404296875,0.098602294921875
1782952420764956400,3.123956298828125,-0.9534912109375,-0.1822357177734375,0.0597686767578125
1782952420774883600,3.133883544921875,-0.842254638671875,-0.15740966796875,0.0081634521484375
1782952420784810200,3.143810302734375,-0.7108001708984375,-0.1278076171875,-0.04571533203125
1782952420794738200,3.15373828125,-0.608367919921875,-0.10565185546875,-0.0684661865234375
1782952420804665300,3.163665283203125,-0.58380126953125,-0.099945068359375,-0.0906219482421875
1782952420814592300,3.17359228515625,-0.6927032470703125,-0.117523193359375,-0.1062469482421875
1782952420824519400,3.18351953125,-0.8941497802734375,-0.14788818359375,-0.068389892578125
1782952420834447400,3.193447265625,-1.1408538818359375,-0.1815185546875,0.005828857421875
1782952420844374300,3.203374267578125,-1.4133453369140625,-0.2286224365234375,0.0733642578125
1782952420854301200,3.21330126953125,-1.6692047119140625,-0.2695465087890625,0.1107177734375
1782952420864228400,3.223228271484375,-1.9048614501953125,-0.305206298828125,0.1274871826171875
1782952420874156300,3.23315625,-2.05609130859375,-0.3319549560546875,0.08843994140625
1782952420884083200,3.243083251953125,-2.1238861083984375,-0.324859619140625,0.0133819580078125
1782952420894010400,3.25301025390625,-2.174041748046875,-0.2928009033203125,-0.058135986328125
1782952420903938300,3.262938232421875,-2.2259674072265625,-0.266387939453125,-0.126922607421875
1782952420913865200,3.272865234375,-2.278778076171875,-0.263214111328125,-0.1564483642578125
1782952420923792400,3.28279248046875,-2.325439453125,-0.26953125,-0.1478118896484375
1782952420933719300,3.29271923828125,-2.3570556640625,-0.2677459716796875,-0.10870361328125
1782952420943647500,3.3026474609375,-2.34490966796875,-0.250335693359375,-0.0683441162109375
1782952420953574100,3.31257421875,-2.25103759765625,-0.24346923828125,-0.0465545654296875
1782952420963501300,3.322501220703125,-2.087738037109375,-0.2469329833984375,-0.0317840576171875
1782952420973428200,3.33242822265625,-1.8828277587890625,-0.2546844482421875,-0.00750732421875
1782952420983356200,3.342356201171875,-1.6860504150390625,-0.2563934326171875,0.0220794677734375
1782952420993283300,3.352283447265625,-1.5227508544921875,-0.2486724853515625,0.0482025146484375
1782952421003210200,3.362210205078125,-1.394683837890625,-0.252410888671875,0.059844970703125
1782952421013137400,3.372137451171875,-1.29541015625,-0.2490081787109375,0.067169189453125
1782952421023065300,3.3820654296875,-1.1919403076171875,-0.237945556640625,0.0565185546875
1782952421032992300,3.3919921875,-1.0847320556640625,-0.22369384765625,0.042327880859375
1782952421042919400,3.40191943359375,-0.980438232421875,-0.210205078125,0.0286712646484375
1782952421052846000,3.41184619140625,-0.87744140625,-0.18536376953125,0.0050048828125
1782952421062774300,3.421774169921875,-0.7736663818359375,-0.1608428955078125,-0.0186920166015625
1782952421072701200,3.431701171875,-0.6740875244140625,-0.1356353759765625,-0.036346435546875
1782952421082628400,3.44162841796875,-0.5801239013671875,-0.1126708984375,-0.0399932861328125
1782952421092555300,3.45155517578125,-0.4919586181640625,-0.102294921875,-0.054473876953125
1782952421102483200,3.461483154296875,-0.416412353515625,-0.0929412841796875,-0.0502471923828125
1782952421112410400,3.471410400390625,-0.36767578125,-0.080230712890625,-0.0390777587890625
1782952421122337300,3.481337158203125,-0.3321380615234375,-0.0817718505859375,-0.0319976806640625
1782952421132264400,3.491264404296875,-0.32177734375,-0.0994415283203125,-0.0087432861328125
1782952421142192400,3.5011923828125,-0.34173583984375,-0.0853118896484375,0.0255126953125
1782952421152119000,3.511119140625,-0.3870697021484375,-0.0822601318359375,0.0496063232421875
1782952421162046200,3.521046142578125,-0.4489593505859375,-0.0879058837890625,0.061859130859375
1782952421171973000,3.53097314453125,-0.50152587890625,-0.092437744140625,0.0567779541015625
1782952421181901300,3.5409013671875,-0.507232666015625,-0.102874755859375,0.04156494140625
1782952421191828200,3.550828125,-0.474945068359375,-0.1082611083984375,0.02874755859375
1782952421201755400,3.56075537109375,-0.4373626708984375,-0.1159820556640625,0.023651123046875
1782952421211682300,3.570682373046875,-0.4203033447265625,-0.130950927734375,0.0201568603515625
1782952421221610200,3.5806103515625,-0.4225921630859375,-0.1512451171875,0.021759033203125
1782952421231537400,3.590537353515625,-0.4285125732421875,-0.1675872802734375,0.01171875
1782952421241464300,3.60046435546875,-0.4637298583984375,-0.178009033203125,0.0122222900390625
1782952421251391200,3.61039111328125,-0.5423431396484375,-0.169219970703125,0.010772705078125
1782952421261319200,3.620319091796875,-0.635040283203125,-0.1583709716796875,-0.005706787109375
1782952421271246000,3.63024609375,-0.7270050048828125,-0.1471405029296875,-0.0319366455078125
1782952421281173200,3.64017333984375,-0.8709716796875,-0.0918121337890625,-0.0601959228515625
1782952421291101200,3.65010107421875,-0.9898529052734375,-0.06427001953125,-0.0797119140625
1782952421301028400,3.6600283203125,-1.0348968505859375,-0.0895538330078125,-0.1004638671875
1782952421310955300,3.669955322265625,-1.0256805419921875,-0.1189727783203125,-0.1060028076171875
1782952421320882400,3.67988232421875,-1.068267822265625,-0.10986328125,-0.0837249755859375
1782952421330810400,3.689810302734375,-1.1701202392578125,-0.093536376953125,-0.055877685546875
1782952421340737300,3.6997373046875,-1.2307586669921875,-0.0862884521484375,-0.0422210693359375
1782952421350664400,3.70966455078125,-1.1687164306640625,-0.0951385498046875,-0.0291900634765625
1782952421360591000,3.719591064453125,-1.022918701171875,-0.1054229736328125,-0.0126190185546875
1782952421370519000,3.72951904296875,-0.8549041748046875,-0.1126251220703125,0.0141448974609375
1782952421380446200,3.7394462890625,-0.7073822021484375,-0.118743896484375,0.0331573486328125
1782952421390373000,3.749373046875,-0.5897064208984375,-0.122772216796875,0.0399017333984375
1782952421400300300,3.75930029296875,-0.497833251953125,-0.1134185791015625,0.047515869140625
1782952421410228200,3.769228271484375,-0.4316253662109375,-0.0732269287109375,0.0601043701171875
1782952421420155400,3.7791552734375,-0.3893890380859375,-0.0444183349609375,0.053863525390625
1782952421430082300,3.789082275390625,-0.3691864013671875,-0.0239715576171875,0.0257720947265625
1782952421440009500,3.799009521484375,-0.3661956787109375,-0.01824951171875,-0.00189208984375
1782952421449937400,3.8089375,-0.3663482666015625,-0.0277862548828125,-0.0204315185546875
1782952421459864300,3.8188642578125,-0.36328125,-0.0337982177734375,-0.029205322265625
1782952421469791200,3.828791259765625,-0.400390625,-0.0358123779296875,-0.0269317626953125
1782952421479718100,3.83871826171875,-0.4943695068359375,-0.0414886474609375,-0.0318603515625
1782952421489646000,3.84864599609375,-0.62030029296875,-0.052001953125,-0.0321502685546875
1782952421499573200,3.8585732421875,-0.7232513427734375,-0.0656280517578125,-0.02197265625
1782952421509500200,3.868500244140625,-0.7957000732421875,-0.0791168212890625,-0.0208282470703125
1782952421519427300,3.87842724609375,-0.8435211181640625,-0.1069488525390625,-0.0400848388671875
1782952421529355300,3.888355224609375,-0.8626251220703125,-0.1408233642578125,-0.0775146484375
1782952421539282400,3.898282470703125,-0.875762939453125,-0.1704559326171875,-0.1117095947265625
1782952421549209300,3.908209228515625,-0.922332763671875,-0.1930084228515625,-0.10760498046875
1782952421559136500,3.918136474609375,-0.9792327880859375,-0.1944580078125,-0.0764007568359375
1782952421569064400,3.928064453125,-1.0062713623046875,-0.174835205078125,-0.0704498291015625
1782952421578991000,3.9379912109375,-1.022064208984375,-0.126678466796875,-0.0493011474609375
1782952421588918300,3.947918212890625,-1.08056640625,-0.0674285888671875,0.001068115234375
1782952421598845200,3.95784521484375,-1.209014892578125,-0.0320281982421875,0.0424652099609375
1782952421608773000,3.967773193359375,-1.4099273681640625,-0.0459442138671875,0.042449951171875
1782952421618700300,3.9777001953125,-1.658538818359375,-0.100921630859375,0.0051422119140625
1782952421628627200,3.987627197265625,-1.88250732421875,-0.18170166015625,-0.0321807861328125
1782952421638555400,3.997555419921875,-2.038177490234375,-0.24322509765625,-0.042694091796875
1782952421648482300,4.007482421875,-2.148284912109375,-0.241485595703125,-0.0364227294921875
1782952421658409500,4.017409423828125,-2.2491912841796875,-0.1903839111328125,-0.053314208984375
1782952421668336400,4.02733642578125,-2.342193603515625,-0.1484375,-0.093597412109375
1782952421678264300,4.037264404296875,-2.3970184326171875,-0.1360931396484375,-0.14349365234375
1782952421688191200,4.047191162109375,-2.39398193359375,-0.1301116943359375,-0.1922607421875
1782952421698118100,4.0571181640625,-2.3471527099609375,-0.1217498779296875,-0.2296905517578125
1782952421708045300,4.06704541015625,-2.2909698486328125,-0.11181640625,-0.2247467041015625
1782952421717973200,4.07697314453125,-2.201568603515625,-0.1078643798828125,-0.193572998046875
1782952421727900200,4.086900146484375,-2.0901336669921875,-0.1189422607421875,-0.168304443359375
1782952421737827300,4.096827392578125,-1.9788360595703125,-0.138275146484375,-0.1578826904296875
1782952421747754200,4.106754150390625,-1.85723876953125,-0.158599853515625,-0.1422576904296875
1782952421757682400,4.116682373046875,-1.7211151123046875,-0.1695404052734375,-0.1253509521484375
1782952421767609300,4.126609375,-1.5843658447265625,-0.17083740234375,-0.1089019775390625
1782952421777536500,4.13653662109375,-1.4577178955078125,-0.170684814453125,-0.09857177734375
1782952421787463200,4.146463134765625,-1.3328094482421875,-0.1804351806640625,-0.1002655029296875
1782952421797391000,4.15639111328125,-1.2124786376953125,-0.1949310302734375,-0.11077880859375
1782952421807318300,4.166318359375,-1.0865325927734375,-0.2018280029296875,-0.1195526123046875
1782952421817245200,4.1762451171875,-0.9556427001953125,-0.1967926025390625,-0.11761474609375
1782952421827172400,4.18617236328125,-0.8198699951171875,-0.1823883056640625,-0.1040496826171875
1782952421837100300,4.196100341796875,-0.68988037109375,-0.1669158935546875,-0.0901336669921875
1782952421847027000,4.20602685546875,-0.5841064453125,-0.151397705078125,-0.078704833984375
1782952421856953900,4.215953857421875,-0.502716064453125,-0.1177520751953125,-0.057769775390625
1782952421866880800,4.225880859375,-0.4286651611328125,-0.10626220703125,-0.034271240234375
1782952421876809000,4.23580908203125,-0.346466064453125,-0.105377197265625,-0.01953125
1782952421886736000,4.24573583984375,-0.2548828125,-0.101776123046875,-0.004791259765625
1782952421896663000,4.2556630859375,-0.2026214599609375,-0.0891265869140625,0.00616455078125
1782952421906590000,4.26558984375,-0.196044921875,-0.07659912109375,0.0180511474609375
1782952421916518000,4.275517822265625,-0.2241058349609375,-0.061981201171875,0.0259246826171875
1782952421926445000,4.285445068359375,-0.2735443115234375,-0.0587615966796875,0.0283050537109375
1782952421936371700,4.295371826171875,-0.3143463134765625,-0.0789947509765625,0.0019683837890625
1782952421946299000,4.305298828125,-0.36065673828125,-0.1127777099609375,-0.02703857421875
1782952421956226800,4.315226806640625,-0.410919189453125,-0.1419219970703125,-0.0281219482421875
1782952421966154000,4.325154052734375,-0.4305877685546875,-0.1613311767578125,0.002227783203125
1782952421976081000,4.335080810546875,-0.4382781982421875,-0.1716461181640625,0.0333251953125
1782952421986007800,4.3450078125,-0.43438720703125,-0.179473876953125,0.0344085693359375
1782952421995936000,4.35493603515625,-0.4399566650390625,-0.1846923828125,0.0159759521484375
1782952422005863000,4.36486279296875,-0.44134521484375,-0.1897125244140625,-0.014801025390625
1782952422015790000,4.3747900390625,-0.4283905029296875,-0.1860809326171875,-0.0465850830078125
1782952422025717000,4.384717041015625,-0.4203643798828125,-0.1778106689453125,-0.070404052734375
1782952422035645000,4.39464501953125,-0.4519805908203125,-0.150482177734375,-0.0863189697265625
1782952422045571800,4.40457177734375,-0.609344482421875,-0.1077728271484375,-0.090240478515625
1782952422055498800,4.414498779296875,-0.9340667724609375,-0.07122802734375,-0.09759521484375
1782952422065426000,4.424426025390625,-1.310638427734375,-0.088287353515625,-0.1391143798828125
1782952422075353900,4.434353759765625,-1.5704803466796875,-0.125762939453125,-0.13568115234375
1782952422085280800,4.44428076171875,-1.6119232177734375,-0.1002349853515625,-0.1237640380859375
1782952422095208000,4.4542080078125,-1.510772705078125,-0.0933990478515625,-0.090789794921875
1782952422105135900,4.464135986328125,-1.3212432861328125,-0.1160736083984375,-0.0742645263671875
1782952422115063000,4.47406298828125,-1.11572265625,-0.1035614013671875,-0.082794189453125
1782952422124990000,4.483989990234375,-0.9175872802734375,-0.101898193359375,-0.0702362060546875
1782952422134917000,4.493917236328125,-0.7470245361328125,-0.1172943115234375,-0.0503997802734375
1782952422144845000,4.503844970703125,-0.613372802734375,-0.1315765380859375,-0.0485382080078125
1782952422154771700,4.513771728515625,-0.524627685546875,-0.147216796875,-0.05767822265625
1782952422164699000,4.523698974609375,-0.4828033447265625,-0.161865234375,-0.0416717529296875
1782952422174625800,4.533625732421875,-0.4606781005859375,-0.16510009765625,-0.014984130859375
1782952422184554000,4.543553955078125,-0.452667236328125,-0.158538818359375,-0.0126800537109375
1782952422194481000,4.55348095703125,-0.45391845703125,-0.1480560302734375,-0.0212249755859375
1782952422204407800,4.56340771484375,-0.44573974609375,-0.12921142578125,-0.0323486328125
1782952422214335000,4.5733349609375,-0.4454345703125,-0.1044769287109375,-0.050689697265625
1782952422224263000,4.583262939453125,-0.4624481201171875,-0.0806427001953125,-0.05865478515625
1782952422234190000,4.593190185546875,-0.492523193359375,-0.049224853515625,-0.04962158203125
1782952422244117000,4.603116943359375,-0.5273590087890625,-0.02008056640625,-0.032806396484375
1782952422254044000,4.6130439453125,-0.54644775390625,-0.0044097900390625,-0.02239990234375
1782952422263971800,4.622971923828125,-0.5760040283203125,-0.0128631591796875,-0.0166015625
1782952422273898800,4.632898681640625,-0.6005706787109375,-0.025177001953125,-0.03155517578125
1782952422283826000,4.642825927734375,-0.5956268310546875,-0.0363922119140625,-0.04754638671875
1782952422293752800,4.6527529296875,-0.6030120849609375,-0.04864501953125,-0.0601654052734375
1782952422303681000,4.662680908203125,-0.66558837890625,-0.0734100341796875,-0.0690765380859375
1782952422313608000,4.67260791015625,-0.762176513671875,-0.095733642578125,-0.0769805908203125
1782952422323534800,4.682534912109375,-0.8152008056640625,-0.0888824462890625,-0.0753936767578125
1782952422333462000,4.6924619140625,-0.797760009765625,-0.0716705322265625,-0.0601348876953125
1782952422343390000,4.702389892578125,-0.763946533203125,-0.0699310302734375,-0.046600341796875
1782952422353317000,4.712317138671875,-0.7023773193359375,-0.0834808349609375,-0.0328826904296875
1782952422363243800,4.722243896484375,-0.6563720703125,-0.105743408203125,-0.001556396484375
1782952422373171000,4.7321708984375,-0.6891021728515625,-0.137908935546875,0.0462646484375
1782952422383099000,4.742098876953125,-0.7892303466796875,-0.165374755859375,0.0682220458984375
1782952422393025800,4.75202587890625,-1.005645751953125,-0.1996002197265625,0.09259033203125
1782952422402953000,4.761952880859375,-1.358154296875,-0.2410888671875,0.1201324462890625
1782952422412880000,4.7718798828125,-1.7749176025390625,-0.28369140625,0.1090240478515625
1782952422422807800,4.781807861328125,-2.182769775390625,-0.31317138671875,0.092132568359375
1782952422432735000,4.79173486328125,-2.507904052734375,-0.324432373046875,0.062408447265625
1782952422442662000,4.801661865234375,-2.7163848876953125,-0.3365478515625,0.000152587890625
1782952422452588800,4.8115888671875,-2.8074798583984375,-0.344818115234375,-0.0701446533203125
1782952422462516700,4.821516845703125,-2.8404388427734375,-0.35040283203125,-0.11810302734375
1782952422472444000,4.83144384765625,-2.7831573486328125,-0.345489501953125,-0.1299591064453125
1782952422482370800,4.841370849609375,-2.61767578125,-0.337432861328125,-0.1054229736328125
1782952422492298000,4.851298095703125,-2.41802978515625,-0.3318634033203125,-0.0882720947265625
1782952422502226000,4.861225830078125,-2.2071990966796875,-0.3270721435546875,-0.078094482421875
1782952422512152800,4.87115283203125,-1.9952239990234375,-0.3229827880859375,-0.0671844482421875
1782952422522080000,4.881080078125,-1.7947998046875,-0.3110198974609375,-0.0594024658203125
1782952422532007000,4.8910068359375,-1.6252288818359375,-0.2945404052734375,-0.043487548828125
1782952422541934800,4.900934814453125,-1.497100830078125,-0.284454345703125,-0.0297698974609375
1782952422551862000,4.910862060546875,-1.412322998046875,-0.2784271240234375,-0.027008056640625
1782952422561788700,4.92078857421875,-1.3520050048828125,-0.2743682861328125,-0.024505615234375
1782952422571715800,4.9307158203125,-1.291717529296875,-0.262542724609375,-0.02667236328125
1782952422581643800,4.940643798828125,-1.2330169677734375,-0.2463531494140625,-0.032196044921875
1782952422591571000,4.950571044921875,-1.1656494140625,-0.22833251953125,-0.0388641357421875
1782952422601497900,4.960497802734375,-1.082427978515625,-0.2095489501953125,-0.0579071044921875
1782952422611425800,4.97042578125,-0.9729461669921875,-0.1943817138671875,-0.074676513671875
1782952422621353000,4.98035302734375,-0.845367431640625,-0.1814422607421875,-0.08612060546875
1782952422631279900,4.99027978515625,-0.7066497802734375,-0.15997314453125,-0.090484619140625
1782952422641207000,5.00020703125,-0.56964111328125,-0.13446044921875,-0.09075927734375
1782952422651135000,5.010135009765625,-0.4436187744140625,-0.1064605712890625,-0.080078125
1782952422661062000,5.020061767578125,-0.33770751953125,-0.0863037109375,-0.06732177734375
1782952422670988800,5.02998876953125,-0.2503204345703125,-0.085296630859375,-0.08734130859375
1782952422680915700,5.039915771484375,-0.1680145263671875,-0.082672119140625,-0.09271240234375
1782952422690844000,5.049843994140625,-0.0830078125,-0.0709075927734375,-0.0756683349609375
1782952422700770800,5.059770751953125,-0.0307159423828125,-0.0489349365234375,-0.0375213623046875
1782952422710698000,5.069697998046875,-0.0353851318359375,-0.026885986328125,0.0177154541015625
1782952422720625000,5.079625,-0.114532470703125,-0.0182952880859375,0.0508880615234375
1782952422730552800,5.089552734375,-0.2378387451171875,-0.0334625244140625,0.02093505859375
1782952422740480000,5.09947998046875,-0.3458251953125,-0.0548095703125,-0.0500946044921875
1782952422750407000,5.109406982421875,-0.448028564453125,-0.0657958984375,-0.1107635498046875
1782952422760334000,5.119333984375,-0.53106689453125,-0.0540618896484375,-0.1751708984375
1782952422770262000,5.129261962890625,-0.5023345947265625,-0.1128692626953125,-0.1626434326171875
1782952422780188700,5.139188720703125,-0.4039764404296875,-0.2126007080078125,-0.097747802734375
1782952422790115800,5.14911572265625,-0.3289642333984375,-0.287353515625,-0.0188140869140625
1782952422800042800,5.159042724609375,-0.284027099609375,-0.289703369140625,0.031951904296875
1782952422809971000,5.168970947265625,-0.30157470703125,-0.2594146728515625,0.0685882568359375
1782952422819897900,5.17889794921875,-0.4542694091796875,-0.2223663330078125,0.05743408203125
1782952422829825000,5.188824951171875,-0.6835174560546875,-0.17840576171875,0.0356597900390625
1782952422839752400,5.19875244140625,-0.9636077880859375,-0.1243896484375,0.0159454345703125
1782952422849680400,5.208680419921875,-1.2667083740234375,-0.0799407958984375,0.010009765625
1782952422859607300,5.218607177734375,-1.4416046142578125,-0.05413818359375,-0.0422515869140625
1782952422869534200,5.2285341796875,-1.4495086669921875,-0.0561065673828125,-0.11480712890625
1782952422879461400,5.23846142578125,-1.4133758544921875,-0.09808349609375,-0.1575164794921875
1782952422889389300,5.248389404296875,-1.333465576171875,-0.0840911865234375,-0.1692962646484375
1782952422899316200,5.258316162109375,-1.185546875,-0.0526275634765625,-0.1658935546875
1782952422909243400,5.268243408203125,-1.0191802978515625,-0.05426025390625,-0.147857666015625
1782952422919170300,5.27817041015625,-0.8636627197265625,-0.0737762451171875,-0.1352691650390625
1782952422929098200,5.28809814453125,-0.7080078125,-0.07769775390625,-0.13604736328125
1782952422939025400,5.298025390625,-0.5576934814453125,-0.068450927734375,-0.139190673828125
1782952422948952300,5.307952392578125,-0.42596435546875,-0.060089111328125,-0.12908935546875
1782952422958877400,5.31787744140625,-0.30535888671875,-0.041259765625,-0.097564697265625
1782952422968804400,5.327804443359375,-0.23321533203125,-0.01544189453125,-0.0450286865234375
1782952422978731500,5.3377314453125,-0.2132568359375,0.0062255859375,0.0054779052734375
1782952422988658400,5.347658447265625,-0.2362213134765625,-0.0056304931640625,0.0112457275390625
1782952422998586400,5.35758642578125,-0.289306640625,-0.0421142578125,-0.011932373046875
1782952423008513300,5.36751318359375,-0.405975341796875,-0.081573486328125,-0.0303955078125
1782952423018440200,5.377440185546875,-0.5474700927734375,-0.0987396240234375,-0.041412353515625
1782952423028368100,5.3873681640625,-0.6908416748046875,-0.095947265625,-0.0516815185546875
1782952423038295300,5.39729541015625,-0.830352783203125,-0.096160888671875,-0.0673370361328125
1782952423048222200,5.40722216796875,-0.9064788818359375,-0.1139373779296875,-0.0755767822265625
1782952423058149400,5.4171494140625,-0.9212493896484375,-0.1278228759765625,-0.0653228759765625
1782952423068077300,5.427077392578125,-0.8688812255859375,-0.1284332275390625,-0.07257080078125
1782952423078004500,5.43700439453125,-0.7524871826171875,-0.128387451171875,-0.0887298583984375
1782952423087931400,5.446931396484375,-0.6303558349609375,-0.1127777099609375,-0.0780029296875
1782952423097858300,5.4568583984375,-0.5481719970703125,-0.102935791015625,-0.0797576904296875
1782952423107786500,5.466786376953125,-0.5593414306640625,-0.112945556640625,-0.07537841796875
1782952423117713200,5.476713134765625,-0.636810302734375,-0.123138427734375,-0.0788726806640625
1782952423127640300,5.486640380859375,-0.81024169921875,-0.1111602783203125,-0.0771942138671875
1782952423137567200,5.496567138671875,-1.0835723876953125,-0.10528564453125,-0.0624237060546875
1782952423147495200,5.5064951171875,-1.434844970703125,-0.101837158203125,-0.0603179931640625
1782952423157422300,5.51642236328125,-1.77801513671875,-0.095611572265625,-0.068023681640625
1782952423167349200,5.526349365234375,-2.0253143310546875,-0.0974273681640625,-0.0272674560546875
1782952423177276400,5.5362763671875,-2.1857452392578125,-0.104248046875,0.04449462890625
1782952423187204400,5.546204345703125,-2.381378173828125,-0.07452392578125,0.0394287109375
1782952423197131500,5.556131591796875,-2.6306915283203125,-0.0037689208984375,-0.0619659423828125
1782952423207058400,5.566058349609375,-2.8109283447265625,-0.0009918212890625,-0.1618499755859375
1782952423216985300,5.5759853515625,-2.9003753662109375,-0.0096435546875,-0.277252197265625
1782952423226913300,5.585913330078125,-2.8895263671875,-0.0204010009765625,-0.371673583984375
1782952423236840200,5.595840087890625,-2.76898193359375,-0.067291259765625,-0.378692626953125
1782952423246767400,5.605767333984375,-2.5768585205078125,-0.1192169189453125,-0.3209228515625
1782952423256694300,5.6156943359375,-2.3399658203125,-0.1484222412109375,-0.255706787109375
1782952423266622200,5.625622314453125,-2.0640106201171875,-0.1693572998046875,-0.1896209716796875
1782952423276549400,5.63554931640625,-1.7752532958984375,-0.1970367431640625,-0.144378662109375
1782952423286476300,5.645476318359375,-1.510467529296875,-0.2111358642578125,-0.1126708984375
1782952423296403500,5.655403564453125,-1.28729248046875,-0.2132110595703125,-0.0867919921875
1782952423306331400,5.665331298828125,-1.126678466796875,-0.2037200927734375,-0.0583953857421875
1782952423316258300,5.67525830078125,-1.0270843505859375,-0.2004852294921875,-0.0350494384765625
1782952423326187300,5.685187255859375,-0.9800872802734375,-0.1990814208984375,-0.0301361083984375
1782952423336114400,5.695114501953125,-0.959808349609375,-0.1944580078125,-0.0344390869140625
1782952423346042400,5.70504248046875,-0.975555419921875,-0.188873291015625,-0.037811279296875
1782952423355969500,5.714969482421875,-0.9804229736328125,-0.1864166259765625,-0.0474090576171875
1782952423365896200,5.724896240234375,-0.934356689453125,-0.172515869140625,-0.0455780029296875
1782952423375823400,5.7348232421875,-0.8402252197265625,-0.1529388427734375,-0.0367889404296875
1782952423385751300,5.744751220703125,-0.7164764404296875,-0.130401611328125,-0.027618408203125
1782952423395678200,5.75467822265625,-0.5758056640625,-0.1053466796875,-0.0147705078125
1782952423405605400,5.76460546875,-0.4334716796875,-0.0788726806640625,-0.00689697265625
1782952423415532300,5.7745322265625,-0.3126983642578125,-0.0607452392578125,0.002166748046875
1782952423425460200,5.784460205078125,-0.2337799072265625,-0.03955078125,0.0169677734375
1782952423435387400,5.794387451171875,-0.1918182373046875,-0.030303955078125,0.0237884521484375
1782952423445314300,5.804314208984375,-0.19586181640625,-0.029022216796875,0.036773681640625
1782952423455241200,5.8142412109375,-0.2565155029296875,-0.060516357421875,0.030364990234375
1782952423465169400,5.82416943359375,-0.30157470703125,-0.0954132080078125,-0.0128631591796875
1782952423475096300,5.834096435546875,-0.3318023681640625,-0.1096954345703125,-0.0398712158203125
1782952423485023200,5.844023193359375,-0.346527099609375,-0.118408203125,-0.0373382568359375
1782952423494950400,5.853950439453125,-0.36474609375,-0.12261962890625,-0.0297698974609375
1782952423504878300,5.86387841796875,-0.396514892578125,-0.115325927734375,-0.0211029052734375
1782952423514805200,5.87380517578125,-0.4056243896484375,-0.1338958740234375,-0.0297698974609375
1782952423524732400,5.883732421875,-0.3809356689453125,-0.18218994140625,-0.0567626953125
1782952423534659300,5.893659423828125,-0.360260009765625,-0.224700927734375,-0.050018310546875
1782952423544587300,5.903587158203125,-0.35211181640625,-0.2545928955078125,-0.0296478271484375
1782952423554514400,5.913514404296875,-0.3423614501953125,-0.265228271484375,-0.045684814453125
1782952423564441000,5.923441162109375,-0.3914794921875,-0.2456512451171875,-0.0716552734375
1782952423574368300,5.9333681640625,-0.5092620849609375,-0.2069854736328125,-0.0818328857421875
1782952423584296200,5.943296142578125,-0.71044921875,-0.1889801025390625,-0.0915374755859375
1782952423594223400,5.953223388671875,-1.0000457763671875,-0.19366455078125,-0.0703582763671875
1782952423604150300,5.963150390625,-1.2667083740234375,-0.1997528076171875,-0.026123046875
1782952423614077400,5.973077392578125,-1.391754150390625,-0.1942291259765625,-0.0038604736328125
1782952423624005400,5.98300537109375,-1.4147491455078125,-0.18609619140625,0.0314483642578125
1782952423633932300,5.992932373046875,-1.33843994140625,-0.1699676513671875,0.037628173828125
1782952423643859500,6.002859375,-1.162384033203125,-0.1525421142578125,-0.0215911865234375
1782952423653787400,6.012787353515625,-0.969940185546875,-0.134796142578125,-0.077484130859375
1782952423663714300,6.02271435546875,-0.7906036376953125,-0.1157073974609375,-0.09033203125
1782952423673641200,6.03264111328125,-0.63916015625,-0.1037445068359375,-0.0975494384765625
1782952423683568000,6.042568115234375,-0.526947021484375,-0.0985870361328125,-0.105682373046875
1782952423693496300,6.052496337890625,-0.4542083740234375,-0.0886993408203125,-0.105438232421875
1782952423703423200,6.06242333984375,-0.410308837890625,-0.079254150390625,-0.1033935546875
1782952423713350400,6.072350341796875,-0.409454345703125,-0.0673065185546875,-0.097259521484375
1782952423723277300,6.08227734375,-0.463623046875,-0.050506591796875,-0.0920562744140625
1782952423733205200,6.092205322265625,-0.541290283203125,-0.0382843017578125,-0.0697021484375
1782952423743132400,6.10213232421875,-0.624908447265625,-0.0192108154296875,-0.031982421875
1782952423753059300,6.112059326171875,-0.685760498046875,-0.0020904541015625,0.000152587890625
1782952423762986500,6.121986572265625,-0.7073516845703125,-0.0047454833984375,0.0106201171875
1782952423772914400,6.13191455078125,-0.69195556640625,-0.02911376953125,-0.0036468505859375
1782952423782841000,6.141841064453125,-0.6747894287109375,-0.0619659423828125,-0.020751953125
1782952423792768300,6.151768310546875,-0.670806884765625,-0.086151123046875,-0.036468505859375
1782952423802695200,6.161695068359375,-0.664581298828125,-0.1115875244140625,-0.0446929931640625
1782952423812623400,6.171623291015625,-0.6547393798828125,-0.1299896240234375,-0.038299560546875
1782952423822550300,6.18155029296875,-0.6739959716796875,-0.1425323486328125,-0.010650634765625
1782952423832477400,6.1914775390625,-0.743804931640625,-0.1447601318359375,0.021881103515625
1782952423842403800,6.20140380859375,-0.82171630859375,-0.14508056640625,0.0370941162109375
1782952423852331800,6.211331787109375,-0.8928375244140625,-0.1516571044921875,0.0286102294921875
1782952423862258700,6.2212587890625,-0.9088287353515625,-0.15252685546875,0.0085906982421875
1782952423872185600,6.231185546875,-0.86285400390625,-0.139312744140625,-0.01080322265625
1782952423882112800,6.24111279296875,-0.8401641845703125,-0.1335296630859375,-0.0108795166015625
1782952423892040700,6.251040771484375,-0.847381591796875,-0.132659912109375,0.0099639892578125
1782952423901968000,6.2609677734375,-0.9128265380859375,-0.1333160400390625,0.0400848388671875
1782952423911894800,6.270894775390625,-1.0861053466796875,-0.13458251953125,0.0611724853515625
1782952423921822000,6.280822021484375,-1.296783447265625,-0.1464385986328125,0.064666748046875
1782952423931750000,6.29075,-1.4798583984375,-0.1730194091796875,0.0582275390625
1782952423941676800,6.3006767578125,-1.6320037841796875,-0.205657958984375,0.0302581787109375
1782952423951604000,6.31060400390625,-1.7786102294921875,-0.2293701171875,-0.00299072265625
1782952423961530600,6.320530517578125,-1.9184417724609375,-0.23046875,-0.0231170654296875
1782952423971458600,6.33045849609375,-2.06158447265625,-0.2062530517578125,-0.0810699462890625
1782952423981385700,6.3403857421875,-2.1788482666015625,-0.2174835205078125,-0.19091796875
1782952423991312600,6.350312744140625,-2.25958251953125,-0.278411865234375,-0.2927093505859375
1782952424001239800,6.36023974609375,-2.2724151611328125,-0.342193603515625,-0.3332977294921875
1782952424011167700,6.370167724609375,-2.252105712890625,-0.345367431640625,-0.3050994873046875
1782952424021095000,6.380094970703125,-2.2404022216796875,-0.3160858154296875,-0.2585906982421875
1782952424031021800,6.390021728515625,-2.2369384765625,-0.297119140625,-0.2263946533203125
1782952424040949000,6.399948974609375,-2.22509765625,-0.28961181640625,-0.204376220703125
1782952424050877000,6.409876953125,-2.15264892578125,-0.273773193359375,-0.1935577392578125
1782952424060803800,6.419803955078125,-2.036041259765625,-0.243255615234375,-0.1569976806640625
1782952424070730800,6.429730712890625,-1.937286376953125,-0.2161865234375,-0.1081390380859375
1782952424080658700,6.43965869140625,-1.8614501953125,-0.204559326171875,-0.0920867919921875
1782952424090585600,6.449585693359375,-1.7819976806640625,-0.2094268798828125,-0.0947113037109375
1782952424100512800,6.4595126953125,-1.6649627685546875,-0.2186737060546875,-0.0778961181640625
1782952424110439700,6.469439697265625,-1.5385894775390625,-0.2280731201171875,-0.04345703125
1782952424120367900,6.479367919921875,-1.3989105224609375,-0.2315216064453125,-0.0314178466796875
1782952424130294800,6.489294677734375,-1.254364013671875,-0.2357940673828125,-0.0347442626953125
1782952424140222000,6.499221923828125,-1.1082000732421875,-0.235809326171875,-0.034912109375
1782952424150148900,6.50914892578125,-0.95623779296875,-0.2238616943359375,-0.0273590087890625
1782952424160076800,6.519076904296875,-0.8137969970703125,-0.1976165771484375,-0.0130767822265625
1782952424170004000,6.52900390625,-0.678680419921875,-0.1654510498046875,0.0016937255859375
1782952424179930600,6.5389306640625,-0.5525970458984375,-0.1329498291015625,0.008270263671875
1782952424189857800,6.54885791015625,-0.45257568359375,-0.1171417236328125,0.02606201171875
1782952424199785700,6.55878564453125,-0.36151123046875,-0.1019439697265625,0.026153564453125
1782952424209712600,6.568712646484375,-0.2829742431640625,-0.089996337890625,0.02386474609375
1782952424219639800,6.578639892578125,-0.2325592041015625,-0.0850372314453125,0.016937255859375
1782952424229566700,6.588566650390625,-0.2177734375,-0.06854248046875,-0.0005340576171875
1782952424239495000,6.598494873046875,-0.23370361328125,-0.060760498046875,-0.0134124755859375
1782952424249421800,6.608421875,-0.2608795166015625,-0.0767669677734375,0.0129241943359375
1782952424259349000,6.618348876953125,-0.311187744140625,-0.0510711669921875,-0.0103912353515625
1782952424269275600,6.628275634765625,-0.3602142333984375,-0.0410614013671875,-0.0269927978515625
1782952424279203800,6.638203857421875,-0.38385009765625,-0.049224853515625,-0.014251708984375
1782952424289130800,6.648130859375,-0.37200927734375,-0.0563507080078125,-0.0218963623046875
1782952424299057700,6.6580576171875,-0.3343048095703125,-0.0888671875,-0.03839111328125
1782952424308984800,6.66798486328125,-0.334503173828125,-0.1171875,-0.064910888671875
1782952424318912800,6.677912841796875,-0.3642730712890625,-0.1316986083984375,-0.0859527587890625
1782952424328839700,6.687839599609375,-0.3701019287109375,-0.1486053466796875,-0.0920867919921875
1782952424338766800,6.697766845703125,-0.3864593505859375,-0.16314697265625,-0.0900115966796875
1782952424348693800,6.70769384765625,-0.4007568359375,-0.17626953125,-0.10211181640625
1782952424358622000,6.7176220703125,-0.432373046875,-0.18829345703125,-0.1027984619140625
1782952424368548900,6.727548828125,-0.4528961181640625,-0.1816558837890625,-0.11151123046875
1782952424378475800,6.737475830078125,-0.4977264404296875,-0.16192626953125,-0.138824462890625
1782952424388402700,6.747402587890625,-0.5899200439453125,-0.1537017822265625,-0.15869140625
1782952424398330600,6.75733056640625,-0.736053466796875,-0.147735595703125,-0.1404266357421875
1782952424408257800,6.7672578125,-0.955657958984375,-0.13470458984375,-0.1260223388671875
1782952424418184700,6.777184814453125,-1.2080841064453125,-0.1401824951171875,-0.118560791015625
1782952424428112000,6.78711181640625,-1.3433685302734375,-0.152557373046875,-0.0940399169921875
1782952424438039800,6.797039794921875,-1.3297119140625,-0.129608154296875,-0.0791473388671875
1782952424447966700,6.806966796875,-1.237335205078125,-0.1263885498046875,-0.0629730224609375
1782952424457894000,6.816893798828125,-1.0991668701171875,-0.14068603515625,-0.0657806396484375
1782952424467820800,6.82682080078125,-0.927215576171875,-0.1376495361328125,-0.07373046875
1782952424477749000,6.8367490234375,-0.772735595703125,-0.1244049072265625,-0.0427398681640625
1782952424487675600,6.846675537109375,-0.6595916748046875,-0.1230010986328125,-0.01409912109375
1782952424497602800,6.856602783203125,-0.5830230712890625,-0.129150390625,0.0065460205078125
1782952424507529700,6.86652978515625,-0.552947998046875,-0.124847412109375,0.0182952880859375
1782952424517457700,6.876457763671875,-0.5365447998046875,-0.1205902099609375,0.0125732421875
1782952424527384800,6.886384765625,-0.50762939453125,-0.13177490234375,0.007476806640625
1782952424537311700,6.896311767578125,-0.4958343505859375,-0.140411376953125,0.0072174072265625
1782952424547239000,6.906239013671875,-0.47955322265625,-0.1501922607421875,0.013946533203125
1782952424557166800,6.916166748046875,-0.45953369140625,-0.1524200439453125,0.023406982421875
1782952424567093800,6.92609375,-0.4292144775390625,-0.14312744140625,0.0156402587890625
1782952424577021000,6.93602099609375,-0.39990234375,-0.1301116943359375,-0.005584716796875
1782952424586948900,6.945948974609375,-0.404144287109375,-0.12713623046875,-0.01910400390625
1782952424596875800,6.955875732421875,-0.49859619140625,-0.13446044921875,-0.0299072265625
1782952424606802700,6.965802734375,-0.6386260986328125,-0.1385040283203125,-0.0278167724609375
1782952424616729900,6.975729736328125,-0.7655029296875,-0.1425933837890625,-0.0403289794921875
1782952424626657800,6.98565771484375,-0.8430633544921875,-0.13677978515625,-0.049285888671875
1782952424636584700,6.995584716796875,-0.8437042236328125,-0.1292724609375,-0.030853271484375
1782952424646511900,7.005511962890625,-0.7623443603515625,-0.1422882080078125,-0.0077362060546875
1782952424656438800,7.015438720703125,-0.671295166015625,-0.1585693359375,-0.0108489990234375
1782952424666366700,7.02536669921875,-0.604522705078125,-0.1743621826171875,-0.0229949951171875
1782952424676294000,7.0352939453125,-0.5811920166015625,-0.17254638671875,-0.0605926513671875
1782952424686220800,7.045220703125,-0.6817779541015625,-0.164764404296875,-0.0633392333984375
1782952424696147700,7.055147705078125,-0.952484130859375,-0.1593475341796875,0.005584716796875
1782952424706075600,7.06507568359375,-1.262725830078125,-0.223297119140625,-0.001312255859375
1782952424716002800,7.0750029296875,-1.5832977294921875,-0.2789459228515625,0.0225830078125
1782952424725929700,7.0849296875,-1.966522216796875,-0.2405242919921875,0.094329833984375
1782952424735857000,7.09485693359375,-2.2409515380859375,-0.2250213623046875,0.0708160400390625
1782952424745784800,7.104784912109375,-2.391998291015625,-0.256591796875,-0.0097503662109375
1782952424755711700,7.114711669921875,-2.4303741455078125,-0.2678680419921875,-0.078857421875
1782952424765639000,7.124638916015625,-2.4341583251953125,-0.2701568603515625,-0.120025634765625
1782952424775565800,7.13456591796875,-2.4674530029296875,-0.2677154541015625,-0.146636962890625
1782952424785493800,7.14449365234375,-2.5171051025390625,-0.2577972412109375,-0.1584014892578125
1782952424795421000,7.1544208984375,-2.519256591796875,-0.253997802734375,-0.1830596923828125
1782952424805347600,7.16434765625,-2.48126220703125,-0.2357177734375,-0.1950225830078125
1782952424815274800,7.174274658203125,-2.3885345458984375,-0.2120513916015625,-0.20037841796875
1782952424825202700,7.18420263671875,-2.2030792236328125,-0.2095489501953125,-0.2092742919921875
1782952424835129900,7.1941298828125,-1.985382080078125,-0.21429443359375,-0.1851806640625
1782952424845056300,7.20405615234375,-1.7952728271484375,-0.2265167236328125,-0.145355224609375
1782952424854983400,7.2139833984375,-1.6520538330078125,-0.235748291015625,-0.1117706298828125
1782952424864911400,7.223911376953125,-1.5301055908203125,-0.2374725341796875,-0.0878448486328125
1782952424874838300,7.23383837890625,-1.4319000244140625,-0.2320404052734375,-0.0737152099609375
1782952424884765400,7.243765380859375,-1.3415679931640625,-0.22088623046875,-0.07232666015625
1782952424894692400,7.2536923828125,-1.240814208984375,-0.2046051025390625,-0.070709228515625
1782952424904620300,7.263620361328125,-1.1358795166015625,-0.1851806640625,-0.072509765625
1782952424914547500,7.27354736328125,-1.0333251953125,-0.16973876953125,-0.064422607421875
1782952424924474400,7.283474365234375,-0.923614501953125,-0.158294677734375,-0.05291748046875
1782952424934401500,7.293401611328125,-0.82183837890625,-0.142120361328125,-0.051849365234375
1782952424944329500,7.30332958984375,-0.72381591796875,-0.124114990234375,-0.0387420654296875
1782952424954256400,7.31325634765625,-0.6234588623046875,-0.1122283935546875,-0.0234527587890625
1782952424964183300,7.323183349609375,-0.517547607421875,-0.0989227294921875,-0.011444091796875
1782952424974110500,7.3331103515625,-0.4195404052734375,-0.0845947265625,-0.004180908203125
1782952424984038400,7.343038330078125,-0.333251953125,-0.0813751220703125,-0.0012664794921875
1782952424993965300,7.35296533203125,-0.289306640625,-0.0892181396484375,-0.0033416748046875
1782952425003892500,7.362892578125,-0.254608154296875,-0.088043212890625,-0.011016845703125
1782952425013819400,7.3728193359375,-0.22222900390625,-0.0742645263671875,-0.0110321044921875
1782952425023747300,7.382747314453125,-0.2454986572265625,-0.063629150390625,0.011474609375
1782952425033674500,7.392674560546875,-0.2773590087890625,-0.0685272216796875,0.03155517578125
1782952425043601400,7.402601318359375,-0.2726287841796875,-0.0870819091796875,0.030303955078125
1782952425053528300,7.4125283203125,-0.2606201171875,-0.114044189453125,0.0248260498046875
1782952425063456300,7.422456298828125,-0.29010009765625,-0.1342926025390625,0.03363037109375
1782952425073383400,7.432383544921875,-0.3437652587890625,-0.13446044921875,0.0090484619140625
1782952425083310300,7.442310302734375,-0.403717041015625,-0.1411590576171875,-0.0414886474609375
1782952425093238300,7.45223828125,-0.4409637451171875,-0.1571502685546875,-0.069671630859375
1782952425103165400,7.46216552734375,-0.4481201171875,-0.1649169921875,-0.0757598876953125
1782952425113092400,7.47209228515625,-0.422760009765625,-0.177825927734375,-0.0852813720703125
1782952425123019500,7.48201953125,-0.3946685791015625,-0.191986083984375,-0.0940704345703125
1782952425132947500,7.491947509765625,-0.43603515625,-0.1959075927734375,-0.1052703857421875
1782952425142874400,7.501874267578125,-0.533416748046875,-0.19464111328125,-0.1168060302734375
1782952425152801500,7.511801513671875,-0.674652099609375,-0.1771087646484375,-0.115386962890625
1782952425162728200,7.521728271484375,-0.86883544921875,-0.1570892333984375,-0.1063690185546875
1782952425172656400,7.531656494140625,-1.10968017578125,-0.1605072021484375,-0.0938262939453125
1782952425182583300,7.541583251953125,-1.2876434326171875,-0.1518096923828125,-0.0729217529296875
1782952425192510500,7.551510498046875,-1.36016845703125,-0.13262939453125,-0.0579071044921875
1782952425202437400,7.561437255859375,-1.3289031982421875,-0.1452178955078125,-0.052520751953125
1782952425212365300,7.571365234375,-1.2154388427734375,-0.1579742431640625,-0.0628204345703125
1782952425222292500,7.58129248046875,-1.069366455078125,-0.1432952880859375,-0.0670928955078125
1782952425232219400,7.591219482421875,-0.91534423828125,-0.1268463134765625,-0.04766845703125
1782952425242146600,7.601146484375,-0.7814788818359375,-0.11956787109375,-0.0201263427734375
1782952425252074500,7.611074462890625,-0.677276611328125,-0.1146392822265625,-0.004608154296875
1782952425262001400,7.62100146484375,-0.5774993896484375,-0.104522705078125,0.0035552978515625
1782952425271928300,7.63092822265625,-0.500091552734375,-0.0964508056640625,0.0220947265625
1782952425281855200,7.640855224609375,-0.4598388671875,-0.089141845703125,0.03485107421875
1782952425291783400,7.650783447265625,-0.481719970703125,-0.0836639404296875,0.0377044677734375
1782952425301710300,7.66071044921875,-0.5066680908203125,-0.082672119140625,0.02972412109375
1782952425311637500,7.670637451171875,-0.5034027099609375,-0.0818939208984375,0.0271759033203125
1782952425321564400,7.680564453125,-0.5003509521484375,-0.0746307373046875,0.0308990478515625
1782952425331492400,7.690492431640625,-0.491058349609375,-0.0637969970703125,0.0405426025390625
1782952425341419500,7.70041943359375,-0.476409912109375,-0.061248779296875,0.045989990234375
1782952425351346400,7.710346435546875,-0.453125,-0.070281982421875,0.0401763916015625
1782952425361273300,7.7202734375,-0.43939208984375,-0.08544921875,0.034210205078125
1782952425371201500,7.730201416015625,-0.4400787353515625,-0.1164398193359375,0.0233306884765625
1782952425381128200,7.740128173828125,-0.4908905029296875,-0.1367950439453125,0.0181121826171875
1782952425391055400,7.750055419921875,-0.622100830078125,-0.143890380859375,0.022308349609375
1782952425400982300,7.759982177734375,-0.7607879638671875,-0.1693572998046875,0.0195770263671875
1782952425410910500,7.769910400390625,-0.8114471435546875,-0.1962127685546875,0.009552001953125
1782952425420837400,7.77983740234375,-0.7803192138671875,-0.196044921875,-0.012908935546875
1782952425430764500,7.7897646484375,-0.7102508544921875,-0.163909912109375,-0.0221099853515625
1782952425440691500,7.79969140625,-0.6570281982421875,-0.135406494140625,-0.025634765625
1782952425450619400,7.809619384765625,-0.73187255859375,-0.133148193359375,-0.0430908203125
1782952425460546600,7.819546630859375,-0.9914398193359375,-0.1563568115234375,-0.05914306640625
1782952425470473200,7.82947314453125,-1.317413330078125,-0.1976318359375,-0.06280517578125
1782952425480400400,7.839400390625,-1.5744171142578125,-0.240234375,-0.03924560546875
1782952425490328300,7.849328369140625,-1.794830322265625,-0.2597198486328125,-0.0132293701171875
1782952425500255200,7.859255126953125,-2.03192138671875,-0.269927978515625,0.0037384033203125
1782952425510182400,7.869182373046875,-2.256744384765625,-0.277801513671875,0.0199432373046875
1782952425520110300,7.8791103515625,-2.4014129638671875,-0.273040771484375,0.0193634033203125
1782952425530037500,7.88903759765625,-2.490875244140625,-0.2521820068359375,-0.0004119873046875
1782952425539964400,7.89896435546875,-2.53765869140625,-0.232330322265625,0.002044677734375
1782952425549891600,7.9088916015625,-2.5321197509765625,-0.2209625244140625,-0.053009033203125
1782952425559819500,7.918819580078125,-2.429229736328125,-0.22454833984375,-0.1313629150390625
1782952425569746400,7.928746337890625,-2.255035400390625,-0.238433837890625,-0.1900177001953125
1782952425579673300,7.93867333984375,-2.105682373046875,-0.250579833984375,-0.2055816650390625
1782952425589600300,7.948600341796875,-2.0225982666015625,-0.241546630859375,-0.1982421875
1782952425599528200,7.958528076171875,-1.9758148193359375,-0.225921630859375,-0.18206787109375
1782952425609455400,7.968455322265625,-1.91387939453125,-0.219635009765625,-0.1482696533203125
1782952425619382300,7.97838232421875,-1.830810546875,-0.2309722900390625,-0.126739501953125
1782952425629309400,7.988309326171875,-1.7249603271484375,-0.239105224609375,-0.1064300537109375
1782952425639237400,7.9982373046875,-1.608734130859375,-0.23974609375,-0.0872650146484375
1782952425649164500,8.00816455078125,-1.487762451171875,-0.2368621826171875,-0.0698699951171875
1782952425659091500,8.018091552734376,-1.3593597412109375,-0.229705810546875,-0.06207275390625
1782952425669018600,8.0280185546875,-1.228271484375,-0.2175445556640625,-0.056793212890625
1782952425678946600,8.037946533203124,-1.1004638671875,-0.2027435302734375,-0.076507568359375
1782952425688873200,8.047873291015625,-0.9916534423828125,-0.189117431640625,-0.09149169921875
1782952425698800400,8.05780029296875,-0.879119873046875,-0.18096923828125,-0.086334228515625
1782952425708727300,8.067727294921875,-0.7654876708984375,-0.1664276123046875,-0.0689239501953125
1782952425718655200,8.0776552734375,-0.6581878662109375,-0.1463623046875,-0.0583953857421875
1782952425728582400,8.08758251953125,-0.577362060546875,-0.149139404296875,-0.0312957763671875
1782952425738509300,8.09750927734375,-0.498260498046875,-0.14178466796875,-0.0277557373046875
1782952425748436500,8.1074365234375,-0.4432525634765625,-0.129150390625,-0.012420654296875
1782952425758364400,8.117364501953125,-0.4145355224609375,-0.12127685546875,0.0086822509765625
1782952425768291600,8.12729150390625,-0.385528564453125,-0.1154022216796875,0.0153350830078125
1782952425778218500,8.137218505859375,-0.370361328125,-0.102569580078125,0.0165863037109375
1782952425788145400,8.1471455078125,-0.3894500732421875,-0.0851593017578125,0.024139404296875
1782952425798073300,8.1570732421875,-0.4311065673828125,-0.08526611328125,0.0252838134765625
1782952425808000300,8.167000244140626,-0.4823760986328125,-0.08709716796875,0.0277557373046875
1782952425817927400,8.176927490234375,-0.5586700439453125,-0.0819854736328125,0.00714111328125
1782952425827854300,8.186854248046876,-0.60443115234375,-0.082366943359375,-0.00994873046875
1782952425837782300,8.1967822265625,-0.576202392578125,-0.0847015380859375,0.007476806640625
1782952425847710000,8.2067099609375,-0.5271759033203125,-0.0838470458984375,0.0214691162109375
1782952425857636900,8.216636962890625,-0.4523773193359375,-0.0809478759765625,0.015838623046875
1782952425867563800,8.226563720703124,-0.3829498291015625,-0.0748443603515625,0.0088043212890625
1782952425877491700,8.23649169921875,-0.3301544189453125,-0.076263427734375,-0.024444580078125
1782952425887418600,8.246418701171875,-0.307708740234375,-0.0897979736328125,-0.061187744140625
1782952425897345800,8.256345703125,-0.3108062744140625,-0.1047821044921875,-0.091217041015625
1782952425907272700,8.266272705078125,-0.3451995849609375,-0.1109619140625,-0.096954345703125
1782952425917201000,8.276200927734376,-0.40692138671875,-0.0962066650390625,-0.081207275390625
1782952425927127800,8.2861279296875,-0.4513397216796875,-0.0818939208984375,-0.0821075439453125
1782952425937055000,8.296054931640626,-0.4998321533203125,-0.087554931640625,-0.094573974609375
1782952425946983000,8.30598291015625,-0.572052001953125,-0.089752197265625,-0.0831451416015625
1782952425956909800,8.315909912109374,-0.7028045654296875,-0.086700439453125,-0.047271728515625
1782952425966837000,8.3258369140625,-0.8745574951171875,-0.09332275390625,-0.044952392578125
1782952425976763600,8.335763671875,-0.9925537109375,-0.1023406982421875,-0.079498291015625
1782952425986691800,8.34569189453125,-1.063262939453125,-0.1380462646484375,-0.091033935546875
1782952425996618800,8.35561865234375,-1.0602569580078125,-0.1395721435546875,-0.1109466552734375
1782952426006545700,8.365545654296875,-0.960296630859375,-0.1253509521484375,-0.1156158447265625
1782952426016472800,8.375472900390625,-0.81903076171875,-0.11273193359375,-0.111846923828125
1782952426026400800,8.38540087890625,-0.6728363037109375,-0.0860595703125,-0.1015167236328125
1782952426036328000,8.395327880859375,-0.5325469970703125,-0.0587005615234375,-0.0886993408203125
1782952426046254800,8.4052548828125,-0.415985107421875,-0.0377349853515625,-0.0669097900390625
1782952426056182000,8.41518212890625,-0.3247528076171875,-0.028106689453125,-0.036529541015625
1782952426066110000,8.42510986328125,-0.246856689453125,-0.030029296875,-0.01141357421875
1782952426076036900,8.435036865234375,-0.2055206298828125,-0.040374755859375,0.0020294189453125
1782952426085963800,8.4449638671875,-0.2250823974609375,-0.0548095703125,0.0058746337890625
1782952426095890700,8.454890625,-0.318267822265625,-0.0757293701171875,0.011199951171875
1782952426105818600,8.464818603515624,-0.46435546875,-0.088714599609375,0.0159454345703125
1782952426115745800,8.474745849609375,-0.6267852783203125,-0.0997772216796875,-0.002410888671875
1782952426125672700,8.484672607421874,-0.8097076416015625,-0.1136016845703125,-0.0098419189453125
1782952426135599900,8.494599853515625,-0.938446044921875,-0.14166259765625,-0.045074462890625
1782952426145527800,8.50452783203125,-0.993408203125,-0.17230224609375,-0.0814971923828125
1782952426155455000,8.514455078125,-0.976165771484375,-0.1887969970703125,-0.117095947265625
1782952426165382000,8.5243818359375,-0.924072265625,-0.1845855712890625,-0.103118896484375
1782952426175308800,8.534308837890626,-0.9019775390625,-0.1727142333984375,-0.0728759765625
1782952426185237000,8.544237060546875,-0.928070068359375,-0.166748046875,-0.049102783203125
1782952426195163600,8.55416357421875,-0.9576263427734375,-0.1527252197265625,-0.03057861328125
1782952426205090800,8.5640908203125,-1.008056640625,-0.121795654296875,-0.0274658203125
1782952426215017700,8.574017822265626,-1.129302978515625,-0.0991668701171875,-0.0159149169921875
1782952426224945700,8.583945556640625,-1.294891357421875,-0.093902587890625,0.011749267578125
1782952426234872800,8.593872802734374,-1.4761810302734375,-0.1018829345703125,0.046600341796875
1782952426244799700,8.6037998046875,-1.682403564453125,-0.1306610107421875,0.080596923828125
1782952426254727000,8.613726806640624,-1.8893585205078125,-0.191986083984375,0.11761474609375
1782952426264654800,8.62365478515625,-2.0536956787109375,-0.271270751953125,0.1339111328125
1782952426274582000,8.63358203125,-2.171905517578125,-0.3071136474609375,0.1046905517578125
1782952426284508700,8.6435087890625,-2.3092041015625,-0.287811279296875,0.0793304443359375
1782952426294435800,8.653435791015625,-2.45086669921875,-0.26153564453125,0.0241546630859375
1782952426304363800,8.66336376953125,-2.5388031005859375,-0.2408447265625,-0.04400634765625
1782952426314290700,8.673290771484375,-2.54901123046875,-0.21759033203125,-0.112091064453125
1782952426324217900,8.6832177734375,-2.4962005615234375,-0.2011260986328125,-0.1736907958984375
1782952426334145800,8.693145751953125,-2.3835296630859375,-0.1924591064453125,-0.1953582763671875
1782952426344072700,8.70307275390625,-2.2197265625,-0.1937103271484375,-0.1864166259765625
1782952426354000000,8.712999755859375,-2.038665771484375,-0.1962890625,-0.1620941162109375
1782952426363926800,8.7229267578125,-1.8762359619140625,-0.202667236328125,-0.117401123046875
1782952426373855000,8.73285498046875,-1.751007080078125,-0.2162933349609375,-0.07818603515625
1782952426383782000,8.742781982421874,-1.65087890625,-0.232818603515625,-0.0615997314453125
1782952426393708800,8.752708740234375,-1.563446044921875,-0.2459259033203125,-0.0469512939453125
1782952426403635700,8.7626357421875,-1.47650146484375,-0.24395751953125,-0.0412445068359375
1782952426413563600,8.772563720703126,-1.3796539306640625,-0.2286376953125,-0.0359649658203125
1782952426423490800,8.78249072265625,-1.2641143798828125,-0.2069091796875,-0.0349578857421875
1782952426433417700,8.792417724609376,-1.128814697265625,-0.18511962890625,-0.0372314453125
1782952426443345000,8.802344970703125,-0.99310302734375,-0.1649322509765625,-0.0487213134765625
1782952426453272800,8.81227294921875,-0.84759521484375,-0.1493682861328125,-0.073760986328125
1782952426463199700,8.82219970703125,-0.7093963623046875,-0.142303466796875,-0.090484619140625
1782952426473127000,8.832126953125,-0.5713653564453125,-0.134857177734375,-0.0952911376953125
1782952426483053800,8.8420537109375,-0.4418487548828125,-0.1131744384765625,-0.10272216796875
1782952426492982000,8.85198193359375,-0.3289031982421875,-0.0969696044921875,-0.0804595947265625
1782952426502908700,8.86190869140625,-0.239288330078125,-0.0879974365234375,-0.0786895751953125
1782952426512835800,8.8718359375,-0.1815185546875,-0.0892791748046875,-0.060394287109375
1782952426522762800,8.8817626953125,-0.1604461669921875,-0.0910186767578125,-0.0297698974609375
1782952426532690700,8.891690673828125,-0.1739349365234375,-0.0801544189453125,-0.003753662109375
1782952426542617900,8.901617919921875,-0.215667724609375,-0.0743865966796875,0.0265045166015625
1782952426552544800,8.911544677734375,-0.3058624267578125,-0.081146240234375,0.0514984130859375
1782952426562472000,8.921471923828125,-0.4170989990234375,-0.0870819091796875,0.049072265625
1782952426572399900,8.93139990234375,-0.481475830078125,-0.0985107421875,0.015228271484375
1782952426582326800,8.941326904296876,-0.5106201171875,-0.117462158203125,-0.0348052978515625
1782952426592254000,8.95125390625,-0.538909912109375,-0.121734619140625,-0.0607757568359375
1782952426602180600,8.9611806640625,-0.5274658203125,-0.1203765869140625,-0.067779541015625
1782952426612108800,8.97110888671875,-0.474884033203125,-0.1341705322265625,-0.068115234375
1782952426622035700,8.98103564453125,-0.411529541015625,-0.151123046875,-0.05133056640625
1782952426631963000,8.990962890625,-0.375274658203125,-0.16265869140625,-0.0297088623046875
1782952426641889800,9.000889892578124,-0.3849945068359375,-0.177581787109375,-0.025115966796875
1782952426651817700,9.010817626953125,-0.41455078125,-0.1785736083984375,-0.0577239990234375
1782952426661745000,9.020744873046874,-0.466156005859375,-0.162872314453125,-0.1153411865234375
1782952426671671800,9.030671875,-0.544281005859375,-0.1344757080078125,-0.180023193359375
1782952426681599000,9.040598876953124,-0.7112274169921875,-0.0998382568359375,-0.2017669677734375
1782952426691527000,9.05052685546875,-0.978515625,-0.1441802978515625,-0.1460113525390625
1782952426701453800,9.060453857421875,-1.243560791015625,-0.1790771484375,-0.157623291015625
1782952426711380700,9.070380615234376,-1.3768157958984375,-0.228302001953125,-0.158050537109375
1782952426721307600,9.0803076171875,-1.378814697265625,-0.2053070068359375,-0.125457763671875
1782952426731235800,9.09023583984375,-1.3036651611328125,-0.1434478759765625,-0.12603759765625
1782952426741162800,9.100162841796875,-1.2048797607421875,-0.1149139404296875,-0.1359710693359375
1782952426751090000,9.11008984375,-1.1110076904296875,-0.09368896484375,-0.167144775390625
1782952426761017900,9.120017822265625,-1.0414276123046875,-0.0527191162109375,-0.164398193359375
1782952426770944800,9.12994482421875,-0.9359130859375,-0.0404052734375,-0.125152587890625
1782952426780872000,9.139871826171875,-0.8317718505859375,-0.0607147216796875,-0.0980987548828125
1782952426790798800,9.149798828125,-0.768951416015625,-0.0863494873046875,-0.071624755859375
1782952426800726800,9.159726806640625,-0.7047576904296875,-0.1118011474609375,-0.062103271484375
1782952426810654000,9.169654052734375,-0.6403045654296875,-0.1286773681640625,-0.05242919921875
1782952426820580600,9.17958056640625,-0.605712890625,-0.1382904052734375,-0.0092620849609375
1782952426830507800,9.1895078125,-0.5756683349609375,-0.151275634765625,0.018951416015625
1782952426840435700,9.199435791015626,-0.5689697265625,-0.154205322265625,0.0082550048828125
1782952426850363400,9.20936328125,-0.5621185302734375,-0.1383056640625,-0.0026702880859375
1782952426860290600,9.21929052734375,-0.54486083984375,-0.108245849609375,-0.0300140380859375
1782952426870217500,9.229217529296875,-0.513336181640625,-0.0787506103515625,-0.0509796142578125
1782952426880145700,9.239145751953124,-0.483673095703125,-0.056121826171875,-0.064910888671875
1782952426890072600,9.249072509765625,-0.4903411865234375,-0.039093017578125,-0.080078125
1782952426899999700,9.258999755859374,-0.51556396484375,-0.0338287353515625,-0.0858306884765625
1782952426909926700,9.2689267578125,-0.552520751953125,-0.0233612060546875,-0.0948028564453125
1782952426919854600,9.2788544921875,-0.5734100341796875,-0.0255889892578125,-0.08856201171875
1782952426929781800,9.28878173828125,-0.6070404052734375,-0.0413665771484375,-0.06591796875
1782952426939708400,9.29870849609375,-0.6552276611328125,-0.065582275390625,-0.023681640625
1782952426949635600,9.308635498046876,-0.6803741455078125,-0.087158203125,-0.0087738037109375
1782952426959561500,9.3185615234375,-0.6811981201171875,-0.0972137451171875,0.005035400390625
1782952426969488600,9.328488525390625,-0.6722869873046875,-0.0863494873046875,0.015045166015625
1782952426979415600,9.33841552734375,-0.6529693603515625,-0.0582122802734375,0.01123046875
1782952426989343700,9.34834375,-0.6772308349609375,-0.0269927978515625,-0.022857666015625
1782952426999270700,9.358270751953125,-0.785797119140625,0.0085296630859375,-0.093597412109375
1782952427009197600,9.368197509765626,-0.989837646484375,0.05206298828125,-0.1717681884765625
1782952427019124500,9.37812451171875,-1.2750701904296875,0.0981292724609375,-0.2203826904296875
1782952427029052400,9.388052490234376,-1.56591796875,0.1090545654296875,-0.2126312255859375
1782952427038979600,9.3979794921875,-1.7982940673828125,0.07611083984375,-0.115966796875
1782952427048906500,9.407906494140626,-1.947967529296875,0.0297393798828125,0.018890380859375
1782952427058833700,9.417833740234375,-2.0517730712890625,-0.0158843994140625,0.0848388671875
1782952427068761600,9.42776171875,-2.115997314453125,-0.044769287109375,0.0596160888671875
1782952427078688500,9.4376884765625,-2.12469482421875,-0.0373687744140625,-0.020751953125
1782952427088615700,9.44761572265625,-2.1649169921875,-0.0069732666015625,-0.086395263671875
1782952427098542300,9.457542236328125,-2.2538604736328125,0.0224151611328125,-0.1259918212890625
1782952427108470800,9.467470703125,-2.3451690673828125,0.031036376953125,-0.176788330078125
1782952427118397400,9.4773974609375,-2.392120361328125,0.0260772705078125,-0.207244873046875
1782952427128324600,9.48732470703125,-2.37152099609375,0.015899658203125,-0.194000244140625
1782952427138251500,9.49725146484375,-2.2681121826171875,0.0073394775390625,-0.168060302734375
1782952427148179500,9.507179443359375,-2.1162567138671875,0.0001068115234375,-0.13323974609375
1782952427158106600,9.517106689453126,-1.9376678466796875,-0.018310546875,-0.1167755126953125
1782952427168033500,9.527033447265625,-1.765899658203125,-0.0493621826171875,-0.105194091796875
1782952427177960700,9.536960693359376,-1.61077880859375,-0.0902862548828125,-0.0838470458984375
1782952427187888600,9.546888671875,-1.4838714599609375,-0.1103515625,-0.0702362060546875
1782952427197815600,9.556815673828124,-1.372344970703125,-0.106689453125,-0.059234619140625
1782952427207742500,9.566742431640625,-1.253448486328125,-0.1263427734375,-0.054656982421875
1782952427217670700,9.576670654296874,-1.12957763671875,-0.1525115966796875,-0.0659637451171875
1782952427227597600,9.58659765625,-1.01641845703125,-0.194793701171875,-0.046722412109375
1782952427237524500,9.5965244140625,-0.899169921875,-0.22308349609375,-0.06036376953125
1782952427247451600,9.60645166015625,-0.7839508056640625,-0.2323760986328125,-0.071563720703125
1782952427257379600,9.616379638671875,-0.6718597412109375,-0.221893310546875,-0.0930633544921875
1782952427267306500,9.626306396484376,-0.5864715576171875,-0.2124176025390625,-0.075592041015625
1782952427277233700,9.636233642578125,-0.5014495849609375,-0.234710693359375,-0.0522918701171875
1782952427287160600,9.64616064453125,-0.44305419921875,-0.24072265625,-0.046295166015625
1782952427297088500,9.656088623046875,-0.395904541015625,-0.2316436767578125,-0.0536041259765625
1782952427307015700,9.666015625,-0.3756561279296875,-0.1970367431640625,-0.0533447265625
1782952427316942300,9.6759423828125,-0.35357666015625,-0.170745849609375,-0.037872314453125
1782952427326869500,9.685869384765626,-0.3576202392578125,-0.1517791748046875,-0.0336151123046875
1782952427336797400,9.69579736328125,-0.40460205078125,-0.1131439208984375,-0.061126708984375
1782952427346724600,9.705724609375,-0.4669647216796875,-0.0768280029296875,-0.105560302734375
1782952427356651500,9.715651611328125,-0.53118896484375,-0.04217529296875,-0.1352386474609375
1782952427366578700,9.72557861328125,-0.582244873046875,-0.024078369140625,-0.12982177734375
1782952427376506600,9.735506591796875,-0.6173095703125,-0.02099609375,-0.0930633544921875
1782952427386433500,9.74543359375,-0.6441497802734375,-0.037841796875,-0.06378173828125
1782952427396360700,9.755360595703126,-0.6561126708984375,-0.064239501953125,-0.0706787109375
1782952427406287600,9.76528759765625,-0.6443328857421875,-0.068572998046875,-0.085845947265625
1782952427416215600,9.775215576171876,-0.619140625,-0.0539703369140625,-0.0837554931640625
1782952427426142500,9.785142578125,-0.6078643798828125,-0.04205322265625,-0.0675048828125
1782952427436069400,9.7950693359375,-0.60504150390625,-0.052703857421875,-0.048248291015625
1782952427445996500,9.80499658203125,-0.6389312744140625,-0.060546875,-0.0287322998046875
1782952427455924500,9.814924560546874,-0.73089599609375,-0.0607147216796875,-0.0280914306640625
1782952427465851600,9.8248515625,-0.8202362060546875,-0.05950927734375,-0.052947998046875
1782952427475778600,9.834778564453124,-0.9305267333984375,-0.0678253173828125,-0.07666015625
1782952427485705700,9.844705810546875,-1.037322998046875,-0.076202392578125,-0.105743408203125
1782952427495633700,9.854633544921874,-1.1542816162109375,-0.07269287109375,-0.122650146484375
1782952427505560600,9.864560546875,-1.2617340087890625,-0.05328369140625,-0.131134033203125
1782952427515487700,9.87448779296875,-1.3064422607421875,-0.03741455078125,-0.145660400390625
1782952427525414400,9.884414306640625,-1.2540740966796875,-0.0447540283203125,-0.153533935546875
1782952427535342300,9.89434228515625,-1.1432037353515625,-0.06097412109375,-0.140045166015625
1782952427545269500,9.90426953125,-1.0043792724609375,-0.0750274658203125,-0.1429901123046875
1782952427555196400,9.914196533203125,-0.8765716552734375,-0.0914154052734375,-0.1568603515625
1782952427565123600,9.92412353515625,-0.763641357421875,-0.0890045166015625,-0.1503448486328125
1782952427575051500,9.934051513671875,-0.653411865234375,-0.079833984375,-0.120635986328125
1782952427584978700,9.943978759765624,-0.5712890625,-0.0830841064453125,-0.0947113037109375
1782952427594905600,9.953905517578125,-0.5189666748046875,-0.099090576171875,-0.0801849365234375
1782952427604833500,9.96383349609375,-0.4705352783203125,-0.130950927734375,-0.0660552978515625
1782952427614760700,9.9737607421875,-0.4362335205078125,-0.147796630859375,-0.0448150634765625
1782952427624687600,9.9836875,-0.440765380859375,-0.139984130859375,-0.01055908203125
1782952427634614500,9.993614501953125,-0.467437744140625,-0.1269683837890625,0.012908935546875
1782952427644542500,10.00354248046875,-0.50830078125,-0.119232177734375,0.0109100341796875
1782952427654469400,10.013469482421876,-0.5423431396484375,-0.1194000244140625,-0.02130126953125
1782952427664396500,10.023396484375,-0.56744384765625,-0.120880126953125,-0.0565338134765625
1782952427674323500,10.033323486328126,-0.5782318115234375,-0.122894287109375,-0.0792388916015625
1782952427684251600,10.043251708984375,-0.574859619140625,-0.12445068359375,-0.0795440673828125
1782952427694178600,10.053178466796876,-0.5777435302734375,-0.1251678466796875,-0.07232666015625
1782952427704105700,10.063105712890625,-0.580902099609375,-0.1312408447265625,-0.08367919921875
1782952427714032600,10.07303271484375,-0.5717926025390625,-0.1391143798828125,-0.0980072021484375
1782952427723960600,10.082960693359375,-0.575653076171875,-0.1460418701171875,-0.092681884765625
1782952427733887700,10.0928876953125,-0.567291259765625,-0.14300537109375,-0.0915374755859375
1782952427743814400,10.102814453125,-0.522125244140625,-0.13165283203125,-0.1132965087890625
1782952427753741600,10.112741455078124,-0.4725341796875,-0.117462158203125,-0.1401824951171875
1782952427763669500,10.12266943359375,-0.522186279296875,-0.09893798828125,-0.1506500244140625
1782952427773596400,10.132596435546875,-0.6778564453125,-0.096527099609375,-0.1529388427734375
1782952427783523600,10.142523681640625,-0.793914794921875,-0.08935546875,-0.1251068115234375
1782952427793450500,10.152450439453125,-0.8680877685546875,-0.087860107421875,-0.109405517578125
1782952427803378700,10.162378662109376,-0.933807373046875,-0.08660888671875,-0.115509033203125
1782952427813305600,10.1723056640625,-1.0069427490234375,-0.0867767333984375,-0.11529541015625
1782952427823232800,10.182232666015626,-1.1247406005859375,-0.0878448486328125,-0.108978271484375
1782952427833159700,10.19215966796875,-1.317291259765625,-0.09136962890625,-0.0743255615234375
1782952427843087600,10.202087646484374,-1.57568359375,-0.0998077392578125,-0.02099609375
1782952427853014000,10.212013916015625,-1.8550872802734375,-0.097900390625,-0.0024261474609375
1782952427862941000,10.22194091796875,-2.1256103515625,-0.0855560302734375,-0.0300140380859375
1782952427872868000,10.2318681640625,-2.3495330810546875,-0.0679168701171875,-0.1143798828125
1782952427882796000,10.241796142578124,-2.474456787109375,-0.057373046875,-0.215667724609375
1782952427892723200,10.25172314453125,-2.506011962890625,-0.0467376708984375,-0.282135009765625
1782952427902650000,10.261650146484374,-2.474395751953125,-0.0352783203125,-0.3090972900390625
1782952427912577300,10.271577392578125,-2.4278564453125,-0.016845703125,-0.3053436279296875
1782952427922505200,10.281505126953125,-2.3742828369140625,-0.0054168701171875,-0.2903289794921875
1782952427932432100,10.29143212890625,-2.33447265625,-0.0183563232421875,-0.2898101806640625
1782952427942359000,10.301359130859375,-2.27545166015625,-0.0261688232421875,-0.2754364013671875
1782952427952287000,10.311286865234376,-2.150787353515625,-0.0263519287109375,-0.236907958984375
1782952427962214000,10.3212138671875,-1.9921722412109375,-0.0514373779296875,-0.218170166015625
1782952427972141000,10.33114111328125,-1.8078765869140625,-0.0767059326171875,-0.207763671875
1782952427982068000,10.34106787109375,-1.6105194091796875,-0.1024017333984375,-0.192535400390625
1782952427991996200,10.35099609375,-1.4448394775390625,-0.12945556640625,-0.178314208984375
1782952428001923000,10.360923095703125,-1.32244873046875,-0.15277099609375,-0.1820220947265625
1782952428011850200,10.370850341796874,-1.219146728515625,-0.1668853759765625,-0.1949462890625
1782952428021777200,10.380777099609375,-1.1299896240234375,-0.1669158935546875,-0.1910400390625
1782952428031705000,10.390705078125,-1.0563812255859375,-0.16485595703125,-0.17596435546875
1782952428041632300,10.40063232421875,-1.00640869140625,-0.1536407470703125,-0.156768798828125
1782952428051559000,10.410558837890624,-0.955322265625,-0.14691162109375,-0.130157470703125
1782952428061486000,10.420486083984375,-0.8696136474609375,-0.1305999755859375,-0.108795166015625
1782952428071414000,10.4304140625,-0.74627685546875,-0.10614013671875,-0.099578857421875
1782952428081341000,10.4403408203125,-0.6374969482421875,-0.0863189697265625,-0.0802764892578125
1782952428091268000,10.45026806640625,-0.54547119140625,-0.077178955078125,-0.0625
1782952428101195000,10.460195068359376,-0.47265625,-0.0736541748046875,-0.0697479248046875
1782952428111123200,10.470123291015625,-0.4156646728515625,-0.064178466796875,-0.086822509765625
1782952428121050000,10.480050048828126,-0.3843536376953125,-0.044097900390625,-0.09393310546875
1782952428130977300,10.489977294921875,-0.3766632080078125,-0.0328216552734375,-0.0782470703125
1782952428140904200,10.499904296875,-0.400909423828125,-0.034637451171875,-0.0665283203125
1782952428150832000,10.50983203125,-0.43389892578125,-0.0397491455078125,-0.0518341064453125
1782952428160759000,10.519759033203124,-0.441802978515625,-0.056640625,-0.0571441650390625
1782952428170686000,10.52968603515625,-0.4332122802734375,-0.080047607421875,-0.0629730224609375
1782952428180613000,10.539613037109374,-0.3990936279296875,-0.09893798828125,-0.0875396728515625
1782952428190541000,10.549541015625,-0.3592376708984375,-0.0943145751953125,-0.109588623046875
1782952428200468000,10.559468017578125,-0.3558807373046875,-0.0804290771484375,-0.1091156005859375
1782952428210395100,10.56939501953125,-0.381256103515625,-0.0738067626953125,-0.0847320556640625
1782952428220322000,10.579322021484375,-0.41400146484375,-0.0764312744140625,-0.0865020751953125
1782952428230250200,10.589250244140626,-0.433990478515625,-0.0938568115234375,-0.1030426025390625
1782952428240177200,10.59917724609375,-0.439117431640625,-0.105865478515625,-0.1221923828125
1782952428250104000,10.60910400390625,-0.4644317626953125,-0.1169891357421875,-0.1260833740234375
1782952428260031000,10.619031005859375,-0.518157958984375,-0.139495849609375,-0.1098480224609375
1782952428269959000,10.628958984375,-0.6432647705078125,-0.1712188720703125,-0.0457763671875
1782952428279886000,10.638885986328125,-0.7801361083984375,-0.1983184814453125,-0.04241943359375
1782952428289813000,10.64881298828125,-0.911407470703125,-0.183319091796875,-0.0770111083984375
1782952428299741000,10.658740966796875,-0.9833526611328125,-0.146942138671875,-0.118621826171875
1782952428309668000,10.668668212890625,-1.0330963134765625,-0.1153564453125,-0.1324462890625
1782952428319595000,10.678594970703125,-1.0903167724609375,-0.0934600830078125,-0.12652587890625
1782952428329522200,10.688522216796875,-1.165985107421875,-0.086669921875,-0.106842041015625
1782952428339450000,10.6984501953125,-1.2361297607421875,-0.089111328125,-0.0888671875
1782952428349377300,10.708377197265625,-1.2490234375,-0.095001220703125,-0.076324462890625
1782952428359304000,10.718303955078126,-1.19622802734375,-0.10015869140625,-0.0779266357421875
1782952428369231000,10.728231201171875,-1.124786376953125,-0.103179931640625,-0.075958251953125
1782952428379159000,10.738158935546876,-1.0319976806640625,-0.1029205322265625,-0.065155029296875
1782952428389086000,10.7480859375,-0.921417236328125,-0.121917724609375,-0.0495758056640625
1782952428399013000,10.75801318359375,-0.840667724609375,-0.1513824462890625,-0.056243896484375
1782952428408940000,10.76793994140625,-0.780059814453125,-0.1573944091796875,-0.068695068359375
1782952428418868000,10.777867919921874,-0.7236785888671875,-0.1500091552734375,-0.058990478515625
1782952428428795100,10.787795166015625,-0.668609619140625,-0.14923095703125,-0.0393218994140625
1782952428438722000,10.79772216796875,-0.636810302734375,-0.1430206298828125,-0.0211334228515625
1782952428448649200,10.807649169921875,-0.6188201904296875,-0.1331634521484375,-0.019683837890625
1782952428458577200,10.8175771484375,-0.613800048828125,-0.1188201904296875,-0.0240020751953125
1782952428468504000,10.827504150390626,-0.612945556640625,-0.1004638671875,-0.028167724609375
1782952428478431000,10.837430908203125,-0.6200714111328125,-0.07904052734375,-0.0275115966796875
1782952428488358100,10.847358154296876,-0.6529541015625,-0.060577392578125,-0.030029296875
1782952428498286000,10.8572861328125,-0.6880340576171875,-0.0458221435546875,-0.0478057861328125
1782952428508213000,10.867212890625,-0.716064453125,-0.0312957763671875,-0.05548095703125
1782952428518140200,10.87714013671875,-0.7146148681640625,-0.0296630859375,-0.0659637451171875
1782952428528067000,10.887067138671876,-0.6873779296875,-0.0418548583984375,-0.0774383544921875
1782952428537995000,10.8969951171875,-0.635345458984375,-0.060333251953125,-0.084197998046875
1782952428547922200,10.906922119140624,-0.607879638671875,-0.08001708984375,-0.0725860595703125
1782952428557849000,10.91684912109375,-0.6202392578125,-0.098236083984375,-0.0537261962890625
1782952428567776000,10.92677587890625,-0.673553466796875,-0.1395721435546875,0.002471923828125
1782952428577704000,10.936703857421875,-0.714447021484375,-0.1615447998046875,0.0122528076171875
1782952428587631000,10.946631103515625,-0.7449951171875,-0.1448211669921875,-0.0356292724609375
