time,seconds_elapsed,z,y,x
1782952697630182100,0.06618212890625,0.016097148320078847,-0.004192702449485659,0.0055022415449377145
1782952697640109300,0.076109375,0.01100245552957058,0.0005305084138177335,0.002360737781971693
1782952697650037200,0.086037353515625,0.014143091642856598,-0.002861271182633936,0.0036534947059815746
1782952697659964400,0.09596435546875,0.030303952848911284,-0.00871587896235287,0.010639974326151422
1782952697669892400,0.105892333984375,0.009054244071245193,-0.0024205416778102515,0.0024143767985049633
1782952697679819300,0.1158193359375,0.02042787100076675,0.006182013103179633,0.018651614009286277
1782952697689747500,0.12574755859375,0.02192716964781284,-0.006066314301639795,0.0006951335241552442
1782952697699674400,0.13567431640625,0.022376666980981827,-0.00508166891215369,0.01203501344770193
1782952697709602300,0.145602294921875,0.00965220996439457,0.002100625541061163,0.010259893533959985
1782952697719529500,0.155529541015625,0.014440613284707068,0.009717475486639886,-0.011618651199154555
1782952697729456000,0.1654560546875,0.028804654201865194,-0.0023504721162840724,-0.009789220982021651
1782952697739384000,0.175384033203125,0.007554360902309418,-0.0054261897671967745,-0.002592916269763373
1782952697749311200,0.185311279296875,0.004710661908984184,-0.0022562910268083213,0.006873940890096127
1782952697759239200,0.1952392578125,0.010848726272583008,-0.00878865193761885,0.011541891601937823
1782952697769166300,0.205166259765625,0.0023187983363866806,0.0045286381392739715,0.012008778461324981
1782952697779094300,0.21509423828125,0.022673604100942612,0.0015129801125265657,0.019980108966957778
1782952697789021200,0.225021240234375,0.03375029391050339,0.005012165606208145,0.008978845314052887
1782952697798949000,0.23494921875,0.01534896030128002,0.004570303590223193,0.0071792302798712624
1782952697808876300,0.244876220703125,0.01444704302549362,-0.008004095697496086,-0.004188428133167326
1782952697818804200,0.25480419921875,0.023576105898618697,0.005555003778636455,-0.007821784233418293
1782952697828731400,0.2647314453125,0.024474516043066975,-0.0038978659550659355,0.005052260154578834
1782952697838658300,0.274658203125,0.016842413729429243,-0.0007128244444727898,0.008230150405177846
1782952697848586200,0.284586181640625,0.01744330223202705,0.0031077019580639897,0.0036673862340161575
1782952697858513400,0.294513427734375,0.026424481067061422,0.0032847572917118666,0.0014419652695069089
1782952697868441300,0.30444140625,0.019544073903560638,0.008713413010630756,-0.0015588376814033836
1782952697878368300,0.3143681640625,0.02702420052587986,0.0011189027610234916,-0.00915389592028223
1782952697888296400,0.32429638671875,0.02596972303688526,-0.005985084025282412,0.004156475792056881
1782952697898223400,0.334223388671875,0.01354687931537628,-0.006213540752604604,-0.003015265301102772
1782952697908151300,0.3441513671875,0.023719898283481596,-0.010460384542122482,-0.0029852811547927557
1782952697918078200,0.354078125,0.021176059019565582,0.007157781066466123,0.009421159421186893
1782952697928006100,0.364006103515625,0.015488076511025428,0.012906590384151786,0.003866995892766863
1782952697937933300,0.373933349609375,0.016087795969843863,-0.008954948415234684,0.0030909745855489746
1782952697947860200,0.383860107421875,0.010100538253784179,-0.0038036118003539738,0.015785694050998427
1782952697957788200,0.3937880859375,0.02970364886820316,0.0005261975648812949,0.004491274404106661
1782952697967715300,0.40371533203125,0.016683423775434494,-0.012553393032308667,0.004309488096414134
1782952697977643300,0.413643310546875,0.016231003832817077,-0.0034878969146870074,0.00018216076702810824
1782952697987570200,0.423570068359375,0.021318682360649106,-0.0033493286942131817,-0.01609417547828052
1782952697997498400,0.433498291015625,0.018476736932992933,-0.0010211780075915157,0.018386117773782462
1782952698007425300,0.44342529296875,0.024462825605273245,-0.007345266462583095,0.0009249647912336513
1782952698017353200,0.453353271484375,0.04630991575419902,-0.005241170322801918,-0.00710557595519349
1782952698027280400,0.4632802734375,0.012189619487524032,0.01761672257017344,-0.011223866028175688
1782952698037208300,0.473208251953125,0.027450901505351066,-0.002661766555160284,-0.004033749028109014
1782952698047135200,0.48313525390625,0.02250935344994068,-0.01915551297739148,-0.012943981518782675
1782952698057063400,0.4930634765625,0.016370120042562483,-0.011242748825158922,0.003612144348863512
1782952698066990300,0.502990234375,0.028639819028973577,-0.02199723920933902,0.008797269068914464
1782952698076917200,0.512917236328125,0.01935702689886093,-0.003614774697367102,0.012003622795594856
1782952698086845400,0.522845458984375,0.008880641070008277,-0.0016117095129564404,0.007522353762271813
1782952698096772000,0.532772216796875,0.016814941200613973,0.0012951726433821022,0.007056951040495187
1782952698106700500,0.542700439453125,0.012776479464769362,-0.0018892478127032516,0.009122505268175155
1782952698116627500,0.55262744140625,0.007237550038099288,-0.010961118872184306,0.009158594928286037
1782952698126555400,0.562555419921875,0.01247545069158077,-0.009166253078356385,-0.003916940548294223
1782952698136482600,0.572482666015625,0.009632920742034912,0.005496624654904007,0.009462185551319271
1782952698146410500,0.582410400390625,0.015468202766776084,-0.0014046608998440205,-0.003091737203951925
1782952698156337400,0.59233740234375,0.036712650847435,0.014585392050258814,0.00968797996409703
1782952698166265600,0.602265625,0.019358195942640304,0.005645148013811558,0.0024219938493799417
1782952698176192500,0.612192626953125,0.0245955120742321,0.008677611044887453,-0.00012294595965649932
1782952698186119700,0.62211962890625,0.02609130358994007,0.0018305764280259608,0.005199765166756696
1782952698196047600,0.632047607421875,0.022046412113308905,-0.007436269214283675,-0.005365851581818424
1782952698205974300,0.641974365234375,0.013365093007683753,-0.0009210421013645827,0.015419367789523675
1782952698215902500,0.65190234375,0.03790449098050594,-0.0031095651215873655,-0.0018682187244063243
1782952698225829400,0.661829345703125,0.018452771535515784,-0.0001692190870642662,-0.0004955512648681179
1782952698235757300,0.67175732421875,0.024587913289666176,-0.0006291282163932919,0.005905858476343564
1782952698245684500,0.6816845703125,0.013663783693313598,-0.0039016836136579513,0.00006889595116954296
1782952698255612400,0.6916123046875,0.01695464193224907,0.0025798969579860567,0.012259004062460735
1782952698265539300,0.701539306640625,0.029225509962439535,0.005526837130077183,0.0017853262139251455
1782952698275467500,0.711467529296875,0.030423779836297033,-0.003820380272064358,-0.005530335128260776
1782952698285394400,0.72139453125,0.01441664788722992,0.006639949471130967,0.01218984781638719
1782952698295322400,0.731322265625,0.017107202145457266,-0.000745521137677133,0.00882839942611754
1782952698305249500,0.74124951171875,0.024139585000276565,-0.005710705797001719,-0.004788179558026604
1782952698315176400,0.751176513671875,0.022044658547639845,-0.008662596138846129,0.009237701746216043
1782952698325104400,0.7611044921875,0.024889526584744453,0.008174794355593621,-0.011991073841275646
1782952698335031600,0.771031494140625,0.022497078490257262,-0.0008355009760707616,0.0007862550068646668
1782952698344959500,0.78095947265625,0.01845861675441265,-0.012572700520977377,0.006288583316770382
1782952698354886700,0.79088671875,0.009184592452645302,-0.011938311607576906,0.013839857212849891
1782952698364814600,0.800814697265625,0.01651625051498413,-0.0007025405124761164,-0.00007724822098389267
1782952698374741500,0.810741455078125,0.028188568130135535,-0.008205408689565956,0.003668979969481006
1782952698384669400,0.82066943359375,0.021454291439056396,0.0073930145944468674,0.010263327600061893
1782952698394596400,0.830596435546875,0.036866380104422565,0.017439393241889773,0.034672463956451974
1782952698404524500,0.840524658203125,0.0422545028835535,0.01902432434577495,0.01347956796651706
1782952698414451500,0.850451416015625,0.016516835036873817,0.0013699183800257742,0.010345544257108121
1782952698424378400,0.86037841796875,0.00783960758447647,-0.013783884675335138,-0.0021092061397386713
1782952698434306300,0.870306396484375,0.009931611427664756,-0.020555278506409376,-0.006378170429519377
1782952698444233500,0.8802333984375,0.023849077621102333,-0.014411515054386108,-0.015798274971358477
1782952698454161400,0.890161376953125,0.015770400583744047,-0.010438044846151023,-0.00365877823587507
1782952698464088300,0.90008837890625,0.02489829441308975,-0.003274254164006561,0.01012213359766174
1782952698474016500,0.9100166015625,0.023550971457362173,0.001531648280378431,0.02117926019022707
1782952698483943400,0.919943359375,0.03687280984520912,0.00873045547697693,0.015704993497603573
1782952698493871400,0.929871337890625,0.02056055746972561,-0.004221563217788935,0.01272552559566684
1782952698503798500,0.939798583984375,0.014722352835536003,-0.018512940757535398,-0.0071972773932153355
1782952698513726500,0.9497265625,0.021457214048504827,-0.010025719451904296,0.0007852960256393999
1782952698523653600,0.959653564453125,0.03582242400944233,-0.006846541426517069,-0.0006110263041220605
1782952698533581600,0.96958154296875,0.01277531042098999,-0.0030014285719953473,0.003369786960352212
1782952698543508500,0.979508544921875,0.020254267999529837,0.019087781503424047,0.021994280067272484
1782952698553435600,0.989435546875,0.019506664502620695,0.015486103749647736,0.023249307929934
1782952698563363600,0.999363525390625,0.04509352570176124,0.017011541484948246,0.0056838725890032945
1782952698573290200,1.009290283203125,0.01097498300075531,0.006719809774309396,0.0029518035768764093
1782952698583218400,1.019218505859375,0.015761632755398748,-0.0113482367599383,-0.008227867116546259
1782952698593145300,1.029145263671875,0.019799509969353674,0.005930412962287664,-0.019070154515188186
1782952698603073300,1.0390732421875,0.012167992177605629,-0.008150116572063416,-0.008040623749024233
1782952698613000400,1.04900048828125,0.012619243076443671,0.0030133564718067643,0.002404143098858185
1782952698622928400,1.058928466796875,0.024889526584744453,0.0031572036555968224,-0.004206196685298346
1782952698632855300,1.068855224609375,0.007677695021033286,0.020482779525779187,0.0212096142292954
1782952698642783500,1.078783447265625,0.03356500047147274,0.007768241115007549,0.011516798259876667
1782952698652710400,1.08871044921875,0.026982114949822424,-0.00680043726246804,-0.008143910593562759
1782952698662637600,1.098637451171875,0.024141338565945625,-0.01539681803099811,-0.005413586013950407
1782952698672565500,1.1085654296875,0.010823007309436798,-0.019869469933025536,0.003873544364562258
1782952698682492400,1.118492431640625,0.022643208962678907,-0.012202278039697556,-0.029340217816713265
1782952698692420600,1.128420654296875,0.029980127722024914,-0.020705117039568722,-0.011884330097748898
1782952698702347500,1.138347412109375,0.03656359776556491,0.009821849176567048,0.026696544040669686
1782952698712275500,1.148275390625,0.02084755771756172,0.010560465649422257,0.01546897451833356
1782952698722202600,1.15820263671875,0.02159866834580898,0.011062369023263454,0.0034983269771561025
1782952698732130600,1.168130615234375,0.02025192991197109,-0.0032683358798734842,0.0042571733872871845
1782952698742057500,1.178057373046875,0.026534371182322502,-0.001376695180684328,0.018966000020969657
1782952698751985700,1.187985595703125,0.016359598648548124,-0.007509718042984604,0.004883502291818149
1782952698761912300,1.197912353515625,0.020998364365100858,-0.017532021695096045,0.0004179468508576974
1782952698771839500,1.207839599609375,0.033114334094524384,0.006452244879305362,0.009082707547326572
1782952698781767400,1.217767333984375,0.0329652810126543,0.012864340411312878,0.012041114394925534
1782952698791694300,1.2276943359375,0.009623568391799927,0.01189317555790767,0.008408671610127203
1782952698801622300,1.237622314453125,0.02413549334704876,-0.008823997245635836,0.0037410953576210884
1782952698811549400,1.247549560546875,0.02293722347319126,0.0022780644671991468,-0.010123142811236902
1782952698821477400,1.257477294921875,0.018146482065320015,0.004717895367369055,-0.00024768658417742697
1782952698831404500,1.267404541015625,0.023684242448210716,-0.009236085177864879,0.00713087935980875
1782952698841332500,1.27733251953125,0.008570844468474387,-0.002505005090869963,-0.004594597781263292
1782952698851259400,1.28725927734375,0.02069499750435352,-0.0053179070871323345,0.0051210008421214296
1782952698861187600,1.2971875,0.013066986843943595,-0.004245583414193243,0.0071757048822240896
1782952698871114500,1.307114501953125,0.025034488013386726,0.012171755037270486,0.01056959880394861
1782952698881041400,1.31704150390625,0.029822891333699225,-0.006576455780863762,0.016049185559083707
1782952698890969600,1.326969482421875,0.001692190870642662,0.017647921426035464,-0.00012327018664218484
1782952698900896500,1.336896484375,0.021444354566931723,-0.026935736791137605,-0.0013070914100389926
1782952698910824400,1.346824462890625,0.03431377301216125,-0.0528267320360057,-0.03833319668739568
1782952698920751400,1.35675146484375,0.015609072542190551,0.001080068587977439,-0.020843123571039176
1782952698930679600,1.366679443359375,0.016655951246619224,0.03685874478723854,0.06241923400268424
1782952698940606500,1.3766064453125,0.03909866920113563,0.034577757710590955,0.03225411880230531
1782952698950534400,1.386534423828125,0.034759763213992115,0.015083002841472624,0.020007965088263153
1782952698960461300,1.39646142578125,0.01186111818552017,0.0075699055313132695,0.014826475363713688
1782952698970389200,1.40638916015625,0.01949380502104759,-0.021955281497444957,-0.023542002699617294
1782952698980316400,1.41631640625,-0.003701777127385139,-0.03133316803248599,-0.02509529655622318
1782952698990243300,1.426243408203125,0.03325812647938728,-0.020826186135970055,-0.013794533933512865
1782952699000171500,1.436171630859375,0.0250268892288208,-0.006255991654843092,0.01203694054330699
1782952699010098400,1.446098388671875,0.044779637446999546,0.02038989534424618,0.02037452881175559
1782952699020026400,1.4560263671875,0.005723053821921348,0.01489454933097586,0.017725503007159568
1782952699029953500,1.46595361328125,0.03280921366810798,-0.0010340557554736733,0.0034947285142727194
1782952699039881500,1.475881591796875,0.006771101570129394,-0.009798961491324008,-0.003207874396909028
1782952699049808400,1.485808349609375,0.029812369939684866,-0.02015398596283048,-0.012831442788708954
1782952699059736600,1.495736572265625,0.006167874979972839,-0.016933909671474248,-0.005495820937305688
1782952699069663500,1.50566357421875,0.0167921448469162,0.003883892228640616,-0.0008269660431658849
1782952699079591400,1.51559130859375,0.013946692287921905,0.014713329278863966,0.022145196312665937
1782952699089518600,1.5255185546875,0.02890811457633972,0.010763897533342242,0.007652035423391498
1782952699099445200,1.5354453125,0.021269582521915433,0.034044966008141636,0.025614187597483396
1782952699109373700,1.545373779296875,0.017972879064083097,0.010243490388430655,0.008528452931740321
1782952699119300600,1.555300537109375,0.030544775867462157,-0.020063786928728223,-0.009898718371638096
1782952699129228500,1.565228515625,0.002864157259464264,-0.04586894878735766,-0.03594371230155229
1782952699139155700,1.57515576171875,0.024261165553331375,-0.05042853005416691,-0.04562476020136382
1782952699149083600,1.585083740234375,0.0003162263423204422,0.013137421731650828,0.03242427403770853
1782952699159008500,1.595008544921875,0.048348728105425835,0.05267199813202023,0.03169100046025123
1782952699168936400,1.6049365234375,0.05164017086625099,0.032037297713849694,0.035582496040035036
1782952699178863600,1.614863525390625,0.01168517709672451,0.0244925814227201,0.032084461323823775
1782952699188791600,1.62479150390625,0.013926234021782875,0.0024800715790130197,-0.009984533491567709
1782952699198718500,1.634718505859375,0.013778349983692168,-0.030662812756560742,-0.023567694263299927
1782952699208646700,1.644646728515625,0.02589958041012287,-0.03441898695230484,-0.020966325259022412
1782952699218573600,1.654573486328125,-0.009417232164740563,-0.023121439199987798,-0.0046737685312749815
1782952699228501500,1.66450146484375,0.030532500907778738,-0.009417670556157828,0.012431118359509856
1782952699238428700,1.6744287109375,0.008237082469463348,0.012590108313504605,0.03376065090773627
1782952699248355600,1.68435546875,0.017665420550107953,0.020906649227347224,0.0118591180246789
1782952699258283500,1.694283447265625,0.018560908085107804,0.017242610294464975,0.019485772411641664
1782952699268210700,1.704210693359375,0.02649170108437538,-0.004010550815612078,-0.0009572733253706246
1782952699278138600,1.714138671875,0.016612112104892728,-0.025751568507868795,-0.02658018765200395
1782952699288065500,1.7240654296875,0.027535072657465933,-0.03292825520420447,-0.0254478865532903
1782952699297993500,1.733993408203125,0.010625438910722733,-0.00792264622543007,-0.011555216874391771
1782952699307920400,1.74392041015625,0.009283961173892021,0.015264752616547047,0.005271643092879094
1782952699317848300,1.753848388671875,0.029336569121479986,0.022273626731615512,0.020328977203555403
1782952699327775500,1.763775390625,0.03681786478757858,0.02587324039246887,0.012557439019763842
1782952699337702400,1.773702392578125,0.020500936236977577,0.006344217927567661,0.006101335382671095
1782952699347630600,1.783630615234375,0.020501520758867263,-0.0034309790956787763,-0.0025140058146556838
1782952699357557500,1.7935576171875,0.023337036445736883,-0.02082143689561635,-0.02170676379620563
1782952699367485400,1.8034853515625,0.02632686591148376,-0.018649280488304793,-0.009334942442458123
1782952699377412600,1.81341259765625,0.007625088050961494,-0.014573756411392242,-0.008218606097856535
1782952699387340500,1.823340576171875,0.03201309485435486,0.011097257673554121,-0.002793873068806715
1782952699397267500,1.833267333984375,0.018244097220897672,0.027210279416199773,0.012296605259645729
1782952699407195600,1.843195556640625,0.026027006182074545,0.015196345289144665,0.01878938764531631
1782952699417122600,1.85312255859375,0.024831074395775792,0.0022988149942830202,0.0151805540649686
1782952699427050500,1.863050537109375,0.008673720321059227,0.0068281107206828884,0.003400515458756126
1782952699436977700,1.872977783203125,0.0143564421325922,-0.027445622542034833,-0.015419737682281992
1782952699446904300,1.882904296875,0.024682021313905716,-0.018344141795579343,-0.0005511173770064488
1782952699456832800,1.892832763671875,0.0306692790299654,-0.009594616291951387,0.001077579803369008
1782952699466759400,1.902759521484375,0.01824818887412548,-0.0017833032201975583,-0.003545865046465769
1782952699476687400,1.912687255859375,0.02049158388674259,0.02096358531266451,0.011698716998309827
1782952699486614500,1.922614501953125,0.02573357619345188,0.0248246994539164,0.01591106486318167
1782952699496542500,1.93254248046875,0.01705167256593704,0.009808112912159413,0.00791200610040687
1782952699506469400,1.942469482421875,0.018103227445483205,0.0026401940441690384,0.0041853639598237345
1782952699516397600,1.9523974609375,0.01960194157063961,-0.011680464388988912,-0.0012817651725374162
1782952699526324500,1.962324462890625,0.028733927053213117,-0.01209847060535103,-0.0011551157187204807
1782952699536254700,1.972254638671875,0.02469488079547882,-0.0035931473874486982,-0.0020294417346827685
1782952699546182700,1.9821826171875,0.029936288580298422,0.012443831710610538,0.0029694625311531123
1782952699556109300,1.992109375,0.01541910292804241,0.025240805974137036,0.012261474580760113
1782952699566037500,2.00203759765625,0.02963525980710983,0.00950565936686471,0.010580362226557918
1782952699575964400,2.01196435546875,0.03502279806435108,0.010238521952368318,0.001522437494038604
1782952699585892400,2.021892333984375,0.027387188619375228,-0.0038336781450547274,0.01526592166032642
1782952699595819500,2.031819580078125,0.020499767193198203,-0.027802253959979862,-0.00856942426294554
1782952699605746400,2.041746337890625,0.017056348741054533,-0.01024865975389257,0.00823526040513534
1782952699615674400,2.05167431640625,0.010621347257494926,0.005503182259853929,0.0014850235265213994
1782952699625601500,2.0616015625,0.00837561415731907,0.020057119725923982,0.0017506795922294259
1782952699635529500,2.071529541015625,0.03231646171510219,0.004833247109036892,0.019706283294525926
1782952699645456600,2.08145654296875,0.01615676955282688,0.0014980748043395577,0.011316298118559644
1782952699655384600,2.091384521484375,0.010173603489995003,-0.004284545451402664,-0.0011578191324602813
1782952699665311500,2.1013115234375,0.012718027275800705,-0.01196534574497491,-0.00381943499057088
1782952699675239700,2.11123974609375,0.004338321465253829,-0.004169394639134407,-0.0026002867254661392
1782952699685166600,2.12116650390625,0.03261456787884235,-0.002326634582970291,0.002394439122173935
1782952699695094500,2.131094482421875,0.018250526961684225,-0.004009765364322811,-0.0028993244709679855
1782952699705021700,2.141021728515625,0.020641221490502355,0.01688559528402984,0.024499540886469183
1782952699714948600,2.150948486328125,0.029615970584750174,0.010098419361934065,0.015594390996289438
1782952699724876500,2.16087646484375,0.01689794330894947,0.004964728001598268,0.007438945228559896
1782952699734803500,2.170803466796875,0.044130233627557754,-0.0014414309799671173,-0.002550250738393515
1782952699744731400,2.1807314453125,0.03500233979821205,-0.0030546931291930376,-0.0016997302897041662
1782952699754658600,2.190658447265625,0.01061199490725994,-0.0008149148457683623,0.006878082775673829
1782952699764586500,2.20058642578125,0.02168400854170322,-0.01049722768748179,0.008601413136674091
1782952699774513400,2.210513427734375,0.025575170761346817,-0.012286924115847796,0.005905022792704403
1782952699784441300,2.22044140625,0.03395721465945244,0.010401603559590876,0.020620923054567537
1782952699794368500,2.230368408203125,0.015547697743773459,0.01097343036448583,0.015219580034259706
1782952699804296400,2.24029638671875,0.021080197429656982,0.010370587366819381,0.006109874882153235
1782952699814223600,2.2502236328125,0.011651274827122688,0.007605798828601837,0.00016881722826510667
1782952699824150500,2.260150634765625,0.011499299135804176,-0.005056059546861797,-0.004207201332296244
1782952699834078500,2.270078369140625,0.012096680507063865,-0.005443524494487792,-0.00006736158120911567
1782952699844005600,2.280005615234375,0.02257131277024746,0.0022104608573950825,-0.014374735841108485
1782952699853933600,2.28993359375,0.03483984271287918,0.011851437041722238,0.00015318583429325372
1782952699863860500,2.299860595703125,0.026608605462312696,0.018908479413762686,0.014065313698910176
1782952699873788700,2.30978857421875,0.027507015606760978,0.01276729151131585,0.00045298619819805026
1782952699883715600,2.319715576171875,0.01373860249519348,0.012685202718432992,-0.009642935245973058
1782952699893643500,2.3296435546875,0.024361703318357467,0.0019694186431355775,0.006029740584339015
1782952699903570700,2.33957080078125,0.025861001965403554,-0.0014099398631602525,-0.004539200632483698
1782952699913498600,2.34949853515625,0.016436755537986753,0.007501534736528992,-0.006112518930388614
1782952699923425500,2.359425537109375,0.01194528933763504,0.012412157930713145,-0.0058050786827225235
1782952699933352400,2.3693525390625,0.026612697115540502,0.008745616513490677,0.003427535896422341
1782952699943280400,2.3792802734375,0.020175942066311837,-0.003453720650449395,0.03656778531691525
1782952699953207600,2.38920751953125,0.005513210463523864,0.004575856548175216,0.01852026098088827
1782952699963135500,2.399135498046875,0.021526187631487847,0.010813125236239283,-0.005973325088829733
1782952699973062400,2.4090625,0.01733399663865566,-0.00276219472233206,-0.005824623633408918
1782952699982990600,2.418990478515625,0.01867956602871418,-0.00000931581761687994,-0.001276244180626236
1782952699992917500,2.42891748046875,0.017482465198636055,0.00013825769321992992,0.003987804694264196
1782952700002845400,2.438845458984375,0.017781740406155586,0.0029986520930193362,-0.003450606244755909
1782952700012772600,2.448772705078125,0.022419921600818633,0.007788352321274578,0.0097859284798149
1782952700022700500,2.458700439453125,0.024964345386624336,0.009972747155651449,-0.0005778957860777154
1782952700032627500,2.46862744140625,0.01988075851202011,0.0047197037319652736,0.01292402100956533
1782952700042554600,2.4785546875,0.024968437039852142,-0.0018355813967064023,0.0017725489307427779
1782952700052482600,2.488482666015625,0.017186112600564955,-0.010032642383035272,-0.0017878789306152612
1782952700062409700,2.49840966796875,0.007609305959939956,-0.0034545061017386613,-0.0062840852381661535
1782952700072337700,2.508337646484375,0.02496668347418308,0.009732015468645841,0.0020782812785124405
1782952700082264300,2.518264404296875,0.007004910326004028,-0.0004176043575629592,-0.0003975251173367724
1782952700092192800,2.52819287109375,0.020768647262454032,0.005060845319833606,0.004551197030954063
1782952700102119400,2.538119384765625,0.013431728503108024,0.007169343640096485,0.009474122584285214
1782952700112046600,2.548046630859375,0.028396657922863958,-0.006188716838601976,0.005886793016269803
1782952700121973800,2.557973876953125,0.02375847672820091,-0.0009664886782877147,0.007006846554763615
1782952700131900700,2.567900634765625,0.01672375578582287,-0.00959719184152782,0.011612746614753268
1782952700141828900,2.577828857421875,0.014628829333186148,-0.002529390613455325,0.0030346367218531665
1782952700151755800,2.587755859375,0.02390752981007099,0.010156451425794511,0.01121301584059838
1782952700161683700,2.59768359375,0.01208908172249794,0.010504095819685607,-0.004546598487650044
1782952700171611000,2.60761083984375,0.025258359897136685,0.0065715969426557415,-0.0011076598478015512
1782952700181538800,2.617538818359375,0.022864158236980438,0.005230356667842715,-0.004644199943495914
1782952700191465700,2.6274658203125,0.020920038431882858,-0.005112173648271709,0.0029011648016050457
1782952700201394000,2.637393798828125,0.015382862570881842,-0.008411306525208056,-0.0019149576426949351
1782952700211320800,2.64732080078125,0.024955577558279037,-0.009665252109058201,-0.006405108668794855
1782952700221248800,2.657248779296875,0.029592005187273025,-0.010039821042492986,0.003025882593239657
1782952700231176000,2.667176025390625,0.023906945288181304,0.00564947712905705,0.0004932040441548452
1782952700241102600,2.6771025390625,0.02315641918182373,0.010800959874410182,0.0038553922199411317
1782952700251030800,2.68703076171875,0.030043256086111067,0.015168288238439707,0.0016156048033619298
1782952700260957700,2.696957763671875,0.022414076381921767,0.007449055630620568,0.005315317837824113
1782952700270885600,2.7068857421875,0.022714520633220672,0.012792773012444376,-0.0006709717638557776
1782952700280812800,2.716812744140625,0.012841361394524574,0.008193316392973065,-0.008990047128079458
1782952700290740700,2.72674072265625,0.024810616129636764,0.003740775697212666,0.010086477762390859
1782952700300667600,2.736667724609375,0.022265023300051687,0.0066426163522526616,-0.007871144367055967
1782952700310595800,2.746595947265625,0.016428572231531144,0.001224482027348131,0.017648186287516725
1782952700320522800,2.756522705078125,0.024660978525876998,0.0031013270162045955,0.015579691184079274
1782952700330450000,2.766449951171875,0.013888240098953246,0.010112594017758965,-0.0027990607005776835
1782952700340377900,2.7763779296875,0.019426000481843946,-0.012097758219297974,0.0072874809938948595
1782952700350304800,2.7863046875,0.01598550463914871,-0.009907846959587185,-0.0011936667639762162
1782952700360232700,2.796232666015625,0.009550503155589102,-0.00839283928675577,-0.0033794772373046725
1782952700370159900,2.806159912109375,0.012394202148914336,-0.006134557232260703,0.01767539395485073
1782952700380087800,2.816087890625,0.02241875255703926,0.0057258120345883064,0.00645444140296895
1782952700390015000,2.826014892578125,0.014039046746492385,0.01587053648997098,0.01321013990798965
1782952700399943000,2.83594287109375,0.02286532728075981,0.005470412501413375,0.008148595901834779
1782952700409869600,2.84586962890625,0.006555997514724731,0.00019579656673595307,0.009942767575918696
1782952700419798000,2.855798095703125,0.024363456884026528,0.0013825221332721411,0.012760268115485087
1782952700429724700,2.865724609375,0.030951018580794333,-0.005016476455144584,0.009544265211047604
1782952700439651800,2.87565185546875,0.026762919241189956,-0.013908095576893537,0.009201379190664738
1782952700449579800,2.885579833984375,0.018381459864974022,-0.014918021538108586,-0.018869270781381054
1782952700459506700,2.895506591796875,0.02526303607225418,0.0032340317514725028,-0.004082310010725632
1782952700469434600,2.9054345703125,0.029303251373767852,0.014460907154064624,0.009063619254366493
1782952700479361800,2.91536181640625,0.0231663560539484,0.0041740342816337945,0.03025104448474012
1782952700489289700,2.925289794921875,0.020472879186272618,-0.008981964286323637,0.00739206931295339
1782952700499217000,2.935216796875,0.022414660903811452,-0.02112502295207232,-0.005788849067129194
1782952700509144800,2.945144775390625,0.015379939961433409,-0.014312328996229915,-0.003739022131543606
1782952700519071700,2.95507177734375,0.014179916521906852,0.005972133212164044,-0.002554050130676478
1782952700528999700,2.964999755859375,0.021360183414816856,0.0021601554422639307,0.0035644373161951076
1782952700538926800,2.9749267578125,0.03377776643931865,-0.004047887151315808,0.0005465371000114828
1782952700548853800,2.984853759765625,0.024803017345070837,0.007672562188189476,-0.00039946591267362233
1782952700558782000,2.994781982421875,0.027197803527116773,0.0030184710383415222,0.006668760007084347
1782952700568708900,3.004708984375,0.030194062733650207,0.0005215031234547496,0.00040466267759911714
1782952700578636800,3.01463671875,0.017321137157082556,-0.0017558124250732362,-0.0009040316010592505
1782952700588563700,3.024563720703125,0.017319383591413495,-0.005591773858759552,-0.0012353459146572277
1782952700598491600,3.03449169921875,0.02779401585459709,-0.005132284854538738,-0.002054763405607082
1782952700608418800,3.044418701171875,0.022556699723005294,-0.0012216872820630669,0.0034620363876456395
1782952700618346800,3.0543466796875,0.012086159113049506,-0.0007429090554825961,0.013107574582658708
1782952700628273700,3.064273681640625,0.010893149936199187,0.0004671243214048445,0.015933651154325344
1782952700638200800,3.074200927734375,0.029898294657468794,-0.0009304492505267262,-0.0005790465635480359
1782952700648128800,3.084128662109375,0.0198725752055645,0.007139368626940995,0.004335334923723713
1782952700658055700,3.0940556640625,0.02406125906705856,0.011518917151726782,-0.00003424932947382331
1782952700667984000,3.10398388671875,0.02211538569629192,-0.0028274785108864304,-0.010450507035502233
1782952700677910800,3.113910888671875,0.021520926934480666,-0.012527253944054245,0.0031526736109517514
1782952700687838700,3.123838623046875,0.021074352210760115,0.009530994737520813,0.020175814202148465
1782952700697766000,3.133765869140625,0.027362054178118704,-0.00600532309571281,0.007367017070087604
1782952700707693800,3.14369384765625,0.035441315737366676,0.002368172169756144,0.004499873269093222
1782952700717620700,3.153620849609375,0.025116905599832533,0.004597867450583726,0.0029906057838816192
1782952700727549000,3.163548828125,0.024822306567430494,-0.0033657318397425115,0.006914697592169977
1782952700737475800,3.173475830078125,0.03350713280439377,0.0009129501264542341,0.007763395976531319
1782952700747402800,3.18340283203125,0.02483165891766548,-0.0014623641701415181,0.010687864021910354
1782952700757331000,3.1933310546875,0.02542904028892517,0.012189455090742558,0.0035915627851383757
1782952700767257600,3.203257568359375,0.01375730719566345,-0.020730671605933455,0.005701211882871576
1782952700777185800,3.213185791015625,0.017649638459086417,0.007788352321274578,0.00208052346794866
1782952700787112700,3.22311279296875,0.025578677892684934,0.0012355696769431232,0.008125502720614896
1782952700797040600,3.23304052734375,0.02542553315758705,0.0036130028653889893,0.0042716951029840855
1782952700806967800,3.2429677734375,0.022724457505345342,0.012971289650816469,-0.003726048485538922
1782952700816895700,3.252895751953125,0.020027473506331443,0.00382370474031195,0.014081529614771715
1782952700826822700,3.26282275390625,0.03304419146776199,0.0014802834193222223,-0.0037224180566146968
1782952700836749800,3.272749755859375,0.02331540913581848,-0.0035398097650147973,-0.006483580732485279
1782952700846677800,3.282677734375,0.011193009665608405,0.015511439120303838,-0.003066812825249508
1782952700856605000,3.29260498046875,0.018825111979246138,0.009506316953990608,0.021108062684116885
1782952700866532900,3.302532958984375,0.03139116356372833,-0.001489489639084786,0.011672230850183405
1782952700876459800,3.312459716796875,0.03198912945687771,0.0038837278318591415,-0.006704045949596911
1782952700886387700,3.3223876953125,0.011190087056159972,-0.00927557693803683,-0.002438986083376221
1782952700896315000,3.33231494140625,0.01657470270395279,-0.01247848289888352,0.002532121426658705
1782952700906242800,3.342242919921875,0.023456863433122633,0.009101535545382648,0.001475588977895677
1782952700916170000,3.352169921875,0.028247020319104192,-0.0016071064030751586,0.011833645656704903
1782952700926098000,3.362097900390625,0.015529577565193175,0.011499098206404596,0.009737317264848389
1782952700936024800,3.37202490234375,0.023013211318850518,0.010560319518949837,0.01143278693796601
1782952700945951700,3.38195166015625,0.02211421665251255,0.006838595582079142,0.007217205936391837
1782952700955879700,3.391879638671875,0.0028127193331718443,0.00008722162572667002,-0.005212012726976536
1782952700965806800,3.401806884765625,0.0016103578060865402,0.0004109919536858797,0.007785173983499407
1782952700975734800,3.41173486328125,0.02465162617564201,-0.00862317744391039,-0.006597384404460899
1782952700985661700,3.42166162109375,0.011486439654231071,-0.0006501527381129563,0.0017391900838352738
1782952700995589600,3.431589599609375,0.017622750452160833,-0.0002690627323463559,-0.0016799387438455595
1782952701005516800,3.441516845703125,0.016575287225842474,0.006916574455425143,0.01574305591909215
1782952701015444700,3.45144482421875,0.00341243879199028,-0.005522142688650637,0.002733589682355523
1782952701025372000,3.461371826171875,0.010897826111316681,0.002748239262215793,0.003687228012224659
1782952701035298800,3.471298828125,0.02436637949347496,0.0013636895686388016,-0.0021887741819722577
1782952701045226800,3.481226806640625,0.011796820777654647,0.0044615642524324355,-0.014511153203691354
1782952701055154000,3.49115380859375,0.024221418064832686,-0.000027618659287691113,-0.006993352318950929
1782952701065081900,3.501081787109375,0.011952888122200965,0.014253000024426728,0.0034170053692534562
1782952701075008800,3.5110087890625,0.012702245184779167,0.003314019918814301,-0.001030681054876186
1782952701084937000,3.52093701171875,0.025422610548138616,-0.01844632352842018,-0.009512395068327895
1782952701094864000,3.53086376953125,0.02841711618900299,0.004835822658613324,0.007295006713224575
1782952701104791800,3.540791748046875,0.007760112607479095,-0.003600052052270621,0.0036860498352907596
1782952701114719000,3.550718994140625,0.007158055061101913,0.0004226823914796114,0.0011936667639762162
1782952701124647000,3.56064697265625,0.015535422784090041,0.0006459880196489394,0.001508020809618756
1782952701134573800,3.57057373046875,0.025264789637923238,0.0098336857448332,0.004806852292455733
1782952701144500700,3.580500732421875,0.012396540236473083,-0.005030249252170324,-0.003109181529097259
1782952701154428700,3.5904287109375,0.0204781398832798,0.010175576251372694,0.003869850003556348
1782952701164355800,3.60035595703125,0.03304769859910011,-0.002094634191691875,-0.01362556144162081
1782952701174283800,3.61028369140625,0.029759178447723387,-0.0023327903291210533,-0.005906853990186937
1782952701184210700,3.620210693359375,0.023770167165994643,-0.000109013332426548,-0.01124586323085241
1782952701194139000,3.630138916015625,0.019427754047513006,0.004466459623258561,-0.00901204433075618
1782952701204065800,3.640065673828125,0.014333645778894424,0.0016993877964094281,0.008230191504373215
1782952701213993700,3.64999365234375,0.01911737292408943,0.004708177690953016,0.023526978660421444
1782952701223921000,3.6599208984375,0.018068740653991697,-0.014887443736754357,-0.0012833360751159488
1782952701233847800,3.669847900390625,0.019860884767770766,-0.002796297921333462,-0.005768381667835638
1782952701243775700,3.679775634765625,0.008790624698996543,0.006384221144393086,0.021625857746833933
1782952701253703000,3.689702880859375,0.027796938464045524,0.015139171741809695,0.01190490709489677
1782952701263630800,3.699630859375,0.027948329633474347,0.013322094116173683,-0.005135075033246539
1782952701273558000,3.70955810546875,0.01223638123869896,0.004975614721793681,-0.005317048570606857
1782952701283486000,3.71948583984375,0.015080080232024192,0.005967201308719814,-0.006092348358617164
1782952701293412900,3.729412841796875,0.019269348615407942,0.0016042385925538838,0.0051076162041630594
1782952701303340800,3.7393408203125,0.017023615515232085,0.003852108850888908,0.0061463572679087515
1782952701313268000,3.74926806640625,0.033330607193708416,-0.0068089310961775475,0.011388418073276988
1782952701323196000,3.75919580078125,0.037219431325793265,0.0026495646607130764,-0.004754866376891732
1782952701333122800,3.769122802734375,0.023603578427433967,0.0127598571235314,0.01529793793351855
1782952701343049700,3.7790498046875,0.025994857478141783,0.0072953446399420495,-0.01905071002920158
1782952701352977700,3.788977783203125,0.021806758138537406,0.0034877142515964805,-0.0036723775029648092
1782952701362904800,3.79890478515625,0.04814472996592521,0.0052516186515800655,-0.000026467881817370652
1782952701372832800,3.808832763671875,0.009092822515964508,-0.0016227971625514329,0.0027434717555530367
1782952701382760000,3.818760009765625,0.012084405547380446,0.00017977701369673013,-0.005789159594383091
1782952701392687900,3.82868798828125,0.012084990069270133,0.0010398096428252757,-0.001982743915589526
1782952701402614800,3.83861474609375,0.017474866414070128,-0.010113598664756864,0.005576882250304334
1782952701412542700,3.848542724609375,0.006551321339607239,0.009647826050221919,-0.0087747193103889
1782952701422470000,3.858469970703125,0.01567570803761482,0.005866535679530352,-0.01434687971980311
1782952701432396800,3.868396728515625,0.014179332000017164,0.003925849940534681,-0.0020195048625580967
1782952701442325000,3.878324951171875,0.014328385081887244,-0.004587528719659895,-0.0069489788876846426
1782952701452252000,3.888251953125,0.028992285728454588,-0.0041194910828024145,0.007836607343214563
1782952701462179800,3.898179931640625,0.02584989604949951,-0.007557995897810906,0.0012732804719824344
1782952701472107000,3.90810693359375,0.025250176590681076,0.00010683964164927601,-0.009379640100710093
1782952701482035000,3.918034912109375,0.02614917125701904,0.007089136277046054,0.006540329588134773
1782952701491961600,3.927961669921875,0.02659925311207771,0.011834485906921327,-0.008750374886998907
1782952701501890000,3.93789013671875,0.046349078720808026,-0.009467026123218238,0.005019627393456175
1782952701511816700,3.947816650390625,0.03273030321300029,-0.008794241428188979,-0.006167911512590944
1782952701521744000,3.957743896484375,0.018363339686393736,0.015507548396475612,-0.010167470576730557
1782952701531671800,3.967671875,0.023300796088576315,0.019874675831105557,0.0012338069781195372
1782952701541598700,3.9775986328125,0.030779753667116164,0.010679306256119162,-0.005706577611155807
1782952701551527000,3.98752685546875,0.00788403124809265,0.011916355504095553,0.009413286641985177
1782952701561453800,3.997453857421875,0.015367080479860304,0.015454009844642132,0.010237179378652945
1782952701571381800,4.0073818359375,0.021806758138537406,-0.009250314632616937,-0.014716356919589451
1782952701581309000,4.017308837890625,0.013871873486042022,-0.011957436433155088,-0.005729447030089796
1782952701591236900,4.02723681640625,0.014321955341100692,0.008958674742281436,0.0027842649902449917
1782952701601163800,4.037163818359375,0.026592238849401473,-0.0012497078001499175,0.00431764856998343
1782952701611092000,4.047092041015625,0.03272738060355186,0.0005431669659912585,-0.0038270246419822795
1782952701621019000,4.057018798828125,0.02539455349743366,0.002462736851722002,-0.008488659777469001
1782952701630946000,4.066946044921875,0.015818915900588034,-0.0019298538177274166,-0.0009183204213157295
1782952701640874000,4.0768740234375,0.02644552385509014,0.0015804193255491553,0.015670739601552484
1782952701650801000,4.08680078125,0.01926291887462139,0.006959372417535632,-0.006826375421322882
1782952701660728800,4.096728759765625,0.01581950042247772,-0.0072129635861143465,-0.009459792664833367
1782952701670655700,4.10665576171875,0.011781038686633109,-0.001445723562594503,0.0074349951392272485
1782952701680583700,4.116583740234375,0.01103811136484146,-0.005083459010440856,0.013147002410748973
1782952701690510800,4.1265107421875,0.026901450929045674,-0.0008125036929734051,-0.005893314088601618
1782952701700438800,4.136438720703125,0.011786883905529975,-0.0004638363857753575,0.0026841930160997436
1782952701710365700,4.14636572265625,0.014480945295095443,-0.0036080161630176006,0.0026268139727879313
1782952701720292900,4.15629296875,0.017477204501628874,-0.003591284223925322,0.007318684416334144
1782952701730220800,4.166220703125,0.0055061962008476255,-0.0035890009352937337,0.018252394691784864
1782952701740147700,4.176147705078125,0.023011457753181457,-0.0020534436647780237,-0.014921948794554918
1782952701750076000,4.186075927734375,0.024808862563967703,-0.009604370500985532,-0.007981313043530098
1782952701760002800,4.1960029296875,0.02181435692310333,0.01630353934606537,0.010586056748405098
1782952701769930800,4.2059306640625,0.011643091520667075,-0.009573884031176566,0.006701954457210377
1782952701779858000,4.21585791015625,0.016578794357180595,-0.0015731676008552311,-0.0010062042007455603
1782952701789785900,4.225785888671875,0.02421381928026676,0.010568904684204608,0.003280186147871427
1782952701799713000,4.235713134765625,0.031246786656975743,0.004560110989771783,0.00557824309032876
1782952701809640000,4.245639892578125,0.02107318316698074,-0.000742671593464911,-0.0013215446270769462
1782952701819567900,4.25556787109375,0.02062660844326019,-0.007994487618934362,-0.015661592747294343
1782952701829494800,4.265494873046875,0.021226327902078627,-0.00011946166120469569,-0.00948858036790043
1782952701839423000,4.275423095703125,0.023771920731663704,-0.004068783808872103,-0.009902860257215797
1782952701849349600,4.285349609375,0.01853226651251316,0.014419095572642981,-0.01017577261419501
1782952701859277800,4.29527783203125,0.027213585618138313,0.005366294539812952,-0.017597127387137153
1782952701869204700,4.305204833984375,0.01733750376999378,0.002793941567465663,0.0045160937515320255
1782952701879132700,4.315132568359375,0.029008652341365813,-0.009473583728168158,0.0011353561389027163
1782952701889059800,4.325059814453125,0.01269815353155136,-0.00022140593202784657,-0.0041516626196214925
1782952701898987800,4.33498779296875,0.01239887832403183,-0.006216664291452616,-0.003633858423749916
1782952701908914700,4.344914794921875,0.02511924368739128,-0.015370331882871686,0.0053963152187410735
1782952701918841900,4.354841796875,0.020633038184046743,-0.001573733856435865,0.00783213209749665
1782952701928769800,4.364769775390625,0.023777765950560567,-0.005863594803772867,-0.005905296787340194
1782952701938697000,4.374697021484375,0.014504326170682907,0.0048844293070025736,-0.012282868995238096
1782952701948625000,4.384625,0.025872692403197287,-0.0008373276069760322,0.020030236285575664
1782952701958551800,4.3945517578125,0.02931377276778221,0.0027563860360532997,0.0009618855684064328
1782952701968479700,4.404479736328125,0.015246668970584869,-0.004402381411101669,-0.000273569944105111
1782952701978407000,4.414406982421875,0.02287935580611229,-0.008010598503518849,-0.004397508873161859
1782952701988334800,4.4243349609375,0.015844634863734244,0.007596282081585377,-0.007711999149434268
1782952701998262000,4.434261962890625,0.020632453662157057,-0.007331493665557355,-0.006336409080447629
1782952702008188700,4.444188720703125,0.02512625795006752,0.003328267639875412,0.0062542380891740315
1782952702018116600,4.45411669921875,0.02303483862876892,0.006059738430380821,-0.0012745225809980183
1782952702028043800,4.464043701171875,0.01136836623251438,0.0006725472330115735,0.0022528021617792544
1782952702037971700,4.4739716796875,0.026183073526620863,0.006506678480282426,0.011577871664194389
1782952702047899000,4.48389892578125,0.022144027268886566,0.0015232823108322917,0.008332592432922684
1782952702057826800,4.493826904296875,0.0350175373673439,-0.0021940942444838582,-0.0011424799994332714
1782952702067753700,4.503753662109375,0.007786416092514991,0.0002466134385205805,-0.01579836630290374
1782952702077681700,4.513681640625,0.0293359845995903,-0.0008164674820378422,-0.0006463396460982039
1782952702087608800,4.52360888671875,0.026343817046284673,-0.0038112471175380047,-0.008612190259015187
1782952702097536800,4.533536865234375,0.02020633720457554,0.0003384929730556905,0.0012077272553695365
1782952702107464400,4.54346435546875,0.006290624576807022,0.009615987873543053,-0.00783898652996868
1782952702117391400,4.553391357421875,0.013772504764795303,0.0011006729845888911,0.005525512822670862
1782952702127319300,4.5633193359375,0.016164952859282492,-0.006178213710896671,0.012129354367381892
1782952702137246500,4.57324658203125,0.03037994069457054,0.006877119227871298,0.005487532599573023
1782952702147174400,4.58317431640625,0.01885784520506859,-0.0015013627399690448,-0.01372940084200818
1782952702157101300,4.593101318359375,0.031128713235259054,0.008784414153918623,0.0023868723036488517
1782952702167029500,4.603029541015625,0.0383113182157278,-0.001864149904064834,0.004502649748069234
1782952702176956400,4.612956298828125,0.016912556356191634,0.0014398418110795317,0.008691224011708982
1782952702186884400,4.62288427734375,0.013471475991606712,0.006074771602731198,0.00577928208776284
1782952702196811500,4.6328115234375,0.01691197183430195,-0.0005915178860537708,-0.006106280985847115
1782952702206738400,4.642738525390625,0.014516601130366324,0.010364961343631149,-0.009245528859645127
1782952702216666400,4.652666259765625,0.032924949002265926,0.00008961451221257448,0.007482377944909967
1782952702226593500,4.662593505859375,0.02783551690876484,0.0042065848443657156,0.010278780897520483
1782952702236521500,4.672521484375,0.014519523739814758,0.003079608374740928,0.0037383051789132878
1782952702246448600,4.68244873046875,0.01945464205443859,-0.0036861229005269703,-0.0018694380005355924
1782952702256376600,4.69237646484375,0.02259527816772461,-0.001807670476473868,-0.0074200989641947665
1782952702266303500,4.702303466796875,0.013015548917651176,0.010565890743210911,0.005911763060744851
1782952702276231400,4.7122314453125,0.0077770637422800055,0.007434661779087037,0.0020328392681665717
1782952702286158600,4.72215869140625,0.018404256218671797,0.003145202690549195,-0.000937974969856441
1782952702296085200,4.732085205078125,0.027830256211757658,-0.018046126963384448,0.004921747376397252
1782952702306013400,4.742013427734375,0.03455985672771931,0.007050046375673264,-0.006985625670221634
1782952702315940400,4.7519404296875,0.02467909870445728,-0.0020867796787992117,0.0005423952144337818
1782952702325868300,4.761868408203125,0.022727964636683463,-0.010713135460484772,-0.0006127250708639621
1782952702335795500,4.77179541015625,0.030811902371048926,-0.015417532025463879,-0.0029378481167601418
1782952702345723400,4.781723388671875,0.02497369773685932,0.0047369653940200806,-0.005385533529822714
1782952702355650300,4.791650390625,0.022878771284222603,-0.0006544453207403421,0.0013254673169460147
1782952702365578500,4.80157861328125,0.018091537007689475,0.010829930240567774,0.000008160473569296299
1782952702375505400,4.81150537109375,0.01374912388920784,0.015413842231035231,0.0100240572177805
1782952702385433300,4.821433349609375,0.006117021575570106,0.001219257862959057,0.006598407317767851
1782952702395360500,4.831360595703125,0.014945640197396278,0.000031545915734022855,-0.009895978425280191
1782952702405287400,4.841287353515625,0.020776246047019956,0.006492649954929947,0.00030138496621511874
1782952702415215600,4.851215576171875,0.027806875336170194,0.003754256233293563,-0.012896050723828375
1782952702425142500,4.861142578125,0.012993337085843085,0.0016636771622113883,-0.003518383384495973
1782952702435070500,4.871070556640625,0.026006547915935516,-0.002335530275478959,0.008070265402039513
1782952702444997600,4.88099755859375,0.0233101484388113,-0.012862550313025712,-0.0069239083785098045
1782952702454925600,4.890925537109375,0.02031914992928505,-0.004086301199253648,-0.01253140039620921
1782952702464852200,4.900852294921875,0.023764321947097777,0.0008851670703850686,-0.0046294407657813275
1782952702474780700,4.91078076171875,0.02660977450609207,0.0015388634724542497,-0.005387373860459775
1782952702484707300,4.920707275390625,0.01942892309129238,-0.0031546098397113383,0.011168583043827675
1782952702494634500,4.930634521484375,0.005959785187244415,-0.007896269675157963,-0.006236770931142382
1782952702504562400,4.9405625,0.020624270355701444,0.0010802877836860716,-0.0006541895924136042
1782952702514489300,4.9504892578125,0.02825754171311855,-0.0021116949243471027,0.008687803645338863
1782952702524417300,4.960417236328125,0.0194324302226305,-0.013448551773745565,0.003724390817992389
1782952702534344400,4.970344482421875,0.01179974338710308,-0.001402213214430958,-0.011854227220430039
1782952702544272400,4.9802724609375,0.002670680513978004,0.007926098557841032,-0.0063589816718595095
1782952702554199600,4.990199462890625,0.021972762355208397,0.01919885892877355,-0.0030540401086444034
1782952702564127500,5.00012744140625,0.03110182522833347,0.012412285794876516,0.013992686854116618
1782952702574054400,5.010054443359375,0.023325346007943153,-0.004789024374820291,0.01745615258044563
1782952702583981600,5.019981689453125,0.02407353402674198,0.021557039427477866,0.014340349514316767
1782952702593909500,5.029909423828125,0.013898176971077918,0.008060063668433577,-0.0036779167611850423
1782952702603836400,5.03983642578125,0.026769933503866195,-0.005758618325646966,0.0011296022515511139
1782952702613764600,5.0497646484375,0.023631050956249237,0.004767634526919573,0.014980222887010312
1782952702623691500,5.05969140625,0.0164478614538908,0.008082330299168824,0.0027811688508605583
1782952702633619500,5.069619384765625,0.019442951616644857,-0.005454502546228468,0.0031963392227422442
1782952702643546400,5.07954638671875,0.02287935580611229,0.003997618268802762,0.006493060946883633
1782952702653474600,5.089474609375,0.02317863101363182,-0.001663074374012649,0.013922530527622438
1782952702663401500,5.0994013671875,0.01644260075688362,0.014128478595614433,0.002728292452730238
1782952702673328400,5.109328369140625,0.023326515051722525,0.0028617643729783593,-0.011709051162656395
1782952702683256300,5.11925634765625,0.017639117065072058,0.005002320065628737,0.0032327531098388135
1782952702693183500,5.12918359375,0.02587386144697666,0.00407733244150877,0.010507484220014884
1782952702703111400,5.139111328125,0.010014029014110564,-0.006434563092142343,0.017911860458692534
1782952702713038300,5.149038330078125,0.02782148838341236,-0.0019712635403499007,-0.0050982044884236525
1782952702722966500,5.158966552734375,0.029016835647821426,0.001699077269155532,0.0040477364542661235
1782952702732893400,5.1688935546875,0.032010172244906425,0.003630702918861061,0.008132069458719342
1782952702742821400,5.1788212890625,0.03246259218752384,-0.008473211046587676,0.004362757220189087
1782952702752748500,5.18874853515625,0.025133856734633444,-0.004237436640355736,0.0032450691687176004
1782952702762675500,5.198675537109375,0.029625322934985158,0.003798077108711004,0.006920656975498422
1782952702772603400,5.208603271484375,0.008230652728676796,0.002478044018708169,0.0030273621642729264
1782952702782530600,5.218530517578125,0.008829787665605545,0.0004945785839110613,-0.011388221710454671
1782952702792458500,5.22845849609375,0.01780804389119148,0.00452701243776828,-0.0026176305859116835
1782952702802385700,5.2383857421875,0.00658873074054718,-0.0051774939694441855,-0.005960684802965261
1782952702812313600,5.248313720703125,0.024695465317368506,-0.0028310221748426554,-0.014454673776100388
1782952702822240300,5.258240234375,0.015419687449932098,-0.006627802375610918,0.0006549065450439229
1782952702832168400,5.26816845703125,0.03367605963051319,-0.007992551390174777,0.0015927856167778371
1782952702842095400,5.278095458984375,0.024845687443017957,0.008982822802849113,0.005640289175603538
1782952702852023300,5.288023193359375,0.019007482808828354,0.00008966931113973259,0.0012193446279270574
1782952702861950500,5.297950439453125,0.030678046858310697,-0.0007435666426084935,0.0006939279477577656
1782952702871877400,5.30787744140625,0.027687048348784445,-0.00035157165033742786,0.0010503812691895291
1782952702881802500,5.317802490234375,0.027685879305005073,-0.00031840003309771417,0.0009691555594094097
1782952702891730400,5.32773046875,0.023045944544672965,0.004214841216057539,0.0010218218949856236
1782952702901657300,5.3376572265625,0.024838088658452034,-0.00654741234946996,0.0005889514696318656
1782952702911584300,5.347584228515625,0.021091303345561026,-0.011283080835547297,-0.010847100571077316
1782952702921512400,5.357512451171875,0.02946750202476978,-0.008914908665791154,-0.0035607794878073033
1782952702931439400,5.367439453125,0.01645136858522892,-0.00390113562438637,-0.0039814160526730116
1782952702941367300,5.3773671875,0.026625556597113607,0.00706520741218701,0.010129303123964928
1782952702951294500,5.38729443359375,0.0278197348177433,0.005678940685559064,0.004638560220575891
1782952702961222400,5.397222412109375,0.025427871245145797,-0.0006599069471471011,-0.00889542308060918
1782952702971149600,5.407149658203125,0.01614975529015064,-0.007094835365470498,0.0030569901175564154
1782952702981077500,5.417077392578125,0.013607085070014,0.009452540940139443,0.008789199926890432
1782952702991004400,5.42700439453125,0.016299392893910407,-0.006704155547451227,-0.004575002598227002
1782952703000931600,5.436931640625,0.022884616503119466,-0.0005789871980436146,0.01799230071718339
1782952703010859500,5.446859619140625,0.010762217032909393,-0.005013298117369413,0.005849657609965652
1782952703020786400,5.456786376953125,0.01973871969282627,-0.0005836999057792127,0.008077553659351542
1782952703030714600,5.466714599609375,0.0183867205619812,-0.003058949179202318,0.008708243645168841
1782952703040641500,5.4766416015625,0.01254910044968128,-0.0016411913357675075,-0.0018614921560976654
1782952703050569500,5.486569580078125,0.022426351341605186,0.001465597306843847,0.0011807342171669005
1782952703060496600,5.49649658203125,0.019434768310189247,-0.0009433452647179364,-0.004701871247752569
1782952703070424600,5.506424560546875,0.026169045001268387,-0.011909925763309001,0.001533899602969177
1782952703080351200,5.516351318359375,0.02332593052983284,0.0035048297831788656,0.003103642270877026
1782952703090278400,5.5262783203125,0.02077741509079933,-0.001594100791029632,0.014127825575065799
1782952703100206300,5.536206298828125,0.017627426627278328,0.0031698804740794002,0.004062436266476288
1782952703110133500,5.546133544921875,0.02840133409798145,0.010980097567290067,-0.0034428110973676665
1782952703120061200,5.556061279296875,0.0014659808993339539,0.004269841072615236,-0.006995297680865042
1782952703129988000,5.565988037109375,0.026603929287195204,0.015381182070448994,-0.009831164994183928
1782952703139916300,5.575916259765625,0.031390579041838645,0.012321356108412146,0.003709293713560328
1782952703149843200,5.58584326171875,0.013734510841965674,-0.0025075258415192363,-0.009832630865485407
1782952703159771100,5.595771240234375,0.02465337974131107,0.004513458836451173,-0.001250420186202973
1782952703169698300,5.6056982421875,0.02480418638885021,0.005198043567128479,-0.0035713191481307146
1782952703179625200,5.615625244140625,0.0301899710804224,-0.004334266344644129,0.001045202770573087
1782952703189553200,5.62555322265625,0.029889526829123495,-0.003287150178197771,-0.0030942944872193036
1782952703199480000,5.63547998046875,0.027194296395778656,-0.006644844841957092,-0.006036645249160938
1782952703209408000,5.645407958984375,0.024203297886252403,-0.00699378614379093,0.014243423911905846
1782952703219335200,5.655335205078125,0.00789104551076889,0.004888794954866171,0.014992895138915628
1782952703229263000,5.66526318359375,0.023752631509304047,0.0013253485859371721,0.014993155433819629
1782952703239190000,5.67518994140625,0.016419219881296156,0.003326039150170982,0.0025045073339482766
1782952703249118200,5.6851181640625,0.01253039574921131,-0.00899029372325167,-0.00010837857818696647
1782952703259045000,5.695045166015625,0.03737082249522209,-0.0032055363093502817,-0.00268322490171995
1782952703268972000,5.704971923828125,0.03228957370817661,-0.0004215133477002382,-0.0013238050828222184
1782952703278900200,5.714900146484375,0.017624504017829893,0.001721307367272675,-0.01896534243384376
1782952703288827100,5.7248271484375,0.026454876205325124,0.01003910865643993,-0.005412599633261561
1782952703298755000,5.734755126953125,0.022417583513259887,0.011275408985745161,-0.00036072307117283344
1782952703308682200,5.74468212890625,0.010596212816238402,0.013371723677869886,0.006820174009399488
1782952703318610200,5.754610107421875,0.0176285956710577,0.007562032752111553,0.0035690221597673368
1782952703328537300,5.764537353515625,0.01777940231859684,0.014998137569613754,-0.0006589799319626763
1782952703338465300,5.77446533203125,0.024358196187019347,0.002289097317866981,-0.011025923170126043
1782952703348392200,5.78439208984375,0.023303718698024747,-0.003593640577793121,0.0032287025558063757
1782952703358320000,5.794320068359375,0.023454525345563887,0.010746836800687014,0.008554838615166954
1782952703368247300,5.804247314453125,0.028096213671565055,0.0024247794615104793,-0.0013007301679113879
1782952703378174000,5.814174072265625,0.024503742137551306,-0.0008241575981490313,0.013522407027822918
1782952703388102100,5.82410205078125,0.0340805487781763,-0.00739904247643426,0.016279446084424852
1782952703398029000,5.834029052734375,0.03542787173390388,0.011156093455012887,-0.007289503987622447
1782952703407957000,5.84395703125,0.01567570803761482,-0.004988200208730995,-0.0038676626130472866
1782952703417884200,5.85388427734375,0.019418986219167707,-0.0018985636303201316,0.010422678313660436
1782952703427812000,5.86381201171875,0.029295652589201925,-0.010754892242979259,0.002333900007396005
1782952703437739000,5.873739013671875,0.02496025373339653,-0.00042624432174488897,-0.0021904820818686855
1782952703447667200,5.883667236328125,0.039328970825672147,0.006980762265436351,0.002351106870523654
1782952703457594000,5.893593994140625,0.0316974530339241,0.006409885308612137,0.0029081288319313895
1782952703467521300,5.903521240234375,0.027954174852371214,0.003956701736524701,-0.00014098393984604627
1782952703477449200,5.91344921875,0.012996844217181206,-0.005818568351957947,0.013642220315476879
1782952703487376100,5.923376220703125,0.028563246661424634,-0.007906261346209793,0.003175648061162792
1782952703497304300,5.93330419921875,0.02796703433394432,-0.006500376603659242,-0.0013180055296979844
1782952703507231200,5.943231201171875,0.02841360905766487,-0.005925572390388697,-0.006093439770583063
1782952703517159200,5.9531591796875,0.028115502893924713,-0.0055415049762465056,-0.010937025610543787
1782952703527086300,5.96308642578125,0.018837971460819242,-0.0028447401729412374,0.010399886526539922
1782952703537014300,5.97301416015625,0.019587328523397445,-0.005439359776023775,-0.0026698859295342116
1782952703546941000,5.98294091796875,0.018542203384637832,-0.003393003439158201,0.01019227622442413
1782952703556868000,5.9928681640625,0.024375731843709943,-0.0030383265162818134,0.0013196677638217806
1782952703566796000,6.002796142578125,0.030960370931029317,-0.01637247639643028,-0.003745429039443843
1782952703576723200,6.01272314453125,0.0162953012406826,-0.004514189488813281,0.0060671728181652725
1782952703586651100,6.022651123046875,0.012106032857298851,-0.0028630612809211016,0.0004165312119061127
1782952703596578000,6.032578125,0.02811959454715252,-0.0006850779210217297,0.007379410760779865
1782952703606506000,6.042506103515625,0.018691840988397598,-0.004392590669449419,0.0013693018920952454
1782952703616433200,6.05243310546875,0.008065233033895492,0.0004865962068550288,0.006173615167592652
1782952703626361000,6.062361083984375,0.01464578046798706,-0.005390954057034105,0.004062312968890183
1782952703636288300,6.072288330078125,0.02751344534754753,-0.003440623706858605,0.011371603935793973
1782952703646215200,6.082215087890625,0.015688567519187926,-0.004061568616796285,-0.008551532413228414
1782952703656143000,6.09214306640625,0.021973346877098083,-0.005839958199858665,-0.004386722617666237
1782952703666070300,6.1020703125,0.019126725274324415,0.010894976567104458,0.012065709980065002
1782952703675998200,6.111998291015625,0.0183779527336359,0.00221267108079046,-0.006218851681961677
1782952703685925000,6.121925048828125,0.018529928424954413,0.008566314423829317,-0.006520177282672375
1782952703695853300,6.131853271484375,0.030500936725735662,-0.006263590439409017,-0.01276100790100172
1782952703705780200,6.1417802734375,0.026160861694812774,0.009350121745280921,-0.0017268055262975393
1782952703715708200,6.151708251953125,0.029001053556799886,0.015108721804618835,0.0019427954976912586
1782952703725635000,6.161635009765625,0.02989946370124817,-0.00839283928675577,0.004472432706318795
1782952703735563300,6.171563232421875,0.016281272715330124,0.00882962326882407,0.006378266327641904
1782952703745490200,6.181490234375,0.013740940582752227,0.00914387684976682,0.008087600129330531
1782952703755417000,6.1914169921875,0.03364098831713199,-0.007246153469663113,0.0011911551464814693
1782952703765345000,6.201344970703125,0.004609539622068405,-0.0007596409945748746,0.0015973704603500663
1782952703775272200,6.211272216796875,0.012241057413816451,-0.009865761383529752,-0.011453911924385465
1782952703785200000,6.2212001953125,0.01777940231859684,0.0060636291542090475,0.004665831819991581
1782952703795127000,6.231126953125,0.0194236623942852,-0.015554438011813908,0.012909421662054955
1782952703805055200,6.24105517578125,0.028099720802903173,-0.00173086064690724,0.0036070982809877023
1782952703814982100,6.250982177734375,0.026903204494714734,0.0006379143110476434,0.009098325241566636
1782952703824910000,6.26091015625,0.02495674660205841,0.007847863956168294,0.009788398998114279
1782952703834837200,6.270837158203125,0.029745149922370907,0.008583777015283704,-0.000577676590369083
1782952703844764200,6.28076416015625,0.030045009651780127,-0.0013061506951227784,0.004533186450228095
1782952703854692000,6.290692138671875,0.01837152299284935,-0.004123564469721168,-0.00006029251960571855
1782952703864619300,6.300619384765625,0.018068740653991697,0.007048676402494311,0.005072083666478284
1782952703874547200,6.310547119140625,0.015077157622575759,0.00026296178512275216,-0.003713823758205399
1782952703884474400,6.320474365234375,0.018963059145212173,-0.0066551653065718705,0.002369537576357834
1782952703894402300,6.33040234375,0.019259411743283272,-0.0023962292204611,0.011094956118613481
1782952703904329000,6.340328857421875,0.03976327058970928,0.006455514548625797,0.0005589764564763755
1782952703914257200,6.350257080078125,0.031984453281760215,-0.009065331720840186,0.0107980555312708
1782952703924184000,6.36018408203125,0.03273147225677967,-0.007388466283492744,-0.005306824004114605
1782952703934111200,6.370111328125,0.012379004579782485,-0.0018098806998692453,0.001461948611610569
1782952703944039200,6.3800390625,0.025244915893673895,-0.001420954447519034,0.0036817252866225315
1782952703953966000,6.389966064453125,0.010130348870158195,-0.004393248256575316,-0.011814972922275773
1782952703963894000,6.39989404296875,0.024342998617887496,-0.008332944059371948,0.01666552279256284
1782952703973821200,6.4098212890625,0.02134732393324375,0.0019439006093889474,0.016175807613437062
1782952703983749000,6.4197490234375,0.01760170766413212,-0.0016792765901423989,0.0031999102861620483
1782952703993676300,6.42967626953125,0.010864508363604544,0.008748995780665427,0.005672853438067249
1782952704003604200,6.439604248046875,0.026875731965899465,0.0015741174489259718,-0.0015080482090823351
1782952704013531100,6.44953125,0.016548399218916893,0.0040641624326817685,-0.02105961129935458
1782952704023458300,6.459458251953125,0.01655073730647564,0.00577228152481839,-0.0027848677784437312
1782952704033386200,6.46938623046875,0.021190672066807744,-0.0053355158090591425,0.009047631667368114
1782952704043313200,6.479313232421875,0.022688801670074463,-0.007166969019919633,0.016288885199627838
1782952704053241300,6.489241455078125,0.03166822693943977,0.007463412949535995,-0.006567738184868358
1782952704063168000,6.49916796875,0.02328676756322384,0.021596385057177394,-0.006812483893288299
1782952704073096200,6.50909619140625,0.022537995022535322,-0.008011639683134853,-0.012613895614468492
1782952704083023000,6.519023193359375,0.039893034449219704,-0.0026652006212621927,-0.000790036132838577
1782952704092951000,6.528950927734375,0.022833763098716736,-0.00039407735150307415,0.0022720046191709114
1782952704102878200,6.538878173828125,0.014752747973799704,-0.001998608205001801,0.002316145154996775
1782952704112805400,6.548805419921875,0.026125790381431577,0.006331833370029926,-0.0038983043464832006
1782952704122733300,6.5587333984375,0.025225626671314238,0.006263499107863754,-0.00018217446675989775
1782952704132660500,6.568660400390625,0.00980944635272026,0.011316836974676697,-0.0020030697509879243
1782952704142588400,6.57858837890625,0.007265607088804245,0.0065425717775709925,0.007485063092340715
1782952704152515300,6.588515380859375,0.011007131704688072,0.011158961265534163,-0.012399092953163198
1782952704162443500,6.598443603515625,0.022082652470469474,-0.00510515938559547,0.0014493265920551494
1782952704172370400,6.608370361328125,0.0184913499802351,-0.005564027335308492,0.0010820778819732367
1782952704182298400,6.61829833984375,0.009359949019551277,-0.00859988789986819,0.008171209592442028
1782952704192225500,6.6282255859375,0.023877719193696974,0.005831025974731892,-0.00428117531738244
1782952704202152400,6.63815234375,0.0276192438095808,0.00134180653039366,0.007041246581287123
1782952704212080400,6.648080322265625,0.017594693401455877,0.005516717594861984,0.006561139480723068
1782952704222007600,6.658007568359375,0.025825346130132674,0.009276490253489464,0.0012971271384507417
1782952704231935500,6.667935546875,0.0059200376987457275,0.0032412652098573742,-0.00428903896342963
1782952704241862400,6.6778623046875,0.0324076471298933,0.004795837708096951,-0.006387915505398996
1782952704251790600,6.68779052734375,0.018492519024014473,-0.00841187278078869,0.01365809373804368
1782952704261717200,6.69771728515625,0.01864507923722267,-0.005364504441525786,-0.0004219563056947663
1782952704271645200,6.707645263671875,0.01654898374080658,0.01994529338190332,0.007466673485701903
1782952704281572400,6.717572265625,0.023881226325035095,0.006928502355236559,-0.0028584033721126612
1782952704291499300,6.727499267578125,0.03480769400894642,-0.0013921484781429171,0.004304999150964431
1782952704301427500,6.737427490234375,0.029421909317374227,-0.003849734230712056,0.001206859605689533
1782952704311354400,6.747354248046875,0.025679215657711026,0.0017301665271632373,-0.011089188531530089
1782952704321282300,6.7572822265625,0.030313305199146268,-0.004221344022080302,-0.0014375493892934172
1782952704331209500,6.76720947265625,0.0210357737660408,0.014018314485717564,0.005584882893669419
1782952704341137400,6.777137451171875,0.028369185394048688,0.012456362398620694,0.021154344944679177
1782952704351064300,6.787064208984375,0.022535656934976576,-0.014556092890538275,0.00965248395903036
1782952704360992500,6.796992431640625,0.02148994727432728,0.014894293602649121,0.0000041966845048591494
1782952704370919400,6.80691943359375,0.017597031489014623,0.01151694439034909,0.0034332349848467856
1782952704380846600,6.8168466796875,0.030166590204834937,-0.0034301023128442466,0.005748306994186714
1782952704390774500,6.8267744140625,0.02342822186052799,-0.01300889998115599,0.0028697787160752337
1782952704400701400,6.836701416015625,0.01938976012468338,-0.0028902598151005804,0.006702703375881538
1782952704410629600,6.846629638671875,0.034059505990147586,0.008878576977085322,0.0028864375899313017
1782952704420556300,6.856556396484375,0.0238853179782629,-0.0031477051748894152,0.0037426479938905684
1782952704430484200,6.866484130859375,0.011164368093013763,-0.005652381472196429,-0.004308542814920656
1782952704440411400,6.876411376953125,0.014307926815748214,0.005509338006004691,-0.0009693108230363577
1782952704450339300,6.88633935546875,0.011016484054923057,0.00262899679671973,-0.009100179271935484
1782952704460266200,6.896266357421875,0.02448796004652977,0.005934742077533155,-0.004781119629577733
1782952704470193400,6.906193359375,0.028681904605031013,0.014895864505227655,0.0020866335483267903
1782952704480121300,6.916121337890625,0.014172902259230612,0.007958649120572954,0.004455166477686725
1782952704490048500,6.926048583984375,0.02883797194957733,-0.01165642592627555,-0.0012043114555766806
1782952704499976400,6.9359765625,0.016572949138283728,0.011047847307566553,-0.0007809075448894873
1782952704509903400,6.9459033203125,0.026454291683435438,-0.001591799236088991,0.006517318605305626
1782952704519831300,6.955831298828125,0.022263854256272315,-0.002477258567418903,0.003944435909995809
1782952704529758500,6.965758544921875,0.02435936523079872,0.006190506936889141,0.006803108710166998
1782952704539686400,6.975686279296875,0.024658640438318252,-0.0021581278819590806,0.012340170406736432
1782952704549613600,6.985613525390625,0.021364275068044662,0.003619396073557436,0.0063499489820329465
1782952704559540500,6.99554052734375,0.026748890715837477,0.008307261628843843,0.004009390904987231
1782952704569468400,7.005468505859375,0.023456278911232947,0.010436839269753546,0.012432419834029861
1782952704579395300,7.015395263671875,0.023904607200622558,0.020008385213371366,0.002635947127314284
1782952704589323500,7.025323486328125,0.030194062733650207,0.00461396006885916,-0.007926518682949244
1782952704599250400,7.03525048828125,0.020915362256765366,0.0033185499634593722,-0.009773142063478008
1782952704609178400,7.045178466796875,0.011191256099939345,-0.000788045105151832,-0.00017085392172448336
1782952704619105300,7.055105224609375,0.023912205985188482,-0.004152078178152442,-0.0021608495620079335
1782952704629033200,7.065033203125,0.019123802664875983,0.0012235869782045482,-0.01669962142498698
1782952704638960400,7.07496044921875,0.024509587356448172,0.008749872563499957,-0.008594371474534273
1782952704648887300,7.08488720703125,0.01807692396044731,0.00047086891476064917,-0.008705206871288828
1782952704658815500,7.0948154296875,0.0031108254969120022,0.0004272124361246824,0.005892373373685404
1782952704668742400,7.104742431640625,0.020467033967375755,-0.01045996441701427,0.00405249026119709
1782952704678670300,7.11467041015625,0.01447977625131607,0.005762235054839402,0.0022498475862899794
1782952704688597500,7.124597412109375,0.016273673930764197,0.01301901951637119,-0.015330187102151102
1782952704698525400,7.134525390625,0.015521978780627249,-0.00438895567394793,-0.002075468266918324
1782952704708452400,7.144452392578125,0.021209376767277716,-0.008151486545242368,-0.0023338086758507414
1782952704718380500,7.154380615234375,0.008940262302756309,-0.0019206658642739057,-0.006256393513642251
1782952704728307500,7.164307373046875,0.015971476113796235,0.004705456010904163,-0.004992976848548278
1782952704738234600,7.174234619140625,0.023453356301784516,0.001566920523159206,-0.003024010296561755
1782952704748162600,7.18416259765625,0.022110124999284744,0.0039955176432617005,-0.008545965755544602
1782952704758089200,7.194089111328125,0.019715338817238807,-0.0021077311352826656,0.0007099246679106726
1782952704768017400,7.204017333984375,0.022556699723005294,0.0021065438251942395,0.003763946510246023
1782952704777944300,7.2139443359375,0.009092822515964508,0.0008184767760336399,0.010142094106879085
1782952704787872300,7.223872314453125,0.0013134206861257552,0.00209993142131716,-0.0015709436777280642
1782952704797799400,7.23379931640625,0.015380524483323096,-0.0007743819059804082,0.0036868763857753947
1782952704807727400,7.243727294921875,0.02480418638885021,0.0066857431079261,-0.0021886052186135202
1782952704817654300,7.253654296875,0.029292729979753494,-0.0006416589044034481,0.0035783334108069535
1782952704827581400,7.26358154296875,0.021812603357434273,0.008279368974920362,-0.0009338559171650559
1782952704837509400,7.27350927734375,0.021067337948083877,0.004697181372903287,-0.00931823333625216
1782952704847436500,7.2834365234375,0.018976503148674963,-0.003967606723029166,0.007691764645581133
1782952704857364500,7.293364501953125,0.022270868518948553,0.005688347834721207,0.010110059567377903
1782952704867291400,7.30329150390625,0.022421090644598005,0.006745291275437921,0.014735974935512057
1782952704877219300,7.31321923828125,0.03663315587043762,-0.0030079496443271635,0.00793496685088612
1782952704887146500,7.323146484375,0.009247720816731453,0.0054344096062704916,0.0023829039480071515
1782952704897073400,7.333073486328125,0.01927344026863575,0.00034203663701191543,-0.0014044508372899145
1782952704907001600,7.343001708984375,0.0249614227771759,-0.010620580072514712,0.016242758202692494
1782952704916928300,7.35292822265625,0.03453764489591121,0.0003386573698371649,-0.0019532666593557223
1782952704926856400,7.3628564453125,0.02929506806731224,0.000687726535834372,-0.013257536413404158
1782952704936783400,7.372783447265625,0.013280921855568884,-0.0005621456610970199,-0.01125118329336401
1782952704946711300,7.382711181640625,0.021214052942395208,-0.00604298822497949,-0.008833596191043033
1782952704956638500,7.392638427734375,0.029148353073000906,-0.0004668685930781066,-0.0038792069203685965
1782952704966566400,7.40256640625,0.011492284873127936,0.001410104259941727,-0.004701907780370675
1782952704976493300,7.412493408203125,0.019568039301037787,0.004871222765557468,-0.018697960201930253
1782952704986420500,7.42242041015625,0.03512859652638435,0.0023961561552248893,0.003495605297107249
1782952704996348400,7.432348388671875,0.01866729106903076,0.009353080887347459,-0.006894116028444841
1782952705006275300,7.442275390625,0.017018939340114593,0.014689236017223446,0.0023398456909926608
1782952705016203500,7.45220361328125,0.023753216031193732,-0.007493862886726856,-0.0013241795421577989
1782952705026130400,7.46213037109375,0.012832593566179275,-0.012980568935815244,-0.00849916747175157
1782952705036058400,7.472058349609375,0.013880056792497633,0.0064774158531799905,-0.008464091591793113
1782952705045985500,7.481985595703125,0.028248773884773253,0.012781959357485174,0.0078037325534969565
1782952705055913500,7.49191357421875,0.01702770716845989,0.0045250579426996404,0.005051766964234411
1782952705065840400,7.50184033203125,0.03423895421028137,0.012342691157385706,-0.00039829686889424916
1782952705075767600,7.511767578125,0.010145546439290045,-0.000014393851533532142,-0.004510650391434319
1782952705085695500,7.521695556640625,0.009546411502361298,0.0035933848494663833,0.012337174732051788
1782952705095622400,7.531622314453125,0.015384616136550903,0.006385189258772879,-0.0019991150950780137
1782952705105550600,7.541550537109375,0.01643383292853832,-0.0002250226612202823,0.012536953354161232
1782952705115477500,7.5514775390625,0.021662965753674508,0.0011376805267296732,-0.004687687458773143
1782952705125405400,7.561405517578125,0.01657470270395279,0.00220801317198202,-0.009120527940220198
1782952705135332600,7.57133251953125,0.020918284866213797,-0.005105396847613156,0.002576134098321199
1782952705145260500,7.581260498046875,0.0204693720549345,-0.010478303791303187,-0.0023453803826356304
1782952705155187700,7.591187744140625,0.01792319470345974,-0.006517820928804576,0.017806715017207896
1782952705165114600,7.601114501953125,0.017476619979739188,0.00809924490135163,0.014202288183919153
1782952705175042600,7.61104248046875,0.018976503148674963,0.013625095650739967,-0.0023758714190218596
1782952705184969500,7.620969482421875,0.006856441766023636,0.006866342105530202,0.009189656786830164
1782952705194897700,7.630897705078125,0.005956862577795982,-0.008654558962862938,-0.003712353320326656
1782952705204824300,7.64082421875,0.015678630647063256,-0.006105111942067742,-0.010359636714542283
1782952705214752500,7.65075244140625,0.027502339431643485,0.01549593102391809,-0.001712407108186744
1782952705224679400,7.660679443359375,0.02765723773241043,0.0020544483117759227,0.002106712788552977
1782952705234607400,7.670607421875,0.030948680493235587,0.003121401689853519,0.002315546933375299
1782952705244534500,7.680534423828125,0.03304594503343105,-0.002491780283115804,-0.0054555802584625775
1782952705254461400,7.69046142578125,0.022120646393299102,-0.000020969722792506218,0.004135898794909007
1782952705264389600,7.7003896484375,0.028852584996819496,-0.0020692805547267196,0.005169872351991944
1782952705274316500,7.710316650390625,0.010448913300037383,0.0014502170746214687,0.024287176777422426
1782952705284244500,7.720244384765625,0.02586567814052105,0.009406381977163255,0.008781697040447033
1782952705294171600,7.730171630859375,0.02601706930994987,0.000833053290657699,0.01259832358600106
1782952705304099600,7.740099609375,0.001474164205789566,-0.004176810760609806,-0.011961719882627949
1782952705314026500,7.750026611328125,0.03005319295823574,0.00666305635208264,0.003125306113413535
1782952705323953700,7.75995361328125,0.031245617613196372,0.0035046471200883386,0.006958312971610575
1782952705333881600,7.769881591796875,0.023315993657708166,0.012314378378354012,-0.0005921343739842996
1782952705343808800,7.779808837890625,0.01942424691617489,0.007733315932098776,-0.00922636750144884
1782952705353736700,7.78973681640625,0.027060440883040427,0.002486300390399992,0.01493809621175751
1782952705363663400,7.799663330078125,0.032897476473450656,0.010216218789014965,0.016961793192243203
1782952705373591300,7.80959130859375,0.007909165689349174,0.009569755845330655,0.010027171623473986
1782952705383518500,7.8195185546875,0.0290092368632555,0.003976666812319308,0.000756311959750019
1782952705393446400,7.8294462890625,0.03245090174973011,0.005586038237717002,-0.00687174436643254
1782952705403373600,7.83937353515625,0.011650690305233,-0.008495094084832816,0.00004561097370460629
1782952705413300500,7.849300537109375,0.02167816332280636,-0.00359376844195649,-0.009791540803271345
1782952705423228400,7.859228515625,0.021080781951546668,-0.0017197729973122476,0.004341746398201212
1782952705433155600,7.869155517578125,0.02138181072473526,0.008367065524682402,-0.008374769340525381
1782952705443083500,7.87908349609375,0.021536124503612517,-0.000736022656969726,-0.0025866691920673475
1782952705453010400,7.889010498046875,0.022579496076703072,0.0001622961559332907,-0.0008321856409776956
1782952705462938600,7.898938720703125,0.020929975304007527,0.007770451338402927,-0.001423388433200307
1782952705472865500,7.908865478515625,0.02138473333418369,0.0012767236712388694,0.00926148904717993
1782952705482793500,7.91879345703125,0.028572014489769933,-0.0068289327045902605,-0.005740457047871314
1782952705492720600,7.928720703125,0.021536709025502202,-0.0007466353825293481,-0.006279591726139187
1782952705502647600,7.9386474609375,0.02617489022016525,0.010344338680710642,0.0132174875308061
1782952705512575700,7.94857568359375,0.013749708411097525,0.004682677923515439,0.0060938370628049595
1782952705522502400,7.95850244140625,0.032304186755418775,-0.000588211684115231,0.003528754081460647
1782952705532430600,7.9684306640625,0.017339841857552527,0.009767780901771038,0.015792479984811505
1782952705542357500,7.978357421875,0.03664309274256229,0.011404825785383581,0.007545145549392327
1782952705552285400,7.988285400390625,0.029611294409632682,0.0017749920495785771,0.011027873098617419
1782952705562212400,7.99821240234375,0.02587035431563854,0.004899005821626633,0.0009845038255909457
1782952705572139500,8.008139404296875,0.013900515058636664,-0.012661511315591633,-0.007631974449474364
1782952705582067500,8.0180673828125,0.02347965978682041,0.011636351252626628,-0.005615871686977334
1782952705591994600,8.02799462890625,0.023483166918158528,-0.004074829957168549,0.009692893601232207
1782952705601922600,8.037922607421875,0.008819266271591186,-0.004840279638022184,0.0032458180873887613
1782952705611849500,8.047849365234375,0.00941606312096119,0.0015002119624987244,-0.012319748673215508
1782952705621777400,8.05777734375,0.01569967343509197,-0.017041772226430475,-0.018729780112300067
1782952705631704600,8.06770458984375,0.02003331872522831,0.010218629941809922,-0.002815609976579435
1782952705641632500,8.077632568359375,0.02317161675095558,0.0015184965378604828,0.0022295993827050552
1782952705651559700,8.0875595703125,0.017934300619363783,-0.0013284355921670795,-0.005585152321727946
1782952705661486600,8.097486572265625,0.01853577364385128,0.008120342488307505,-0.009434201565850526
1782952705671414500,8.10741455078125,0.009107435563206673,0.0060459838996641336,-0.012054416834493167
1782952705681341700,8.117341796875,0.01569149012863636,0.0017117175550200043,0.0006630670186132192
1782952705691269600,8.12726953125,0.011052724412083626,0.007986450442951171,-0.0011980232786852865
1782952705701196500,8.137196533203126,0.01179798982143402,-0.009906075127609073,0.004634308737143874
1782952705711124500,8.14712451171875,0.022872926065325736,-0.00039791327640414237,0.009525720340781845
1782952705721051400,8.157051513671876,0.02092646817266941,-0.0006649119158275425,0.004136898875329643
1782952705730979300,8.166979248046875,0.018984686455130576,0.0011631254952400923,-0.014567408868996426
1782952705740906500,8.176906494140624,0.01943067665696144,-0.004113262271415442,0.000009681143797934054
1782952705750833400,8.18683349609375,0.020475217273831368,-0.001879292674269527,0.005261149098328315
1782952705760761600,8.19676171875,0.01778057136237621,-0.004522701588831841,-0.0032063354603713377
1782952705770688500,8.2066884765625,0.03229658797085285,0.01251965515948832,0.00791115671703592
1782952705780616400,8.216616455078125,0.01808043109178543,-0.007966631497628987,0.005985047492664307
1782952705790543600,8.226543701171876,0.014937456890940665,-0.008366700198501349,-0.008429444970097393
1782952705800471600,8.236471435546875,0.014636428117752074,-0.0021907880425453183,-0.019704684992483817
1782952705810398500,8.2463984375,0.010894903501868248,-0.005171849679946899,-0.012854389839456417
1782952705820326700,8.25632666015625,0.019578560695052146,-0.011747319080121815,-0.006832024277397431
1782952705830253600,8.266253662109374,0.018082769179344177,-0.004003043362591416,-0.009607119580497965
1782952705840180700,8.2761806640625,0.015837620601058006,0.0006445815138518809,-0.01931927500462625
1782952705850108700,8.286108642578125,0.0038707039535045623,-0.018612766136508432,-0.0016834915409563108
1782952705860035300,8.296035400390625,0.010004092141985893,0.002237933386210352,-0.003969369421852753
1782952705869963500,8.305963623046875,0.032298926058411594,-0.004765899227559566,0.010332922237552701
1782952705879890400,8.315890380859376,0.013591302978992461,-0.0010617109473794698,-0.01055448799978476
1782952705889818400,8.325818359375,0.020028642550110817,0.008720573403779417,-0.017674654169334097
1782952705899745500,8.33574560546875,0.03095335666835308,0.0003040244478732347,0.01137588281868957
1782952705909673500,8.345673583984375,0.02362345217168331,0.012807824451103806,0.0031816257108002897
1782952705919600400,8.355600341796874,0.008510054191946982,0.007119312219601124,0.0055477611870970575
1782952705929527600,8.365527587890625,0.02092822173833847,0.0043552360674366354,-0.002459133822261356
1782952705939455500,8.37545556640625,0.026765841850638388,0.012947141590248793,0.00137382280358579
1782952705949382700,8.385382568359375,0.010156652355194092,0.002160831295698881,0.0008878111186204477
1782952705959310600,8.395310546875,0.025118659165501593,0.0015965484764426945,0.00692381704696454
1782952705969237500,8.405237548828126,0.01793663870692253,-0.011006072258763015,0.010173927716980688
1782952705979165400,8.41516552734375,0.017189035210013387,-0.010921097389049828,0.0020603437630226833
1782952705989092600,8.425092529296874,0.016741291442513465,-0.010222027475293724,0.008470233638212084
1782952705999019500,8.43501953125,0.01584521938562393,0.0024245602658018468,0.004157804666040465
1782952706008947700,8.44494775390625,0.024974282258749005,-0.0037690702099353072,0.006899079897929914
1782952706018874600,8.45487451171875,0.02542377959191799,-0.0013923128749243913,0.007961726993648334
1782952706028802600,8.464802490234375,0.020035656812787055,-0.002112790902890265,-0.002210648087062873
1782952706038729500,8.4747294921875,0.015545359656214713,0.006439896854385733,0.0032612942177336663
1782952706048657400,8.484657470703125,0.014049568140506744,-0.009578925532475113,0.0007709478398784994
1782952706058584600,8.49458447265625,0.012103110247850418,-0.0026457104695029555,-0.0029509952927008268
1782952706068512500,8.504512451171875,0.024372224712371826,0.006819763017445802,0.011434175177454016
1782952706078439400,8.514439453125,0.021681670454144476,0.01056621953677386,0.006072931272094137
1782952706088366600,8.52436669921875,0.030062545308470724,0.006917542569804936,0.01035139404258225
1782952706098294500,8.53429443359375,0.019289222359657285,-0.011508560154493898,0.0011898308390751481
1782952706108221400,8.544221435546875,0.03275251504480839,-0.0028031660535372794,0.0039026973938103763
1782952706118149000,8.554149169921875,0.018985855498909947,-0.005663743116427212,-0.015117188238864763
1782952706128075800,8.56407568359375,0.008958382481336593,-0.0008389350421726703,-0.00807451688547153
1782952706138004000,8.57400390625,0.0098556235820055,-0.018229173646401614,-0.01919942975093145
1782952706147931000,8.583930908203126,0.011051555368304253,0.005779423651657998,0.0018281150428811088
1782952706157858800,8.59385888671875,0.032148703932762146,0.00882401551194489,0.0036094592014327643
1782952706167786000,8.603785888671876,0.025116321077942847,0.011482731593493372,-0.011868566273036412
1782952706177713000,8.613712890625,0.02721709274947643,-0.0017233714601956308,-0.01573044759926852
1782952706187640800,8.623640869140624,0.0013315408647060394,-0.0035758491927757857,-0.00704771285469178
1782952706197568000,8.633568115234375,0.022875848674774168,-0.0023009704187512397,0.002827542442968115
1782952706207496000,8.643495849609375,0.017336334726214406,-0.0010220182578079401,-0.007463422082690522
1782952706217422800,8.6534228515625,0.028561493095755574,0.006087813747394829,-0.013535997161758132
1782952706227351000,8.66335107421875,0.022580080598592758,-0.0022764022330753505,0.007002846233081072
1782952706237278000,8.67327783203125,0.02632277425825596,-0.005040496651548892,-0.008232301263068802
1782952706247205000,8.683205078125,0.036196518018841745,0.006707498282007873,0.009716598703805356
1782952706257133000,8.693133056640624,0.03290390621423721,-0.0018299553735181687,0.004882333248038776
1782952706267060000,8.70306005859375,0.024672084441781043,-0.006261508080177009,0.00620210604313761
1782952706276988000,8.71298779296875,0.022129998743534086,0.00012601926615461706,-0.00652780346670188
1782952706286915000,8.7229150390625,0.019735797083377835,0.002206387470476329,-0.0042834266399731855
1782952706296843000,8.732843017578125,0.022129998743534086,-0.0024199936885386706,0.0008038774285232648
1782952706306770000,8.74277001953125,0.043080432313680646,-0.009938954483903945,0.009370826606592162
1782952706316697900,8.75269775390625,0.01509410875737667,0.006327029330749064,-0.007045671594655141
1782952706326624800,8.762624755859376,0.018536358165740965,0.0001875949939712882,-0.011043627790175377
1782952706336552000,8.772552001953125,0.012402969977259636,0.015666976741887627,-0.007555749141797423
1782952706346479900,8.78247998046875,0.021683424019813536,0.0038650961966253815,0.01096590007857885
1782952706356407000,8.792406982421875,0.02332885313928127,0.006721088415943086,0.003799912872770801
1782952706366335000,8.8023349609375,0.018242343655228612,-0.006310114728566259,0.01694891087778378
1782952706376262000,8.812261962890625,0.0061240358382463455,0.013675638527888804,-0.00005451579936780035
1782952706386189800,8.82218994140625,0.022137013006210324,0.004510645824857056,0.002572919227927923
1782952706396117000,8.832116943359376,0.021391163074970243,0.0019166838089004158,0.005084367759316228
1782952706406044000,8.8420439453125,0.026329788520932196,-0.004681344482954591,-0.0005731100131059065
1782952706415972000,8.85197216796875,0.017352116817235946,0.006696027039922774,0.000847570439777337
1782952706425899000,8.86189892578125,0.0188484928548336,0.010239508333057165,-0.007090136357466689
1782952706435827000,8.871826904296874,0.01750526155233383,0.011315083409007639,-0.000508858271013014
1782952706445754000,8.881754150390625,0.01989946321249008,0.005922211389522999,-0.003539846297632903
1782952706455682000,8.89168212890625,0.0273795898348093,-0.0058455111578106875,0.0015069430973846465
1782952706465609000,8.90160888671875,0.023483166918158528,-0.0019226751582697033,0.003839651228114962
1782952706475537200,8.911537109375,0.021389409509301183,-0.0031645649781450627,0.0006935626215767115
1782952706485463800,8.9214638671875,0.020041502031683922,-0.0015809307822026311,-0.009878369703353382
1782952706495391000,8.931390869140625,0.023187983363866804,-0.003644000791851431,-0.008444606006611137
1782952706505319000,8.94131884765625,0.04204173691570758,0.004293605540692806,0.0012284092837944625
1782952706515245800,8.951245849609375,0.027674773389101025,0.007299984282441437,0.0056673735453514375
1782952706525174000,8.961174072265624,0.011660042655467986,-0.01636401909533888,0.011106610023789107
1782952706535101000,8.971100830078125,0.02153729354739189,-0.005353416791930794,-0.011629163460014387
1782952706545028900,8.98102880859375,0.018543956950306893,-0.009223006500583142,0.010415015597012824
1782952706554956000,8.9909560546875,0.009565116202831268,0.0033887656554579732,0.00004159238571301102
1782952706564884000,9.000884033203125,0.022286066088080404,-0.0011433796151541172,-0.001588538699923083
1782952706574811000,9.010810791015626,0.023335282880067823,0.009723393770772963,-0.003324418015242554
1782952706584738000,9.020738037109375,0.02423603111207485,0.00917776085305959,0.012646674506063573
1782952706594666000,9.030666015625,0.011663549786806105,0.024502518294844775,0.021805479496903715
1782952706604593200,9.04059326171875,0.015408581534028052,0.012534012478403746,0.0009283303586766123
1782952706614521000,9.05052099609375,0.035460020437836644,-0.004361793672386556,-0.00906528148849029
1782952706624448000,9.060447998046875,0.03021744360923767,-0.015465225358400492,-0.012552488850010559
1782952706634376000,9.0703759765625,0.015109306326508521,-0.005165876596886664,-0.013212432329775765
1782952706644302800,9.080302734375,0.02319032145142555,-0.0008723623877391219,0.011893824011879042
1782952706654229800,9.090229736328125,0.02753390361368656,-0.004108019840717315,0.017565544938785024
1782952706664158000,9.100157958984376,0.006433832439780235,0.005071311914920807,-0.00005462083064485341
1782952706674084900,9.1100849609375,0.00419277551472187,-0.0022297866123728452,-0.017517732874839567
1782952706684012800,9.1200126953125,0.0220031574934721,0.00394811657126993,0.002697102730022743
1782952706693940000,9.12993994140625,0.02694002937376499,-0.004392663734685629,-0.0007013577689649537
1782952706703868000,9.139867919921874,0.01916004302203655,-0.0048714419612661,0.007522810419998131
1782952706713795000,9.149795166015625,0.02125496947467327,0.0027488968493416905,0.007704277067282237
1782952706723723000,9.159722900390625,0.015271803411841391,0.007623553681001067,0.002668415491655469
1782952706733650000,9.16964990234375,0.02215630222856998,0.010281593909114598,-0.0025279658413492143
1782952706743577000,9.1795771484375,0.020803718575835226,0.008709668417274951,0.013418773123412392
1782952706753505000,9.189505126953126,0.017059271350502968,0.0021121150494553148,-0.001770407206006348
1782952706763432000,9.199431884765625,0.010625438910722733,0.010801599195227026,0.000309285144880414
1782952706773360000,9.209360107421874,0.023498364487290382,-0.012663940734695643,0.0035442210786510255
1782952706783287000,9.219287109375,0.020957447832822797,-0.013795611645746976,-0.011377166026900521
1782952706793215000,9.229215087890625,0.005545359167456626,-0.0051245216731913385,-0.012070354189141652
1782952706803142100,9.23914208984375,0.028140637335181233,0.012508275248948484,0.007903471167501994
1782952706813070000,9.249070068359375,0.01438040753006935,0.005292681314330548,0.010520882557705044
1782952706822996700,9.258996826171876,0.010042086064815521,-0.00027695377785712477,-0.00827659249594435
1782952706832924000,9.268923828125,0.020216274076700208,0.0084224124411121,-0.0007037963212234899
1782952706842851800,9.278851806640626,0.031440263402462004,-0.005087422799505293,-0.004933003989350981
1782952706852779000,9.288779052734375,0.025007015484571456,0.004610580801684409,-0.005081184854963794
1782952706862707000,9.29870703125,0.010645897176861763,-0.005858133177366108,0.007467102743964642
1782952706872633900,9.3086337890625,0.01214227321445942,-0.0013680186838842927,-0.014763369832513853
1782952706882562000,9.31856201171875,0.01677636275589466,0.014625340468157081,0.005770062168268486
1782952706892489000,9.328489013671875,0.02305880402624607,0.012020181204751134,0.013669085489516146
1782952706902416000,9.338415771484375,0.03383388054072857,-0.0014951156622730194,0.003755091916932724
1782952706912344000,9.348343994140626,0.01782207241654396,-0.00043594373185187576,-0.011839230580697767
1782952706922271000,9.35827099609375,0.015574001228809356,-0.006472063824627548,-0.009665923395915888
1782952706932199000,9.368198974609374,0.02649696178138256,-0.0004782850362360477,-0.007459015335631557
1782952706942126000,9.3781259765625,0.016917232531309126,-0.0020558365512639283,-0.012232453982252627
1782952706952054000,9.388053955078124,0.018709376645088194,0.010589764809142798,-0.0075604024840286
1782952706961981200,9.397981201171875,0.03501870641112327,0.00522160710580647,-0.007802234716154635
1782952706971909000,9.4079091796875,0.021852935367822644,-0.007239778527803719,0.0017403545610373838
1782952706981835800,9.417835693359375,0.019164719197154043,-0.0016963738554157317,0.00991348668250721
1782952706991763000,9.427762939453125,0.024402035328745842,-0.00873909544115886,0.008676921491720713
1782952707001691000,9.43769091796875,0.017520459121465683,-0.008972356207761913,-0.016278989426698535
1782952707011617800,9.44761767578125,0.012284896555542945,-0.0036493710867129265,-0.009413802665215916
1782952707021546000,9.4575458984375,0.016321604725718496,-0.002785922657791525,0.005586385297589004
1782952707031473000,9.467472900390625,0.01991466078162193,0.0031310645673424003,0.004593816896551289
1782952707041400800,9.47740087890625,0.025599136158823966,0.0009514007070101797,-0.003438888407498598
1782952707051328000,9.487327880859375,0.02709609671831131,0.005582604171615093,0.0060393029971281065
1782952707061255000,9.4972548828125,0.013629881423711776,-0.0027096608174964785,0.00505141990436241
1782952707071182800,9.507182861328126,0.016924831315875053,0.0018296083136461673,-0.005687306655105203
1782952707081110000,9.517110107421875,0.02725157954096794,-0.00676918360767886,-0.015487624419876373
1782952707091038000,9.527037841796876,0.014384499183297157,0.006930676046013832,-0.017027392074628733
1782952707100965000,9.536965087890625,0.011088964769244194,0.009854838130716234,-0.0034195535193663087
1782952707110893000,9.54689306640625,0.013637480208277701,-0.005384341653157025,-0.001652046089922078
1782952707120819500,9.5568193359375,0.031443186011910436,0.0007833689300343394,-0.002088524111313745
1782952707130747600,9.56674755859375,0.025913024413585662,0.010730652850866317,0.00566247360794805
1782952707140674600,9.576674560546875,0.014096914413571356,0.010384433229081332,0.004190569857903756
1782952707150601700,9.586601806640624,0.023522914406657217,-0.010414408242236823,0.009106759709771721
1782952707160529700,9.59652978515625,0.026963410249352452,-0.005874043132551014,0.002896146133192815
1782952707170456600,9.60645654296875,0.011547814452648162,0.00033288521617650985,-0.0017021323093445971
1782952707180384500,9.616384521484376,0.013045944055914879,-0.0003407031964510679,0.004510024770349264
1782952707190311700,9.626311767578125,0.014987725773453711,-0.0061993295641615985,0.0006731454546330496
1782952707200239600,9.636239501953124,0.03369184172153473,0.013583886857517062,-0.0032024082039250057
1782952707210166800,9.646166748046875,0.01588672043979168,0.007994980809278785,-0.008109624731470831
1782952707220093700,9.65609375,0.01394435420036316,-0.0022474866658449173,0.00666353127611801
1782952707230021600,9.666021728515625,0.023223054677248,-0.004878273560851812,-0.00293508533751592
1782952707239948800,9.67594873046875,0.019330723413825034,-0.005887085277214646,-0.006894211926567368
1782952707249876700,9.685876708984376,0.022922610425949095,-0.008595266523677855,-0.00662976143725682
1782952707259803600,9.6958037109375,0.03265080823600292,-0.006407291492726654,-0.0060192922555608675
1782952707269731800,9.70573193359375,0.0025724808365106583,-0.0023308906329795715,-0.01649320756611414
1782952707279658500,9.715658447265625,0.02157645651400089,-0.00440758730918169,0.0084416468645446
1782952707289587700,9.725587646484374,0.02801613417267799,-0.005040569716785103,0.010789401867357083
1782952707299515600,9.735515625,0.022031214544177054,-0.011806885513942688,-0.0006436818981310353
1782952707309442800,9.74544287109375,0.010208674803376198,-0.007744805440492927,-0.010103287333296612
1782952707319370800,9.755370849609376,0.021280103915929792,0.006184972245246172,0.013335839513735844
1782952707329297700,9.765297607421875,0.014101006066799163,0.00350985301816836,-0.006684537531528621
1782952707339225900,9.775225830078124,0.016496961292624474,-0.0025248057698830963,-0.0015456402731128037
1782952707349152500,9.785152587890625,0.00737082102894783,-0.0030377602607011794,-0.0067340392290614545
1782952707359079700,9.79507958984375,0.01664952150583267,-0.013844273093063384,0.005827016519894823
1782952707369007600,9.805007568359375,0.018294950625300406,-0.01607447983054444,-0.014731878715706989
1782952707378934500,9.8149345703125,0.023384382718801496,-0.0016347798612900077,-0.012548908653436228
1782952707388862700,9.82486279296875,0.018298457756638527,0.013547920494992285,-0.005003813336393796
1782952707398789600,9.83478955078125,0.03490589368641376,-0.0037326106570661067,-0.0007601752841146662
1782952707408717600,9.844717529296876,0.01575344944894314,-0.002873820136953145,-0.0015217479408718645
1782952707418644700,9.854644775390625,0.018594810354709623,-0.0011513071932829917,-0.016450742964143863
1782952707428572700,9.86457275390625,0.04074234475493431,0.007188833791855722,-0.019279139357060195
1782952707438499600,9.87449951171875,0.01755319234728813,0.012401417340990156,-0.0019405076424824073
1782952707448426800,9.8844267578125,0.022940146082639692,-0.0067453826069831845,-0.0008708508506650105
1782952707458354700,9.894354736328125,0.026528525963425635,0.004583510131668299,0.0015621164838783442
1782952707468281900,9.90428173828125,0.011714403191208839,-0.016832148063741625,-0.009047586001595482
1782952707478209800,9.914209716796876,0.009772036951780319,-0.002600117762107402,-0.005713824769272469
1782952707488136700,9.92413671875,0.012018354573845863,0.003178630036115646,0.0035181230895919725
1782952707498064600,9.934064697265624,0.015457681372761725,-0.00019033494032919405,-0.007956489129527471
1782952707507991600,9.943991455078125,0.012769465202093124,-0.011886343958321959,-0.00018457648640032856
1782952707517918500,9.95391845703125,0.03431903370916843,0.002709185893461108,-0.004688829103088938
1782952707527846700,9.9638466796875,0.021905542337894438,0.0017783713167533277,0.005894674928626045
1782952707537773600,9.973773681640624,0.010084171640872955,0.004292272100131959,-0.00468505254369229
1782952707547701500,9.983701416015625,0.017863573470711706,0.0018270692966878414,-0.010180928279925137
1782952707557628700,9.993628662109375,0.012176760005950927,0.006183364810049534,-0.01686068003848195
1782952707567556600,10.003556640625,0.02085807911157608,0.004167312279902398,0.003975319672026671
1782952707577483800,10.01348388671875,0.028042437657713887,0.0014359145546332,0.01525935035564471
1782952707587411700,10.02341162109375,0.01920972738265991,0.017587606073543427,0.0010952113581821322
1782952707597338600,10.033338623046875,0.03776479024887085,0.005783369174413383,0.007126189484959468
1782952707607265800,10.043265869140624,0.006344400590658187,-0.010965977710392325,0.004747779048979282
1782952707617193700,10.05319384765625,0.00918634601831436,-0.005264112806972116,-0.008774198720580897
1782952707627120600,10.06312060546875,0.019359364986419676,-0.007891977092530578,0.001168299427279271
1782952707637048800,10.073048828125,0.01965513306260109,-0.007450443870108574,0.006502938453503884
1782952707646975700,10.082975830078125,0.019803017100691794,-0.002602474115975201,0.0030671324856579303
1782952707656903700,10.092903564453126,0.021900866162776946,-0.010031729067582637,0.006479292716435156
1782952707666830800,10.102830810546875,0.016513912427425382,-0.0021310024130158124,0.0003580287905875593
1782952707676757500,10.112757568359376,0.03342646878361702,-0.005404379794187844,-0.01055715031432919
1782952707686685400,10.122685546875,0.025046762973070142,-0.009724599347170442,0.00010261555768083781
1782952707696612600,10.132612548828124,0.020109306570887563,-0.0016734679038636385,-0.0024754593359772115
1782952707706540500,10.14254052734375,0.033274493092298504,-0.004733366931136697,-0.001809460574761033
1782952707716467700,10.1524677734375,0.019960253489017487,-0.0024643077543005346,-0.0082785332912812
1782952707726395600,10.162395751953126,0.02609481072127819,-0.006050203417055308,-0.020124015516252255
1782952707736322600,10.172322509765625,0.02489829441308975,-0.00274241230962798,0.002925815185671672
1782952707746250800,10.182250732421876,0.023853753796219825,0.00459910955959931,0.004890676384698599
1782952707756177700,10.192177734375,0.029244214662909506,-0.006455587613862008,0.0047686939728446304
1782952707766104600,10.2021044921875,0.026549568751454353,0.012300203722529112,-0.0006828631310490891
1782952707776032800,10.21203271484375,0.006945873615145683,-0.007563530589453875,0.004712077547935769
1782952707785959700,10.221959716796874,0.008439327043294906,-0.0023911694528535006,-0.009328846061811781
1782952707795887600,10.2318876953125,-0.0008399579554796219,0.013085033957287669,-0.006431804879475384
1782952707805814800,10.241814697265625,0.029231939703226087,-0.001405373285897076,-0.008363905453216284
1782952707815742700,10.25174267578125,0.03372106781601906,-0.0076962718573398885,-0.01383477917893324
1782952707825670000,10.261669921875,0.021447277176380158,-0.011349570200499147,-0.011550992790423332
1782952707835596500,10.271596435546876,0.011567688196897507,-0.0019974208949133754,-0.0024464981029741466
1782952707845524500,10.2815244140625,0.024589666855335233,-0.0012157689979299903,0.004391243529156781
1782952707855451600,10.29145166015625,0.016658873856067655,0.014376589871477335,-0.0015963886462384833
1782952707865379600,10.301379638671875,0.028181553867459297,-0.011681578633841127,-0.0004250433119246736
1782952707875306500,10.311306396484374,0.020102292308211325,-0.0015560338029637932,-0.013933682109299114
1782952707885234700,10.321234619140625,0.024739888980984687,0.005063110342156142,-0.003903811638662591
1782952707895161600,10.33116162109375,0.026687515917420385,-0.0026287776010110973,-0.0016922274032607674
1782952707905089500,10.341089599609376,0.013519991308450698,0.0024515213379636405,0.004498229301278479
1782952707915016700,10.3510166015625,0.006489362019300461,-0.0018288776612840592,-0.0037661978328367694
1782952707924943600,10.360943603515626,0.026238603106141088,0.0002236892206594348,0.015786470369133165
1782952707934871600,10.37087158203125,0.020398060384392736,-0.01253004868933931,0.004743422534270212
1782952707944798700,10.380798828125,0.028774843585491178,0.009524729393515735,-0.004126646909373812
1782952707954726700,10.3907265625,0.022791093000769615,0.008147997680213301,-0.0026493271986953912
1782952707964653800,10.40065380859375,0.029825813943147657,0.0006455496282316744,0.001381120194052346
1782952707974581800,10.410581787109376,0.02308919916450977,0.012991492188628762,0.0026444409610237923
1782952707984508700,10.4205087890625,0.012763619983196257,0.0028441191184334453,-0.004676193383801729
1782952707994435600,10.430435546875,0.033114918616414066,-0.006625080695562064,-0.011807013378106057
1782952708004363800,10.44036376953125,0.032815643408894535,-0.002453530631959438,0.00297788329962641
1782952708014290700,10.450290771484376,0.02323474511504173,-0.006507847524061799,0.006847308611497282
1782952708024218600,10.460218505859375,0.027426351585984228,-0.007319912825617939,-0.004843389477138407
1782952708034145500,10.4701455078125,0.031465982365608214,-0.002677713042963296,0.0023739945557666943
1782952708044073500,10.480073486328125,0.03385726141631603,-0.0032206425469368696,0.0031202646121149882
1782952708054000600,10.490000732421874,0.004528875601291656,-0.006081986794807016,-0.01262939001112245
1782952708063928600,10.499928466796876,0.01844458822906017,-0.011299611845239995,0.0073969783835113045
1782952708073855700,10.509855712890625,0.028320085555315015,0.00021782573545351623,-0.0020899306171108037
1782952708083782700,10.51978271484375,0.016943536016345025,-0.007758340775500983,-0.0014615695856977254
1782952708093710600,10.529710693359375,0.02397591887116432,-0.0024826288622803983,-0.009324325150321238
1782952708103637800,10.5396376953125,0.019938041657209395,0.01288446988388896,-0.0008300667491275817
1782952708113566500,10.54956640625,0.014850363129377365,0.013823412968125193,0.006399679008428938
1782952708123493000,10.5594931640625,0.025325579914450645,-0.003549363044649362,-0.014055221563158556
1782952708133421000,10.569421142578125,0.014103344154357909,-0.0019334888132289051,-0.015445867637381889
1782952708143348200,10.57934814453125,0.0194803610175848,0.005797616895474493,0.004306337158102542
1782952708153275100,10.589275146484376,0.03054594491124153,0.0005471124887466431,-0.00831453161984682
1782952708163203300,10.599203369140625,0.02634790869951248,0.0015842187178321183,0.0057391647065058345
1782952708173130200,10.609130126953126,0.019907061997056007,-0.0006777165984734893,0.006053747081011533
1782952708183058200,10.61905810546875,0.02139993090331554,-0.005344027909077704,0.009947119524050503
1782952708192985300,10.6289853515625,0.03876198459267616,-0.0005072919350117445,-0.0044482070139376445
1782952708202913300,10.638913330078125,0.018564999738335607,-0.014669380539283156,-0.005596349569177254
1782952708212840200,10.648840087890624,0.008843231669068335,-0.01119337499178946,0.00020659195538610218
1782952708222767400,10.658767333984375,0.014388590836524962,-0.010844926880300044,-0.012146036074124275
1782952708232695300,10.6686953125,0.03429506831169128,-0.009882383724767714,-0.014948485175031237
1782952708242622500,10.67862255859375,0.0229267020791769,0.002332662464957684,-0.007675809024623594
1782952708252550400,10.68855029296875,0.03190963447988033,0.007280621994845569,0.0037823224171530455
1782952708262477300,10.698477294921876,0.02173544646799564,-0.002038593155518174,0.00823293145073112
