time,seconds_elapsed,z,y,x
1782952697623978500,0.059978515625,-0.9979095458984375,-0.0297698974609375,0.0066375732421875
1782952697633906400,0.069906494140625,-0.9984283447265625,-0.0293121337890625,0.006317138671875
1782952697643833300,0.079833251953125,-0.99810791015625,-0.0296630859375,0.0064544677734375
1782952697653760300,0.08976025390625,-0.9964599609375,-0.0302581787109375,0.007171630859375
1782952697663688200,0.099688232421875,-0.998626708984375,-0.0296173095703125,0.00634765625
1782952697673615000,0.109614990234375,-0.997467041015625,-0.0287322998046875,0.008026123046875
1782952697683543300,0.119543212890625,-0.997314453125,-0.02996826171875,0.0062103271484375
1782952697693470200,0.12947021484375,-0.9972686767578125,-0.0298614501953125,0.00738525390625
1782952697703398100,0.139398193359375,-0.998565673828125,-0.029144287109375,0.0072174072265625
1782952697713325300,0.1493251953125,-0.998077392578125,-0.0283660888671875,0.0049896240234375
1782952697723253200,0.159253173828125,-0.996612548828125,-0.02960205078125,0.0051727294921875
1782952697733180200,0.16918017578125,-0.998779296875,-0.0299224853515625,0.0059051513671875
1782952697743108400,0.1791083984375,-0.9990692138671875,-0.02960205078125,0.006866455078125
1782952697753035300,0.18903515625,-0.998443603515625,-0.0302581787109375,0.0073394775390625
1782952697762962400,0.19896240234375,-0.9993133544921875,-0.028900146484375,0.0074005126953125
1782952697772890400,0.208890380859375,-0.9972381591796875,-0.0291900634765625,0.0082244873046875
1782952697782817300,0.2188173828125,-0.9961090087890625,-0.0288238525390625,0.0070953369140625
1782952697792745500,0.228745361328125,-0.99798583984375,-0.0288543701171875,0.0069122314453125
1782952697802672400,0.23867236328125,-0.998077392578125,-0.0301513671875,0.0057525634765625
1782952697812600300,0.248600341796875,-0.9971466064453125,-0.0287628173828125,0.0053863525390625
1782952697822527200,0.25852734375,-0.9970550537109375,-0.02972412109375,0.0066986083984375
1782952697832455400,0.268455322265625,-0.997833251953125,-0.0294036865234375,0.00701904296875
1782952697842382000,0.278382080078125,-0.997772216796875,-0.0290069580078125,0.0065460205078125
1782952697852310300,0.288310302734375,-0.996856689453125,-0.0289764404296875,0.0063323974609375
1782952697862237200,0.2982373046875,-0.99755859375,-0.028411865234375,0.0060272216796875
1782952697872165000,0.3081650390625,-0.996795654296875,-0.0291900634765625,0.0052642822265625
1782952697882092300,0.31809228515625,-0.9969024658203125,-0.029937744140625,0.006622314453125
1782952697892019200,0.328019287109375,-0.9981689453125,-0.02996826171875,0.0059051513671875
1782952697901947100,0.337947021484375,-0.99713134765625,-0.0304107666015625,0.0059051513671875
1782952697911874300,0.347874267578125,-0.9973907470703125,-0.0286102294921875,0.0071868896484375
1782952697921802200,0.35780224609375,-0.9979705810546875,-0.0280303955078125,0.006622314453125
1782952697931729400,0.3677294921875,-0.9979095458984375,-0.0302581787109375,0.00653076171875
1782952697941657300,0.3776572265625,-0.9985198974609375,-0.0297393798828125,0.0078277587890625
1782952697951584300,0.387584228515625,-0.99652099609375,-0.029296875,0.0066680908203125
1782952697961512400,0.397512451171875,-0.9978485107421875,-0.0306396484375,0.0066375732421875
1782952697971439400,0.407439453125,-0.997894287109375,-0.02972412109375,0.0062255859375
1782952697981367300,0.4173671875,-0.99737548828125,-0.0297088623046875,0.00457763671875
1782952697991294500,0.42729443359375,-0.9976654052734375,-0.0294647216796875,0.0081024169921875
1782952698001221000,0.43722119140625,-0.9970550537109375,-0.0301055908203125,0.0063323974609375
1782952698011149000,0.447149169921875,-0.9948272705078125,-0.0298919677734375,0.0055084228515625
1782952698021076200,0.457076171875,-0.9983062744140625,-0.0275726318359375,0.0050811767578125
1782952698031004200,0.467004150390625,-0.9967498779296875,-0.0296478271484375,0.0058135986328125
1782952698040931300,0.476931396484375,-0.99725341796875,-0.031341552734375,0.0048980712890625
1782952698050859300,0.486859375,-0.9978790283203125,-0.030548095703125,0.006591796875
1782952698060786200,0.4967861328125,-0.9966278076171875,-0.031646728515625,0.0071258544921875
1782952698070714000,0.506714111328125,-0.9975738525390625,-0.02978515625,0.007476806640625
1782952698080641300,0.516641357421875,-0.9986419677734375,-0.0295867919921875,0.00701904296875
1782952698090569200,0.5265693359375,-0.997833251953125,-0.0292816162109375,0.0069580078125
1782952698100496600,0.53649658203125,-0.9982452392578125,-0.02960205078125,0.0071563720703125
1782952698110424600,0.546424560546875,-0.998809814453125,-0.0305328369140625,0.007171630859375
1782952698120351500,0.5563515625,-0.9982757568359375,-0.0303497314453125,0.005828857421875
1782952698130278400,0.5662783203125,-0.998565673828125,-0.0288543701171875,0.0071868896484375
1782952698140206300,0.576206298828125,-0.9979705810546875,-0.0295562744140625,0.00592041015625
1782952698150133200,0.58613330078125,-0.9958038330078125,-0.0279388427734375,0.007232666015625
1782952698160061400,0.5960615234375,-0.9975738525390625,-0.028839111328125,0.0064849853515625
1782952698169988400,0.60598828125,-0.997039794921875,-0.028533935546875,0.0062103271484375
1782952698179916300,0.615916259765625,-0.99688720703125,-0.02923583984375,0.006744384765625
1782952698189843500,0.625843505859375,-0.9972991943359375,-0.0301971435546875,0.0056610107421875
1782952698199771400,0.635771484375,-0.9981842041015625,-0.029541015625,0.007781982421875
1782952698209698600,0.645698486328125,-0.9956817626953125,-0.0297698974609375,0.006011962890625
1782952698219626500,0.65562646484375,-0.9976654052734375,-0.0294647216796875,0.00616455078125
1782952698229553400,0.665553466796875,-0.997039794921875,-0.029510498046875,0.0068206787109375
1782952698239481300,0.6754814453125,-0.9981536865234375,-0.02984619140625,0.0062255859375
1782952698249408500,0.685408447265625,-0.9978179931640625,-0.0291900634765625,0.0074615478515625
1782952698259335400,0.69533544921875,-0.9965667724609375,-0.0288848876953125,0.00640869140625
1782952698269263600,0.705263671875,-0.9964447021484375,-0.0298309326171875,0.00567626953125
1782952698279190500,0.7151904296875,-0.998077392578125,-0.02874755859375,0.0074920654296875
1782952698289118500,0.725118408203125,-0.997802734375,-0.029510498046875,0.0071563720703125
1782952698299045600,0.735045654296875,-0.9970855712890625,-0.0300140380859375,0.0057830810546875
1782952698308973600,0.7449736328125,-0.9972991943359375,-0.0303192138671875,0.0072021484375
1782952698318900200,0.754900146484375,-0.99700927734375,-0.028594970703125,0.005035400390625
1782952698328828400,0.764828369140625,-0.99725341796875,-0.029510498046875,0.0063323974609375
1782952698338755300,0.77475537109375,-0.9976654052734375,-0.03070068359375,0.00689697265625
1782952698348683300,0.784683349609375,-0.9986114501953125,-0.0306243896484375,0.007659912109375
1782952698358610400,0.7946103515625,-0.99786376953125,-0.02947998046875,0.0062408447265625
1782952698368537300,0.804537353515625,-0.996673583984375,-0.030242919921875,0.006622314453125
1782952698378465500,0.814465576171875,-0.9973602294921875,-0.028656005859375,0.007293701171875
1782952698388392400,0.824392333984375,-0.99578857421875,-0.0276336669921875,0.0097808837890625
1782952698398320400,0.8343203125,-0.9952392578125,-0.0274658203125,0.00762939453125
1782952698408247600,0.84424755859375,-0.99786376953125,-0.029266357421875,0.0073089599609375
1782952698418175500,0.854175537109375,-0.998748779296875,-0.0308074951171875,0.0060272216796875
1782952698428102400,0.864102294921875,-0.99853515625,-0.0315093994140625,0.005584716796875
1782952698438030600,0.874030517578125,-0.9971160888671875,-0.0308837890625,0.004608154296875
1782952698447957500,0.88395751953125,-0.9979400634765625,-0.0304718017578125,0.0058441162109375
1782952698457885400,0.893885498046875,-0.99700927734375,-0.0297393798828125,0.00726318359375
1782952698467812600,0.9038125,-0.9971466064453125,-0.0292510986328125,0.008392333984375
1782952698477740500,0.913740478515625,-0.99578857421875,-0.02850341796875,0.0078277587890625
1782952698487667500,0.92366748046875,-0.9974517822265625,-0.0298309326171875,0.0075225830078125
1782952698497594400,0.933594482421875,-0.998046875,-0.0312957763671875,0.0054931640625
1782952698507522300,0.943522216796875,-0.9973602294921875,-0.030426025390625,0.0063018798828125
1782952698517449500,0.953449462890625,-0.9958953857421875,-0.0301055908203125,0.0061492919921875
1782952698527377400,0.96337744140625,-0.9982452392578125,-0.02972412109375,0.0065460205078125
1782952698537304300,0.97330419921875,-0.9974822998046875,-0.0274810791015625,0.008453369140625
1782952698547232500,0.983232421875,-0.99755859375,-0.0278472900390625,0.008575439453125
1782952698557159400,0.993159423828125,-0.9949493408203125,-0.0276947021484375,0.0067901611328125
1782952698567087400,1.00308740234375,-0.9984283447265625,-0.02874755859375,0.0065155029296875
1782952698577014500,1.0130146484375,-0.9979400634765625,-0.0305938720703125,0.0053863525390625
1782952698586942500,1.0229423828125,-0.997528076171875,-0.028839111328125,0.0042877197265625
1782952698596869400,1.032869384765625,-0.9983062744140625,-0.0302734375,0.0054168701171875
1782952698606796500,1.042796630859375,-0.998260498046875,-0.0291290283203125,0.0064697265625
1782952698616724500,1.052724365234375,-0.99700927734375,-0.02911376953125,0.00579833984375
1782952698626651600,1.062651611328125,-0.9987640380859375,-0.0273590087890625,0.008392333984375
1782952698636579600,1.07257958984375,-0.996124267578125,-0.028656005859375,0.0074005126953125
1782952698646506500,1.082506591796875,-0.996795654296875,-0.0301361083984375,0.005401611328125
1782952698656434400,1.092434326171875,-0.9970855712890625,-0.031005859375,0.00567626953125
1782952698666361600,1.102361572265625,-0.998443603515625,-0.031463623046875,0.006622314453125
1782952698676289500,1.11228955078125,-0.9972381591796875,-0.0306854248046875,0.00323486328125
1782952698686216400,1.122216552734375,-0.996490478515625,-0.0315399169921875,0.0050048828125
1782952698696144400,1.132144287109375,-0.995819091796875,-0.0284271240234375,0.008941650390625
1782952698706071300,1.1420712890625,-0.9974212646484375,-0.0283660888671875,0.0077972412109375
1782952698715998500,1.15199853515625,-0.997344970703125,-0.0283050537109375,0.0065765380859375
1782952698725926400,1.161926513671875,-0.9974822998046875,-0.0297698974609375,0.0066375732421875
1782952698735853300,1.171853271484375,-0.9968414306640625,-0.0295867919921875,0.0081329345703125
1782952698745781500,1.181781494140625,-0.9978790283203125,-0.03021240234375,0.006683349609375
1782952698755708400,1.19170849609375,-0.997406005859375,-0.0312347412109375,0.0062255859375
1782952698765636400,1.20163623046875,-0.9961700439453125,-0.02880859375,0.0070953369140625
1782952698775563500,1.2115634765625,-0.996185302734375,-0.0281524658203125,0.0074005126953125
1782952698785491500,1.221491455078125,-0.998565673828125,-0.0282440185546875,0.0070343017578125
1782952698795418600,1.231418701171875,-0.9970855712890625,-0.030364990234375,0.006561279296875
1782952698805346600,1.2413466796875,-0.9972076416015625,-0.02923583984375,0.005157470703125
1782952698815273500,1.2512734375,-0.9976959228515625,-0.02899169921875,0.0061798095703125
1782952698825200600,1.26120068359375,-0.99713134765625,-0.0304107666015625,0.006927490234375
1782952698835128600,1.271128662109375,-0.9986724853515625,-0.02972412109375,0.0057373046875
1782952698845055200,1.28105517578125,-0.9974365234375,-0.029998779296875,0.0067291259765625
1782952698854983700,1.290983642578125,-0.9982147216796875,-0.029876708984375,0.0069427490234375
1782952698864910300,1.300910400390625,-0.9969940185546875,-0.0282135009765625,0.007293701171875
1782952698874838300,1.31083837890625,-0.9965057373046875,-0.030120849609375,0.00787353515625
1782952698884765400,1.320765380859375,-0.9993743896484375,-0.02764892578125,0.0062103271484375
1782952698894693400,1.330693359375,-0.9973602294921875,-0.032196044921875,0.0060882568359375
1782952698904620300,1.340620361328125,-0.9960479736328125,-0.0348358154296875,0.0023040771484375
1782952698914548500,1.350548583984375,-0.997955322265625,-0.0293426513671875,0.0040740966796875
1782952698924475400,1.360475341796875,-0.9978485107421875,-0.02569580078125,0.0125579833984375
1782952698934402600,1.370402587890625,-0.9955596923828125,-0.02593994140625,0.0094757080078125
1782952698944330500,1.38033056640625,-0.996002197265625,-0.027923583984375,0.00823974609375
1782952698954257400,1.39025732421875,-0.9983367919921875,-0.0287017822265625,0.007720947265625
1782952698964185600,1.400185546875,-0.99755859375,-0.031707763671875,0.003814697265625
1782952698974112500,1.410112548828125,-0.9999237060546875,-0.0326690673828125,0.003662109375
1782952698984040400,1.42004052734375,-0.99615478515625,-0.0316009521484375,0.0048065185546875
1782952698993967600,1.429967529296875,-0.9969940185546875,-0.030120849609375,0.0074310302734375
1782952699003895600,1.4398955078125,-0.9949798583984375,-0.02740478515625,0.008270263671875
1782952699013822500,1.449822509765625,-0.99896240234375,-0.0279693603515625,0.00799560546875
1782952699023750700,1.459750732421875,-0.9962005615234375,-0.0295867919921875,0.0065460205078125
1782952699033677300,1.46967724609375,-0.9988555908203125,-0.030487060546875,0.005859375
1782952699043604500,1.4796044921875,-0.9965057373046875,-0.03155517578125,0.0048675537109375
1782952699053532400,1.489532470703125,-0.9989166259765625,-0.0312347412109375,0.0055999755859375
1782952699063459300,1.499459228515625,-0.997833251953125,-0.02911376953125,0.006072998046875
1782952699073387300,1.50938720703125,-0.9981231689453125,-0.02801513671875,0.0084228515625
1782952699083314400,1.519314453125,-0.9965972900390625,-0.0284271240234375,0.0069427490234375
1782952699093242400,1.529242431640625,-0.99737548828125,-0.0260772705078125,0.0087738037109375
1782952699103169500,1.53916943359375,-0.997711181640625,-0.0285186767578125,0.0070343017578125
1782952699113097500,1.549097412109375,-0.996429443359375,-0.0316009521484375,0.005157470703125
1782952699123024400,1.5590244140625,-0.9992523193359375,-0.0342254638671875,0.00250244140625
1782952699132952600,1.56895263671875,-0.9970703125,-0.034698486328125,0.001495361328125
1782952699142879500,1.57887939453125,-0.99951171875,-0.028228759765625,0.0094451904296875
1782952699152806400,1.588806396484375,-0.9946136474609375,-0.024200439453125,0.009368896484375
1782952699162731500,1.5987314453125,-0.9942779541015625,-0.02630615234375,0.009765625
1782952699172659700,1.60865966796875,-0.99835205078125,-0.0270843505859375,0.0093994140625
1782952699182586400,1.61858642578125,-0.9981231689453125,-0.0293426513671875,0.005096435546875
1782952699192513500,1.628513427734375,-0.998138427734375,-0.03271484375,0.00372314453125
1782952699202441500,1.63844140625,-0.9969024658203125,-0.0330963134765625,0.0039825439453125
1782952699212368400,1.648368408203125,-1.0005035400390625,-0.031951904296875,0.005645751953125
1782952699222296600,1.658296630859375,-0.996429443359375,-0.0305633544921875,0.0074005126953125
1782952699232223500,1.668223388671875,-0.9987030029296875,-0.0283203125,0.0095672607421875
1782952699242151400,1.6781513671875,-0.99774169921875,-0.0274658203125,0.0073394775390625
1782952699252078600,1.68807861328125,-0.997650146484375,-0.0278472900390625,0.00811767578125
1782952699262006500,1.698006591796875,-0.9968414306640625,-0.0300140380859375,0.00604248046875
1782952699271933400,1.707933349609375,-0.9978485107421875,-0.0322418212890625,0.0034332275390625
1782952699281861600,1.717861572265625,-0.996734619140625,-0.0329742431640625,0.0035552978515625
1782952699291788500,1.72778857421875,-0.9984588623046875,-0.030426025390625,0.004974365234375
1782952699301715700,1.7377158203125,-0.99859619140625,-0.028045654296875,0.006683349609375
1782952699311643600,1.7476435546875,-0.996551513671875,-0.0273284912109375,0.008209228515625
1782952699321570600,1.757570556640625,-0.99578857421875,-0.0269622802734375,0.007415771484375
1782952699331498500,1.76749853515625,-0.9974517822265625,-0.0289764404296875,0.0067596435546875
1782952699341425400,1.77742529296875,-0.9974517822265625,-0.02996826171875,0.005889892578125
1782952699351353600,1.787353515625,-0.997161865234375,-0.031768798828125,0.003936767578125
1782952699361280500,1.797280517578125,-0.996856689453125,-0.03155517578125,0.0052032470703125
1782952699371208400,1.80720849609375,-0.9987640380859375,-0.0311279296875,0.0053253173828125
1782952699381135400,1.81713525390625,-0.99627685546875,-0.0285186767578125,0.005889892578125
1782952699391063600,1.8270634765625,-0.9976806640625,-0.026885986328125,0.007415771484375
1782952699400990500,1.836990478515625,-0.99688720703125,-0.028106689453125,0.0080718994140625
1782952699410917600,1.846917724609375,-0.99700927734375,-0.0294189453125,0.0076904296875
1782952699420845600,1.856845458984375,-0.9986572265625,-0.0289459228515625,0.0064849853515625
1782952699430772500,1.8667724609375,-0.998077392578125,-0.0324554443359375,0.0045623779296875
1782952699440700400,1.876700439453125,-0.9970245361328125,-0.031524658203125,0.006072998046875
1782952699450627600,1.886627685546875,-0.9964141845703125,-0.0306243896484375,0.006256103515625
1782952699460555500,1.896555419921875,-0.9976806640625,-0.0298309326171875,0.0057830810546875
1782952699470482700,1.906482666015625,-0.9974517822265625,-0.0275115966796875,0.007354736328125
1782952699480410600,1.91641064453125,-0.996917724609375,-0.027099609375,0.0077972412109375
1782952699490337500,1.926337646484375,-0.997802734375,-0.0286407470703125,0.006988525390625
1782952699500265500,1.936265380859375,-0.9976959228515625,-0.02935791015625,0.0066070556640625
1782952699510192600,1.946192626953125,-0.9975433349609375,-0.0308074951171875,0.0060577392578125
1782952699520119600,1.95611962890625,-0.996612548828125,-0.0308380126953125,0.0060577392578125
1782952699530047500,1.966047607421875,-0.9970245361328125,-0.0310821533203125,0.00616455078125
1782952699539974400,1.975974365234375,-0.9970245361328125,-0.02996826171875,0.0059661865234375
1782952699549902300,1.98590234375,-0.996490478515625,-0.0283203125,0.0064697265625
1782952699559829500,1.99582958984375,-0.9979705810546875,-0.0270233154296875,0.007415771484375
1782952699569757400,2.00575732421875,-0.99652099609375,-0.02862548828125,0.0072479248046875
1782952699579684600,2.0156845703125,-0.9959716796875,-0.0285491943359375,0.006317138671875
1782952699589612500,2.025612548828125,-0.9967498779296875,-0.029998779296875,0.007720947265625
1782952699599539500,2.03553955078125,-0.9974517822265625,-0.0324554443359375,0.0052947998046875
1782952699609466600,2.045466552734375,-0.997802734375,-0.030670166015625,0.00701904296875
1782952699619394600,2.05539453125,-0.9984588623046875,-0.0290679931640625,0.006317138671875
1782952699629321500,2.065321533203125,-0.998687744140625,-0.027587890625,0.00634765625
1782952699639249700,2.075249755859375,-0.996246337890625,-0.029144287109375,0.0081787109375
1782952699649176600,2.085176513671875,-0.997894287109375,-0.02947998046875,0.00732421875
1782952699659104500,2.0951044921875,-0.998504638671875,-0.030059814453125,0.0060577392578125
1782952699669031700,2.10503173828125,-0.9982452392578125,-0.0308380126953125,0.00579833984375
1782952699678959600,2.114959716796875,-0.9990997314453125,-0.0300445556640625,0.00592041015625
1782952699688886500,2.124886474609375,-0.9962158203125,-0.029876708984375,0.0064239501953125
1782952699698814700,2.134814697265625,-0.9976806640625,-0.0300445556640625,0.0058746337890625
1782952699708741400,2.144741455078125,-0.9974365234375,-0.027923583984375,0.0086822509765625
1782952699718668500,2.15466845703125,-0.99652099609375,-0.02862548828125,0.007781982421875
1782952699728596500,2.164596435546875,-0.9978179931640625,-0.029144287109375,0.0069580078125
1782952699738523400,2.1745234375,-0.9950408935546875,-0.0298004150390625,0.005950927734375
1782952699748451600,2.18445166015625,-0.9959716796875,-0.02996826171875,0.0060272216796875
1782952699758378500,2.19437841796875,-0.9984588623046875,-0.0297393798828125,0.00689697265625
1782952699768306400,2.204306396484375,-0.9973297119140625,-0.030731201171875,0.0070648193359375
1782952699778233600,2.214233642578125,-0.9969329833984375,-0.030914306640625,0.00677490234375
1782952699788161500,2.22416162109375,-0.9960784912109375,-0.028594970703125,0.008270263671875
1782952699798088400,2.23408837890625,-0.997955322265625,-0.0285491943359375,0.007720947265625
1782952699808016600,2.2440166015625,-0.9973907470703125,-0.02862548828125,0.0067901611328125
1782952699817943600,2.253943603515625,-0.99835205078125,-0.0289154052734375,0.0061798095703125
1782952699827870700,2.26387060546875,-0.9983673095703125,-0.03021240234375,0.0057373046875
1782952699837798700,2.273798583984375,-0.9983062744140625,-0.0302581787109375,0.0061492919921875
1782952699847725600,2.2837255859375,-0.9972381591796875,-0.02947998046875,0.0046844482421875
1782952699857653500,2.293653564453125,-0.9959869384765625,-0.02850341796875,0.00616455078125
1782952699867580700,2.30358056640625,-0.996826171875,-0.0277862548828125,0.0075836181640625
1782952699877508600,2.313508544921875,-0.996734619140625,-0.028411865234375,0.006195068359375
1782952699887435500,2.323435546875,-0.998138427734375,-0.0284271240234375,0.005157470703125
1782952699897363500,2.333363525390625,-0.9970550537109375,-0.0295257568359375,0.006744384765625
1782952699907290400,2.343290283203125,-0.9969024658203125,-0.0298614501953125,0.0056610107421875
1782952699917218600,2.353218505859375,-0.99786376953125,-0.0289459228515625,0.0054931640625
1782952699927145500,2.3631455078125,-0.998321533203125,-0.0284576416015625,0.0054931640625
1782952699937072600,2.37307275390625,-0.996826171875,-0.0288238525390625,0.0064239501953125
1782952699947000600,2.38300048828125,-0.9974822998046875,-0.0300750732421875,0.0098114013671875
1782952699956927500,2.392927490234375,-0.9989776611328125,-0.0292510986328125,0.007965087890625
1782952699966855400,2.40285546875,-0.997344970703125,-0.0286102294921875,0.005462646484375
1782952699976782600,2.412782470703125,-0.997772216796875,-0.029998779296875,0.0054931640625
1782952699986710500,2.42271044921875,-0.9976348876953125,-0.02972412109375,0.005950927734375
1782952699996637700,2.4326376953125,-0.9977569580078125,-0.0297088623046875,0.0064849853515625
1782952700006565600,2.442565673828125,-0.9977264404296875,-0.0294189453125,0.0057220458984375
1782952700016492500,2.452492431640625,-0.99725341796875,-0.0289306640625,0.007080078125
1782952700026420500,2.46242041015625,-0.9969940185546875,-0.0287017822265625,0.00604248046875
1782952700036347600,2.47234765625,-0.9975128173828125,-0.0292205810546875,0.0074310302734375
1782952700046274300,2.4822744140625,-0.9969940185546875,-0.0298919677734375,0.00628662109375
1782952700056202800,2.49220263671875,-0.9977874755859375,-0.030731201171875,0.00592041015625
1782952700066129400,2.50212939453125,-0.9987640380859375,-0.030059814453125,0.005462646484375
1782952700076057300,2.512057373046875,-0.9969940185546875,-0.028717041015625,0.006317138671875
1782952700085984500,2.521984619140625,-0.9988250732421875,-0.0297698974609375,0.006072998046875
1782952700095912400,2.531912353515625,-0.9974212646484375,-0.0292205810546875,0.0065765380859375
1782952700105839600,2.541839599609375,-0.9981689453125,-0.029022216796875,0.007080078125
1782952700115766800,2.551766845703125,-0.99664306640625,-0.0303802490234375,0.0067138671875
1782952700125693700,2.561693603515625,-0.9971160888671875,-0.02984619140625,0.0068206787109375
1782952700135620900,2.571620849609375,-0.997833251953125,-0.030731201171875,0.007293701171875
1782952700145548800,2.581548828125,-0.998046875,-0.0300140380859375,0.00640869140625
1782952700155476000,2.59147607421875,-0.997100830078125,-0.028717041015625,0.007232666015625
1782952700165404000,2.60140380859375,-0.9983062744140625,-0.0286712646484375,0.0056304931640625
1782952700175330800,2.611330810546875,-0.9969635009765625,-0.0290679931640625,0.0059814453125
1782952700185258800,2.6212587890625,-0.9972076416015625,-0.029205322265625,0.005615234375
1782952700195186000,2.63118603515625,-0.997406005859375,-0.0302581787109375,0.006378173828125
1782952700205113900,2.64111376953125,-0.9979705810546875,-0.0305938720703125,0.0059051513671875
1782952700215040800,2.651040771484375,-0.9969940185546875,-0.030731201171875,0.005462646484375
1782952700224968700,2.66096875,-0.99652099609375,-0.0307769775390625,0.0064239501953125
1782952700234895600,2.6708955078125,-0.997100830078125,-0.0291748046875,0.00616455078125
1782952700244822800,2.68082275390625,-0.9971771240234375,-0.028656005859375,0.0065155029296875
1782952700254750700,2.690750732421875,-0.9964752197265625,-0.0281982421875,0.00628662109375
1782952700264678000,2.700677978515625,-0.99725341796875,-0.0289764404296875,0.0066680908203125
1782952700274605800,2.710605712890625,-0.997222900390625,-0.0284271240234375,0.0060577392578125
1782952700284532700,2.72053271484375,-0.99822998046875,-0.0288848876953125,0.005218505859375
1782952700294460700,2.730460693359375,-0.99700927734375,-0.0293426513671875,0.007171630859375
1782952700304387800,2.740387939453125,-0.9972686767578125,-0.029052734375,0.005340576171875
1782952700314315800,2.750315673828125,-0.99786376953125,-0.02960205078125,0.007965087890625
1782952700324243000,2.760242919921875,-0.9970245361328125,-0.0294036865234375,0.00775146484375
1782952700334169900,2.770169921875,-0.9981231689453125,-0.0286865234375,0.0058746337890625
1782952700344097800,2.780097900390625,-0.99755859375,-0.03094482421875,0.0069122314453125
1782952700354025000,2.79002490234375,-0.9979095458984375,-0.0307159423828125,0.0060577392578125
1782952700363953000,2.799952880859375,-0.998565673828125,-0.0305633544921875,0.005828857421875
1782952700373879600,2.809879638671875,-0.9982757568359375,-0.03033447265625,0.007965087890625
1782952700383808000,2.81980810546875,-0.99725341796875,-0.0291290283203125,0.0068206787109375
1782952700393734700,2.829734619140625,-0.99810791015625,-0.0280914306640625,0.0075225830078125
1782952700403662600,2.83966259765625,-0.9972076416015625,-0.0291595458984375,0.0070037841796875
1782952700413589800,2.84958984375,-0.998870849609375,-0.029693603515625,0.0071868896484375
1782952700423517700,2.859517578125,-0.9970550537109375,-0.029571533203125,0.007476806640625
1782952700433444900,2.86944482421875,-0.9963836669921875,-0.03021240234375,0.00714111328125
1782952700443371800,2.879371826171875,-0.9968109130859375,-0.0311126708984375,0.007110595703125
1782952700453299700,2.8892998046875,-0.9976654052734375,-0.031219482421875,0.0042572021484375
1782952700463227000,2.899226806640625,-0.9969635009765625,-0.0293731689453125,0.005767822265625
1782952700473154800,2.90915478515625,-0.996551513671875,-0.028228759765625,0.007110595703125
1782952700483081700,2.919081787109375,-0.9971771240234375,-0.0292816162109375,0.00927734375
1782952700493010000,2.929010009765625,-0.9974517822265625,-0.0306243896484375,0.0069427490234375
1782952700502936800,2.938936767578125,-0.99725341796875,-0.0318756103515625,0.0055999755859375
1782952700512864800,2.94886474609375,-0.9979705810546875,-0.03118896484375,0.00579833984375
1782952700522792000,2.9587919921875,-0.9980926513671875,-0.0291290283203125,0.00592041015625
1782952700532719900,2.968719970703125,-0.9973602294921875,-0.0295257568359375,0.0065460205078125
1782952700542646800,2.978646728515625,-0.99609375,-0.0301666259765625,0.0062408447265625
1782952700552573700,2.98857373046875,-0.99700927734375,-0.028961181640625,0.006134033203125
1782952700562501600,2.998501708984375,-0.99676513671875,-0.0294342041015625,0.0068511962890625
1782952700572428800,3.0084287109375,-0.9964599609375,-0.0296783447265625,0.0062103271484375
1782952700582356700,3.018356689453125,-0.997772216796875,-0.0299224853515625,0.0060882568359375
1782952700592283600,3.02828369140625,-0.997772216796875,-0.0303192138671875,0.0060577392578125
1782952700602211800,3.0382119140625,-0.9967041015625,-0.0302734375,0.0059661865234375
1782952700612138800,3.048138671875,-0.9972381591796875,-0.029876708984375,0.0065155029296875
1782952700622066700,3.058066650390625,-0.9983062744140625,-0.029815673828125,0.0074920654296875
1782952700631993900,3.067993896484375,-0.9984283447265625,-0.0296783447265625,0.007781982421875
1782952700641920800,3.077920654296875,-0.996490478515625,-0.029815673828125,0.006103515625
1782952700651848700,3.0878486328125,-0.9975128173828125,-0.02899169921875,0.0066070556640625
1782952700661776000,3.09777587890625,-0.9970855712890625,-0.0285491943359375,0.00616455078125
1782952700671703800,3.107703857421875,-0.997283935546875,-0.0300140380859375,0.005096435546875
1782952700681631000,3.117630859375,-0.997344970703125,-0.0309906005859375,0.0064849853515625
1782952700691559000,3.127558837890625,-0.9973907470703125,-0.0287322998046875,0.0082244873046875
1782952700701485800,3.13748583984375,-0.9967498779296875,-0.030303955078125,0.006927490234375
1782952700711413800,3.147413818359375,-0.9959259033203125,-0.029449462890625,0.00665283203125
1782952700721341000,3.1573408203125,-0.996978759765625,-0.0292205810546875,0.006500244140625
1782952700731268900,3.167268798828125,-0.99700927734375,-0.0300140380859375,0.0069122314453125
1782952700741195800,3.17719580078125,-0.996124267578125,-0.0295562744140625,0.0070037841796875
1782952700751122700,3.187122802734375,-0.99700927734375,-0.02978515625,0.0073089599609375
1782952700761050600,3.197050537109375,-0.9969482421875,-0.0283966064453125,0.006591796875
1782952700770977800,3.206977783203125,-0.998138427734375,-0.0317535400390625,0.006805419921875
1782952700780905700,3.21690576171875,-0.99774169921875,-0.028839111328125,0.006439208984375
1782952700790832600,3.22683251953125,-0.9969329833984375,-0.029510498046875,0.0070648193359375
1782952700800760800,3.2367607421875,-0.9969482421875,-0.0292816162109375,0.0066680908203125
1782952700810687700,3.246687744140625,-0.997222900390625,-0.028350830078125,0.005859375
1782952700820615700,3.25661572265625,-0.99749755859375,-0.029296875,0.0076751708984375
1782952700830542800,3.26654296875,-0.9961700439453125,-0.029541015625,0.005859375
1782952700840469800,3.2764697265625,-0.997161865234375,-0.030059814453125,0.005584716796875
1782952700850398000,3.28639794921875,-0.9983978271484375,-0.0281219482421875,0.0059356689453125
1782952700860324900,3.296324951171875,-0.99761962890625,-0.0287322998046875,0.0084075927734375
1782952700870252800,3.306252685546875,-0.996337890625,-0.0298614501953125,0.0074615478515625
1782952700880180000,3.316179931640625,-0.99627685546875,-0.0293121337890625,0.0055999755859375
1782952700890108000,3.32610791015625,-0.9983978271484375,-0.0306549072265625,0.0060272216796875
1782952700900034800,3.336034912109375,-0.9978485107421875,-0.0309906005859375,0.00653076171875
1782952700909963000,3.345962890625,-0.9971466064453125,-0.0287933349609375,0.0064239501953125
1782952700919889700,3.3558896484375,-0.9966583251953125,-0.029876708984375,0.0074920654296875
1782952700929817600,3.365817626953125,-0.997955322265625,-0.028533935546875,0.0072784423828125
1782952700939744800,3.375744873046875,-0.9971923828125,-0.02862548828125,0.0074462890625
1782952700949671700,3.385671630859375,-0.997283935546875,-0.0290069580078125,0.00701904296875
1782952700959599600,3.395599609375,-0.9992523193359375,-0.029693603515625,0.0057373046875
1782952700969526800,3.40552685546875,-0.9993743896484375,-0.0296783447265625,0.0070648193359375
1782952700979454700,3.415454833984375,-0.9970245361328125,-0.030609130859375,0.0055999755859375
1782952700989382000,3.4253818359375,-0.9983673095703125,-0.02978515625,0.0064544677734375
1782952700999309800,3.435309814453125,-0.99774169921875,-0.0297393798828125,0.0061187744140625
1782952701009236700,3.44523681640625,-0.9978485107421875,-0.0290069580078125,0.0078887939453125
1782952701019165000,3.4551650390625,-0.9991912841796875,-0.0302581787109375,0.006561279296875
1782952701029091800,3.465091796875,-0.9984283447265625,-0.0294036865234375,0.00665283203125
1782952701039018800,3.475018798828125,-0.9970550537109375,-0.029541015625,0.0060577392578125
1782952701048947000,3.484947021484375,-0.9983367919921875,-0.0292205810546875,0.00482177734375
1782952701058873900,3.494873779296875,-0.9970703125,-0.0296630859375,0.005584716796875
1782952701068801800,3.5048017578125,-0.998321533203125,-0.0281982421875,0.00665283203125
1782952701078728700,3.514728759765625,-0.9982452392578125,-0.0293121337890625,0.006195068359375
1782952701088657000,3.524656982421875,-0.9969482421875,-0.031524658203125,0.005340576171875
1782952701098583800,3.534583740234375,-0.99664306640625,-0.029144287109375,0.007049560546875
1782952701108511700,3.54451171875,-0.998748779296875,-0.030029296875,0.006683349609375
1782952701118438700,3.554438720703125,-0.998809814453125,-0.029632568359375,0.0064239501953125
1782952701128366600,3.56436669921875,-0.997955322265625,-0.0296173095703125,0.0064544677734375
1782952701138293800,3.574293701171875,-0.9969635009765625,-0.0286712646484375,0.0067901611328125
1782952701148220700,3.584220703125,-0.9982757568359375,-0.030181884765625,0.0059967041015625
1782952701158148900,3.59414892578125,-0.9974517822265625,-0.02862548828125,0.0067138671875
1782952701168075800,3.60407568359375,-0.9961700439453125,-0.029876708984375,0.0049285888671875
1782952701178003700,3.614003662109375,-0.9965057373046875,-0.0298919677734375,0.005706787109375
1782952701187931000,3.623930908203125,-0.9971160888671875,-0.0296783447265625,0.005157470703125
1782952701197858800,3.63385888671875,-0.99755859375,-0.0292205810546875,0.0053863525390625
1782952701207785700,3.64378564453125,-0.998077392578125,-0.0295257568359375,0.00714111328125
1782952701217714000,3.6537138671875,-0.997589111328125,-0.02923583984375,0.008697509765625
1782952701227640800,3.663640869140625,-0.9976959228515625,-0.0312347412109375,0.0061798095703125
1782952701237568000,3.673568115234375,-0.9975128173828125,-0.0300140380859375,0.0057220458984375
1782952701247496000,3.683495849609375,-0.9986419677734375,-0.0290679931640625,0.008514404296875
1782952701257422800,3.6934228515625,-0.9967041015625,-0.028167724609375,0.0075225830078125
1782952701267351000,3.70335107421875,-0.9966888427734375,-0.028350830078125,0.005767822265625
1782952701277277700,3.713277587890625,-0.998291015625,-0.029205322265625,0.0057373046875
1782952701287206000,3.723205810546875,-0.9980010986328125,-0.0290985107421875,0.00567626953125
1782952701297132800,3.7331328125,-0.9975738525390625,-0.029541015625,0.0068359375
1782952701307060700,3.743060791015625,-0.997802734375,-0.0293121337890625,0.0069580078125
1782952701316987600,3.752987548828125,-0.9961395263671875,-0.0304107666015625,0.0074920654296875
1782952701326915800,3.762915771484375,-0.9957427978515625,-0.029449462890625,0.005859375
1782952701336842800,3.7728427734375,-0.99713134765625,-0.028411865234375,0.0079193115234375
1782952701346770000,3.78277001953125,-0.99688720703125,-0.0289764404296875,0.004425048828125
1782952701356697900,3.79269775390625,-0.997314453125,-0.02935791015625,0.0059967041015625
1782952701366624800,3.802624755859375,-0.99462890625,-0.0291748046875,0.0063629150390625
1782952701376552700,3.812552734375,-0.9986114501953125,-0.0298614501953125,0.00665283203125
1782952701386479900,3.82247998046875,-0.9983062744140625,-0.0296783447265625,0.00579833984375
1782952701396407800,3.83240771484375,-0.9983062744140625,-0.0295867919921875,0.006195068359375
1782952701406335000,3.8423349609375,-0.9977569580078125,-0.0307159423828125,0.0069580078125
1782952701416263000,3.852262939453125,-0.998870849609375,-0.0287017822265625,0.0054931640625
1782952701426189800,3.86218994140625,-0.9979400634765625,-0.0290985107421875,0.0049285888671875
1782952701436117000,3.872116943359375,-0.9980926513671875,-0.029296875,0.0061798095703125
1782952701446045000,3.882044921875,-0.998077392578125,-0.0301666259765625,0.00567626953125
1782952701455971800,3.891971923828125,-0.99658203125,-0.030120849609375,0.0071868896484375
1782952701465900000,3.901900146484375,-0.9969024658203125,-0.0304718017578125,0.0065155029296875
1782952701475826700,3.91182666015625,-0.9969635009765625,-0.029693603515625,0.00543212890625
1782952701485754600,3.921754638671875,-0.9968719482421875,-0.0289764404296875,0.0070648193359375
1782952701495681800,3.931681884765625,-0.996826171875,-0.0284881591796875,0.0055084228515625
1782952701505609700,3.941609619140625,-0.99481201171875,-0.030670166015625,0.00689697265625
1782952701515537000,3.951536865234375,-0.9962005615234375,-0.030609130859375,0.0057525634765625
1782952701525463800,3.9614638671875,-0.9976654052734375,-0.02813720703125,0.005340576171875
1782952701535391700,3.971391845703125,-0.997161865234375,-0.0276947021484375,0.006500244140625
1782952701545319000,3.98131884765625,-0.99639892578125,-0.0286407470703125,0.00579833984375
1782952701555246800,3.991246826171875,-0.9987335205078125,-0.0285186767578125,0.0073394775390625
1782952701565173800,4.001173828125,-0.9979705810546875,-0.0281524658203125,0.0074310302734375
1782952701575102000,4.01110205078125,-0.997314453125,-0.0306549072265625,0.0048828125
1782952701585028900,4.02102880859375,-0.9981231689453125,-0.03094482421875,0.00579833984375
1782952701594956800,4.030956787109375,-0.998077392578125,-0.02880859375,0.0066680908203125
1782952701604884000,4.040884033203125,-0.996826171875,-0.02984619140625,0.0068359375
1782952701614812000,4.05081201171875,-0.9962005615234375,-0.0296630859375,0.006011962890625
1782952701624738800,4.06073876953125,-0.9969482421875,-0.0294647216796875,0.00555419921875
1782952701634665700,4.070665771484375,-0.9979248046875,-0.0299072265625,0.0063323974609375
1782952701644593700,4.08059375,-0.9968414306640625,-0.029541015625,0.008026123046875
1782952701654520800,4.090520751953125,-0.9975738525390625,-0.02899169921875,0.0057373046875
1782952701664448800,4.10044873046875,-0.9979248046875,-0.0304412841796875,0.0054779052734375
1782952701674375700,4.110375732421875,-0.9983367919921875,-0.02984619140625,0.0072021484375
1782952701684304000,4.120303955078125,-0.9984130859375,-0.0301971435546875,0.0077972412109375
1782952701694230800,4.130230712890625,-0.996795654296875,-0.029754638671875,0.005859375
1782952701704158700,4.14015869140625,-0.9983367919921875,-0.02972412109375,0.0067291259765625
1782952701714086000,4.1500859375,-0.9980621337890625,-0.0300445556640625,0.0067138671875
1782952701724012800,4.1600126953125,-0.9977569580078125,-0.030029296875,0.0072021484375
1782952701733940700,4.169940673828125,-0.9989776611328125,-0.030029296875,0.0083160400390625
1782952701743868000,4.179867919921875,-0.9971923828125,-0.029876708984375,0.00494384765625
1782952701753795800,4.1897958984375,-0.99700927734375,-0.0306396484375,0.0056610107421875
1782952701763723000,4.199722900390625,-0.997314453125,-0.0279998779296875,0.007568359375
1782952701773651000,4.20965087890625,-0.99835205078125,-0.0306243896484375,0.007171630859375
1782952701783577900,4.219577880859375,-0.9978485107421875,-0.029815673828125,0.0063934326171875
1782952701793505800,4.229505859375,-0.9970703125,-0.028564453125,0.0068359375
1782952701803433000,4.239432861328125,-0.9963531494140625,-0.0291748046875,0.007080078125
1782952701813359600,4.249359619140625,-0.9973907470703125,-0.0297088623046875,0.006378173828125
1782952701823287800,4.259287841796875,-0.9974365234375,-0.0304412841796875,0.004913330078125
1782952701833214700,4.269214599609375,-0.99737548828125,-0.029632568359375,0.00555419921875
1782952701843142700,4.279142578125,-0.9971160888671875,-0.030029296875,0.0055084228515625
1782952701853069800,4.28906982421875,-0.997650146484375,-0.0281524658203125,0.0054779052734375
1782952701862997800,4.298997802734375,-0.99676513671875,-0.0290679931640625,0.0047149658203125
1782952701872925000,4.308925048828125,-0.997772216796875,-0.029327392578125,0.006988525390625
1782952701882852900,4.318852783203125,-0.99658203125,-0.03057861328125,0.00665283203125
1782952701892779800,4.32877978515625,-0.9982452392578125,-0.029632568359375,0.0061187744140625
1782952701902707700,4.338707763671875,-0.9982757568359375,-0.030242919921875,0.0061798095703125
1782952701912635000,4.348634765625,-0.996978759765625,-0.0311737060546875,0.0070953369140625
1782952701922561800,4.358561767578125,-0.9974365234375,-0.029754638671875,0.007354736328125
1782952701932490000,4.368489990234375,-0.9971160888671875,-0.030181884765625,0.0059661865234375
1782952701942417000,4.3784169921875,-0.9980621337890625,-0.0290679931640625,0.0053253173828125
1782952701952344800,4.3883447265625,-0.9969024658203125,-0.0296630859375,0.008636474609375
1782952701962272000,4.39827197265625,-0.996551513671875,-0.029296875,0.0066986083984375
1782952701972200000,4.408199951171875,-0.99798583984375,-0.030029296875,0.0065765380859375
1782952701982126600,4.418126708984375,-0.9972076416015625,-0.0303955078125,0.0061492919921875
1782952701992055000,4.428054931640625,-0.9979248046875,-0.02880859375,0.0058135986328125
1782952702001981700,4.437981689453125,-0.9974365234375,-0.03033447265625,0.005950927734375
1782952702011908900,4.447908935546875,-0.996978759765625,-0.02923583984375,0.0072174072265625
1782952702021836800,4.4578369140625,-0.9971923828125,-0.0289459228515625,0.006439208984375
1782952702031763700,4.467763671875,-0.998382568359375,-0.02947998046875,0.0067901611328125
1782952702041692000,4.47769189453125,-0.9968719482421875,-0.0288848876953125,0.0077362060546875
1782952702051618800,4.487618896484375,-0.997283935546875,-0.029388427734375,0.0074005126953125
1782952702061546800,4.497546630859375,-0.9959716796875,-0.029754638671875,0.0064239501953125
1782952702071474000,4.507473876953125,-0.998748779296875,-0.0294952392578125,0.0049285888671875
1782952702081401900,4.51740185546875,-0.996551513671875,-0.02960205078125,0.0064544677734375
1782952702091328800,4.527328857421875,-0.996856689453125,-0.0299072265625,0.0056304931640625
1782952702101257000,4.537257080078125,-0.9974822998046875,-0.0294952392578125,0.006622314453125
1782952702111184000,4.547183837890625,-0.9989013671875,-0.0285491943359375,0.0056915283203125
1782952702121111300,4.557111328125,-0.998138427734375,-0.0294189453125,0.007049560546875
1782952702131039500,4.56703955078125,-0.997894287109375,-0.0301666259765625,0.007720947265625
1782952702140966400,4.57696630859375,-0.9964447021484375,-0.028839111328125,0.0070343017578125
1782952702150894300,4.586894287109375,-0.99761962890625,-0.029693603515625,0.0050811767578125
1782952702160821500,4.596821533203125,-0.996368408203125,-0.0286407470703125,0.0067291259765625
1782952702170749400,4.60674951171875,-0.995635986328125,-0.02972412109375,0.0069580078125
1782952702180676400,4.61667626953125,-0.9978179931640625,-0.029388427734375,0.00738525390625
1782952702190604500,4.6266044921875,-0.9981689453125,-0.0289154052734375,0.007080078125
1782952702200531500,4.636531494140625,-0.9978179931640625,-0.02960205078125,0.005859375
1782952702210458600,4.646458740234375,-0.9980621337890625,-0.0284881591796875,0.0055389404296875
1782952702220386600,4.656386474609375,-0.996185302734375,-0.0295257568359375,0.0072479248046875
1782952702230313500,4.6663134765625,-0.9967041015625,-0.02911376953125,0.0075225830078125
1782952702240241400,4.676241455078125,-0.9980621337890625,-0.0292205810546875,0.006866455078125
1782952702250168600,4.68616845703125,-0.99755859375,-0.0299224853515625,0.00628662109375
1782952702260096500,4.696096435546875,-0.9972381591796875,-0.0297393798828125,0.005706787109375
1782952702270023400,4.7060234375,-0.9982147216796875,-0.0284881591796875,0.0070648193359375
1782952702279951400,4.715951416015625,-0.998748779296875,-0.02880859375,0.006683349609375
1782952702289878300,4.725878173828125,-0.9976654052734375,-0.02923583984375,0.006378173828125
1782952702299805400,4.735805419921875,-0.9967041015625,-0.031402587890625,0.0069732666015625
1782952702309733400,4.7457333984375,-0.9960174560546875,-0.0288543701171875,0.005767822265625
1782952702319660500,4.75566064453125,-0.9970245361328125,-0.0298004150390625,0.0065460205078125
1782952702329588500,4.76558837890625,-0.997222900390625,-0.03070068359375,0.0064239501953125
1782952702339515400,4.775515380859375,-0.99639892578125,-0.0311737060546875,0.00616455078125
1782952702349443300,4.785443359375,-0.9969940185546875,-0.0291290283203125,0.0059051513671875
1782952702359370500,4.79537060546875,-0.9972076416015625,-0.0296783447265625,0.006591796875
1782952702369298400,4.80529833984375,-0.9976959228515625,-0.02850341796875,0.0064544677734375
1782952702379225600,4.8152255859375,-0.998138427734375,-0.028045654296875,0.007476806640625
1782952702389153500,4.825153564453125,-0.9989166259765625,-0.0294952392578125,0.0071258544921875
1782952702399080400,4.83508056640625,-0.998016357421875,-0.0296173095703125,0.0054473876953125
1782952702409007600,4.845007568359375,-0.9974212646484375,-0.0289764404296875,0.0064849853515625
1782952702418935600,4.854935546875,-0.9967041015625,-0.029266357421875,0.005126953125
1782952702428862200,4.8648623046875,-0.9982147216796875,-0.02947998046875,0.006072998046875
1782952702438790700,4.874790771484375,-0.99688720703125,-0.0299072265625,0.0072479248046875
1782952702448717300,4.88471728515625,-0.997161865234375,-0.0309906005859375,0.0057220458984375
1782952702458645200,4.894645263671875,-0.997467041015625,-0.03009033203125,0.0051422119140625
1782952702468572400,4.904572509765625,-0.9971160888671875,-0.029571533203125,0.005950927734375
1782952702478500400,4.914500244140625,-0.996826171875,-0.0294952392578125,0.0058746337890625
1782952702488427500,4.924427490234375,-0.99755859375,-0.02996826171875,0.007568359375
1782952702498354400,4.9343544921875,-0.998931884765625,-0.03045654296875,0.00579833984375
1782952702508282400,4.944282470703125,-0.9974365234375,-0.029541015625,0.0063629150390625
1782952702518209500,4.95420947265625,-0.9966583251953125,-0.0298614501953125,0.0073089599609375
1782952702528137500,4.964137451171875,-0.99755859375,-0.031005859375,0.006805419921875
1782952702538064400,4.974064453125,-0.9983367919921875,-0.02978515625,0.0052032470703125
1782952702547992600,4.98399267578125,-0.999267578125,-0.028839111328125,0.0057525634765625
1782952702557919500,4.99391943359375,-0.9972991943359375,-0.0276947021484375,0.0060882568359375
1782952702567847400,5.003847412109375,-0.996368408203125,-0.02838134765625,0.0078277587890625
1782952702577774600,5.013774658203125,-0.997161865234375,-0.030120849609375,0.0081787109375
1782952702587701500,5.023701416015625,-0.9970855712890625,-0.027435302734375,0.0078582763671875
1782952702597629400,5.03362939453125,-0.9981231689453125,-0.02880859375,0.0060272216796875
1782952702607556400,5.043556396484375,-0.9968109130859375,-0.03021240234375,0.006500244140625
1782952702617484500,5.053484619140625,-0.99713134765625,-0.0291290283203125,0.007904052734375
1782952702627411500,5.063411376953125,-0.99786376953125,-0.0287933349609375,0.00665283203125
1782952702637339400,5.07333935546875,-0.99755859375,-0.0301666259765625,0.0066986083984375
1782952702647266300,5.083266357421875,-0.9972076416015625,-0.0292205810546875,0.0070343017578125
1782952702657194500,5.093194580078125,-0.9971771240234375,-0.0298004150390625,0.007781982421875
1782952702667121400,5.103121337890625,-0.99786376953125,-0.0281982421875,0.0066375732421875
1782952702677048300,5.11304833984375,-0.997161865234375,-0.0293426513671875,0.0051727294921875
1782952702686976500,5.1229765625,-0.99774169921875,-0.0291290283203125,0.0066986083984375
1782952702696903400,5.1329033203125,-0.9969024658203125,-0.029205322265625,0.0074462890625
1782952702706831400,5.142831298828125,-0.9985198974609375,-0.0302734375,0.0081939697265625
1782952702716758500,5.152758544921875,-0.9967041015625,-0.029815673828125,0.0058441162109375
1782952702726686500,5.1626865234375,-0.99658203125,-0.029449462890625,0.00677490234375
1782952702736613600,5.172613525390625,-0.99627685546875,-0.0292510986328125,0.0071868896484375
1782952702746541600,5.18254150390625,-0.9962310791015625,-0.0304718017578125,0.006805419921875
1782952702756468500,5.192468505859375,-0.996978759765625,-0.030029296875,0.006683349609375
1782952702766395600,5.202395751953125,-0.99652099609375,-0.029205322265625,0.007049560546875
1782952702776323600,5.212323486328125,-0.9987030029296875,-0.029327392578125,0.00665283203125
1782952702786250200,5.222250244140625,-0.9986419677734375,-0.0295257568359375,0.00518798828125
1782952702796178400,5.232178466796875,-0.9977264404296875,-0.02911376953125,0.0060882568359375
1782952702806105300,5.242105224609375,-0.998870849609375,-0.03009033203125,0.0057525634765625
1782952702816033300,5.252033203125,-0.9970245361328125,-0.02984619140625,0.0048980712890625
1782952702825960400,5.26196044921875,-0.9979705810546875,-0.0302276611328125,0.006439208984375
1782952702835888400,5.271888427734375,-0.9961090087890625,-0.030364990234375,0.00653076171875
1782952702845815300,5.281815185546875,-0.99700927734375,-0.0286407470703125,0.0069427490234375
1782952702855743500,5.291743408203125,-0.9976043701171875,-0.0295562744140625,0.0064849853515625
1782952702865670400,5.30167041015625,-0.9964141845703125,-0.0296478271484375,0.0064239501953125
1782952702875597600,5.31159765625,-0.9967193603515625,-0.02960205078125,0.0064544677734375
1782952702885525500,5.321525390625,-0.9971923828125,-0.029144287109375,0.0064544677734375
1782952702895452400,5.331452392578125,-0.99700927734375,-0.0302581787109375,0.0063934326171875
1782952702905380600,5.341380615234375,-0.9973907470703125,-0.03076171875,0.005218505859375
1782952702915307500,5.3513076171875,-0.9965362548828125,-0.0305328369140625,0.0059661865234375
1782952702925235500,5.3612353515625,-0.99786376953125,-0.0300140380859375,0.00592041015625
1782952702935162600,5.37116259765625,-0.996826171875,-0.028900146484375,0.007354736328125
1782952702945090600,5.381090576171875,-0.9967041015625,-0.029052734375,0.0067901611328125
1782952702955017500,5.391017578125,-0.9969482421875,-0.029693603515625,0.005401611328125
1782952702964944400,5.4009443359375,-0.997894287109375,-0.0303497314453125,0.006622314453125
1782952702974872300,5.410872314453125,-0.9981536865234375,-0.028656005859375,0.0072174072265625
1782952702984799500,5.420799560546875,-0.9978790283203125,-0.030303955078125,0.0058746337890625
1782952702994727400,5.4307275390625,-0.9972076416015625,-0.0296783447265625,0.0081634521484375
1782952703004654300,5.440654296875,-0.998443603515625,-0.0301361083984375,0.006927490234375
1782952703014582300,5.450582275390625,-0.997528076171875,-0.029693603515625,0.00714111328125
1782952703024509400,5.460509521484375,-0.9976654052734375,-0.02996826171875,0.0071868896484375
1782952703034437400,5.470437255859375,-0.998260498046875,-0.0298309326171875,0.006103515625
1782952703044364500,5.480364501953125,-0.99725341796875,-0.029510498046875,0.00640869140625
1782952703054291500,5.49029150390625,-0.99755859375,-0.029754638671875,0.00579833984375
1782952703064219400,5.500219482421875,-0.9968719482421875,-0.0308685302734375,0.006439208984375
1782952703074146600,5.510146484375,-0.997161865234375,-0.029296875,0.0066070556640625
1782952703084074500,5.520074462890625,-0.9974212646484375,-0.0298309326171875,0.0077362060546875
1782952703094001400,5.53000146484375,-0.99774169921875,-0.0293731689453125,0.0066986083984375
1782952703103929600,5.5399296875,-0.99664306640625,-0.0285797119140625,0.00592041015625
1782952703113856000,5.54985595703125,-0.9993896484375,-0.029266357421875,0.00555419921875
1782952703123784200,5.5597841796875,-0.996826171875,-0.02813720703125,0.0052642822265625
1782952703133711000,5.569711181640625,-0.996337890625,-0.0284576416015625,0.0066375732421875
1782952703143638000,5.579637939453125,-0.998138427734375,-0.02996826171875,0.0052490234375
1782952703153566200,5.589566162109375,-0.9970245361328125,-0.029266357421875,0.006134033203125
1782952703163493000,5.5994931640625,-0.99700927734375,-0.0291900634765625,0.0059051513671875
1782952703173421000,5.609421142578125,-0.9964599609375,-0.0301666259765625,0.006378173828125
1782952703183348200,5.61934814453125,-0.996490478515625,-0.030059814453125,0.0059661865234375
1782952703193276200,5.629276123046875,-0.99676513671875,-0.0304107666015625,0.0056610107421875
1782952703203203300,5.639203369140625,-0.9970703125,-0.0304412841796875,0.007720947265625
1782952703213131300,5.64913134765625,-0.9987335205078125,-0.02923583984375,0.0077972412109375
1782952703223058200,5.65905810546875,-0.9971160888671875,-0.02960205078125,0.007781982421875
1782952703232986000,5.668986083984375,-0.99786376953125,-0.0294036865234375,0.006500244140625
1782952703242913300,5.678913330078125,-0.998260498046875,-0.0306549072265625,0.0062255859375
1782952703252841200,5.68884130859375,-0.9957275390625,-0.030059814453125,0.0059814453125
1782952703262769200,5.69876904296875,-0.996246337890625,-0.029754638671875,0.0061187744140625
1782952703272696300,5.7086962890625,-0.99774169921875,-0.029541015625,0.004302978515625
1782952703282624300,5.718624267578125,-0.9968414306640625,-0.0286865234375,0.0056915283203125
1782952703292551200,5.72855126953125,-0.99725341796875,-0.0285491943359375,0.0062103271484375
1782952703302479400,5.738479248046875,-0.9984588623046875,-0.0283355712890625,0.0069427490234375
1782952703312406000,5.748406005859375,-0.99774169921875,-0.0289306640625,0.0066070556640625
1782952703322333200,5.758333251953125,-0.9977264404296875,-0.028167724609375,0.0061798095703125
1782952703332261000,5.76826123046875,-0.9970550537109375,-0.02947998046875,0.005126953125
1782952703342188000,5.77818798828125,-0.997161865234375,-0.0301055908203125,0.0065765380859375
1782952703352116200,5.7881162109375,-0.9971466064453125,-0.0286407470703125,0.007110595703125
1782952703362043100,5.798043212890625,-0.996673583984375,-0.02947998046875,0.006103515625
1782952703371971000,5.80797119140625,-0.997039794921875,-0.029815673828125,0.0076141357421875
1782952703381898200,5.817898193359375,-0.996063232421875,-0.030487060546875,0.0078887939453125
1782952703391826200,5.827826171875,-0.9959259033203125,-0.028594970703125,0.0054779052734375
1782952703401753000,5.837753173828125,-0.9979400634765625,-0.030242919921875,0.0058135986328125
1782952703411680300,5.84768017578125,-0.99755859375,-0.0299224853515625,0.00726318359375
1782952703421608200,5.857608154296875,-0.996551513671875,-0.03082275390625,0.006439208984375
1782952703431535400,5.867535400390625,-0.9969940185546875,-0.029754638671875,0.0059814453125
1782952703441463300,5.87746337890625,-0.9955291748046875,-0.02899169921875,0.0064239501953125
1782952703451390200,5.88739013671875,-0.996307373046875,-0.029052734375,0.0064697265625
1782952703461318100,5.897318115234375,-0.9966888427734375,-0.0293121337890625,0.0061492919921875
1782952703471245000,5.9072451171875,-0.9982147216796875,-0.0302886962890625,0.0075531005859375
1782952703481173200,5.91717333984375,-0.9966278076171875,-0.030487060546875,0.0064849853515625
1782952703491100200,5.92710009765625,-0.9966888427734375,-0.03033447265625,0.0060272216796875
1782952703501027000,5.937027099609375,-0.99664306640625,-0.0302886962890625,0.005523681640625
1782952703510955000,5.946955078125,-0.996673583984375,-0.030242919921875,0.005035400390625
1782952703520882200,5.956882080078125,-0.99761962890625,-0.02996826171875,0.0072174072265625
1782952703530810000,5.96681005859375,-0.9975433349609375,-0.0302276611328125,0.005889892578125
1782952703540737300,5.9767373046875,-0.997650146484375,-0.0300140380859375,0.0071868896484375
1782952703550665200,5.986665283203125,-0.9970550537109375,-0.0299835205078125,0.00628662109375
1782952703560592100,5.996592041015625,-0.9963836669921875,-0.031341552734375,0.005767822265625
1782952703570520000,6.00652001953125,-0.9978790283203125,-0.0301361083984375,0.0067596435546875
1782952703580447200,6.016447265625,-0.9983062744140625,-0.02996826171875,0.0061798095703125
1782952703590375200,6.026375244140625,-0.996673583984375,-0.0297393798828125,0.0068817138671875
1782952703600302300,6.03630224609375,-0.9976348876953125,-0.030120849609375,0.006256103515625
1782952703610229200,6.046229248046875,-0.99871826171875,-0.029632568359375,0.006744384765625
1782952703620157200,6.0561572265625,-0.998046875,-0.030242919921875,0.00653076171875
1782952703630084400,6.06608447265625,-0.996734619140625,-0.0300445556640625,0.007293701171875
1782952703640012300,6.07601220703125,-0.9979400634765625,-0.030120849609375,0.0052642822265625
1782952703649939000,6.08593896484375,-0.9972991943359375,-0.030303955078125,0.00567626953125
1782952703659867100,6.0958671875,-0.997589111328125,-0.0286102294921875,0.007354736328125
1782952703669794000,6.1057939453125,-0.9976654052734375,-0.0294952392578125,0.0054931640625
1782952703679722000,6.115721923828125,-0.997650146484375,-0.028839111328125,0.005462646484375
1782952703689649200,6.125649169921875,-0.996429443359375,-0.0303497314453125,0.0048370361328125
1782952703699576000,6.135576171875,-0.9968719482421875,-0.0287628173828125,0.005950927734375
1782952703709504000,6.14550390625,-0.99658203125,-0.0281829833984375,0.0063323974609375
1782952703719431200,6.15543115234375,-0.996490478515625,-0.03057861328125,0.006591796875
1782952703729359000,6.165359130859375,-0.9978790283203125,-0.0288238525390625,0.0067901611328125
1782952703739286300,6.175286376953125,-0.998138427734375,-0.028778076171875,0.0069732666015625
1782952703749214200,6.185214111328125,-0.9961090087890625,-0.03045654296875,0.0062713623046875
1782952703759141000,6.19514111328125,-0.9990692138671875,-0.0298004150390625,0.006317138671875
1782952703769069300,6.2050693359375,-0.998291015625,-0.030731201171875,0.004974365234375
1782952703778996200,6.214996337890625,-0.9977264404296875,-0.0290985107421875,0.006622314453125
1782952703788924200,6.224924072265625,-0.99755859375,-0.03131103515625,0.0074615478515625
1782952703798851300,6.234851318359375,-0.996673583984375,-0.0299072265625,0.00653076171875
1782952703808778000,6.244778076171875,-0.996795654296875,-0.0296630859375,0.0070953369140625
1782952703818706200,6.2547060546875,-0.9969940185546875,-0.0289306640625,0.007171630859375
1782952703828633000,6.264633056640625,-0.9965057373046875,-0.0288543701171875,0.0061187744140625
1782952703838561000,6.27456103515625,-0.9964752197265625,-0.0298614501953125,0.0066375732421875
1782952703848488200,6.28448828125,-0.9976654052734375,-0.0301513671875,0.0061798095703125
1782952703858416000,6.294416015625,-0.9976959228515625,-0.029022216796875,0.0067138671875
1782952703868343000,6.304343017578125,-0.9980010986328125,-0.0297088623046875,0.005828857421875
1782952703878270200,6.314270263671875,-0.9976043701171875,-0.030426025390625,0.0064697265625
1782952703888198100,6.3241982421875,-0.9975738525390625,-0.029998779296875,0.0073699951171875
1782952703898125000,6.334125,-0.9954833984375,-0.029083251953125,0.0063018798828125
1782952703908053200,6.34405322265625,-0.99627685546875,-0.0306549072265625,0.007354736328125
1782952703917980200,6.353980224609375,-0.9962005615234375,-0.030487060546875,0.0057220458984375
1782952703927908000,6.363908203125,-0.9982757568359375,-0.0299224853515625,0.0064239501953125
1782952703937835300,6.373835205078125,-0.9969635009765625,-0.0298919677734375,0.00665283203125
1782952703947763200,6.38376318359375,-0.998504638671875,-0.0301971435546875,0.0050811767578125
1782952703957690000,6.393690185546875,-0.9970550537109375,-0.030609130859375,0.0079803466796875
1782952703967618300,6.403618408203125,-0.9973602294921875,-0.029571533203125,0.0079345703125
1782952703977545200,6.413545166015625,-0.99774169921875,-0.0299530029296875,0.006622314453125
1782952703987472100,6.42347216796875,-0.9984283447265625,-0.028900146484375,0.0068817138671875
1782952703997400000,6.433400146484375,-0.996795654296875,-0.029632568359375,0.0061492919921875
1782952704007327000,6.443326904296875,-0.9978485107421875,-0.029388427734375,0.004150390625
1782952704017255200,6.453255126953125,-0.9978485107421875,-0.029205322265625,0.006011962890625
1782952704027182000,6.46318212890625,-0.99737548828125,-0.03033447265625,0.0072174072265625
1782952704037110000,6.473110107421875,-0.997222900390625,-0.030517578125,0.0079498291015625
1782952704047037200,6.483037109375,-0.996307373046875,-0.029022216796875,0.005615234375
1782952704056965000,6.492965087890625,-0.997161865234375,-0.027587890625,0.005584716796875
1782952704066892000,6.50289208984375,-0.9972381591796875,-0.030609130859375,0.0049896240234375
1782952704076819200,6.512819091796875,-0.9954681396484375,-0.0300750732421875,0.006195068359375
1782952704086747100,6.5227470703125,-0.9972076416015625,-0.02984619140625,0.006500244140625
1782952704096674300,6.53267431640625,-0.9980316162109375,-0.0300140380859375,0.006500244140625
1782952704106602200,6.542602294921875,-0.9968719482421875,-0.0291595458984375,0.0058746337890625
1782952704116529400,6.552529296875,-0.9969635009765625,-0.0291748046875,0.006256103515625
1782952704126457300,6.562457275390625,-0.99853515625,-0.0286712646484375,0.006072998046875
1782952704136384500,6.572384521484375,-0.9987945556640625,-0.0291595458984375,0.0070343017578125
1782952704146311400,6.5823115234375,-0.9984130859375,-0.0286865234375,0.0050048828125
1782952704156239600,6.592239501953125,-0.997283935546875,-0.03033447265625,0.0064239501953125
1782952704166166300,6.602166259765625,-0.997650146484375,-0.0303802490234375,0.0063934326171875
1782952704176094200,6.61209423828125,-0.9985809326171875,-0.03070068359375,0.0071258544921875
1782952704186021400,6.622021484375,-0.997100830078125,-0.0292205810546875,0.0058441162109375
1782952704195949300,6.63194921875,-0.9967193603515625,-0.0296783447265625,0.006988525390625
1782952704205876200,6.641876220703125,-0.99774169921875,-0.0292510986328125,0.006927490234375
1782952704215804400,6.651804443359375,-0.9969024658203125,-0.02886962890625,0.006378173828125
1782952704225731300,6.6617314453125,-0.998931884765625,-0.0294952392578125,0.0058135986328125
1782952704235659300,6.6716591796875,-0.9962310791015625,-0.029327392578125,0.005615234375
1782952704245586400,6.68158642578125,-0.997650146484375,-0.030670166015625,0.007659912109375
1782952704255513300,6.691513427734375,-0.9976348876953125,-0.0303497314453125,0.0062255859375
1782952704265441500,6.701441650390625,-0.9978485107421875,-0.02777099609375,0.0070343017578125
1782952704275368400,6.711368408203125,-0.997100830078125,-0.0290985107421875,0.0059814453125
1782952704285296400,6.72129638671875,-0.9959869384765625,-0.029937744140625,0.0067138671875
1782952704295223600,6.7312236328125,-0.9965362548828125,-0.030181884765625,0.00640869140625
1782952704305151500,6.7411513671875,-0.996917724609375,-0.0296173095703125,0.005157470703125
1782952704315078400,6.751078369140625,-0.9964447021484375,-0.030242919921875,0.006134033203125
1782952704325005300,6.76100537109375,-0.9973907470703125,-0.02838134765625,0.0068511962890625
1782952704334933500,6.77093359375,-0.99664306640625,-0.028533935546875,0.008453369140625
1782952704344860400,6.7808603515625,-0.9972381591796875,-0.031280517578125,0.0072784423828125
1782952704354788400,6.790788330078125,-0.997344970703125,-0.0282745361328125,0.00628662109375
1782952704364715300,6.80071533203125,-0.99774169921875,-0.02862548828125,0.0066375732421875
1782952704374643200,6.810643310546875,-0.9964599609375,-0.0301513671875,0.006866455078125
1782952704384570400,6.8205703125,-0.9971466064453125,-0.0311431884765625,0.0065765380859375
1782952704394498300,6.830498291015625,-0.99755859375,-0.0301055908203125,0.0069732666015625
1782952704404425500,6.840425537109375,-0.996063232421875,-0.0288848876953125,0.006591796875
1782952704414352400,6.850352294921875,-0.997100830078125,-0.0301055908203125,0.006683349609375
1782952704424280300,6.8602802734375,-0.9983978271484375,-0.030364990234375,0.0058746337890625
1782952704434207500,6.87020751953125,-0.998077392578125,-0.0292205810546875,0.0062255859375
1782952704444135400,6.880135498046875,-0.9984130859375,-0.029510498046875,0.005401611328125
1782952704454062300,6.890062255859375,-0.997039794921875,-0.0291595458984375,0.0058441162109375
1782952704463990500,6.899990478515625,-0.996612548828125,-0.028228759765625,0.006561279296875
1782952704473917400,6.90991748046875,-0.9980926513671875,-0.0289154052734375,0.006805419921875
1782952704483845400,6.919845458984375,-0.9965972900390625,-0.030914306640625,0.0062255859375
1782952704493772500,6.9297724609375,-0.9978485107421875,-0.0285797119140625,0.0062713623046875
1782952704503700500,6.939700439453125,-0.9968414306640625,-0.02984619140625,0.0070343017578125
1782952704513627600,6.949627685546875,-0.9972686767578125,-0.029937744140625,0.00677490234375
1782952704523554300,6.95955419921875,-0.9970550537109375,-0.029052734375,0.0070648193359375
1782952704533482200,6.969482177734375,-0.9970245361328125,-0.0299072265625,0.0076141357421875
1782952704543409400,6.979409423828125,-0.9973602294921875,-0.029327392578125,0.0070037841796875
1782952704553337300,6.98933740234375,-0.9968109130859375,-0.0288543701171875,0.00677490234375
1782952704563264300,6.99926416015625,-0.9971466064453125,-0.0286407470703125,0.00762939453125
1782952704573192400,7.0091923828125,-0.997100830078125,-0.0276641845703125,0.0066375732421875
1782952704583119400,7.019119384765625,-0.9964599609375,-0.0292205810546875,0.00555419921875
1782952704593046500,7.029046630859375,-0.997406005859375,-0.02935791015625,0.0053558349609375
1782952704602974500,7.038974365234375,-0.9983978271484375,-0.0297698974609375,0.0063323974609375
1782952704612901400,7.0489013671875,-0.997100830078125,-0.0301055908203125,0.006134033203125
1782952704622829300,7.058829345703125,-0.997589111328125,-0.0295562744140625,0.0046539306640625
1782952704632756500,7.068756591796875,-0.997039794921875,-0.0287933349609375,0.0054779052734375
1782952704642684400,7.078684326171875,-0.9976959228515625,-0.029632568359375,0.005462646484375
1782952704652611600,7.088611572265625,-0.9992218017578125,-0.0296478271484375,0.0069427490234375
1782952704662539500,7.09853955078125,-0.9974517822265625,-0.03076171875,0.0067596435546875
1782952704672466400,7.108466552734375,-0.9980621337890625,-0.02911376953125,0.0065765380859375
1782952704682393300,7.118393310546875,-0.9978790283203125,-0.02838134765625,0.0047760009765625
1782952704692321300,7.1283212890625,-0.997955322265625,-0.0301666259765625,0.006134033203125
1782952704702248400,7.13824853515625,-0.99737548828125,-0.030548095703125,0.006103515625
1782952704712176400,7.14817626953125,-0.998626708984375,-0.0299072265625,0.005706787109375
1782952704722103300,7.158103271484375,-0.9979095458984375,-0.02923583984375,0.0058441162109375
1782952704732031200,7.16803125,-0.9971466064453125,-0.0295562744140625,0.00604248046875
1782952704741958400,7.17795849609375,-0.997283935546875,-0.029296875,0.0054779052734375
1782952704751886300,7.18788623046875,-0.997528076171875,-0.0299224853515625,0.0064239501953125
1782952704761813500,7.1978134765625,-0.9972381591796875,-0.0294952392578125,0.006744384765625
1782952704771740400,7.207740478515625,-0.9986114501953125,-0.0296173095703125,0.00738525390625
1782952704781668400,7.21766845703125,-0.9994049072265625,-0.02947998046875,0.006195068359375
1782952704791595500,7.227595458984375,-0.9979705810546875,-0.0297698974609375,0.0067291259765625
1782952704801523500,7.2375234375,-0.99700927734375,-0.029022216796875,0.0061187744140625
1782952704811450400,7.247450439453125,-0.996551513671875,-0.0297698974609375,0.0067138671875
1782952704821378600,7.257378662109375,-0.997314453125,-0.0288543701171875,0.006256103515625
1782952704831305500,7.267305419921875,-0.9973907470703125,-0.029205322265625,0.0054168701171875
1782952704841233400,7.2772333984375,-0.9976043701171875,-0.0300750732421875,0.0071563720703125
1782952704851160600,7.28716064453125,-0.9972686767578125,-0.029083251953125,0.0074005126953125
1782952704861087200,7.297087158203125,-0.99725341796875,-0.0289764404296875,0.0078582763671875
1782952704871015400,7.307015380859375,-0.9958038330078125,-0.0299835205078125,0.0071563720703125
1782952704880942300,7.3169423828125,-0.99859619140625,-0.0291290283203125,0.006591796875
1782952704890870300,7.326870361328125,-0.9975738525390625,-0.0296478271484375,0.0062103271484375
1782952704900797400,7.33679736328125,-0.9969940185546875,-0.03076171875,0.00799560546875
1782952704910725400,7.346725341796875,-0.9960174560546875,-0.0296478271484375,0.006134033203125
1782952704920652300,7.35665234375,-0.996551513671875,-0.029632568359375,0.004974365234375
1782952704930580500,7.36658056640625,-0.9981842041015625,-0.0297698974609375,0.0051727294921875
1782952704940507400,7.37650732421875,-0.99737548828125,-0.0303192138671875,0.00543212890625
1782952704950434600,7.3864345703125,-0.9965667724609375,-0.0297393798828125,0.0059356689453125
1782952704960362500,7.396362548828125,-0.9983673095703125,-0.029541015625,0.005859375
1782952704970289400,7.406289306640625,-0.9975433349609375,-0.029205322265625,0.004425048828125
1782952704980217300,7.41621728515625,-0.9959564208984375,-0.0294647216796875,0.006683349609375
1782952704990144500,7.42614453125,-0.9976348876953125,-0.0287628173828125,0.005615234375
1782952705000072400,7.436072509765625,-0.997802734375,-0.028228759765625,0.0065460205078125
1782952705009999600,7.44599951171875,-0.9971160888671875,-0.030487060546875,0.0061798095703125
1782952705019927600,7.455927490234375,-0.99822998046875,-0.031036376953125,0.0054473876953125
1782952705029854200,7.465854248046875,-0.9981231689453125,-0.029052734375,0.0054473876953125
1782952705039781400,7.475781494140625,-0.9966583251953125,-0.0283966064453125,0.007110595703125
1782952705049709300,7.485709228515625,-0.997802734375,-0.02923583984375,0.0068206787109375
1782952705059636500,7.495636474609375,-0.9960479736328125,-0.0284271240234375,0.0062713623046875
1782952705069564400,7.505564453125,-0.998504638671875,-0.029693603515625,0.0058441162109375
1782952705079491300,7.5154912109375,-0.998565673828125,-0.029327392578125,0.007568359375
1782952705089419300,7.525419189453125,-0.9979705810546875,-0.0290374755859375,0.0060882568359375
1782952705099346400,7.535346435546875,-0.99786376953125,-0.0297088623046875,0.0075531005859375
1782952705109273300,7.5452734375,-0.9973297119140625,-0.02960205078125,0.0057830810546875
1782952705119201500,7.555201416015625,-0.9978485107421875,-0.0294952392578125,0.0053253173828125
1782952705129128400,7.56512841796875,-0.997406005859375,-0.0302276611328125,0.0065155029296875
1782952705139056400,7.575056396484375,-0.9974517822265625,-0.0307769775390625,0.006011962890625
1782952705148983600,7.584983642578125,-0.997711181640625,-0.0303802490234375,0.0080718994140625
1782952705158911500,7.594911376953125,-0.9977569580078125,-0.0288848876953125,0.0076904296875
1782952705168838400,7.60483837890625,-0.9976043701171875,-0.0283050537109375,0.006011962890625
1782952705178766600,7.6147666015625,-0.99884033203125,-0.02899169921875,0.0072021484375
1782952705188693500,7.624693603515625,-0.998931884765625,-0.03057861328125,0.005889892578125
1782952705198620700,7.63462060546875,-0.9979400634765625,-0.03033447265625,0.005218505859375
1782952705208548600,7.644548583984375,-0.996734619140625,-0.0281219482421875,0.006103515625
1782952705218475500,7.6544755859375,-0.9967193603515625,-0.02947998046875,0.0064697265625
1782952705228403500,7.664403564453125,-0.9963836669921875,-0.0293731689453125,0.0064849853515625
1782952705238330600,7.67433056640625,-0.9961700439453125,-0.029937744140625,0.0056915283203125
1782952705248258600,7.684258544921875,-0.997283935546875,-0.029693603515625,0.0066680908203125
1782952705258185700,7.694185791015625,-0.9965972900390625,-0.0299072265625,0.00677490234375
1782952705268113700,7.70411376953125,-0.99847412109375,-0.029541015625,0.00872802734375
1782952705278040600,7.71404052734375,-0.9969024658203125,-0.028717041015625,0.00714111328125
1782952705287967500,7.723967529296875,-0.99688720703125,-0.0295867919921875,0.0075225830078125
1782952705297895400,7.7338955078125,-0.9993896484375,-0.0301055908203125,0.0050201416015625
1782952705307822600,7.743822509765625,-0.9964752197265625,-0.0290069580078125,0.006561279296875
1782952705317750500,7.75375048828125,-0.9963531494140625,-0.0293426513671875,0.0069580078125
1782952705327677400,7.763677490234375,-0.997161865234375,-0.0284423828125,0.0061798095703125
1782952705337605400,7.77360546875,-0.99755859375,-0.0289154052734375,0.0052947998046875
1782952705347532500,7.783532470703125,-0.9967803955078125,-0.0294342041015625,0.00775146484375
1782952705357460500,7.79346044921875,-0.996185302734375,-0.0286407470703125,0.007965087890625
1782952705367387600,7.8033876953125,-0.9987335205078125,-0.0287017822265625,0.00726318359375
1782952705377314600,7.813314453125,-0.99658203125,-0.029266357421875,0.0063323974609375
1782952705387242500,7.823242431640625,-0.9962310791015625,-0.0290985107421875,0.0055694580078125
1782952705397169700,7.833169677734375,-0.99835205078125,-0.0305328369140625,0.00628662109375
1782952705407097600,7.84309765625,-0.9973297119140625,-0.030029296875,0.005279541015625
1782952705417024500,7.8530244140625,-0.9973907470703125,-0.0298309326171875,0.0067291259765625
1782952705426952700,7.86295263671875,-0.9973602294921875,-0.0287933349609375,0.0054473876953125
1782952705436879600,7.872879638671875,-0.997344970703125,-0.0297088623046875,0.0060272216796875
1782952705446807600,7.8828076171875,-0.9972381591796875,-0.029632568359375,0.006195068359375
1782952705456734500,7.892734375,-0.997406005859375,-0.02886962890625,0.006134033203125
1782952705466661400,7.902661376953125,-0.9973602294921875,-0.029510498046875,0.007232666015625
1782952705476589600,7.912589599609375,-0.9966278076171875,-0.0303192138671875,0.005706787109375
1782952705486516500,7.9225166015625,-0.997344970703125,-0.0297088623046875,0.005645751953125
1782952705496444400,7.9324443359375,-0.9968719482421875,-0.0285797119140625,0.00762939453125
1782952705506371600,7.94237158203125,-0.998138427734375,-0.0291748046875,0.0069122314453125
1782952705516299500,7.952299560546875,-0.996246337890625,-0.0297088623046875,0.0066680908203125
1782952705526226400,7.962226318359375,-0.997772216796875,-0.028656005859375,0.0079193115234375
1782952705536153600,7.972153564453125,-0.9958038330078125,-0.0284881591796875,0.007080078125
1782952705546081500,7.98208154296875,-0.99652099609375,-0.0294647216796875,0.0074462890625
1782952705556008700,7.9920087890625,-0.9969024658203125,-0.029144287109375,0.0064239501953125
1782952705565936600,8.0019365234375,-0.9981231689453125,-0.0309295654296875,0.00555419921875
1782952705575863600,8.011863525390625,-0.9971466064453125,-0.0284423828125,0.005767822265625
1782952705585791500,8.02179150390625,-0.9971466064453125,-0.030029296875,0.0073394775390625
1782952705595718700,8.03171875,-0.9986419677734375,-0.0301055908203125,0.006683349609375
1782952705605646600,8.041646484375,-0.9985809326171875,-0.0294647216796875,0.005096435546875
1782952705615573800,8.05157373046875,-0.9979400634765625,-0.0313568115234375,0.00445556640625
1782952705625500400,8.06150048828125,-0.99749755859375,-0.028594970703125,0.0060882568359375
1782952705635428400,8.071428466796876,-0.9971771240234375,-0.0294952392578125,0.0066070556640625
1782952705645355500,8.08135546875,-0.997711181640625,-0.02978515625,0.0058135986328125
1782952705655283500,8.091283447265624,-0.997650146484375,-0.02880859375,0.00543212890625
1782952705665210400,8.10121044921875,-0.9986114501953125,-0.029022216796875,0.0051727294921875
1782952705675138600,8.111138671875,-0.9979400634765625,-0.0294647216796875,0.0064697265625
1782952705685065500,8.1210654296875,-0.9984130859375,-0.0288238525390625,0.00628662109375
1782952705694992600,8.13099267578125,-0.9983367919921875,-0.0306549072265625,0.00689697265625
1782952705704920600,8.140920654296876,-0.9972076416015625,-0.0296783447265625,0.0074005126953125
1782952705714847500,8.150847412109375,-0.997406005859375,-0.0297088623046875,0.0068511962890625
1782952705724775700,8.160775634765624,-0.9976043701171875,-0.029510498046875,0.00494384765625
1782952705734702600,8.17070263671875,-0.99755859375,-0.030059814453125,0.0064239501953125
1782952705744630500,8.180630615234374,-0.9974517822265625,-0.02984619140625,0.0069427490234375
1782952705754557700,8.1905576171875,-0.9977264404296875,-0.030120849609375,0.006072998046875
1782952705764485600,8.200485595703125,-0.996246337890625,-0.02838134765625,0.0072021484375
1782952705774412500,8.21041259765625,-0.9976959228515625,-0.0304718017578125,0.0070037841796875
1782952705784340700,8.2203408203125,-0.998016357421875,-0.030517578125,0.005523681640625
1782952705794267600,8.230267578125,-0.998046875,-0.0298919677734375,0.0043792724609375
1782952705804194600,8.240194580078125,-0.9984283447265625,-0.0301971435546875,0.0050811767578125
1782952705814122500,8.25012255859375,-0.9975433349609375,-0.030853271484375,0.0056915283203125
1782952705824049400,8.26004931640625,-0.9976959228515625,-0.030059814453125,0.0054168701171875
1782952705833977300,8.269977294921874,-0.9979248046875,-0.0295867919921875,0.004425048828125
1782952705843904500,8.279904541015625,-0.9991455078125,-0.0315399169921875,0.0062103271484375
1782952705853832400,8.28983251953125,-0.9985198974609375,-0.0294189453125,0.0059814453125
1782952705863759600,8.299759521484376,-0.996246337890625,-0.0301361083984375,0.0074462890625
1782952705873686500,8.3096865234375,-0.9981536865234375,-0.0297698974609375,0.00531005859375
1782952705883614500,8.319614501953126,-0.99749755859375,-0.0287628173828125,0.00457763671875
1782952705893541600,8.329541748046875,-0.9963836669921875,-0.0296173095703125,0.007537841796875
1782952705903469600,8.339469482421874,-0.99713134765625,-0.0283355712890625,0.0066986083984375
1782952705913396500,8.349396484375,-0.9986724853515625,-0.0289154052734375,0.0069427490234375
1782952705923324700,8.35932470703125,-0.997406005859375,-0.029205322265625,0.0061187744140625
1782952705933251600,8.36925146484375,-0.9968109130859375,-0.0283203125,0.0065155029296875
1782952705943179500,8.379179443359375,-0.998504638671875,-0.0294189453125,0.0064697265625
1782952705953106700,8.389106689453126,-0.996978759765625,-0.02947998046875,0.0070953369140625
1782952705963033300,8.399033447265625,-0.997711181640625,-0.03076171875,0.0074310302734375
1782952705972961500,8.40896142578125,-0.9977874755859375,-0.0307464599609375,0.006622314453125
1782952705982888400,8.418888427734375,-0.997833251953125,-0.030670166015625,0.0072784423828125
1782952705992816400,8.42881640625,-0.9979248046875,-0.0293731689453125,0.0068511962890625
1782952706002743600,8.43874365234375,-0.9969940185546875,-0.029998779296875,0.00714111328125
1782952706012671500,8.44867138671875,-0.9969482421875,-0.029754638671875,0.0072479248046875
1782952706022598400,8.458598388671875,-0.99749755859375,-0.0298309326171875,0.0062103271484375
1782952706032526600,8.468526611328125,-0.997955322265625,-0.028961181640625,0.00677490234375
1782952706042453500,8.47845361328125,-0.99810791015625,-0.0305938720703125,0.0065155029296875
1782952706052380700,8.488380615234375,-0.9983062744140625,-0.0298919677734375,0.006134033203125
1782952706062308600,8.49830859375,-0.9970550537109375,-0.0289306640625,0.007598876953125
1782952706072235500,8.508235595703125,-0.9973297119140625,-0.028533935546875,0.007080078125
1782952706082163500,8.51816357421875,-0.9964752197265625,-0.028900146484375,0.0075225830078125
1782952706092090600,8.528090576171875,-0.9975738525390625,-0.0307769775390625,0.006591796875
1782952706102018600,8.5380185546875,-0.9962005615234375,-0.0299072265625,0.0068511962890625
1782952706111945000,8.547945068359375,-0.9976043701171875,-0.0301971435546875,0.004913330078125
1782952706121872000,8.557871826171874,-0.998626708984375,-0.0297088623046875,0.005645751953125
1782952706131800000,8.567800048828126,-0.99853515625,-0.0314788818359375,0.0045318603515625
1782952706141727000,8.57772705078125,-0.9984130859375,-0.0290374755859375,0.0066680908203125
1782952706151655000,8.587655029296876,-0.9962615966796875,-0.0287322998046875,0.0068511962890625
1782952706161582000,8.59758203125,-0.996978759765625,-0.0284576416015625,0.005279541015625
1782952706171510000,8.607510009765624,-0.99676513671875,-0.02978515625,0.0048828125
1782952706181437000,8.61743701171875,-0.9994049072265625,-0.02996826171875,0.005767822265625
1782952706191365000,8.627365234375,-0.9972076416015625,-0.02984619140625,0.0067901611328125
1782952706201292000,8.6372919921875,-0.997772216796875,-0.02972412109375,0.0057525634765625
1782952706211219000,8.647218994140625,-0.9966278076171875,-0.02899169921875,0.005126953125
1782952706221147100,8.657147216796876,-0.9972381591796875,-0.0298309326171875,0.0072174072265625
1782952706231073800,8.66707373046875,-0.996856689453125,-0.0301055908203125,0.00567626953125
1782952706241001700,8.677001708984376,-0.995849609375,-0.0289154052734375,0.00750732421875
1782952706250929000,8.686928955078125,-0.996185302734375,-0.02978515625,0.00701904296875
1782952706260856800,8.69685693359375,-0.9970245361328125,-0.030242919921875,0.0071563720703125
1782952706270784000,8.706783935546875,-0.997283935546875,-0.0295867919921875,0.005859375
1782952706280711000,8.7167109375,-0.997528076171875,-0.0293731689453125,0.0060882568359375
1782952706290638800,8.726638916015625,-0.997283935546875,-0.02984619140625,0.0066070556640625
1782952706300566000,8.73656591796875,-0.995147705078125,-0.030609130859375,0.007476806640625
1782952706310494000,8.746493896484376,-0.9980010986328125,-0.028961181640625,0.0058135986328125
1782952706320420900,8.7564208984375,-0.997650146484375,-0.0295867919921875,0.005401611328125
1782952706330349000,8.76634912109375,-0.9982757568359375,-0.0279998779296875,0.005767822265625
1782952706340276000,8.77627587890625,-0.9973297119140625,-0.0291900634765625,0.0076751708984375
1782952706350204000,8.786203857421874,-0.997161865234375,-0.028900146484375,0.0069427490234375
1782952706360131000,8.796131103515625,-0.9976806640625,-0.0302276611328125,0.008270263671875
1782952706370058000,8.80605810546875,-0.9989166259765625,-0.0281829833984375,0.00653076171875
1782952706379986000,8.81598583984375,-0.997283935546875,-0.02911376953125,0.0067901611328125
1782952706389912800,8.825912841796875,-0.9973602294921875,-0.0293731689453125,0.0070343017578125
1782952706399841000,8.835841064453126,-0.996856689453125,-0.0300445556640625,0.0064544677734375
1782952706409768000,8.845767822265625,-0.997772216796875,-0.0288848876953125,0.006591796875
1782952706419695900,8.85569580078125,-0.99761962890625,-0.0285186767578125,0.00579833984375
1782952706429622800,8.865622802734375,-0.9977569580078125,-0.0283966064453125,0.0064697265625
1782952706439551000,8.875551025390624,-0.9975128173828125,-0.0289459228515625,0.00616455078125
1782952706449478000,8.885477783203125,-0.9967498779296875,-0.0301513671875,0.006683349609375
1782952706459405000,8.895405029296874,-0.9971466064453125,-0.0297698974609375,0.006927490234375
1782952706469333000,8.9053330078125,-0.9973602294921875,-0.0298919677734375,0.0066070556640625
1782952706479260000,8.915260009765625,-0.99749755859375,-0.0297393798828125,0.0055084228515625
1782952706489187800,8.925187744140626,-0.9971771240234375,-0.029937744140625,0.005645751953125
1782952706499115000,8.935114990234375,-0.9952545166015625,-0.0291290283203125,0.0066375732421875
1782952706509043000,8.94504296875,-0.9967193603515625,-0.0288238525390625,0.007110595703125
1782952706518970000,8.95497021484375,-0.99835205078125,-0.03125,0.007659912109375
1782952706528897000,8.96489697265625,-0.997344970703125,-0.030120849609375,0.0053558349609375
1782952706538825000,8.974824951171875,-0.997650146484375,-0.030517578125,0.007598876953125
1782952706548752100,8.984752197265625,-0.998565673828125,-0.02923583984375,0.00653076171875
1782952706558680000,8.99468017578125,-0.9972686767578125,-0.029693603515625,0.0063629150390625
1782952706568607000,9.00460693359375,-0.997161865234375,-0.0285797119140625,0.0061798095703125
1782952706578535000,9.014534912109376,-0.9970703125,-0.02862548828125,0.0078125
1782952706588461800,9.0244619140625,-0.99835205078125,-0.027069091796875,0.008758544921875
1782952706598389800,9.0343896484375,-0.9979705810546875,-0.0282745361328125,0.0066375732421875
1782952706608317000,9.04431689453125,-0.9959259033203125,-0.029998779296875,0.005615234375
1782952706618243800,9.054243896484374,-0.9964599609375,-0.0311431884765625,0.005279541015625
1782952706628172000,9.064172119140625,-0.9980010986328125,-0.0300750732421875,0.005218505859375
1782952706638099000,9.074098876953125,-0.9971771240234375,-0.029632568359375,0.007781982421875
1782952706648027000,9.08402685546875,-0.996734619140625,-0.0299530029296875,0.0083465576171875
1782952706657954000,9.0939541015625,-0.9988861083984375,-0.029022216796875,0.0065460205078125
1782952706667882000,9.103882080078124,-0.999114990234375,-0.029754638671875,0.0047607421875
1782952706677809000,9.113808837890625,-0.9972991943359375,-0.02911376953125,0.0068206787109375
1782952706687737000,9.123737060546874,-0.996795654296875,-0.02996826171875,0.0064697265625
1782952706697664000,9.1336640625,-0.997589111328125,-0.0300140380859375,0.0073089599609375
1782952706707591200,9.143591064453124,-0.99737548828125,-0.02923583984375,0.00732421875
1782952706717519000,9.15351904296875,-0.99798583984375,-0.0287322998046875,0.006805419921875
1782952706727445800,9.16344580078125,-0.997283935546875,-0.0284576416015625,0.0062713623046875
1782952706737374000,9.1733740234375,-0.9974212646484375,-0.0286407470703125,0.0078887939453125
1782952706747300900,9.18330078125,-0.997802734375,-0.029327392578125,0.0063323974609375
1782952706757228800,9.193228759765624,-0.9984588623046875,-0.0284423828125,0.00653076171875
1782952706767156000,9.203156005859375,-0.9971466064453125,-0.03082275390625,0.0068511962890625
1782952706777083000,9.213082763671874,-0.997406005859375,-0.0309295654296875,0.0053253173828125
1782952706787010800,9.2230107421875,-0.9989776611328125,-0.0300445556640625,0.0052490234375
1782952706796938000,9.23293798828125,-0.996673583984375,-0.0282440185546875,0.007293701171875
1782952706806866000,9.242865966796876,-0.998077392578125,-0.028961181640625,0.0075531005859375
1782952706816793000,9.25279296875,-0.9985198974609375,-0.0295257568359375,0.0056304931640625
1782952706826721000,9.262720947265626,-0.9974822998046875,-0.0286407470703125,0.00640869140625
1782952706836648000,9.27264794921875,-0.996337890625,-0.0300140380859375,0.0059814453125
1782952706846575900,9.282575927734374,-0.9969940185546875,-0.029022216796875,0.0059661865234375
1782952706856503000,9.2925029296875,-0.9984588623046875,-0.0300750732421875,0.0072479248046875
1782952706866430000,9.302429931640624,-0.9983062744140625,-0.0296173095703125,0.004974365234375
1782952706876358100,9.312358154296875,-0.997833251953125,-0.0279998779296875,0.007080078125
1782952706886283800,9.32228369140625,-0.9971923828125,-0.0282745361328125,0.0078887939453125
1782952706896212000,9.3322119140625,-0.99609375,-0.0296478271484375,0.0068817138671875
1782952706906139000,9.342138916015625,-0.9977264404296875,-0.029541015625,0.0052947998046875
1782952706916066800,9.35206689453125,-0.997955322265625,-0.0301666259765625,0.005523681640625
1782952706925994000,9.361993896484375,-0.9968414306640625,-0.0295562744140625,0.0057525634765625
1782952706935922000,9.371921875,-0.9978179931640625,-0.02972412109375,0.005279541015625
1782952706945848800,9.381848876953125,-0.9976348876953125,-0.0284423828125,0.005767822265625
1782952706955776000,9.39177587890625,-0.9959716796875,-0.02899169921875,0.0057525634765625
1782952706965704000,9.401703857421875,-0.997314453125,-0.0302581787109375,0.0067138671875
1782952706975631000,9.411631103515624,-0.997589111328125,-0.0296783447265625,0.007537841796875
1782952706985559000,9.42155908203125,-0.9970550537109375,-0.0303955078125,0.007415771484375
1782952706995486000,9.43148583984375,-0.9977569580078125,-0.0304107666015625,0.0048828125
1782952707005414000,9.441413818359376,-0.998291015625,-0.0298614501953125,0.005584716796875
1782952707015341000,9.451341064453125,-0.9978790283203125,-0.02978515625,0.007110595703125
1782952707025267700,9.461267822265626,-0.9975128173828125,-0.0291748046875,0.00701904296875
1782952707035196200,9.471196044921875,-0.9969329833984375,-0.0294036865234375,0.006195068359375
1782952707045122800,9.481122802734374,-0.9967803955078125,-0.0289306640625,0.0071563720703125
1782952707055050800,9.49105078125,-0.9981536865234375,-0.0297698974609375,0.0070648193359375
1782952707064978000,9.50097802734375,-0.9978179931640625,-0.029296875,0.0059661865234375
1782952707074905900,9.51090576171875,-0.99676513671875,-0.0301666259765625,0.004974365234375
1782952707084833000,9.5208330078125,-0.998077392578125,-0.0287628173828125,0.00482177734375
1782952707094761000,9.530760986328126,-0.9984130859375,-0.028472900390625,0.0062255859375
1782952707104687900,9.54068798828125,-0.9981536865234375,-0.0300140380859375,0.0063934326171875
1782952707114614800,9.55061474609375,-0.996337890625,-0.029388427734375,0.00634765625
1782952707124542700,9.560542724609375,-0.9969024658203125,-0.028350830078125,0.00714111328125
1782952707134469600,9.5704697265625,-0.99810791015625,-0.0283660888671875,0.0070037841796875
1782952707144397800,9.580397705078125,-0.9971466064453125,-0.030487060546875,0.0075225830078125
1782952707154324700,9.59032470703125,-0.996795654296875,-0.030029296875,0.0068817138671875
1782952707164252700,9.600252685546875,-0.9983673095703125,-0.0294036865234375,0.0064239501953125
1782952707174179600,9.6101796875,-0.9982147216796875,-0.0294647216796875,0.0070648193359375
1782952707184106500,9.6201064453125,-0.998016357421875,-0.0300750732421875,0.0066680908203125
1782952707194034700,9.63003466796875,-0.9961090087890625,-0.0280609130859375,0.0062713623046875
1782952707203961600,9.639961669921876,-0.9979248046875,-0.02862548828125,0.005767822265625
1782952707213889500,9.6498896484375,-0.9981231689453125,-0.0296630859375,0.00726318359375
1782952707223816700,9.659816650390624,-0.9971771240234375,-0.0299224853515625,0.0063018798828125
1782952707233744600,9.66974462890625,-0.9975738525390625,-0.030029296875,0.0059051513671875
1782952707243671600,9.679671630859374,-0.9972076416015625,-0.030303955078125,0.0059356689453125
1782952707253599700,9.689599853515626,-0.9962158203125,-0.0300750732421875,0.0059967041015625
1782952707263526700,9.699526611328125,-0.9992828369140625,-0.0296630859375,0.0049285888671875
1782952707273453800,9.709453857421876,-0.997344970703125,-0.029876708984375,0.0074615478515625
1782952707283381800,9.7193818359375,-0.9966888427734375,-0.0299224853515625,0.0077056884765625
1782952707293311500,9.7293115234375,-0.9972991943359375,-0.030609130859375,0.0065460205078125
1782952707303239700,9.73923974609375,-0.998504638671875,-0.0301971435546875,0.005584716796875
1782952707313166600,9.74916650390625,-0.99737548828125,-0.028778076171875,0.00799560546875
1782952707323093800,9.75909375,-0.99810791015625,-0.0290374755859375,0.0059661865234375
1782952707333021700,9.769021728515625,-0.99786376953125,-0.0296478271484375,0.0064849853515625
1782952707342948600,9.778948486328124,-0.9987945556640625,-0.029693603515625,0.005950927734375
1782952707352876500,9.78887646484375,-0.9978485107421875,-0.030792236328125,0.007232666015625
1782952707362803700,9.7988037109375,-0.9976806640625,-0.0310211181640625,0.0051422119140625
1782952707372731600,9.808731689453126,-0.997161865234375,-0.029541015625,0.00537109375
1782952707382658800,9.818658935546875,-0.9976806640625,-0.027984619140625,0.0061492919921875
1782952707392585700,9.828585693359376,-0.9959869384765625,-0.029754638671875,0.0065765380859375
1782952707402513700,9.838513671875,-0.9979400634765625,-0.0296630859375,0.006500244140625
1782952707412440800,9.84844091796875,-0.997650146484375,-0.0294952392578125,0.004974365234375
1782952707422368800,9.85836865234375,-0.995391845703125,-0.0286407470703125,0.0046844482421875
1782952707432295700,9.868295654296874,-0.9977569580078125,-0.0280914306640625,0.0064544677734375
1782952707442223600,9.8782236328125,-0.9972076416015625,-0.0300445556640625,0.006561279296875
1782952707452150500,9.888150634765625,-0.9968414306640625,-0.028900146484375,0.006805419921875
1782952707462078500,9.898078369140626,-0.99835205078125,-0.0310821533203125,0.0057373046875
1782952707472005600,9.908005615234375,-0.9985504150390625,-0.0296173095703125,0.0060882568359375
1782952707481932500,9.9179326171875,-0.998321533203125,-0.029022216796875,0.0070343017578125
1782952707491860700,9.92786083984375,-0.9979705810546875,-0.0293731689453125,0.005859375
1782952707501787600,9.93778759765625,-0.9982452392578125,-0.030548095703125,0.00665283203125
1782952707511715600,9.947715576171875,-0.9960479736328125,-0.029052734375,0.006195068359375
1782952707521642800,9.957642822265624,-0.997314453125,-0.0291290283203125,0.00726318359375
1782952707531570700,9.96757080078125,-0.9985198974609375,-0.02886962890625,0.006195068359375
1782952707541497600,9.97749755859375,-0.9977264404296875,-0.0291290283203125,0.0056304931640625
1782952707551425800,9.98742578125,-0.9983062744140625,-0.0286865234375,0.00494384765625
1782952707561352700,9.997352783203125,-0.9974212646484375,-0.0288848876953125,0.0070648193359375
1782952707571280000,10.00727978515625,-0.9966888427734375,-0.0291595458984375,0.008209228515625
1782952707581207800,10.017207763671875,-0.997589111328125,-0.02752685546875,0.0067596435546875
1782952707591134500,10.027134521484374,-0.995697021484375,-0.0287322998046875,0.0073699951171875
1782952707601062700,10.037062744140625,-0.9989013671875,-0.030426025390625,0.00714111328125
1782952707610989600,10.046989501953124,-0.9986114501953125,-0.02984619140625,0.005767822265625
1782952707620917500,10.05691748046875,-0.9975738525390625,-0.030120849609375,0.0067901611328125
1782952707630844700,10.0668447265625,-0.9975433349609375,-0.03009033203125,0.00732421875
1782952707640771600,10.076771484375,-0.997528076171875,-0.02960205078125,0.0069732666015625
1782952707650699500,10.086699462890625,-0.997314453125,-0.0303497314453125,0.00732421875
1782952707660626700,10.096626708984376,-0.99786376953125,-0.029541015625,0.0067138671875
1782952707670554600,10.1065546875,-0.9961395263671875,-0.0298614501953125,0.0055999755859375
1782952707680481800,10.116481689453124,-0.9969940185546875,-0.030303955078125,0.006683349609375
1782952707690409700,10.12640966796875,-0.99749755859375,-0.02947998046875,0.0064239501953125
1782952707700336600,10.136336669921874,-0.99615478515625,-0.0298004150390625,0.006500244140625
1782952707710264600,10.1462646484375,-0.9975128173828125,-0.0295562744140625,0.0058441162109375
1782952707720191700,10.156191650390625,-0.99688720703125,-0.0299224853515625,0.004638671875
1782952707730118700,10.16611865234375,-0.99700927734375,-0.0295867919921875,0.0069732666015625
1782952707740046800,10.176046875,-0.9971160888671875,-0.0288238525390625,0.0071868896484375
1782952707749973800,10.185973876953126,-0.9965667724609375,-0.029937744140625,0.0071868896484375
1782952707759901700,10.195901611328125,-0.9968414306640625,-0.0280303955078125,0.006622314453125
1782952707769828600,10.20582861328125,-0.99884033203125,-0.030059814453125,0.007171630859375
1782952707779756500,10.215756591796875,-0.998687744140625,-0.029541015625,0.0057525634765625
1782952707789683500,10.225683349609374,-0.9996337890625,-0.0279693603515625,0.00604248046875
1782952707799610600,10.235610595703125,-0.9965667724609375,-0.0294647216796875,0.0058441162109375
1782952707809538600,10.24553857421875,-0.9961090087890625,-0.0301055908203125,0.0052947998046875
1782952707819465700,10.2554658203125,-0.9973602294921875,-0.030487060546875,0.0055389404296875
1782952707829393700,10.2653935546875,-0.9983673095703125,-0.029541015625,0.0064849853515625
1782952707839320600,10.275320556640626,-0.997039794921875,-0.029449462890625,0.0071868896484375
1782952707849248800,10.285248779296875,-0.9978485107421875,-0.027862548828125,0.006561279296875
1782952707859175700,10.29517578125,-0.996673583984375,-0.030517578125,0.006683349609375
1782952707869103600,10.305103515625,-0.99749755859375,-0.02947998046875,0.00531005859375
1782952707879030800,10.31503076171875,-0.9970245361328125,-0.02880859375,0.0063323974609375
1782952707888957700,10.324957763671875,-0.996826171875,-0.0295867919921875,0.0065460205078125
1782952707898885600,10.3348857421875,-0.9981689453125,-0.0290679931640625,0.007171630859375
1782952707908812800,10.344812744140626,-0.9988861083984375,-0.0294952392578125,0.0063323974609375
1782952707918740700,10.35474072265625,-0.9968719482421875,-0.029296875,0.008331298828125
1782952707928667600,10.364667724609374,-0.997467041015625,-0.030609130859375,0.0072174072265625
1782952707938595800,10.374595947265625,-0.996612548828125,-0.0283660888671875,0.0063323974609375
1782952707948522500,10.3845224609375,-0.997222900390625,-0.02850341796875,0.0064697265625
1782952707958449700,10.39444970703125,-0.9965057373046875,-0.029266357421875,0.006866455078125
1782952707968377600,10.404377685546875,-0.9971923828125,-0.02801513671875,0.0070037841796875
1782952707978304500,10.414304443359375,-0.9982452392578125,-0.029052734375,0.006256103515625
1782952707988232700,10.424232666015625,-0.9961700439453125,-0.0300140380859375,0.0055389404296875
1782952707998159600,10.43415966796875,-0.9962005615234375,-0.0295867919921875,0.007049560546875
1782952708008087600,10.444087646484375,-0.9971771240234375,-0.0300140380859375,0.0074462890625
1782952708018014700,10.4540146484375,-0.9967498779296875,-0.03009033203125,0.006256103515625
1782952708027941600,10.463941650390625,-0.996337890625,-0.0296173095703125,0.0070037841796875
1782952708037869600,10.47386962890625,-0.99609375,-0.0296783447265625,0.0070953369140625
1782952708047796700,10.483796630859375,-0.99908447265625,-0.02996826171875,0.0054931640625
1782952708057724700,10.493724609375,-0.9976654052734375,-0.0305023193359375,0.007537841796875
1782952708067651800,10.50365185546875,-0.9966583251953125,-0.029327392578125,0.0065765380859375
1782952708077579800,10.513579833984375,-0.9978179931640625,-0.0301513671875,0.00665283203125
1782952708087506700,10.523506591796876,-0.997100830078125,-0.0296173095703125,0.0058441162109375
1782952708097435000,10.533434814453125,-0.9975128173828125,-0.028045654296875,0.0066986083984375
1782952708107361500,10.543361572265624,-0.9980316162109375,-0.0279541015625,0.007415771484375
1782952708117289200,10.553289306640625,-0.9969635009765625,-0.02972412109375,0.0053253173828125
1782952708127217400,10.563217529296875,-0.99810791015625,-0.0295562744140625,0.00518798828125
1782952708137144300,10.573144287109375,-0.99755859375,-0.0287933349609375,0.0072479248046875
1782952708147072300,10.583072265625,-0.996429443359375,-0.0293426513671875,0.006011962890625
1782952708156999400,10.59299951171875,-0.996856689453125,-0.0292510986328125,0.00750732421875
1782952708166927400,10.60292724609375,-0.9975128173828125,-0.0294952392578125,0.007568359375
1782952708176854300,10.612854248046874,-0.9973602294921875,-0.0299835205078125,0.007965087890625
1782952708186781200,10.62278125,-0.9955902099609375,-0.02947998046875,0.0064849853515625
1782952708196709400,10.63270947265625,-0.997650146484375,-0.030914306640625,0.00634765625
1782952708206636300,10.64263623046875,-0.9986419677734375,-0.030548095703125,0.006927490234375
1782952708216564200,10.652564208984375,-0.998077392578125,-0.030487060546875,0.005645751953125
1782952708226491100,10.6624912109375,-0.9960479736328125,-0.0303802490234375,0.0053253173828125
1782952708236419300,10.67241943359375,-0.9972076416015625,-0.0291290283203125,0.0060272216796875
1782952708246346200,10.68234619140625,-0.9962921142578125,-0.0286102294921875,0.0071868896484375
1782952708256274200,10.692274169921875,-0.9973297119140625,-0.0295562744140625,0.0076446533203125
