time,seconds_elapsed,z,y,x
1782952697623978500,0.059978515625,-0.0007837683078832924,0.0029702235478907824,-0.0009384979493916035
1782952697633906400,0.069906494140625,-0.00029081720276735723,0.004503937903791666,0.0036069853231310844
1782952697643833300,0.079833251953125,-0.0014418354257941246,0.0032916669733822346,-0.0014631407102569938
1782952697653760300,0.08976025390625,-0.0012455604737624526,0.004649613052606583,-0.0011651329696178436
1782952697663688200,0.099688232421875,0.00012969593808520585,0.00768881244584918,0.002665025182068348
1782952697673615000,0.109614990234375,-0.0011478224769234657,0.003993942867964506,0.001333178486675024
1782952697683543300,0.119543212890625,-0.0021084246691316366,0.006099171470850706,0.0009888317435979843
1782952697693470200,0.12947021484375,0.0014322480419650674,0.005399559158831835,-0.001412806916050613
1782952697703398100,0.139398193359375,-0.0015560849569737911,0.005269330460578203,0.0024588967207819223
1782952697713325300,0.1493251953125,-0.0012357067316770554,0.006426474079489708,0.0014514228096231818
1782952697723253200,0.159253173828125,0.0003126551164314151,0.007302653975784779,-0.001463406952098012
1782952697733180200,0.16918017578125,-0.0023883229587227106,0.002695651724934578,-0.0012575446162372828
1782952697743108400,0.1791083984375,-0.0011717908782884479,0.004056793171912432,-0.00013528858835343271
1782952697753035300,0.18903515625,-0.0006668555433861911,0.005189169198274612,-0.001073786523193121
1782952697762962400,0.19896240234375,-0.0005411543534137309,0.00628932099789381,0.0006796387024223804
1782952697772890400,0.208890380859375,-0.0014711301773786545,0.005854959599673748,0.0011025486746802926
1782952697782817300,0.2188173828125,-0.0006045375484973192,0.0028506475500762463,0.0017901768442243338
1782952697792745500,0.228745361328125,0.0009121326729655266,0.004511395003646612,-0.0012713931500911713
1782952697802672400,0.23867236328125,-0.00023542344570159912,0.004487692844122648,0.0017337178578600287
1782952697812600300,0.248600341796875,0.00043223105603829026,0.0032613070216029882,0.0003832288784906268
1782952697822527200,0.25852734375,0.00034594463068060577,0.006776413414627314,-0.002261556452140212
1782952697832455400,0.268455322265625,-0.0016415724530816078,0.005560946650803089,-0.0005145227187313139
1782952697842382000,0.278382080078125,0.00003328951424919069,0.003793406533077359,-0.0005853627808392048
1782952697852310300,0.288310302734375,0.0007091998122632504,0.00643632747232914,0.0028903286438435316
1782952697862237200,0.2982373046875,0.0015451660146936774,0.003984355367720127,-0.001528920722194016
1782952697872165000,0.3081650390625,0.00015765913121867925,0.005274656694382429,0.0025241440162062645
1782952697882092300,0.31809228515625,-0.00307595101185143,0.00583711639046669,0.0025861957110464573
1782952697892019200,0.328019287109375,0.0010090717114508152,0.004743888974189758,-0.0006474144756793976
1782952697901947100,0.337947021484375,0.0012061456218361855,0.003864779369905591,0.0032264196779578924
1782952697911874300,0.347874267578125,0.0009661948424763978,0.0029976540245115757,0.0010626012226566672
1782952697921802200,0.35780224609375,-0.000020240024241502397,0.004707669839262962,0.0026082999538630247
1782952697931729400,0.3677294921875,0.00014194648247212172,0.003061569994315505,0.002685531508177519
1782952697941657300,0.3776572265625,-0.0022623552940785885,0.002802178030833602,0.0007605988066643476
1782952697951584300,0.387584228515625,-0.001184307737275958,0.0057345847599208355,0.0035606464371085167
1782952697961512400,0.397512451171875,-0.0003802994033321738,0.003284476464614272,0.003495132550597191
1782952697971439400,0.407439453125,-0.004429635591804981,0.006429137196391821,0.0006125270738266408
1782952697981367300,0.4173671875,-0.0017710020765662193,0.004752943757921457,-0.001008539111353457
1782952697991294500,0.42729443359375,0.0001174454009742476,0.0030245520174503326,0.0008612662786617875
1782952698001221000,0.43722119140625,0.0007986819837242365,0.004922853317111731,-0.002263420494273305
1782952698011149000,0.447149169921875,0.00031425300403498113,0.005389705300331116,0.0015006912872195244
1782952698021076200,0.457076171875,0.0011094729416072369,0.0028519791085273027,0.0015598133904859424
1782952698031004200,0.467004150390625,-0.0009363674325868487,0.004719121381640434,0.0029356025625020266
1782952698040931300,0.476931396484375,-0.002388589084148407,0.003937750123441219,0.00025592977181077003
1782952698050859300,0.486859375,0.0009672601008787751,0.005432049743831158,0.0009289105655625463
1782952698060786200,0.4967861328125,-0.00004314320904086344,0.005145493429154158,0.0024535702541470528
1782952698070714000,0.506714111328125,-0.001282312092371285,0.003762780223041773,0.0018967032665386796
1782952698080641300,0.516641357421875,-0.0008546083699911833,0.005381449591368437,0.0009347695158794522
1782952698090569200,0.5265693359375,-0.0008018778171390295,0.0046631949953734875,-0.000013848437447450124
1782952698100496400,0.536496337890625,0.0013305152533575892,0.004544684197753668,0.0011046791914850473
1782952698110424600,0.546424560546875,-0.0003001382574439049,0.005396896041929722,-0.0003043993201572448
1782952698120351500,0.5563515625,0.00006205165118444711,0.004181695636361837,0.003058107802644372
1782952698130278400,0.5662783203125,-0.001017327536828816,0.0027230822015553713,0.0003307645965833217
1782952698140206300,0.576206298828125,-0.0017568873008713126,0.006617156323045492,-0.000013848437447450124
1782952698150133200,0.58613330078125,0.0011339739430695772,0.0024770060554146767,-0.0006439523422159255
1782952698160061400,0.5960615234375,-0.0026133600622415543,0.004899417515844107,-0.00024447820032946765
1782952698169988400,0.60598828125,-0.0028192223981022835,0.003920971881598234,0.001577123999595642
1782952698179916300,0.615916259765625,-0.0013606089632958174,0.004774781409651041,-0.0011800467036664486
1782952698189843500,0.625843505859375,-0.0015185344964265823,0.0063210129737854,0.002475142013281584
1782952698199771400,0.635771484375,-0.0014538196846842766,0.004069310147315264,0.00033182985498569906
1782952698209698600,0.645698486328125,-0.0013797837309539318,0.0033949976786971092,0.0007523429812863469
1782952698219626500,0.65562646484375,-0.0009376989910379052,0.005962018854916096,0.0015717976493760943
1782952698229553400,0.665553466796875,-0.0016285229939967394,0.005350290797650814,-0.00034434671397320926
1782952698239481300,0.6754814453125,0.0009827064350247383,0.0035782232880592346,0.0007491472060792148
1782952698249408500,0.685408447265625,0.0010309095960110426,0.004227768164128065,-0.00044847631943412125
1782952698259335400,0.69533544921875,0.001181378262117505,0.004748416133224964,0.0021901836153119802
1782952698269263600,0.705263671875,0.0001699096756055951,0.006518619135022163,-0.0005360943032428622
1782952698279190500,0.7151904296875,-0.0025212145410478115,0.003209641668945551,0.0021811288315802813
1782952698289118500,0.725118408203125,-0.00010519486386328936,0.005307679995894432,0.004652542527765036
1782952698299045600,0.735045654296875,-0.002654106356203556,0.00649598240852356,0.0019710054621100426
1782952698308973600,0.7449736328125,-0.001202150946483016,0.002667954657226801,0.00006950850365683436
1782952698318900200,0.754900146484375,-0.001142496126703918,0.004263720940798521,-0.0013811152894049883
1782952698328828400,0.764828369140625,-0.00040959418402053416,0.006051234435290098,0.0011997540714219213
1782952698338755300,0.77475537109375,0.0009616674506105483,0.004382231738418341,0.001184041379019618
1782952698348683300,0.784683349609375,0.0005195827106945217,0.00501180300489068,-0.0023941819090396166
1782952698358610400,0.7946103515625,-0.0022216090001165867,0.0044200485572218895,0.0022501046769320965
1782952698368537300,0.804537353515625,-0.002415220718830824,0.005397694651037455,-0.0010458233300596476
1782952698378465500,0.814465576171875,-0.0019385149935260415,0.0007717840489931405,0.0013946974650025368
1782952698388392400,0.824392333984375,-0.0012032161466777325,0.006842725910246372,-0.0011558119440451264
1782952698398320400,0.8343203125,-0.0021640846971422434,0.006910902913659811,-0.0006237123161554337
1782952698408247600,0.84424755859375,-0.005465871654450893,0.004817125853151083,0.0012362393317744136
1782952698418175500,0.854175537109375,-0.004855475388467312,0.004165183752775192,0.0033784860279411077
1782952698428102400,0.864102294921875,-0.0012626046082004905,0.005629390012472868,-0.0008064051507972181
1782952698438030600,0.874030517578125,-0.001529453438706696,0.0038631814531981945,0.00019627496658358723
1782952698447957500,0.88395751953125,-0.0013859090395271778,0.005064799915999174,-0.000041278995922766626
1782952698457885400,0.893885498046875,-0.001999235013499856,0.005928462836891413,0.002517486223950982
1782952698467812600,0.9038125,-0.0005962817813269794,0.005230980925261974,0.001047154888510704
1782952698477740500,0.913740478515625,-0.0014117417158558965,0.007553523872047663,-0.0029321403708308935
1782952698487667500,0.92366748046875,0.0012721919920295477,0.004394481889903545,-0.0016088156262412667
1782952698497594400,0.933594482421875,-0.0016990967560559511,0.0057769292034208775,-0.0004921521758660674
1782952698507522300,0.943522216796875,-0.0005547364708036184,0.006618221756070852,0.0022072279825806618
1782952698517449500,0.953449462890625,-0.0031550468411296606,0.002740126335993409,0.001038366463035345
1782952698527377400,0.96337744140625,0.001386441639624536,0.002709500025957823,0.002133458387106657
1782952698537304300,0.97330419921875,0.0008905610884539783,0.0011544802691787481,0.0017337178578600287
1782952698547232500,0.983232421875,0.0021603561472147703,0.005369465332478285,0.0002998719282913953
1782952698557159400,0.993159423828125,-0.0020237360149621964,0.005501824431121349,0.0008950884221121669
1782952698567087400,1.00308740234375,0.0005217132274992764,0.0019646140281111,0.00026551715563982725
1782952698577014500,1.0130146484375,-0.003085538512095809,0.004524444229900837,0.0016945693641901016
1782952698586942500,1.0229423828125,-0.002123604528605938,0.003944407682865858,0.0032796829473227262
1782952698596869400,1.032869384765625,-0.003567836945876479,0.006478139199316502,0.0008450209861621261
1782952698606796500,1.042796630859375,0.0005400890368036926,0.0028509139083325863,-0.0010349043877795339
1782952698616724500,1.052724365234375,-0.0013688647886738181,0.005137237720191479,0.0011174624087288976
1782952698626651600,1.062651611328125,0.0006934871198609471,0.003573695896193385,0.002252235310152173
1782952698636579600,1.07257958984375,-0.000892425247002393,0.0048858351074159145,0.0006303702248260379
1782952698646506500,1.082506591796875,-0.001455151243135333,0.005679457448422909,0.0004082625964656472
1782952698656434400,1.092434326171875,0.00043835630640387535,0.005245095584541559,-0.0001179780374513939
1782952698666361600,1.102361572265625,-0.0006146575906313956,0.0038013961166143417,-0.00155262288171798
1782952698676289500,1.11228955078125,0.002156361471861601,0.005005411338061094,0.0006258428329601884
1782952698686216400,1.122216552734375,-0.000051132694352418184,0.004765193909406662,-0.00032863407977856696
1782952698696144400,1.132144287109375,-0.0003206445835530758,0.0036189695820212364,-0.0012191950809210539
1782952698706071300,1.1420712890625,-0.00011957593233091757,0.005928196478635073,-0.00007057376933516935
1782952698715998500,1.15199853515625,-0.0005185174522921443,0.004966795444488525,-0.000550475378986448
1782952698725926400,1.161926513671875,-0.003276220755651593,0.005661347880959511,0.0023819312918931246
1782952698735853300,1.171853271484375,-0.002049835165962577,0.005535646807402372,0.0028184233233332634
1782952698745781500,1.181781494140625,-0.0017781927017495036,0.004517253953963518,0.0011614045361056924
1782952698755708400,1.19170849609375,-0.0017219999572262168,0.0046634613536298275,0.0006042712484486401
1782952698765636400,1.20163623046875,-0.0037063213530927896,0.0031848743092268705,0.0023670175578445196
1782952698775563500,1.2115634765625,-0.0021401161793619394,0.0048890309408307076,0.002198972040787339
1782952698785491500,1.221491455078125,-0.002682868391275406,0.005783853121101856,-0.0007893609581515193
1782952698795418600,1.231418701171875,0.0020088222809135914,0.0046120621263980865,0.0012303803814575076
1782952698805346600,1.2413466796875,-0.000028229507734067738,0.003925499506294727,0.00010492854926269501
1782952698815273500,1.2512734375,-0.002442118711769581,0.005152684170752764,-0.00008335694292327389
1782952698825200600,1.26120068359375,-0.00022184131375979632,0.005542304366827011,0.001458080718293786
1782952698835128600,1.271128662109375,-0.002264219569042325,0.004691690672188997,0.0010910971323028207
1782952698845055200,1.28105517578125,-0.0029678267892450094,0.006054163910448551,-0.0011166634503751993
1782952698854983700,1.290983642578125,0.0006295712664723396,0.005093828309327364,-0.0001739044237183407
1782952698864910300,1.300910400390625,-0.001645567244850099,0.004634699318557978,-0.001886317040771246
1782952698874838300,1.31083837890625,-0.0023100259713828564,0.005793973337858915,0.0012487561907619238
1782952698884765400,1.320765380859375,-0.002609631512314081,0.0005331648280844092,-0.0007677893154323101
1782952698894693400,1.330693359375,5.326322138898831e-7,-0.000041012681322172284,-0.00020932445477228612
1782952698904620300,1.340620361328125,0.0017832526937127113,-0.000526506919413805,0.00008335694292327389
1782952698914548500,1.350548583984375,-0.0011342403013259172,0.006502906791865826,0.0005763080553151667
1782952698924475400,1.360475341796875,-0.0006655239267274737,0.013064136728644371,0.004618453793227673
1782952698934402600,1.370402587890625,-0.00166580721270293,0.00711596617475152,0.004122573416680098
1782952698944330500,1.38033056640625,-0.0005014732014387846,0.007558850105851889,0.0033779535442590714
1782952698954257400,1.39025732421875,-0.0001984054979402572,0.005089034326374531,0.0006913566030561924
1782952698964185600,1.400185546875,-0.003174754325300455,0.006130596622824669,0.001386707997880876
1782952698974112500,1.410112548828125,-0.00192226970102638,0.004766525700688362,0.0015907060587778687
1782952698984040400,1.42004052734375,-0.002124669961631298,0.0035414716694504023,0.0018365158466622233
1782952698993967600,1.429967529296875,0.0004620584368240088,0.004057858604937792,0.0014596786350011826
1782952699003895600,1.4398955078125,-0.0022623552940785885,0.004175836686044931,-0.0015049523208290339
1782952699013822500,1.449822509765625,-0.002172074280679226,0.006434729788452387,0.0002532666258048266
1782952699023750700,1.459750732421875,-0.0014708638191223145,0.004929244983941317,-0.0015954998089000583
1782952699033677300,1.46967724609375,-0.0001411475386703387,0.00515801040455699,0.0024567660875618458
1782952699043604500,1.4796044921875,0.00004846953015658073,0.004906075540930033,0.000865793670527637
1782952699053532400,1.489532470703125,-0.0012293151812627912,0.004266916774213314,0.0027891285717487335
1782952699063459300,1.499459228515625,-0.000472977408207953,0.003695402294397354,0.0008431567694060504
1782952699073387300,1.50938720703125,0.00242134602740407,0.004613926634192467,0.0011861718958243728
1782952699083314400,1.519314453125,-0.0019888486713171005,0.005250421818345785,-0.00133850472047925
1782952699093242400,1.529242431640625,-0.001606418751180172,0.00515747768804431,0.0006119944155216217
1782952699103169500,1.53916943359375,-0.0012708604335784912,0.005562544334679842,0.0008655273704789579
1782952699113097500,1.549097412109375,-0.0017305220244452357,0.0035169704351574183,-0.0007294398383237422
1782952699123024400,1.5590244140625,0.0034256239887326956,0.007835552096366882,-0.0004727110790554434
1782952699132952600,1.56895263671875,0.001139033935032785,0.00538304727524519,0.0020812603179365396
1782952699142879500,1.57887939453125,0.0005965480813756585,0.0026325348298996687,0.0029201561119407415
1782952699152806400,1.588806396484375,-0.001327053178101778,0.006228601094335318,0.0012173309223726392
1782952699162731500,1.5987314453125,-0.0008349010022357106,0.006590524688363075,0.0010902981739491224
1782952699172659700,1.60865966796875,-0.003482881933450699,0.006962035782635212,0.0005725796218030155
1782952699182586400,1.61858642578125,-0.002641589380800724,0.004208327271044254,0.00145195540972054
1782952699192513500,1.628513427734375,-0.002546780975535512,0.005281314719468355,0.001157143502496183
1782952699202441500,1.63844140625,-0.00038935415796004236,0.004095675423741341,-0.0001512675517005846
1782952699212368400,1.648368408203125,-0.0009811085183173418,0.005082376766949892,-0.0003403519804123789
1782952699222296600,1.658296630859375,0.0024825986474752426,0.0038804919458925724,0.000666322885081172
1782952699232223500,1.668223388671875,0.0032988577149808407,0.004448810592293739,0.0013289173366501927
1782952699242151400,1.6781513671875,-0.0037238982040435076,0.004857605788856745,0.0002407497668173164
1782952699252078600,1.68807861328125,-0.0011552792275324464,0.003498861100524664,0.00022663500567432493
1782952699262006500,1.698006591796875,0.0009315737406723201,0.004357730504125357,0.0002846919232979417
1782952699271933400,1.707933349609375,-0.0006998787284828722,0.002752376953139901,0.0020841897930949926
1782952699281861600,1.717861572265625,-0.0020961740519851446,0.005431783385574818,0.001977929612621665
1782952699291788500,1.72778857421875,0.0003326288133393973,0.005215002223849297,0.0034432008396834135
1782952699301715700,1.7377158203125,0.002154231071472168,0.005137770436704159,0.0009544769418425858
1782952699311643600,1.7476435546875,-0.0013544837711378932,0.0054304515942931175,0.0017382452497258782
1782952699321570600,1.757570556640625,0.0012996225850656629,0.004236290231347084,0.0008732505375519395
1782952699331498500,1.76749853515625,-0.0014889733865857124,0.005644835997372866,0.001710814656689763
1782952699341425400,1.77742529296875,-0.0025395904667675495,0.005903429351747036,0.0015419702976942062
1782952699351353600,1.787353515625,-0.002121474128216505,0.0083673857152462,0.0016168050933629274
1782952699361280500,1.797280517578125,-0.002418150193989277,0.00430100504308939,0.0022865901701152325
1782952699371208400,1.80720849609375,-0.0009435579413548112,0.006594785954803228,-0.0024495755787938833
1782952699381135400,1.81713525390625,-0.0002282329078298062,0.0029933929909020662,0.0012418320402503014
1782952699391063600,1.8270634765625,-0.0008961536805145442,0.004314853344112635,0.0006386260502040386
1782952699400990500,1.836990478515625,-0.0013848437229171395,0.005421929527074099,0.0001968075957847759
1782952699410917600,1.846917724609375,0.0002324939559912309,0.005338572897017002,0.0015715312911197543
1782952699420845600,1.856845458984375,-0.0010253170039504766,0.0048975530080497265,0.0002793656021822244
1782952699430772500,1.8667724609375,-0.002127333078533411,0.0041465419344604015,0.0006482133758254349
1782952699440700400,1.876700439453125,0.0008037420338951051,0.005533249583095312,0.00017257283616345376
1782952699450627600,1.886627685546875,-0.00005805691034765914,0.005140167195349932,0.0005672533297911286
1782952699460555500,1.896555419921875,-0.001484445994719863,0.005013933405280113,0.0009291769238188863
1782952699470482700,1.906482666015625,-0.001743038883432746,0.005935387220233679,0.0009435579413548112
1782952699480410600,1.91641064453125,-0.0012258529895916581,0.007829693146049976,0.0008370315190404654
1782952699490337500,1.926337646484375,-0.004340420011430979,0.0031039142049849033,-0.0013574132462963462
1782952699500265500,1.936265380859375,-0.002415753435343504,0.005176652688533068,0.0014197311829775572
1782952699510192600,1.946192626953125,0.0020756677258759737,0.0054999603889882565,-0.0003299656673334539
1782952699520119600,1.95611962890625,-0.000287088769255206,0.0041244374588131905,-0.00016724651504773647
1782952699530047500,1.966047607421875,-0.0016021577175706625,0.0027566379867494106,0.0014136058744043112
1782952699539974400,1.975974365234375,-0.0014335796004161239,0.005607551895081997,0.0035601137205958366
1782952699549902300,1.98590234375,-0.0036732980515807867,0.004070375580340624,0.0035689021460711956
1782952699559829500,1.99582958984375,0.001493234420195222,0.0046424223110079765,-0.000015446334145963192
1782952699569757400,2.00575732421875,-0.0032320122700184584,0.0038903458043932915,0.0003102582704741508
1782952699579684600,2.0156845703125,-0.003311907174065709,0.0043864925391972065,0.0041033984161913395
1782952699589612500,2.025612548828125,-0.0007829693495295942,0.006045375484973192,0.000854075769893825
1782952699599539500,2.03553955078125,-0.0022778017446398735,0.007507184520363808,-0.00041305628838017583
1782952699609466600,2.045466552734375,-0.0004966795677319169,0.0023366576060652733,0.0026639599818736315
1782952699619394600,2.05539453125,-0.0009739180095493793,0.005822735372930765,-0.0013148026773706079
1782952699629321500,2.065321533203125,0.003097256412729621,0.0013933659065514803,0.0015864450251683593
1782952699639249700,2.075249755859375,0.0008785768295638263,0.0038421424105763435,0.002987001556903124
1782952699649176600,2.085176513671875,-0.001820536912418902,0.0044229780323803425,0.0013976269401609898
1782952699659104500,2.0951044921875,0.0023310647811740637,0.0037433390971273184,-0.00001997370782191865
1782952699669031700,2.10503173828125,-0.0017121462151408195,0.006358030717819929,0.0014301175251603127
1782952699678959600,2.114959716796875,0.00007536746124969795,0.0019038938917219639,0.0027411917690187693
1782952699688886500,2.124886474609375,0.0003014698449987918,0.004196343012154102,-0.00011345066013745964
1782952699698814700,2.134814697265625,-0.0008868326549418271,0.005041896365582943,0.00003302319601061754
1782952699708741400,2.144741455078125,0.00008735168376006186,0.003088201628997922,0.0033505228348076344
1782952699718668500,2.15466845703125,-0.0006868292111903429,0.007674165070056915,-0.0014253237750381231
1782952699728596500,2.164596435546875,-0.00373028963804245,0.004801679402589798,0.0013704627053812146
1782952699738523400,2.1745234375,0.001157143502496183,0.004516721237450838,-0.0012953615514561534
1782952699748451600,2.18445166015625,0.0010660634143278003,0.003019758267328143,0.0013318468118086457
1782952699758378500,2.19437841796875,-0.0001954760227818042,0.004304467234760523,0.002519882982596755
1782952699768306400,2.204306396484375,-0.003579022129997611,0.005627791862934828,0.0013494236627593637
1782952699778233600,2.214233642578125,-0.002042910782620311,0.005474926438182592,0.00008149272616719827
1782952699788161500,2.22416162109375,-0.001418665866367519,0.004914863966405392,0.0011696603614836931
1782952699798088400,2.23408837890625,-0.0025718146935105324,0.001674861996434629,0.0036509274505078793
1782952699808016600,2.2440166015625,-0.0009440905996598303,0.004857872147113085,0.0009653958841226995
1782952699817943600,2.253943603515625,-0.000015978966985130683,0.005338040180504322,0.0014421016676351428
1782952699827870700,2.26387060546875,-0.0013246563030406833,0.00569969741627574,0.0010218549286946654
1782952699837798700,2.273798583984375,-0.0005826996639370918,0.0034139060880988836,-0.0003701793903019279
1782952699847725600,2.2837255859375,0.0001203748834086582,0.004069842863827944,0.0014303837670013309
1782952699857653500,2.293653564453125,0.0011230550007894635,0.004333495628088713,0.00177899154368788
1782952699867580700,2.30358056640625,-0.0016354472609236836,0.005432316102087498,0.0011968245962634683
1782952699877508600,2.313508544921875,-0.00020506340661086142,0.0037465349305421114,-0.0003451456723269075
1782952699887435500,2.323435546875,-0.00018189390539191663,0.00538331363350153,0.0035425368696451187
1782952699897363500,2.333363525390625,-0.003947337158024311,0.0037172401789575815,-0.00031185615807771683
1782952699907290400,2.343290283203125,-0.00010892329009948298,0.005389438942074776,-0.0010178601369261742
1782952699917218600,2.353218505859375,0.000045540054998127744,0.004125502891838551,-0.0026522420812398195
1782952699927145500,2.3631455078125,-0.002588059986010194,0.004096208140254021,-0.0002926813904196024
1782952699937072600,2.37307275390625,0.00010120012302650139,0.005709284916520119,0.00247594085521996
1782952699947000600,2.38300048828125,-0.0010309095960110426,0.00310497940517962,0.00019467707898002118
1782952699956927500,2.392927490234375,-0.0006884271278977394,0.0036724992096424103,0.00047857005847617984
1782952699966855400,2.40285546875,-0.0018274611793458462,0.005487443413585424,0.0007534082396887243
1782952699976782600,2.412782470703125,-0.0016612798208370805,0.006060555577278137,0.004764128942042589
1782952699986710500,2.42271044921875,-0.00045673211570829153,0.0054128747433424,0.003495398908853531
1782952699996637700,2.4326376953125,0.00015180018090177327,0.006078398786485195,0.001356614287942648
1782952700006565600,2.442565673828125,-0.001493234420195222,0.005615274887531996,-0.000532632227987051
1782952700016492500,2.452492431640625,0.0010306433541700244,0.0038093857001513243,-0.00007323692989302799
1782952700026420500,2.46242041015625,-0.0012543488992378116,0.006503173150122166,0.00020772656716872007
1782952700036347600,2.47234765625,-0.0016447682864964008,0.006698382552713156,0.0004772384709212929
1782952700046274300,2.4822744140625,0.00037044569035060704,0.004065581597387791,-0.00047377636656165123
1782952700056202800,2.49220263671875,-0.001942776027135551,0.005375057924538851,0.00023808660625945777
1782952700066129400,2.50212939453125,0.000005326322025211994,0.0046786414459347725,0.0003510046226438135
1782952700076057300,2.512057373046875,0.001056476030498743,0.0041401502676308155,0.0019390475936233997
1782952700085984500,2.521984619140625,-0.0009885653853416443,0.0017393104499205947,0.0009744506096467376
1782952700095912400,2.531912353515625,-0.002709766384214163,0.004612861201167107,0.0009949569357559085
1782952700105839600,2.541839599609375,-0.002341717481613159,0.0032322786282747984,0.0026320021133869886
1782952700115766800,2.551766845703125,0.001859419047832489,0.0036557212006300688,0.0014514228096231818
1782952700125693700,2.561693603515625,-0.0015736619243398309,0.0062400526367127895,-0.001570998691022396
1782952700135620900,2.571620849609375,-0.0009169263648800552,0.0037260286044329405,0.0015337144723162055
1782952700145548800,2.581548828125,0.0014658038271591067,0.005774798337370157,-0.00035206988104619086
1782952700155476000,2.59147607421875,0.0015030881622806191,0.0052323127165436745,-0.0009049421059899032
1782952700165404000,2.60140380859375,0.001041562296450138,0.0026764769572764635,0.00019893812714144588
1782952700175330800,2.611330810546875,-0.000007723167072981596,0.004368915688246489,-0.001437308033928275
1782952700185258800,2.6212587890625,-0.004291950259357691,0.004510862287133932,0.0026059031952172518
1782952700195186000,2.63118603515625,-0.0017278589075431228,0.005801962688565254,0.0013382384786382318
1782952700205113900,2.64111376953125,-0.0018407768802717328,0.0057194046676158905,0.0013161342358216643
1782952700215040800,2.651040771484375,0.0005965480813756585,0.006081328261643648,0.0033398703671991825
1782952700224968700,2.66096875,-0.00046845004544593394,0.0037947380915284157,0.002156095113605261
1782952700234895600,2.6708955078125,-0.0016048208344727755,0.005044027231633663,0.0012269183062016964
1782952700244822800,2.68082275390625,-0.001713744131848216,0.005688512232154608,0.0007382282637991011
1782952700254750700,2.690750732421875,-0.0018929748330265284,0.006645385641604662,0.00024181502521969378
1782952700264678000,2.700677978515625,-0.002049835165962577,0.006176935974508524,0.0025031049735844135
1782952700274605800,2.710605712890625,-0.0005328985280357301,0.006531136110424995,-0.001264735241420567
1782952700284532700,2.72053271484375,-0.0005230448441579938,0.006706904619932175,0.00180908537004143
1782952700294460700,2.730460693359375,-0.0026072347536683083,0.006842459551990032,0.0003685815026983619
1782952700304387800,2.740387939453125,-0.0024948492646217346,0.0046783750876784325,0.0015579492319375277
1782952700314315800,2.750315673828125,-0.0017441042000427842,0.004435494542121887,0.0009571401169523597
1782952700324243000,2.760242919921875,0.002257561543956399,0.002670884132385254,-0.00021252025908324867
1782952700334169900,2.770169921875,-0.0032525185961276293,0.005835518706589937,0.0014066817238926888
1782952700344097800,2.780097900390625,0.00043809000635519624,0.0041430797427892685,-0.0008588694618083537
1782952700354025000,2.79002490234375,0.0019624833948910236,0.004653075244277716,-0.0004037352045997977
1782952700363953000,2.799952880859375,-0.00032330775866284966,0.004870655480772257,-0.0013273194199427962
1782952700373879600,2.809879638671875,0.0030088394414633512,0.0046725161373615265,0.0021552962716668844
1782952700383808000,2.81980810546875,-0.0018751317402347922,0.005494900047779083,-0.0009369000908918679
1782952700393734700,2.829734619140625,-0.0028517129831016064,0.00606455048546195,0.003032275242730975
1782952700403662600,2.83966259765625,-0.001457814360037446,0.006889065261930227,-0.0005307680112309754
1782952700413589800,2.84958984375,-0.0005912217311561108,0.004400340840220451,0.0022248048335313797
1782952700423517700,2.859517578125,-0.0007137271459214389,0.003481017891317606,0.000901480030734092
1782952700433444900,2.86944482421875,-0.0014897723449394107,0.005819805897772312,0.0019771307706832886
1782952700443371800,2.879371826171875,-0.0020421119406819344,0.0017310547409579158,0.002543585142120719
1782952700453299700,2.8892998046875,0.0003110571997240186,0.0036549223586916924,0.0010154632618650794
1782952700463227000,2.899226806640625,-0.001496430253610015,0.006956176832318306,-0.0002468750171829015
1782952700473154800,2.90915478515625,-0.0013965616235509515,0.005434979218989611,0.0007523429812863469
1782952700483081700,2.919081787109375,-0.0019052254501730204,0.007622765842825174,0.00016964336100500077
1782952700493010000,2.929010009765625,0.000669252360239625,0.005074919667094946,0.0013688647886738181
1782952700502936800,2.938936767578125,0.0007811051327735186,0.003575559938326478,0.002624012529850006
1782952700512864800,2.94886474609375,-0.0015134743880480528,0.004874117206782103,-0.00005672533006872982
1782952700522792000,2.9587919921875,-0.0021137509029358625,0.005116997752338648,0.0016277240356430411
1782952700532719900,2.968719970703125,-0.0014032195322215557,0.006645918358117342,0.00210602767765522
1782952700542646800,2.978646728515625,0.0011432950850576162,0.004449343308806419,-0.0010852381819859147
1782952700552573700,2.98857373046875,0.0010287790792062879,0.0046576024033129215,0.00022024342615623027
1782952700562501600,2.998501708984375,0.0009648632840253413,0.006474144756793976,-0.0006972155533730984
1782952700572428800,3.0084287109375,-0.000827177835162729,0.004192880820482969,0.0006356965750455856
1782952700582356700,3.018356689453125,-0.0009416937828063965,0.007191866636276245,0.0030338731594383717
1782952700592283600,3.02828369140625,-0.0010990865994244814,0.00487305223941803,-0.002636263146996498
1782952700602211800,3.0382119140625,-0.0012913667596876621,0.004855209030210972,0.001377919572405517
1782952700612138800,3.048138671875,-0.002773682354018092,0.006686664652079344,-0.0008535431115888059
1782952700622066700,3.058066650390625,-0.0030027141328901052,0.0037433390971273184,0.0012519520241767168
1782952700631993900,3.067993896484375,0.0001637844106880948,0.004859203472733498,-0.0030866037122905254
1782952700641920800,3.077920654296875,-0.0028032432310283184,0.006386792752891779,0.00010146643762709573
1782952700651848700,3.0878486328125,0.00007696535612922162,0.005029379855841398,0.0004495415778364986
1782952700661776000,3.09777587890625,-0.0029704899061471224,0.005945240613073111,0.0007832356495782733
1782952700671703800,3.107703857421875,-0.0024021712597459555,0.004070907831192017,0.00008309062832267955
1782952700681631000,3.117630859375,-0.0011664645280689,0.003893807763233781,0.0005174521938897669
1782952700691559000,3.127558837890625,-0.00046578687033616006,0.005408347584307194,-0.00031878036679700017
1782952700701485800,3.13748583984375,0.00008948221511673182,0.004700212739408016,-0.00015952334797475487
1782952700711413800,3.147413818359375,0.0046874298714101315,0.004448011517524719,-0.0026027073618024588
1782952700721341000,3.1573408203125,0.00022610237647313625,0.007880027405917645,0.00023409185814671218
1782952700731268900,3.167268798828125,-0.0025920546613633633,0.007729558739811182,0.0010186590952798724
1782952700741195800,3.17719580078125,-0.000767523015383631,0.00549197057262063,-0.0016261261189356446
1782952700751122700,3.187122802734375,-0.002357163932174444,0.005268265027552843,-0.001014398061670363
1782952700761050600,3.197050537109375,0.0007661914569325745,0.003910053055733442,0.001958488719537854
1782952700770977800,3.206977783203125,-0.0008069378091022372,0.0049281795509159565,0.0001560612436151132
1782952700780905700,3.21690576171875,-0.0036067189648747444,0.005227785091847181,0.0034946000669151545
1782952700790832600,3.22683251953125,0.0004820321628358215,0.003073287894949317,0.0008759136544540524
1782952700800760800,3.2367607421875,0.000928377965465188,0.005397961009293795,0.00033902039285749197
1782952700810687700,3.246687744140625,-0.00005352953667170368,0.006183593533933163,0.0030131004750728607
1782952700820615700,3.25661572265625,-0.000182959163794294,0.00660517206415534,0.00040426786290481687
1782952700830542800,3.26654296875,-0.00047830372932367027,0.0067782774567604065,0.0010791128734126687
1782952700840469800,3.2764697265625,-0.0008436894277110696,0.003338272450491786,0.0013994910987094045
1782952700850398000,3.28639794921875,0.0002985403698403388,0.006452306639403105,0.0047060721553862095
1782952700860324900,3.296324951171875,-0.00022370553051587194,0.005568669643253088,0.0020538298413157463
1782952700870252800,3.306252685546875,-0.0017001620726659894,0.004250404890626669,0.002058889716863632
1782952700880180000,3.316179931640625,-0.002656503114849329,0.005577191710472107,0.0004058657505083829
1782952700890108000,3.32610791015625,-0.0012290488230064511,0.002948652021586895,-0.0004751079250127077
1782952700900034800,3.336034912109375,-0.00005912217602599412,0.005591839086264372,0.0017683389596641064
1782952700909963000,3.345962890625,0.00013875069271307439,0.00561048137024045,0.0006388923502527177
1782952700919889700,3.3558896484375,0.000556334329303354,0.005232844967395067,-0.00011238539445912465
1782952700929817600,3.365817626953125,0.000045806369598722085,0.006340720225125551,0.0005866943974979222
1782952700939744800,3.375744873046875,0.00004713794987765141,0.004289553500711918,-0.0007206514128483832
1782952700949671700,3.385671630859375,-0.0024232103023678064,0.0038448055274784565,0.001555552356876433
1782952700959599600,3.395599609375,-0.003721767570823431,0.004821919370442629,0.0035031221341341734
1782952700969526800,3.40552685546875,-0.0020756677258759737,0.004376106429845095,-0.00011211907985853031
1782952700979454700,3.415454833984375,-0.000023968450477696024,0.006130330264568329,-0.000046072687837295234
1782952700989382000,3.4253818359375,0.0001739044237183407,0.005191300064325333,0.0008881642133928835
1782952700999309800,3.435309814453125,0.0001560612436151132,0.0041273669339716434,-0.0016234630020335317
1782952701009236700,3.44523681640625,-0.0036970002111047506,0.004719654098153114,-0.0009867012267932296
1782952701019165000,3.4551650390625,0.00011052118497900665,0.0028269453905522823,0.0015464976895600557
1782952701029091800,3.465091796875,0.0014809839194640517,0.0076272934675216675,-0.0026144252624362707
1782952701039018800,3.475018798828125,-0.0037699707318097353,0.007929029874503613,-0.001100950757972896
1782952701048947000,3.484947021484375,-0.0011163970921188593,0.004838697146624327,-0.00072597770486027
1782952701058873900,3.494873779296875,-0.0002234392159152776,0.0049193911254405975,-0.0008972189389169216
1782952701068801800,3.5048017578125,-0.000964064325671643,0.005407548509538174,0.0005382248782552779
1782952701078728700,3.514728759765625,-0.00008229167724493891,0.0037822213489562273,0.0011230550007894635
1782952701088657000,3.524656982421875,-0.0022743395529687405,0.004960670135915279,0.0017888452857732773
1782952701098583800,3.534583740234375,-0.00023515711654908955,0.004746818449348211,0.004668521229177713
1782952701108511700,3.54451171875,-0.0005834985640831292,0.006207562051713467,0.0018578211311250925
1782952701118438700,3.554438720703125,-0.0012117383303120732,0.005033907014876604,0.0032621060963720083
1782952701128366600,3.56436669921875,-0.0008106662426143885,0.005060805007815361,0.000027164242055732757
1782952701138293800,3.574293701171875,-0.0009161274065263569,0.004860535264015198,-0.0010820423485711217
1782952701148220700,3.584220703125,-0.001401089015416801,0.004385693464428186,0.000559263804461807
1782952701158148900,3.59414892578125,0.0007488809060305357,0.0057311225682497025,0.001100950757972896
1782952701168075800,3.60407568359375,-0.0015488944482058287,0.005394232925027609,0.00029774141148664057
1782952701178003700,3.614003662109375,0.00027377295191399753,0.003751861397176981,0.0014322480419650674
1782952701187931000,3.623930908203125,0.001547030289657414,0.003716174978762865,0.0003944141499232501
1782952701197858800,3.63385888671875,-0.0009645969257690012,0.004073038697242737,0.0007760451408103108
1782952701207785700,3.64378564453125,0.00054142065346241,0.004554005339741707,0.0008125304593704641
1782952701217714000,3.6537138671875,0.0009214537567459047,0.004475708585232496,0.0011765845119953156
1782952701227640800,3.663640869140625,-0.00036458674003370106,0.0037830201908946037,0.004834436345845461
1782952701237568000,3.673568115234375,-0.0007446198142133653,0.004599545616656542,0.0014924354618415236
1782952701247496000,3.683495849609375,-0.0012072109384462237,0.005784918554127216,0.001336107961833477
1782952701257422800,3.6934228515625,-0.0006860303110443056,0.003582484321668744,0.0010399643797427416
1782952701267351000,3.70335107421875,-0.0015342470724135637,0.0033007217571139336,0.0019294602097943425
1782952701277277700,3.713277587890625,-0.0007853662245906889,0.0032107068691402674,-0.0017273263074457645
1782952701287206000,3.723205810546875,0.0012314456980675459,0.006973753683269024,0.00014221279707271606
1782952701297132800,3.7331328125,0.00034887410583905876,0.005343632772564888,0.000550475378986448
1782952701307060700,3.743060791015625,-0.0007222492713481188,0.003061037277802825,0.003468234557658434
1782952701316987600,3.752987548828125,0.0014919028617441654,0.0043742419220507145,0.0011347729014232755
1782952701326915800,3.762915771484375,-0.0022746059112250805,0.004069842863827944,0.0014985607704147696
1782952701336842800,3.7728427734375,0.000009321063771494664,0.005119128152728081,0.002112685702741146
1782952701346770000,3.78277001953125,-0.0006370281334966421,0.0023150858469307423,0.00017337177996523678
1782952701356697900,3.79269775390625,-0.001520132296718657,0.0049460227601230145,0.0004261057765688747
1782952701366624800,3.802624755859375,0.000570981705095619,0.00518810423091054,0.001541171339340508
1782952701376552700,3.812552734375,0.0013054815353825688,0.00381417921744287,0.0013430321123450994
1782952701386479900,3.82247998046875,-0.0012807141756638885,0.004922853317111731,0.00021411814668681473
1782952701396407800,3.83240771484375,-0.00005912217602599412,0.0030336068011820316,0.0025073662400245667
1782952701406335000,3.8423349609375,-0.001419198582880199,0.0038693067617714405,0.0006644586683250964
1782952701416263000,3.852262939453125,-0.000723048229701817,0.004318315535783768,0.00177925790194422
1782952701426189800,3.86218994140625,-0.0010048106778413057,0.005681854207068682,0.0013944311067461967
1782952701436117000,3.872116943359375,0.0005648564547300339,0.005797435529530048,0.0041468082927167416
1782952701446045000,3.882044921875,-0.0026695525739341974,0.004034156445413828,0.0004697816038969904
1782952701455971800,3.891971923828125,0.00013901700731366873,0.0027286747936159372,0.0023435817565768957
1782952701465900000,3.901900146484375,-0.0012695288751274347,0.0010271812789142132,0.002487925114110112
1782952701475826700,3.91182666015625,-0.0011446266435086727,0.00321949552744627,-0.002183792181313038
1782952701485754600,3.921754638671875,0.00027616979787126184,0.006284793838858604,-0.0037476003635674715
1782952701495681800,3.931681884765625,-0.0008191883680410683,0.005248025059700012,0.0023515713401138783
1782952701505609700,3.941609619140625,-0.0025449167005717754,0.0037499971222132444,0.004363056737929583
1782952701515537000,3.951536865234375,0.001431182725355029,0.004911401774734259,-0.0014138722326606512
1782952701525463800,3.9614638671875,-0.0021635519806295633,0.0037089844699949026,0.0016820525052025914
1782952701535391700,3.971391845703125,0.0014748586108908057,0.005762814078480005,0.0024258734192699194
1782952701545319000,3.98131884765625,-0.0018221348291262984,0.00538384635001421,0.000922519015148282
1782952701555246800,3.991246826171875,0.0017648768844082952,0.004859736189246178,0.0027230822015553713
1782952701565173800,4.001173828125,-0.0024498419370502234,0.0076185050420463085,-0.0020213392563164234
1782952701575102000,4.01110205078125,0.0005153216770850122,0.004247475415468216,0.002715625334531069
1782952701585028900,4.02102880859375,-0.0012815131340175867,0.005810218397527933,0.0013712616637349129
1782952701594956800,4.030956787109375,0.0000679106087773107,0.007924768142402172,-0.0010335728293284774
1782952701604884000,4.040884033203125,-0.001999501371756196,0.004480502102524042,-0.0010239854454994202
1782952701614812000,4.05081201171875,-0.003437075763940811,0.006826214492321014,0.0013243899447843432
1782952701624738800,4.06073876953125,0.0004673847579397261,0.006770021747797728,0.000538491178303957
1782952701634665700,4.070665771484375,-0.004698881413787603,0.0030426615849137306,-0.0008721852791495621
1782952701644593700,4.08059375,-0.0011741877533495426,0.0037444045301526785,-0.0004868258547503501
1782952701654520800,4.090520751953125,-0.003138535423204303,0.004780906718224287,0.0013052152935415506
1782952701664448800,4.10044873046875,-0.00039760995423421264,0.005263471510261297,0.001520665013231337
1782952701674375700,4.110375732421875,-0.0016671388875693083,0.006811034400016069,0.0008229167433455586
1782952701684304000,4.120303955078125,-0.0011478224769234657,0.004994226153939962,-0.00045566685730591416
1782952701694230800,4.130230712890625,-0.00152332813013345,0.004735100548714399,0.0010162622202187777
1782952701704158700,4.14015869140625,0.0001651159836910665,0.0037926076911389828,-0.001540904981084168
1782952701714086000,4.1500859375,0.002388855442404747,0.003293797606602311,0.00010839065362233669
1782952701724012800,4.1600126953125,-0.0010295780375599861,0.003858654061332345,0.0010370349045842886
1782952701733940700,4.169940673828125,-0.0023941819090396166,0.0028013791888952255,0.0007163903210312128
1782952701743868000,4.179867919921875,-0.0013659353135153651,0.0049492185935378075,0.00015339808305725455
1782952701753795800,4.1897958984375,0.0003153182624373585,0.005465871654450893,0.0003121224872302264
1782952701763723000,4.199722900390625,-0.0006870955694466829,0.0037910097744315863,-0.0015811186749488115
1782952701773651000,4.20965087890625,0.00014434332842938602,0.004235225263983011,-0.0010657970560714602
1782952701783577900,4.219577880859375,-0.00264744833111763,0.004744953941553831,-0.002240251051262021
1782952701793505800,4.229505859375,0.0003576625313144177,0.005102084018290043,-0.00019148127466905862
1782952701803433000,4.239432861328125,-0.001511610229499638,0.002972087822854519,0.0016966998809948564
1782952701813359600,4.249359619140625,0.0005573995877057314,0.0057588196359574795,0.001350222621113062
1782952701823287800,4.259287841796875,-0.002103630919009447,0.005047755315899849,0.0038389465771615505
1782952701833214700,4.269214599609375,-0.0019116170005872846,0.00566853815689683,0.0021342572290450335
1782952701843142700,4.279142578125,-0.0018546254141256213,0.0027539748698472977,0.0029891319572925568
1782952701853069800,4.28906982421875,-0.002410160843282938,0.006866694428026676,-0.001187237212434411
1782952701862997800,4.298997802734375,0.0011835087789222598,0.005634716246277094,0.0024234766606241465
1782952701872925000,4.308925048828125,0.00047084689140319824,0.0036189695820212364,0.0027531760279089212
1782952701882852900,4.318852783203125,0.000004793690095539205,0.0038093857001513243,0.00047697214176878333
1782952701892779800,4.32877978515625,-0.0016756609547883272,0.0033888723701238632,-0.0004021373169962317
1782952701902707700,4.338707763671875,-0.0018423747969791293,0.0036671727430075407,0.0020897823851555586
1782952701912635000,4.348634765625,-0.0006554039428010583,0.005768939387053251,0.0015393070643767715
1782952701922561800,4.358561767578125,0.00003435477628954686,0.004261590540409088,-0.0010040117194876075
1782952701932490000,4.368489990234375,-0.001484179636463523,0.005218463949859142,-0.003710049670189619
1782952701942417000,4.3784169921875,0.0007707187905907631,0.0060211410745978355,0.002028796123340726
1782952701952344800,4.3883447265625,-0.0023917849175632,0.005934854503720999,0.00021278657368384302
1782952701962272000,4.39827197265625,-0.0019065570086240768,0.004790760576725006,0.001677525113336742
1782952701972200000,4.408199951171875,-0.003133208956569433,0.005072789266705513,0.000723048229701817
1782952701982126600,4.418126708984375,-0.000045273736759554595,0.005398227367550135,0.00028762139845639467
1782952701992055000,4.428054931640625,-0.00032197617110796273,0.00424294825643301,-0.00043888893560506403
1782952702001981700,4.437981689453125,-0.0023070964962244034,0.003183809109032154,0.0015371765475720167
1782952702011908900,4.447908935546875,0.0005464806454256177,0.004126301966607571,-0.0006386260502040386
1782952702021836800,4.4578369140625,-0.0003989415417890996,0.004516721237450838,-0.0005834985640831292
1782952702031763700,4.467763671875,-0.002528937766328454,0.0048980857245624065,0.0018303906545042992
1782952702041692000,4.47769189453125,-0.0000476705827168189,0.004312456585466862,-0.0002460760879330337
1782952702051618800,4.487618896484375,0.0007395598222501576,0.00501073757186532,-0.0011374361347407103
1782952702061546800,4.497546630859375,0.0013342436868697405,0.00310604483820498,0.001252750982530415
1782952702071474000,4.507473876953125,-0.0013480921043083072,0.0041036647744476795,0.0008468852029182017
1782952702081401900,4.51740185546875,-0.0035289546940475702,0.005556951742619276,0.002555569401010871
1782952702091328800,4.527328857421875,-0.002034921431913972,0.005842708982527256,0.0011241203173995018
1782952702101257000,4.537257080078125,-0.0007651261985301971,0.007849667221307755,0.0023188143968582153
1782952702111184000,4.547183837890625,-0.001440237509086728,0.001651159836910665,-0.0001954760227818042
1782952702121111300,4.557111328125,-0.0005672533297911286,0.00387356779538095,-0.00021491710504051298
1782952702131039500,4.56703955078125,-0.0014567491598427296,0.0027164241764694452,0.000871652620844543
1782952702140966400,4.57696630859375,-0.001398159540258348,0.0048919604159891605,0.00014620754518546164
1782952702150894300,4.586894287109375,0.001121723442338407,0.006362558342516422,0.0016474314033985138
1782952702160821500,4.596821533203125,-0.002356897573918104,0.005893042776733637,0.002400306984782219
1782952702170749400,4.60674951171875,0.00033582461765035987,0.00330205331556499,-0.0007286408799700439
1782952702180676400,4.61667626953125,-0.0015909724170342088,0.003863980295136571,0.001130511867813766
1782952702190604500,4.6266044921875,-0.0017499631503596902,0.0016879114555194974,0.00024288028362207115
1782952702200531500,4.636531494140625,0.0019590212032198906,0.002772616920992732,-0.0006657902849838138
1782952702210458600,4.646458740234375,-0.0012122709304094315,0.0037851508241146803,-0.000319845654303208
1782952702220386600,4.656386474609375,-0.0023193468805402517,0.006299973931163549,0.0027137610595673323
1782952702230313500,4.6663134765625,-0.0003712446487043053,0.003994741477072239,-0.0011177286505699158
1782952702240241400,4.676241455078125,-0.0002716424351092428,0.003737214021384716,0.0015366439474746585
1782952702250168600,4.68616845703125,-0.0013073458103463054,0.004545483272522688,0.002755040070042014
1782952702260096500,4.696096435546875,0.0008386294357478619,0.005546565633267164,0.0011358382180333138
1782952702270023400,4.7060234375,-0.0010016148444265127,0.004905809182673693,0.0012807141756638885
1782952702279951400,4.715951416015625,-0.002383262850344181,0.006356698926538229,-0.0009920274605974555
1782952702289878300,4.725878173828125,-0.0008367652189917862,0.005540440324693918,0.0019358517602086067
1782952702299805400,4.735805419921875,-0.0005842975224368274,0.004589159041643143,-0.0007046724203974009
1782952702309733400,4.7457333984375,-0.0030658310279250145,0.006718622520565987,0.00407463638111949
1782952702319660500,4.75566064453125,0.002540922025218606,0.004770520608872175,0.002290851203724742
1782952702329588500,4.76558837890625,-0.0023254721891134977,0.0031784826423972845,0.0024290692526847124
1782952702339515400,4.775515380859375,0.0014927018200978637,0.0036855486687272787,0.0009859022684395313
1782952702349443300,4.785443359375,0.0007747135823592544,0.0062642875127494335,0.0014748586108908057
1782952702359370500,4.79537060546875,-0.0026527747977524996,0.005160939879715443,-0.0001560612436151132
1782952702369298400,4.80529833984375,-0.0014442323008552194,0.004882107023149729,0.0002008023438975215
1782952702379225600,4.8152255859375,0.0026434536557644606,0.004991828929632902,0.0007179882377386093
1782952702389153500,4.825153564453125,-0.0009110674145631492,0.004368915688246489,0.0013510215794667602
1782952702399080400,4.83508056640625,0.0018777948571369052,0.00541340745985508,-0.0002681803307496011
1782952702409007600,4.845007568359375,0.0006908240029588342,0.004460528492927551,0.001145159243606031
1782952702418935600,4.854935546875,0.00126766471657902,0.007479487918317318,0.000740625080652535
1782952702428862200,4.8648623046875,0.000526506919413805,0.0038962047547101974,0.003379817819222808
1782952702438790700,4.874790771484375,-0.000791491474956274,0.006380401086062193,-0.0004093278548680246
1782952702448717300,4.88471728515625,-0.002130528911948204,0.002870887517929077,0.00031851406674832106
1782952702458645200,4.894645263671875,0.0008452873444184661,0.009968211874365807,0.001100950757972896
1782952702468572400,4.904572509765625,-0.0006322344415821135,0.0065322015434503555,-0.0011353056179359555
1782952702478500400,4.914500244140625,-0.0034317492973059416,0.004618986509740353,0.001574194524437189
1782952702488427500,4.924427490234375,-0.0022120214998722076,0.00490314606577158,0.0015326491557061672
1782952702498354400,4.9343544921875,-0.003210174385458231,0.004581702407449484,0.0019430422689765692
1782952702508282400,4.944282470703125,-0.003716441337019205,0.005715143866837025,-0.00039707732503302395
1782952702518209500,4.95420947265625,-0.0014389059506356716,0.006196643225848675,0.0004013383586425334
1782952702528137500,4.964137451171875,0.0009960222523659468,0.005008340813219547,0.0019499665359035134
1782952702538064400,4.974064453125,-0.002435727044939995,0.005376656074076891,0.00029534456552937627
1782952702547992600,4.98399267578125,0.0015909724170342088,0.003008306724950671,0.0028879318851977587
1782952702557919500,4.99391943359375,0.0004540689697023481,0.007303719408810139,0.000681236619129777
1782952702567847400,5.003847412109375,0.0015997608425095677,0.004859736189246178,0.002380333375185728
1782952702577774600,5.013774658203125,-0.0013454289874061942,0.0033132387325167656,0.000931041082367301
1782952702587701500,5.023701416015625,0.0010295780375599861,0.0044349622912704945,-0.000032490566809428856
1782952702597629400,5.03362939453125,0.0008977515972219408,0.004579305648803711,-0.0003403519804123789
1782952702607556400,5.043556396484375,-0.0011124024167656898,0.005763346794992685,0.001939580193720758
1782952702617484500,5.053484619140625,-0.00003355582884978503,0.00512818293645978,0.0016476977616548538
1782952702627411500,5.063411376953125,0.00024474450037814677,0.005793174263089895,0.0007044061203487217
1782952702637339400,5.07333935546875,-0.001148355077020824,0.005135640036314726,0.000568318588193506
1782952702647266300,5.083266357421875,-0.0015217302134260535,0.005130846053361893,-0.00022743394947610795
1782952702657194500,5.093194580078125,0.00017496968212071806,0.0062246061861515045,0.0014452975010499358
1782952702667121400,5.103121337890625,-0.0003225088003091514,0.004492220003157854,0.001671666163019836
1782952702677048300,5.11304833984375,-0.0016508935950696468,0.006642988882958889,0.0001882854849100113
1782952702686976500,5.1229765625,0.0013100089272484183,0.005254683084785938,0.0005331648280844092
1782952702696903400,5.1329033203125,-0.00038535939529538155,0.0049161952920258045,-0.0003070624661631882
1782952702706831400,5.142831298828125,0.002326004905626178,0.005273591727018356,-0.0013571468880400062
1782952702716758500,5.152758544921875,-0.001525991247035563,0.0031201594974845648,0.003139334265142679
1782952702726686500,5.1626865234375,-0.002945456188172102,0.005568669643253088,0.0010823087068274617
1782952702736613600,5.172613525390625,-0.0011110707418993115,0.006505303550511599,0.00035446672700345516
1782952702746541600,5.18254150390625,0.001745968358591199,0.005735916085541248,0.0021995047573000193
1782952702756468500,5.192468505859375,-0.0028988507110625505,0.0018218684708699584,0.00290391081944108
1782952702766395600,5.202395751953125,-0.0023811322171241045,0.004394215997308493,0.0025070998817682266
1782952702776323600,5.212323486328125,0.00020479709201026708,0.005664543714374304,-0.00039521310827694833
1782952702786250200,5.222250244140625,0.00033582461765035987,0.0038831550627946854,-0.0005070658517070115
1782952702796178400,5.232178466796875,-0.0013936321483924985,0.0019518306944519281,0.0007560714147984982
1782952702806105300,5.242105224609375,-0.0004889564006589353,0.004169178660959005,0.0007243797881528735
1782952702816033300,5.252033203125,0.0005499427788890898,0.005359611473977566,0.0018351842882111669
1782952702825960400,5.26196044921875,-0.001008539111353457,0.003799265483394265,-0.0001994707708945498
1782952702835888400,5.271888427734375,-0.0015608787070959806,0.0068025123327970505,0.0014066817238926888
1782952702845815300,5.281815185546875,0.000050866376113845035,0.0028490496333688498,-0.0004982774262316525
1782952702855743500,5.291743408203125,-0.0035750274546444416,0.004290885291993618,0.0007629956235177815
1782952702865670400,5.30167041015625,-0.0024402544368058443,0.0027441212441772223,-0.0013515542959794402
1782952702875597600,5.31159765625,-0.0013294500531628728,0.00544403400272131,0.0017688715597614646
1782952702885525500,5.321525390625,-0.001853293739259243,0.0036996633280068636,0.002028263406828046
1782952702895452400,5.331452392578125,-0.0008412926108576357,0.0051955608651041985,-0.0011369034182280302
1782952702905380600,5.341380615234375,-0.0021944446489214897,0.0037001960445195436,0.003573962254449725
1782952702915307500,5.3513076171875,-0.0005366269615478814,0.005416603293269873,0.0018764632986858487
1782952702925235500,5.3612353515625,-0.0032408006954938173,0.005907423794269562,-0.0011291803093627095
1782952702935162600,5.37116259765625,-0.0004985437262803316,0.002749447477981448,-0.002231995342299342
1782952702945090600,5.381090576171875,-0.0005576659459620714,0.00631994754076004,0.0015134743880480528
1782952702955017500,5.391017578125,-0.003543335711583495,0.004993959795683622,-0.0003936151915695518
1782952702964944400,5.4009443359375,-0.000604004948399961,0.005065065808594227,-0.0019358517602086067
1782952702974872300,5.410872314453125,0.0008580705034546554,0.006296778097748756,0.00013182646944187582
1782952702984799500,5.420799560546875,-0.001698830397799611,0.003985154442489147,0.00040719733806326985
1782952702994727400,5.4307275390625,-0.00101120222825557,0.004488757811486721,0.0018730012234300375
1782952703004654300,5.440654296875,0.0011733887949958444,0.005715409759432077,0.00035712990211322904
1782952703014582300,5.450582275390625,0.0014956312952563167,0.004235491156578064,0.0009566074586473405
1782952703024509400,5.460509521484375,0.0005819007055833936,0.005113002844154835,0.0015694007743149996
1782952703034437400,5.470437255859375,0.0026221484877169132,0.00384427304379642,-0.00042743736412376165
1782952703044364500,5.480364501953125,-0.0015720640076324344,0.0028762139845639467,0.0012652678415179253
1782952703054291500,5.49029150390625,0.0005233111442066729,0.002626675646752119,0.002415753435343504
1782952703064219400,5.500219482421875,-0.0004346278728917241,0.00589730404317379,-0.0011891013709828258
1782952703074146600,5.510146484375,-0.00006844323797849938,0.0038482677191495895,0.00044581317342817783
1782952703084074500,5.520074462890625,-0.000574177538510412,0.0048767803236842155,0.0011124024167656898
1782952703094001400,5.53000146484375,0.0007843009079806507,0.006593187805265188,0.0002479403046891093
1782952703103929600,5.5399296875,-0.0010980212828144431,0.004787032026797533,-0.00035446672700345516
1782952703113856000,5.54985595703125,-0.001832787413150072,0.003171558491885662,-0.0002300971100339666
1782952703123784200,5.5597841796875,-0.001433845958672464,0.0035268242936581373,-0.00030067088664509356
1782952703133711000,5.569711181640625,-0.004701810888946056,0.007115167565643787,0.0002998719282913953
1782952703143638000,5.579637939453125,-0.0017662084428593516,0.0032679650466889143,-0.0007451524725183845
1782952703153566200,5.589566162109375,-0.002389121800661087,0.0027177559677511454,0.004829376470297575
1782952703163493000,5.5994931640625,-0.0037505298387259245,0.004880508873611689,0.0015848471084609628
1782952703173421000,5.609421142578125,-0.0005025385180488229,0.00678307143971324,-0.0001637844106880948
1782952703183348200,5.61934814453125,-0.0012655340833589435,0.003912982530891895,-0.00007909588020993397
1782952703193276200,5.629276123046875,-0.0015009575290605426,0.00552233075723052,0.00041731735109351575
1782952703203203300,5.639203369140625,-0.0007326356135308743,0.004993160720914602,0.001008539111353457
1782952703213131300,5.64913134765625,-0.0010966897243633866,0.00666456064209342,0.00239205127581954
1782952703223058200,5.65905810546875,-0.0010551444720476866,0.00475507415831089,-0.0000679106087773107
1782952703232986000,5.668986083984375,-0.00009560748003423214,0.0049614692106842995,-0.00054142065346241
1782952703242913300,5.678913330078125,0.00036245622322894633,0.006356698926538229,0.0024615598376840353
1782952703252841200,5.68884130859375,0.00002370213405811228,0.006107427179813385,0.00015446334145963192
1782952703262769200,5.69876904296875,-0.0010966897243633866,0.004533499013632536,0.00023302659974433482
1782952703272696300,5.7086962890625,-0.0016056197928264737,0.003061303636059165,0.0010226538870483637
1782952703282624300,5.718624267578125,0.00002902845517382957,0.0047260457649827,0.0029172266367822886
1782952703292551200,5.72855126953125,0.0013651363551616669,0.005693838465958834,0.0020695424173027277
1782952703302479400,5.738479248046875,-0.00267674308270216,0.005578257143497467,0.0010130665032193065
1782952703312406000,5.748406005859375,0.0018005631864070892,0.005363872740417719,0.00253453035838902
1782952703322333200,5.758333251953125,0.0007419566973112524,0.0030687605030834675,0.002543585142120719
1782952703332261000,5.76826123046875,0.0007856325246393681,0.004460528492927551,0.0013856426812708378
1782952703342188000,5.77818798828125,0.0004894890007562935,0.0043830303475260735,0.0005848301807418466
1782952703352116200,5.7881162109375,0.0008727178792469203,0.0075665730983018875,-0.00006684534309897572
1782952703362043100,5.798043212890625,0.000437291048001498,0.002264219569042325,-0.00037497308221645653
1782952703371971000,5.80797119140625,0.0009552759001962841,0.0067902617156505585,0.0008623315370641649
1782952703381898200,5.817898193359375,0.0006061354652047157,0.004489556886255741,0.00034354778472334146
1782952703391826200,5.827826171875,-0.002490854589268565,0.005627259146422148,-0.0015448997728526592
1782952703401753000,5.837753173828125,-0.00016538229829166085,0.004968925844877958,0.00017097493400797248
1782952703411680300,5.84768017578125,0.0014138722326606512,0.005619536153972149,0.0013345100451260805
1782952703421608200,5.857608154296875,0.0019893813878297806,0.004811799619346857,0.0008913599886000156
1782952703431535400,5.867535400390625,0.001014398061670363,0.004545483272522688,-0.0010876349406316876
1782952703441463300,5.87746337890625,-0.001484712352976203,0.0057260626927018166,-0.00008735168376006186
1782952703451390200,5.88739013671875,-0.0014998923288658261,0.005392634775489569,-0.00025513084256090224
1782952703461318100,5.897318115234375,0.0008229167433455586,0.006218214984983206,-0.00046392265358008444
1782952703471245000,5.9072451171875,-0.00013076121103949845,0.004832039587199688,0.00047404266661033034
1782952703481173200,5.91717333984375,-0.0004159857635386288,0.003306314582005143,0.002234658459201455
1782952703491100200,5.92710009765625,-0.0015864450251683593,0.005485845264047384,0.0003685815026983619
1782952703501027000,5.937027099609375,-0.0006908240029588342,0.005529787857085466,0.0015012238873168826
1782952703510955000,5.946955078125,-0.001520132296718657,0.00561128044500947,0.0015486282063648105
1782952703520882200,5.956882080078125,-0.0005824333056807518,0.0051476238295435905,0.0005014732014387846
1782952703530810000,5.96681005859375,-0.0011251855175942183,0.006707437336444855,0.0022069616243243217
1782952703540737300,5.9767373046875,-0.0007488809060305357,0.003658917034044862,0.001957423286512494
1782952703550665200,5.986665283203125,-0.003567037871107459,0.0037816886324435472,-0.00021172130072955042
1782952703560592100,5.996592041015625,0.000835966260638088,0.006583866663277149,-0.00016058860637713224
1782952703570520000,6.00652001953125,0.0028157602064311504,0.0036855486687272787,0.0020277309231460094
1782952703580447200,6.016447265625,-0.003543335711583495,0.0037470676470547915,0.0013499563792720437
1782952703590375200,6.026375244140625,0.0001704423048067838,0.004177700728178024,0.0004902879591099918
1782952703600302300,6.03630224609375,-0.00008548746700398624,0.006077599711716175,0.00016431703988928348
1782952703610229200,6.046229248046875,-0.0028277444653213024,0.004954278469085693,-0.0014833806781098247
1782952703620157200,6.0561572265625,0.000824248360004276,0.00621022516861558,0.002094842493534088
1782952703630084400,6.06608447265625,-0.001683650421909988,0.005543902516365051,-0.0002644518972374499
1782952703640012300,6.07601220703125,-0.000012783173588104546,0.004945223685353994,0.002645584288984537
1782952703649939000,6.08593896484375,-0.000012783173588104546,0.005075718741863966,-0.0012636699248105288
1782952703659867100,6.0958671875,-0.0014530207263305783,0.005540706682950258,0.0008900284301489592
1782952703669794000,6.1057939453125,-0.0000953411654336378,0.0041641187854111195,-0.0002511360798962414
1782952703679722000,6.115721923828125,-0.0019353191601112485,0.008017712272703648,0.00034647725988179445
1782952703689649200,6.125649169921875,0.0005752427969127893,0.004190217703580856,0.0026053704787045717
1782952703699576000,6.135576171875,-0.00023568976030219346,0.004667189903557301,0.002817624481394887
1782952703709504000,6.14550390625,-0.0009510148083791137,0.006231796927750111,0.001955559244379401
1782952703719431200,6.15543115234375,-0.0027172232512384653,0.004589958116412163,-0.00005406216951087117
1782952703729359000,6.165359130859375,-0.001106809708289802,0.006362558342516422,0.002642122097313404
1782952703739286300,6.175286376953125,0.00018349179299548268,0.005503954831510782,-0.0006167881074361503
1782952703749214200,6.185214111328125,-0.0009632653673179448,0.004882373381406069,0.0015052186790853739
1782952703759141000,6.19514111328125,0.0003246393462177366,0.005839513149112463,0.001019990653730929
1782952703769069300,6.2050693359375,-0.001888980157673359,0.005167065188288689,0.0020477045327425003
1782952703778996200,6.214996337890625,-0.000185888638952747,0.005203550215810537,-0.001151284552179277
1782952703788924200,6.224924072265625,-0.003448527306318283,0.006274673622101545,-0.0005009406013414264
1782952703798851300,6.234851318359375,0.0003579288604669273,0.005890912376344204,0.0031997880432754755
1782952703808778000,6.244778076171875,-0.0017976337112486362,0.006136721931397915,0.0022152173332870007
1782952703818706200,6.2547060546875,0.000696150294970721,0.005393167492002249,0.0005624596378766
1782952703828633000,6.264633056640625,-0.001710548298433423,0.0030362699180841446,-0.00048602689639665186
1782952703838561000,6.27456103515625,0.00031425300403498113,0.004369981121271849,0.003215766977518797
1782952703848488200,6.28448828125,-0.0009622001089155674,0.0029843382071703672,0.0015110776294022799
1782952703858416000,6.294416015625,-0.001686579897068441,0.005823800805956125,0.0017060210229828954
1782952703868343000,6.304343017578125,-0.000609863898716867,0.006755374372005463,-0.001285241567529738
1782952703878270200,6.314270263671875,-0.0016892430139705539,0.006286391522735357,0.003471963107585907
1782952703888198100,6.3241982421875,0.00041012681322172284,0.004309527110308409,0.001073786523193121
1782952703898125000,6.334125,0.00017710021347738802,0.005519933998584747,-0.00043010051012970507
1782952703908053200,6.34405322265625,-0.00017310546536464244,0.00452897185459733,-0.0005249090609140694
1782952703917980200,6.353980224609375,-0.0005581985460594296,0.007134874816983938,0.00003302319601061754
1782952703927908000,6.363908203125,0.00013395700079854578,0.006745786871761084,0.0024165522772818804
1782952703937835300,6.373835205078125,-0.0009763148264028132,0.002157160546630621,-0.001008539111353457
1782952703947763200,6.38376318359375,-0.0013097425689920783,0.0059628174640238285,-0.0013630058383569121
1782952703957690000,6.393690185546875,0.0016178702935576439,0.004436826333403587,0.002609098795801401
1782952703967618300,6.403618408203125,-0.001107076066546142,0.005031510256230831,-0.0024109596852213144
1782952703977545200,6.413545166015625,-0.0002894856152124703,0.00375985074788332,0.0030394657514989376
1782952703987472100,6.42347216796875,0.0022058964241296053,0.006172141991555691,-0.0003757720405701548
1782952703997400000,6.433400146484375,-0.005344165489077568,0.006070675794035196,-0.0015883093001320958
1782952704007327000,6.443326904296875,-0.0008356999605894089,0.0047060721553862095,0.00034354778472334146
1782952704017255200,6.453255126953125,-0.0011326423846185207,0.0051745218224823475,0.0007768440991640091
1782952704027182000,6.46318212890625,-0.002784867538139224,0.004018976353108883,0.0013989584986120462
1782952704037110000,6.473110107421875,0.0036855486687272787,0.003832821501418948,0.001716673607006669
1782952704047037200,6.483037109375,-0.0009598032338544726,0.004545749630779028,0.0020748688839375973
1782952704056965000,6.492965087890625,-0.0005022721597924829,0.005678924731910229,0.001820536912418902
1782952704066892000,6.50289208984375,-0.0025989788118749857,0.005331115797162056,-0.0013054815353825688
1782952704076819200,6.512819091796875,-0.0013382384786382318,0.004341484978795052,0.001252750982530415
1782952704086747100,6.5227470703125,-0.00020266656065359712,0.0060112872160971165,-0.00024154871061909944
1782952704096674300,6.53267431640625,-0.0017555557424202561,0.005505819339305162,0.0009198558400385082
1782952704106602200,6.542602294921875,-0.0009869674686342478,0.00663473317399621,0.0005571332876570523
1782952704116529400,6.552529296875,-0.0010282464791089296,0.0037406759802252054,0.0013638047967106104
1782952704126457300,6.562457275390625,-0.00014807176194153726,0.002767823403701186,0.002088450826704502
1782952704136384500,6.572384521484375,-0.0014263890916481614,0.005268265027552843,0.0014056164072826505
1782952704146311400,6.5823115234375,0.00005912217602599412,0.003403786104172468,0.001657551503740251
1782952704156239600,6.592239501953125,0.00024447820032946765,0.0052259210497140884,-0.0013552826130762696
1782952704166166300,6.602166259765625,-0.00017070861940737814,0.00555109279230237,-0.0015845808666199446
1782952704176094200,6.61209423828125,-0.0011677960865199566,0.005519134923815727,0.0009978864109143615
1782952704186021400,6.622021484375,-0.0008908273885026574,0.004025368019938469,0.0005744438385590911
1782952704195949300,6.63194921875,0.002549444092437625,0.0037116475868970156,-0.001190433045849204
1782952704205876200,6.641876220703125,-0.001967543503269553,0.006530603393912315,0.0005552690709009767
1782952704215804400,6.651804443359375,-0.0004703142330981791,0.005644303746521473,0.00039787625428289175
1782952704225731300,6.6617314453125,-0.001980859087780118,0.007080812472850084,0.0012479572324082255
1782952704235659300,6.6716591796875,-0.0012658004416152835,0.006864564027637243,-0.0000010652644277797663
1782952704245586400,6.68158642578125,-0.0028386632911860943,0.006301038898527622,-0.00045540055725723505
1782952704255513300,6.691513427734375,-0.002666090615093708,0.004120975267142057,-0.0015662050573155284
1782952704265441500,6.701441650390625,-0.00007962851668708026,0.0037859496660530567,-0.00014274542627390474
1782952704275368400,6.711368408203125,-0.0008892294717952609,0.003052515210583806,0.004082093480974436
1782952704285296400,6.72129638671875,0.0019736685790121555,0.005247758701443672,0.002129996195435524
1782952704295223600,6.7312236328125,-0.00033449303009547293,0.006060555577278137,-0.00021837920940015465
1782952704305151500,6.7411513671875,0.000035420041967881843,0.004479437135159969,-0.0004468784318305552
1782952704315078400,6.751078369140625,-0.0015997608425095677,0.005218463949859142,0.0031585090328007936
1782952704325005300,6.76100537109375,-0.0015755260828882456,0.003775030840188265,0.0017068199813365936
1782952704334933500,6.77093359375,-0.0017688715597614646,0.005991313606500626,-0.00012916330888401717
1782952704344860400,6.7808603515625,0.0008615325787104666,0.005563876125961542,-0.0007238471880555153
1782952704354788400,6.790788330078125,-0.0014562164433300495,0.005751895252615213,0.0014705975772812963
1782952704364715300,6.80071533203125,-0.00033955302205868065,0.006543386727571487,0.0024029703345149755
1782952704374643200,6.810643310546875,0.0004495415778364986,0.006268814671784639,0.0007699198904447258
1782952704384570400,6.8205703125,-0.00025832661776803434,0.00657587731257081,0.0008785768295638263
1782952704394498300,6.830498291015625,-0.002686596941202879,0.00649651512503624,0.0005643238546326756
1782952704404425500,6.840425537109375,-0.0032716933637857437,0.004735899157822132,-0.00015765913121867925
1782952704414352400,6.850352294921875,0.0008199872681871057,0.006601976230740547,0.0008468852029182017
1782952704424280300,6.8602802734375,-0.0023497070651501417,0.005982791539281607,0.002243979601189494
1782952704434207500,6.87020751953125,-0.0006348976166918874,0.0031579763162881136,0.00033182985498569906
1782952704444135400,6.880135498046875,-0.0032703618053346872,0.0037204360123723745,0.0006474144756793976
1782952704454062300,6.890062255859375,0.0011377023765817285,0.005653358530253172,-0.0015933692920953035
1782952704463990500,6.899990478515625,-0.0022602248936891556,0.006411027628928423,0.00039707732503302395
1782952704473917400,6.90991748046875,-0.0026522420812398195,0.00415373221039772,-0.0008982842555269599
1782952704483845400,6.919845458984375,0.00012410330236889422,0.003652791725471616,0.0016421051695942879
1782952704493772500,6.9297724609375,0.0005677859298884869,0.004107393324375153,0.0006777744856663048
1782952704503700500,6.939700439453125,-0.0017933726776391268,0.00640756543725729,-0.0035262915771454573
1782952704513627600,6.949627685546875,0.0023816649336367846,0.004009388852864504,-0.00003382214708835818
1782952704523554300,6.95955419921875,-0.002385659608989954,0.005119927227497101,-0.00017124126316048205
1782952704533482200,6.969482177734375,-0.0008404936525039375,0.006815827917307615,0.003683151677250862
1782952704543409400,6.979409423828125,-0.000245543458731845,0.004110589157789946,0.0030099046416580677
1782952704553337300,6.98933740234375,0.00028096348978579044,0.005344697739928961,0.00088949577184394
1782952704563264300,6.99926416015625,-0.0007446198142133653,0.005278385244309902,-0.00026072346372529864
1782952704573192400,7.0091923828125,-0.0010540791554376483,0.006071474403142929,0.0006452839006669819
1782952704583119400,7.019119384765625,-0.0010724549647420645,0.0031092404387891293,-0.00008894957863958552
1782952704593046500,7.029046630859375,-0.003165166825056076,0.00478410255163908,-0.00046339002437889576
1782952704602974500,7.038974365234375,-0.001255946815945208,0.006057626102119684,0.0011102718999609351
1782952704612901400,7.0489013671875,-0.0024290692526847124,0.0036610474344342947,-0.0005273058777675033
1782952704622829300,7.058829345703125,-0.0017006946727633476,0.005766009911894798,0.001061802264302969
1782952704632756500,7.068756591796875,-0.0008455536444671452,0.005781190004199743,0.0029531794134527445
1782952704642684400,7.078684326171875,-0.0013739247806370258,0.004953479394316673,0.0009419600828550756
1782952704652611600,7.088611572265625,-0.0008218514849431813,0.005600361619144678,0.001812014845199883
1782952704662539500,7.09853955078125,-0.001678057829849422,0.004914064891636372,-0.000031425301131093875
1782952704672466400,7.108466552734375,-0.00019201391842216253,0.004607268609106541,0.0007970841252245009
1782952704682393300,7.118393310546875,-0.0013041499769315124,0.004973985720425844,0.0015744607662782073
1782952704692321300,7.1283212890625,-0.0013315805699676275,0.003988616168498993,0.0011880361707881093
1782952704702248400,7.13824853515625,-0.0018572885310277343,0.005015531089156866,-0.0003531351685523987
1782952704712176400,7.14817626953125,-0.0016056197928264737,0.005176652688533068,0.0014176006661728024
1782952704722103300,7.158103271484375,0.0004572647449094802,0.004217648413032293,0.0010705908061936498
1782952704732031200,7.16803125,-0.0014045510906726122,0.002683401107788086,0.00017736652807798237
1782952704741958400,7.17795849609375,-0.0021968416403979063,0.0046365633606910706,0.003394731320440769
1782952704751886300,7.18788623046875,-0.0015020228456705809,0.003837881376966834,0.0014516890514642
1782952704761813500,7.1978134765625,0.0016466324450448155,0.00888110976666212,0.0009100021561607718
1782952704771740400,7.207740478515625,0.0018098842119798064,0.0071164988912642,0.0025041704066097736
1782952704781668400,7.21766845703125,-0.0004966795677319169,0.004568652715533972,0.002558498876169324
1782952704791595500,7.227595458984375,-0.0007017429452389479,0.005534048657864332,-0.0009052084642462432
1782952704801523500,7.2375234375,-0.001094559207558632,0.003748665563762188,-0.0004474110610317439
1782952704811450400,7.247450439453125,0.0001960086519829929,0.005298625212162733,0.001469532260671258
1782952704821378600,7.257378662109375,-0.0019771307706832886,0.004945490043610334,0.00013129384024068713
1782952704831305500,7.267305419921875,-0.0020724718924611807,0.003920439630746841,0.0021888520568609238
1782952704841233400,7.2772333984375,0.0006346312584355474,0.00740385428071022,-0.0012607404496520758
1782952704851160600,7.28716064453125,-0.0012626046082004905,0.006135923322290182,-0.000556334329303354
1782952704861087200,7.297087158203125,-0.00236328924074769,0.0037177728954702616,-0.00010093380114994943
1782952704871015400,7.307015380859375,-0.0009384979493916035,0.0029111013282090425,0.0014711301773786545
1782952704880942300,7.3169423828125,-0.0011731224367395043,0.005271194502711296,0.0011432950850576162
1782952704890870300,7.326870361328125,-0.002269812161102891,0.006126335822045803,0.0041071269661188126
1782952704900797400,7.33679736328125,-0.0008948221220634878,0.003489007242023945,0.00007590009045088664
1782952704910725400,7.346725341796875,-0.0010452907299622893,0.002945189829915762,0.0036914076190441847
1782952704920652300,7.35665234375,-0.0022120214998722076,0.004908205941319466,0.002124137245118618
1782952704930580500,7.36658056640625,-0.0035063179675489664,0.005969741847366095,0.0020660804584622383
1782952704940507400,7.37650732421875,-0.001023452845402062,0.005045624915510416,-0.0007928230334073305
1782952704950434600,7.3864345703125,0.0009976201690733433,0.005482915788888931,0.001990446588024497
1782952704960362500,7.396362548828125,0.0018197379540652037,0.003718305379152298,0.0005941512063145638
1782952704970289400,7.406289306640625,-0.0005470133037306368,0.004495149478316307,0.002025866648182273
1782952704980217300,7.41621728515625,-0.0007262440049089491,0.0049489522352814674,0.00033688987605273724
1782952704990144500,7.42614453125,0.0005992112564854324,0.0028365328907966614,0.002395513467490673
1782952705000072400,7.436072509765625,0.000597879639826715,0.004868790972977877,0.0022471752017736435
1782952705009999600,7.44599951171875,0.0011289139511063695,0.0065500447526574135,-0.0005368932615965605
1782952705019927600,7.455927490234375,-0.0019326560432091355,0.0016114787431433797,0.0005811017472296953
1782952705029854200,7.465854248046875,-0.0013960290234535933,0.0032586439047008753,0.0023225427139550447
1782952705039781400,7.475781494140625,-0.001258876291103661,0.004644286818802357,-0.0008159925346262753
1782952705049709300,7.485709228515625,-0.0011920308461412787,0.0036903421860188246,0.0013313142117112875
1782952705059636500,7.495636474609375,-0.002266349969431758,0.0051534827798604965,0.0011065434664487839
1782952705069564400,7.505564453125,-0.00270710326731205,0.004809136036783457,0.003668770659714937
1782952705079491300,7.5154912109375,-0.0004394215648062527,0.005951632279902697,0.0006490123341791332
1782952705089419300,7.525419189453125,-0.0003081277245655656,0.002017610939219594,-0.0018900453578680754
1782952705099346400,7.535346435546875,0.0004918858758173883,0.0035180358681827784,0.0010756507981568575
1782952705109273300,7.5452734375,0.0004974784678779542,0.007927165366709232,0.004072239622473717
1782952705119201500,7.555201416015625,-0.0010040117194876075,0.005087436642497778,0.0018247979460284114
1782952705129128400,7.56512841796875,-0.001094559207558632,0.0030067088082432747,0.003254116512835026
1782952705139056400,7.575056396484375,0.0005605954211205244,0.004777710884809494,0.0010229201288893819
1782952705148983600,7.584983642578125,-0.003070358419790864,0.004020041786134243,0.003742007538676262
1782952705158911500,7.594911376953125,-0.0023257385473698378,0.003403253620490432,0.0023963123094290495
1782952705168838400,7.60483837890625,-0.0018405106384307146,0.003765709698200226,0.0023965786676853895
1782952705178766600,7.6147666015625,0.00033582461765035987,0.0037033918779343367,0.0022503710351884365
1782952705188693500,7.624693603515625,-0.0024980450980365276,0.005486910697072744,-0.00010892329009948298
1782952705198620700,7.63462060546875,-0.00003728425508597866,0.005623531062155962,0.0013976269401609898
1782952705208548600,7.644548583984375,0.0012996225850656629,0.005046157632023096,0.0008500810363329947
1782952705218475500,7.6544755859375,-0.0007187871960923076,0.003569700988009572,-0.0014626081101596355
1782952705228403500,7.664403564453125,-0.00006924218905624002,0.0057444386184215546,0.00148151651956141
1782952705238330600,7.67433056640625,-0.0009464874165132642,0.0036107138730585575,0.0009451558580622077
1782952705248258600,7.684258544921875,0.0015222628135234118,0.005915945861488581,0.0005909554311074317
1782952705258185700,7.694185791015625,0.00017896443023346364,0.004965730011463165,0.0026759442407637835
1782952705268113700,7.70411376953125,-0.0012482235906645656,0.0041247038170695305,0.001995772821828723
1782952705278040600,7.71404052734375,0.0005765743553638458,0.004547081422060728,0.002650377806276083
1782952705287967500,7.723967529296875,0.0006993460701778531,0.002977147698402405,0.0020208065398037434
1782952705297895400,7.7338955078125,-0.0011664645280689,0.006901049055159092,0.0023334617726504803
1782952705307822600,7.743822509765625,-0.0016644756542518735,0.0041558630764484406,0.0008815063047222793
1782952705317750500,7.75375048828125,-0.00024101608141791075,0.004482898861169815,0.002519882982596755
1782952705327677400,7.763677490234375,0.000021837920940015465,0.0036799560766667128,0.001073786523193121
1782952705337605400,7.77360546875,-0.00013528858835343271,0.003925765864551067,0.0019651465117931366
1782952705347532500,7.783532470703125,0.0004721784498542547,0.0054855793714523315,0.0016463662032037973
1782952705357460500,7.79346044921875,-0.001175519311800599,0.0065282066352665424,0.0001637844106880948
1782952705367387600,7.8033876953125,-0.001050084363669157,0.0049375006929039955,0.0017486315919086337
1782952705377314600,7.813314453125,-0.0002918824611697346,0.005477056838572025,0.001499625970609486
1782952705387242500,7.823242431640625,-0.00022077605535741895,0.008130630478262901,0.002025067573413253
1782952705397169700,7.833169677734375,0.0003201119543518871,0.0036706349346786737,0.0004932174342684448
1782952705407097600,7.84309765625,-0.0003400856803636998,0.003823500359430909,0.0016679377295076847
1782952705417024500,7.8530244140625,-0.0015355786308646202,0.005686914082616568,0.0014500912511721253
1782952705426952700,7.86295263671875,-0.002025333931669593,0.003748399205505848,0.0021845910232514143
1782952705436879600,7.872879638671875,-0.00035659727291204035,0.005350823048502207,-0.0005792375304736197
1782952705446807600,7.8828076171875,-0.002310824813321233,0.005264004226773977,-0.0002868224401026964
1782952705456734500,7.892734375,-0.0005629922379739583,0.004293015692383051,0.002266616327688098
1782952705466661400,7.902661376953125,-0.003364904085174203,0.0044394894503057,-0.0024650217965245247
1782952705476589600,7.912589599609375,0.0002740392810665071,0.00529729388654232,0.0012628709664568305
1782952705486516500,7.9225166015625,-0.0002085255109705031,0.002971821464598179,0.000809068325906992
1782952705496444400,7.9324443359375,0.00040613205055706203,0.0046152579598128796,0.0008082693675532937
1782952705506371600,7.94237158203125,-0.0033779535442590714,0.006385994143784046,0.0022887205705046654
1782952705516299500,7.952299560546875,-0.0003885551996063441,0.005050418432801962,-0.0010159959783777595
1782952705526226400,7.962226318359375,0.00037523938226513565,0.006859770510345697,0.0014647386269643903
1782952705536153600,7.972153564453125,-0.0010556770721450448,0.0037494644057005644,0.0014282532501965761
1782952705546081500,7.98208154296875,-0.0008980178972706199,0.007062703371047974,0.001541171339340508
1782952705556008700,7.9920087890625,-0.00012836436508223414,0.0028668928425759077,-0.0005070658517070115
1782952705565936600,8.0019365234375,-0.000036218989407643676,0.0028072381392121315,0.0011230550007894635
1782952705575863600,8.011863525390625,0.0003145193331874907,0.00290417717769742,0.0004873584839515388
1782952705585791500,8.02179150390625,-0.0019563580863177776,0.004066647030413151,0.002127599436789751
1782952705595718700,8.03171875,-0.0008064051507972181,0.005468268413096666,0.0003147856332361698
1782952705605646600,8.041646484375,-0.0023371900897473097,0.004388622939586639,0.002291117561981082
1782952705615573800,8.05157373046875,0.00004713794987765141,0.004797950852662325,0.0024612934794276953
1782952705625500400,8.06150048828125,0.002469549188390374,0.004062119405716658,0.0011408982099965215
1782952705635428400,8.071428466796876,-0.0016684704460203648,0.005476790945976973,0.0022455775178968906
1782952705645355500,8.08135546875,0.0000977380113909021,0.005583050660789013,-0.001094559207558632
1782952705655283500,8.091283447265624,-0.001871403306722641,0.0054424358531832695,-0.0007882956997491419
1782952705665210400,8.10121044921875,-0.000006125270374468528,0.004998486954718828,0.0018184063956141472
1782952705675138600,8.111138671875,0.00005166532355360687,0.0057433731853961945,-0.002174471039324999
1782952705685065500,8.1210654296875,-0.001755023142322898,0.0054427022114396095,-0.00010759170982055366
1782952705694992600,8.13099267578125,-0.0007491472060792148,0.006216883193701506,0.0024546354543417692
1782952705704920600,8.140920654296876,-0.0021851237397640944,0.005617405753582716,-0.00006205165118444711
1782952705714847500,8.150847412109375,-0.002400306984782219,0.00410526292398572,0.0019241338595747948
1782952705724775700,8.160775634765624,-0.0024170849937945604,0.004975850228220224,0.0012215919559821486
1782952705734702600,8.17070263671875,-0.0016013587592169642,0.006646451074630022,0.002229332225397229
1782952705744630500,8.180630615234374,-0.002353701740503311,0.0030029804911464453,0.0012708604335784912
1782952705754557700,8.1905576171875,-0.0015574166318401694,0.0039007319137454033,-0.00018455706594977528
1782952705764485600,8.200485595703125,-0.0023877902422100306,0.0067239492200315,0.0006330333999358118
1782952705774412500,8.21041259765625,-0.0002724413643591106,0.004791026934981346,0.0004546015989035368
1782952705784340700,8.2203408203125,-0.0013720606220886111,0.005417402368038893,0.0012402341235429049
1782952705794267600,8.230267578125,-0.0027236149180680513,0.0032618397381156683,0.0010162622202187777
1782952705804194600,8.240194580078125,-0.0034815503749996424,0.005902363918721676,-0.0003105245705228299
1782952705814122500,8.25012255859375,-0.0011267834343016148,0.0052208611741662025,0.0004972121678292751
1782952705824049400,8.26004931640625,0.0003347593592479825,0.0070914654061198235,0.003652791725471616
1782952705833977300,8.269977294921874,-0.0005941512063145638,0.0049127331003546715,0.0012639362830668688
1782952705843904500,8.279904541015625,-0.0016429040115326643,0.002478337613865733,-0.00042024682625196874
1782952705853832400,8.28983251953125,-0.002543318783864379,0.002915628720074892,0.0013603427214547992
1782952705863759600,8.299759521484376,-0.001710814656689763,0.006672283634543419,0.0017638115677982569
1782952705873686500,8.3096865234375,-0.002510561840608716,0.004792358260601759,0.0013859090395271778
1782952705883614500,8.319614501953126,-0.000222373942960985,0.0041436124593019485,-0.0003765709698200226
1782952705893541600,8.329541748046875,0.0018943065078929067,0.0032021848019212484,0.0012319782981649041
1782952705903469600,8.339469482421874,0.00040746363811194897,0.0033217607997357845,0.002537992550060153
1782952705913396500,8.349396484375,-0.0031558459158986807,0.00759879732504487,0.0008167914929799736
1782952705923324700,8.35932470703125,-0.0012681973166763783,0.003200586885213852,0.0026109630707651377
1782952705933251600,8.36925146484375,0.00024740767548792064,0.005711148958653212,0.0030658310279250145
1782952705943179500,8.379179443359375,-0.0009800433181226254,0.005862682592123747,0.00003914846820407547
1782952705953106700,8.389106689453126,-0.003567037871107459,0.006923419889062643,0.0017102820565924048
1782952705963033300,8.399033447265625,-0.0007121292874217033,0.0041334922425448895,0.0003779025573749095
1782952705972961500,8.40896142578125,-0.0012098740553483367,0.00875274557620287,0.00021784658019896597
1782952705982888400,8.418888427734375,0.002626942005008459,0.005397428758442402,-0.0017395768081769347
1782952705992816400,8.42881640625,-0.0021859225817024708,0.0047260457649827,0.0019773971289396286
1782952706002743600,8.43874365234375,-0.0003009371866937727,0.006638195365667343,0.0003001382574439049
1782952706012671500,8.44867138671875,-0.0029758161399513483,0.006039782892912626,0.0024469124618917704
1782952706022598400,8.458598388671875,-0.0012122709304094315,0.004979312419891357,0.002171275205910206
1782952706032526600,8.468526611328125,0.0017265273490920663,0.004766259342432022,0.003132942598313093
1782952706042453500,8.47845361328125,-0.0020791299175471067,0.004787298385053873,0.0017901768442243338
1782952706052380700,8.488380615234375,-0.0010468886466696858,0.004362790379673243,-0.00044048685231246054
1782952706062308600,8.49830859375,-0.000666322885081172,0.0034463966730982065,-0.00003435477628954686
1782952706072235500,8.508235595703125,-0.0010807107901200652,0.00549223693087697,0.0017395768081769347
1782952706082163500,8.51816357421875,-0.00014753911818843335,0.006998520810157061,0.0010543455136939883
1782952706092090600,8.528090576171875,-0.0024282701779156923,0.005020325072109699,0.002357163932174444
1782952706102018600,8.5380185546875,-0.003555586328729987,0.00472657848149538,-0.000358461489668116
1782952706111945700,8.54794580078125,-0.000360059377271682,0.0067481836304068565,0.001743571599945426
1782952706121872000,8.557871826171874,-0.0007344998302869499,0.0039854203350842,0.0024703482631593943
1782952706131800000,8.567800048828126,-0.0004037352045997977,0.005649363622069359,0.0026253440883010626
1782952706141727000,8.57772705078125,-0.0008050735923461616,0.004237622022628784,0.0015715312911197543
1782952706151655000,8.587655029296876,-0.0004146541759837419,0.004789162427186966,0.0019632822368294
1782952706161582000,8.59758203125,-0.0008743157959543169,0.00487305223941803,0.0011262508342042565
1782952706171510000,8.607510009765624,0.00012090751260984689,0.002359027974307537,-0.00011451592581579462
1782952706181437000,8.61743701171875,-0.0015901734586805105,0.006871222052723169,-0.0003001382574439049
1782952706191365000,8.627365234375,0.000645550258923322,0.004933505784720182,0.0011408982099965215
1782952706201292000,8.6372919921875,-0.00025060345069505274,0.004987301770597696,0.0011486213188618422
1782952706211219000,8.647218994140625,-0.0012884372845292091,0.0037768951151520014,-0.00023462448734790087
1782952706221147100,8.657147216796876,-0.0002671150432433933,0.006731405854225159,0.002481267089024186
1782952706231073800,8.66707373046875,-0.0003552656853571534,0.00749200489372015,0.0007358313887380064
1782952706241001700,8.677001708984376,0.000761664065066725,0.0041308291256427765,0.0011166634503751993
1782952706250929000,8.686928955078125,0.0008993495139293373,0.003424292430281639,0.0017691379180178046
1782952706260856800,8.69685693359375,-0.003329484025016427,0.005261873826384544,0.0020791299175471067
1782952706270784000,8.706783935546875,-0.0006703176186420023,0.0067511131055653095,-0.0009366337326355278
1782952706280711000,8.7167109375,-0.000978978001512587,0.004486094694584608,-0.0000250337143370416
1782952706290638800,8.726638916015625,-0.0025987126864492893,0.005390238016843796,0.00019441076437942684
1782952706300566000,8.73656591796875,-0.0013206616276875138,0.003975566942244768,0.001457814360037446
1782952706310494000,8.746493896484376,-0.005170527379959822,0.006587328854948282,0.0013411679537966847
1782952706320420900,8.7564208984375,0.0012655340833589435,0.00669305631890893,0.0017773937433958054
1782952706330349000,8.76634912109375,0.001201618229970336,0.005091165192425251,0.0005416869535110891
1782952706340276000,8.77627587890625,-0.0006119944155216217,0.005382781382650137,-0.002701510675251484
1782952706350204000,8.786203857421874,0.0006186523241922259,0.004838164895772934,-0.001335841603577137
1782952706360131000,8.796131103515625,-0.000782436749432236,0.004428037907928228,0.00005326322207110934
1782952706370058000,8.80605810546875,0.00037923414492979646,0.004962267819792032,-0.00045353634050115943
1782952706379986000,8.81598583984375,0.00044847631943412125,0.0065654912032186985,0.0009922938188537955
1782952706389912800,8.825912841796875,-0.0005840312223881483,0.005403553601354361,0.0016261261189356446
1782952706399841000,8.835841064453126,-0.0012152004055678844,0.005841377656906843,-0.00004500742215896025
1782952706409768000,8.845767822265625,0.002540389308705926,0.005361209623515606,0.001546763931401074
1782952706419695900,8.85569580078125,0.0004844290087930858,0.005520733073353767,-0.0018809906905516982
1782952706429622800,8.865622802734375,0.0014652712270617485,0.004094077739864588,-0.00024154871061909944
1782952706439551000,8.875551025390624,-0.0030035129748284817,0.003943609073758125,-0.0006732470938004553
1782952706449478000,8.885477783203125,0.00017443705291952938,0.003820038167759776,0.000461259507574141
1782952706459405000,8.895405029296874,-0.0006908240029588342,0.005016063805669546,0.003165433183312416
1782952706469333000,8.9053330078125,-0.0017174725653603673,0.0041497377678751945,0.0008178567513823509
1782952706479260000,8.915260009765625,-0.002049568807706237,0.003921238239854574,0.001525991247035563
1782952706489187800,8.925187744140626,-0.001612011343240738,0.0037891454994678497,-0.0011432950850576162
1782952706499115000,8.935114990234375,-0.0016074840677902102,0.004290086217224598,0.0002665824140422046
1782952706509043000,8.94504296875,-0.0014114753575995564,0.006457632873207331,0.0019140138756483793
1782952706518970000,8.95497021484375,-0.0013246563030406833,0.005243497900664806,0.0036213663406670094
1782952706528897000,8.96489697265625,-0.0016016251174733043,0.005453088786453009,0.0006295712664723396
1782952706538825000,8.974824951171875,-0.001674861996434629,0.005922071170061827,0.0016647420125082135
1782952706548752100,8.984752197265625,-0.000731836655177176,0.006148439832031727,0.0007510114228352904
1782952706558680000,8.99468017578125,0.0003885551996063441,0.0049153962172567844,0.0015656723408028483
1782952706568607000,9.00460693359375,0.0002700445184018463,0.0035063179675489664,-0.001118527608923614
1782952706578535000,9.014534912109376,-0.0007030745036900043,0.004282629117369652,0.0004809668753296137
1782952706588461800,9.0244619140625,-0.00046392265358008444,0.004811533261090517,0.003573695896193385
1782952706598389800,9.0343896484375,-0.002654372714459896,0.009462211281061172,-0.0012343751732259989
1782952706608317000,9.04431689453125,-0.0017275925492867827,0.00387330143712461,0.0008980178972706199
1782952706618243800,9.054243896484374,-0.0015028218040242791,0.005774798337370157,0.0008319715270772576
1782952706628172000,9.064172119140625,-0.003111637430265546,0.004811000544577837,-0.0008471515611745417
1782952706638099000,9.074098876953125,-0.0005960154230706394,0.00466532539576292,0.003242398612201214
1782952706648027000,9.08402685546875,-0.001811482128687203,0.002314020646736026,0.001967543503269553
1782952706657954000,9.0939541015625,-0.0009182579233311117,0.006525010801851749,-0.00101120222825557
1782952706667882000,9.103882080078124,0.00030892668291926384,0.0027198863681405783,0.0032237565610557795
1782952706677809000,9.113808837890625,-0.0019124159589409828,0.003973170183598995,-0.000949150591623038
1782952706687737000,9.123737060546874,-0.001127582392655313,0.005154281854629517,0.0003616572648752481
1782952706697664000,9.1336640625,-0.001228782464750111,0.00430153775960207,0.0015568839153274894
1782952706707591200,9.143591064453124,0.0003009371866937727,0.006053897552192211,0.00006498113361885771
1782952706717519000,9.15351904296875,0.002290318487212062,0.004566255956888199,-0.00061279337387532
1782952706727445800,9.16344580078125,0.00025726135936565697,0.005498095881193876,0.0036309538409113884
1782952706737374000,9.1733740234375,-0.0007403587806038558,0.006351639050990343,0.0006886934279464185
1782952706747300900,9.18330078125,-0.0015006912872195244,0.0031337416730821133,0.001871403306722641
1782952706757228800,9.193228759765624,-0.000821318884845823,0.006703975144773722,0.001845038030296564
1782952706767156000,9.203156005859375,-0.0016538230702280998,0.0032658344134688377,0.00007004113285802305
1782952706777083000,9.213082763671874,-0.002365153282880783,0.0056829191744327545,0.0007608651067130268
1782952706787010800,9.2230107421875,-0.0011267834343016148,0.0028634308837354183,0.000752875639591366
1782952706796938000,9.23293798828125,-0.0003733751946128905,0.0044054011814296246,-0.0003808320325333625
1782952706806866000,9.242865966796876,-0.00043835630640387535,0.004179831128567457,0.001377919572405517
1782952706816793000,9.25279296875,-0.0012152004055678844,0.003837615018710494,0.0000881506348378025
1782952706826721000,9.262720947265626,0.00013608753215521574,0.00424241553992033,0.003020557342097163
1782952706836648000,9.27264794921875,-0.003204581793397665,0.0034703651908785105,0.0023031015880405903
1782952706846575900,9.282575927734374,-0.0009672601008787751,0.006435528863221407,0.0001840244367485866
1782952706856503000,9.2925029296875,0.00010040117194876075,0.002906840294599533,-0.0014330470003187656
1782952706866430000,9.302429931640624,0.0003121224872302264,0.0037204360123723745,0.001058872789144516
1782952706876358100,9.312358154296875,0.0011946940794587135,0.004143878817558289,0.00045353634050115943
1782952706886283800,9.32228369140625,-0.003226952161639929,0.004483431577682495,0.00011930961773032323
1782952706896212000,9.3322119140625,0.0010833739070221782,0.005309011787176132,0.0011768508702516556
1782952706906139000,9.342138916015625,-0.0023518374655395746,0.0060946443118155,-0.0006676545017398894
1782952706916066800,9.35206689453125,-0.00316037330776453,0.007726895622909069,0.0022540995851159096
1782952706925994000,9.361993896484375,0.0002247707889182493,0.004492220003157854,-0.0014205301413312554
1782952706935922000,9.371921875,-0.0002466087171342224,0.0038860845379531384,-0.0009116000146605074
1782952706945848800,9.381848876953125,-0.0009978864109143615,0.005666141398251057,0.0006125270738266408
1782952706955776000,9.39177587890625,-0.0006982808117754757,0.004394481889903545,0.0011920308461412787
1782952706965704000,9.401703857421875,-0.001344896387308836,0.003692472819238901,0.0013227921444922686
1782952706975631000,9.411631103515624,-0.0010732539230957627,0.001454884884878993,-0.0002508697798475623
1782952706985559000,9.42155908203125,-0.00042823629337362945,0.004429635591804981,0.0024860608391463757
1782952706995486000,9.43148583984375,-0.00256355875171721,0.005824333056807518,0.0015544871566817164
1782952707005414000,9.441413818359376,-0.0004756405542138964,0.0057167415507137775,-0.0006202502408996224
1782952707015341000,9.451341064453125,-0.00009667274571256712,0.004858937580138445,0.0015662050573155284
1782952707025267700,9.461267822265626,-0.0011941614793613553,0.006217682268470526,-0.002630936913192272
1782952707035196200,9.471196044921875,0.0022865901701152325,0.004691424313932657,0.0024567660875618458
1782952707045122800,9.481122802734374,0.0006948187365196645,0.002715625334531069,0.0015962987672537565
1782952707055050800,9.49105078125,-0.0003885551996063441,0.004659732803702354,-0.00011238539445912465
1782952707064978000,9.50097802734375,-0.00027616979787126184,0.005408081226050854,0.0015643407823517919
1782952707074905900,9.51090576171875,-0.0016215987270697951,0.004289553500711918,-0.0007499461644329131
1782952707084833000,9.5208330078125,-0.0011387676931917667,0.005102883093059063,-0.0012548814993351698
1782952707094761000,9.530760986328126,-0.0002442118711769581,0.005251487251371145,0.0004394215648062527
1782952707104687900,9.54068798828125,-0.002344913315027952,0.0037151097785681486,0.00022929816623218358
1782952707114615000,9.550614990234376,-0.0031281490810215473,0.0049369679763913155,-0.0014564828015863895
1782952707124542700,9.560542724609375,-0.0005371595616452396,0.003937217406928539,0.0005454153870232403
1782952707134469600,9.5704697265625,-0.0013723268639296293,0.0054855793714523315,0.00344506511464715
1782952707144397800,9.580397705078125,0.0010138654615730047,0.004306863993406296,0.002493784064427018
1782952707154324700,9.59032470703125,-0.0022413162514567375,0.005209941882640123,-0.0013515542959794402
1782952707164252700,9.600252685546875,0.0011310444679111242,0.0029939257074147463,0.0006937534781172872
1782952707174179600,9.6101796875,-0.0019470370607450604,0.004860535264015198,-0.0019358517602086067
1782952707184106500,9.6201064453125,-0.0032408006954938173,0.0036575854755938053,0.003468767274171114
1782952707194034700,9.63003466796875,-0.0007419566973112524,0.004519650712609291,-0.0004543352697510272
1782952707203961600,9.639961669921876,0.0010194580536335707,0.005657352972775698,0.000316916179144755
1782952707213889500,9.6498896484375,0.0004082625964656472,0.0020538298413157463,0.0019536949694156647
1782952707223816700,9.659816650390624,-0.001079645473510027,0.004898618441075087,0.00017656758427619934
1782952707233744600,9.66974462890625,-0.0006980145117267966,0.0057556238025426865,0.0021792647894471884
1782952707243671600,9.679671630859374,0.0009321063989773393,0.003822701284661889,0.0007036071619950235
1782952707253599700,9.689599853515626,-0.0016072177095338702,0.004795820452272892,-0.0006719155353493989
1782952707263526700,9.699526611328125,-0.0013467605458572507,0.001677525113336742,0.00037284253630787134
1782952707273453800,9.709453857421876,-0.000051399008953012526,0.00544323492795229,0.003674629610031843
1782952707283381800,9.7193818359375,-0.0005153216770850122,0.0049191247671842575,0.0011201255256310105
1782952707293311500,9.7293115234375,0.0004628573951777071,0.00461658975109458,0.0025161546654999256
1782952707303239700,9.73923974609375,-0.0018943065078929067,0.00452710734680295,0.0037404096219688654
1782952707313166600,9.74916650390625,-0.0014146711910143495,0.005152950529009104,0.003447994589805603
1782952707323093800,9.75909375,-0.001457548001781106,0.005049619823694229,-0.0014897723449394107
1782952707333021700,9.769021728515625,-0.0020413128659129143,0.004406199790537357,0.001287904684431851
1782952707342948600,9.778948486328124,0.0008205199264921248,0.003963049966841936,-0.0014719291357323527
1782952707352876500,9.78887646484375,0.001311873085796833,0.0032735576387494802,-0.0006958839949220419
1782952707362803700,9.7988037109375,-0.000627707049716264,0.004722849931567907,-0.0010428938549011946
1782952707372731600,9.808731689453126,0.00023568976030219346,0.008852081373333931,0.00011371697473805398
1782952707382658800,9.818658935546875,-0.0026051041204482317,0.004477838985621929,0.0011171960504725575
1782952707392585700,9.828585693359376,-0.0015369103057309985,0.003605387406423688,0.0005169195355847478
1782952707402513700,9.838513671875,-0.0032985913567245007,0.00529622845351696,0.0002306297537870705
1782952707412440800,9.84844091796875,0.00029880666988901794,0.004322044085711241,0.0018492990639060736
1782952707422368800,9.85836865234375,-0.0006745787104591727,0.004788629710674286,0.0023792681749910116
1782952707432295700,9.868295654296874,-0.002246110001578927,0.00501153664663434,-0.0023523701820522547
1782952707442223600,9.8782236328125,-0.000303334032651037,0.005621932912617922,0.0000881506348378025
1782952707452150500,9.888150634765625,-0.001383512164466083,0.005685849115252495,0.0010831075487658381
1782952707462078500,9.898078369140626,-0.000597879639826715,0.005787848029285669,-0.0002966761530842632
1782952707472005600,9.908005615234375,0.0015510249650105834,0.004848817363381386,-0.0009861685102805495
1782952707481932500,9.9179326171875,-0.0012085424968972802,0.0049010151997208595,-0.0012857741676270962
1782952707491860700,9.92786083984375,-0.0010128001449629664,0.0037702370900660753,0.0015422365395352244
1782952707501787600,9.93778759765625,-0.0026053704787045717,0.0054269894026219845,-0.0004183826094958931
1782952707511715600,9.947715576171875,0.0006018743733875453,0.004308462142944336,0.0001358212175546214
1782952707521642800,9.957642822265624,-0.001270594191737473,0.002825880190357566,-0.0004756405542138964
1782952707531570700,9.96757080078125,-0.003628556849434972,0.004433097783476114,0.0014532869681715965
1782952707541497600,9.97749755859375,0.0015464976895600557,0.005249090492725372,0.0015478292480111122
1782952707551425800,9.98742578125,-0.00019467707898002118,0.004254399798810482,-0.0011749867117032409
1782952707561352700,9.997352783203125,0.0009438242996111512,0.006880010478198528,0.0016820525052025914
1782952707571280000,10.00727978515625,-0.00037444045301526785,0.0018181400373578072,-0.0018820558907464147
1782952707581207800,10.017207763671875,-0.0028700886759907007,0.004172108136117458,0.0035180358681827784
1782952707591134500,10.027134521484374,-0.0019297265680506825,0.003980360459536314,0.002037318190559745
1782952707601062700,10.037062744140625,-0.00016165387933142483,0.004727909807115793,0.0005419532535597682
1782952707610989600,10.046989501953124,-0.002853044541552663,0.00672235107049346,-0.0010042780777439475
1782952707620917500,10.05691748046875,-0.0010455570882186294,0.0067718857899308205,0.0009920274605974555
1782952707630844700,10.0668447265625,-0.002394980750977993,0.0023552996572107077,0.002918291836977005
1782952707640771600,10.076771484375,-0.0000900148443179205,0.0030839405953884125,0.001320927869528532
1782952707650699500,10.086699462890625,-0.002665291540324688,0.005566006526350975,-0.00047111319145187736
1782952707660626700,10.096626708984376,-0.002375007141381502,0.005681854207068682,0.0009701895760372281
1782952707670554600,10.1065546875,-0.0010900318156927824,0.004677842371165752,0.001978995045647025
1782952707680481800,10.116481689453124,-0.0009672601008787751,0.0041675809770822525,-0.00003382214708835818
1782952707690409700,10.12640966796875,-0.0007499461644329131,0.006701578386127949,-0.00046099317842163146
1782952707700336600,10.136336669921874,-0.0011563445441424847,0.00509888818487525,0.00010439591278554872
1782952707710264600,10.1462646484375,-0.0011233213590458035,0.004716191906481981,-0.0014852449530735612
1782952707720191700,10.156191650390625,-0.0009827064350247383,0.006955644115805626,0.0004295678809285164
1782952707730118700,10.16611865234375,-0.00018855179951060563,0.0036783581599593163,-0.002409361768513918
1782952707740046800,10.176046875,-0.0009954896522685885,0.003418433479964733,0.0004996090428903699
1782952707749973800,10.185973876953126,-0.002174737397581339,0.004634699318557978,-0.002412823960185051
1782952707759901700,10.195901611328125,-0.0013100089272484183,0.0034027209039777517,0.0009054747642949224
1782952707769828600,10.20582861328125,-0.0007981493836268783,0.004850947763770819,0.0035630431957542896
1782952707779756500,10.215756591796875,0.00007936220208648592,0.005403553601354361,0.001249555149115622
1782952707789683500,10.225683349609374,-0.0011994877131655812,0.007558051031082869,-0.00023222764139063656
1782952707799610600,10.235610595703125,-0.0018109495285898447,0.004947354551404715,0.0008010788587853312
1782952707809538600,10.24553857421875,-0.003230414353311062,0.006359894759953022,0.000055393749789800495
1782952707819465700,10.2554658203125,-0.0017251957906410098,0.005815278738737106,0.000547279603779316
1782952707829393700,10.2653935546875,0.001112668658606708,0.005363606382161379,0.0017600831342861056
1782952707839320600,10.275320556640626,-0.00039601203752681613,0.003751062322407961,-0.000025566347176209092
1782952707849248800,10.285248779296875,0.0005675196298398077,0.0031822111923247576,-0.0015278555219992995
1782952707859175700,10.29517578125,-0.0012828446924686432,0.004988633096218109,0.0005781722720712423
1782952707869103600,10.305103515625,0.0010229201288893819,0.0028280108235776424,-0.000011451592399680521
1782952707879030800,10.31503076171875,-0.0019259981345385313,0.005258411634713411,-0.0009627327090129256
1782952707888957700,10.324957763671875,-0.002883670851588249,0.00637960247695446,0.0025963156949728727
1782952707898885600,10.3348857421875,0.002017078222706914,0.0028389296494424343,0.0031872710678726435
1782952707908812800,10.344812744140626,0.0013451626291498542,0.004590490832924843,0.0014066817238926888
1782952707918740700,10.35474072265625,0.0006524744676426053,0.0036671727430075407,0.0014514228096231818
1782952707928667600,10.364667724609374,-0.002127066720277071,0.0049460227601230145,0.002639192622154951
1782952707938595800,10.374595947265625,-0.000886566296685487,0.006102367304265499,0.0036453348584473133
1782952707948522500,10.3845224609375,-0.0014165353495627642,0.0073050507344305515,0.0019459717441350222
1782952707958449700,10.39444970703125,0.00040799626731313765,0.004726844374090433,0.0015451660146936774
1782952707968377600,10.404377685546875,-0.0014650048688054085,0.004769455175846815,-0.00046046054922044277
1782952707978304500,10.414304443359375,0.00301762786693871,0.003489806316792965,0.0010005496442317963
1782952707988232700,10.424232666015625,-0.0008101335843093693,0.005988916382193565,-0.0002109223569277674
1782952707998159600,10.43415966796875,-0.0000013315805063029984,0.004749215207993984,0.0003731088654603809
1782952708008087600,10.444087646484375,-0.0009960222523659468,0.004939631093293428,0.0005542038124985993
1782952708018014700,10.4540146484375,-0.001657018787227571,0.0024256070610135794,-0.0004873584839515388
1782952708027941600,10.463941650390625,-0.0023395870812237263,0.005004878621548414,0.0006860303110443056
1782952708037869600,10.47386962890625,0.0018341189716011286,0.006837932392954826,0.0025039040483534336
1782952708047796700,10.483796630859375,-0.001686846255324781,0.006668821442872286,0.0010775149567052722
1782952708057724700,10.493724609375,-0.0021971079986542463,0.004055195488035679,0.0012562130577862263
1782952708067651800,10.50365185546875,-0.000892425247002393,0.005441637244075537,0.00213585514575243
1782952708077579800,10.513579833984375,-0.002260491019114852,0.007411577273160219,0.0008261125767603517
1782952708087506700,10.523506591796876,-0.00046924897469580173,0.0038538603112101555,0.0028988507110625505
1782952708097435000,10.533434814453125,-0.0027973842807114124,0.005393966566771269,-0.0005688511882908642
1782952708107361500,10.543361572265624,0.00012969593808520585,0.0026085663121193647,0.0022146848496049643
1782952708117289200,10.553289306640625,-0.003171025775372982,0.005654157139360905,0.0011829761788249016
1782952708127217400,10.563217529296875,-0.00008841694943839684,0.005049087107181549,0.0009723200928419828
1782952708137144300,10.573144287109375,-0.0009374326909892261,0.01312086172401905,0.0024799355305731297
1782952708147072300,10.583072265625,0.0014852449530735612,0.009132778272032738,0.00378967821598053
1782952708156999400,10.59299951171875,0.0004439489566721022,0.008726646192371845,0.0013480921043083072
1782952708166927400,10.60292724609375,-0.0001960086519829929,0.010007093660533428,0.002213885774835944
1782952708176854300,10.612854248046874,-0.0015747271245345473,0.006918360013514757,0.003263437654823065
1782952708186781200,10.62278125,-0.0014349111588671803,0.003692206460982561,0.0008482168195769191
1782952708196709400,10.63270947265625,0.0020807278342545033,0.0026586337480694056,-0.0020756677258759737
1782952708206636300,10.64263623046875,-0.0013108078856021166,0.001568069215863943,0.00010865696822293103
1782952708216564200,10.652564208984375,0.00039707732503302395,0.0034432008396834135,0.0008554073283448815
1782952708226491100,10.6624912109375,-0.0010346380295231938,0.0026285399217158556,-0.0015651397407054901
1782952708236419300,10.67241943359375,0.0021949773654341698,0.004622715059667826,0.0009392969077453017
1782952708246346200,10.68234619140625,-0.0016357135027647018,0.0032921996898949146,-0.0031529164407402277
1782952708256274200,10.692274169921875,-0.00030546457855962217,0.005637379363179207,0.0004886900424025953
