time,seconds_elapsed,z,y,x
1782952697630182100,0.06618212890625,0.0020773778669536114,0.000986125785857439,0.0010231547057628632
1782952697640109300,0.076109375,-0.0003389344783499837,0.00047313980758190155,0.000977543881163001
1782952697650037200,0.086037353515625,0.00006107229273766279,-0.0009686958510428667,0.0011375999310985208
1782952697659964400,0.09596435546875,-0.0013195426436141133,0.0007255245000123978,0.0008902033441700041
1782952697669892400,0.105892333984375,-0.0028961338102817535,0.0019124955870211124,-0.001699188258498907
1782952697679819300,0.1158193359375,0.00009222270455211401,0.0007009622640907764,0.0002862355322577059
1782952697689747500,0.12574755859375,-0.002496369881555438,0.0023499918170273304,-0.002018996514379978
1782952697699674400,0.13567431640625,0.002215365879237652,0.0016407687216997147,0.0020557972602546215
1782952697709602300,0.145602294921875,-0.0031591595616191626,0.0017331806011497974,0.0005417902721092105
1782952697719529500,0.155529541015625,0.00007972063031047583,-0.0013360506854951382,-0.000874648685567081
1782952697729456000,0.1654560546875,-0.000264892412815243,0.00036437762901186943,0.000800213310867548
1782952697739384000,0.175384033203125,-0.002683498663827777,-0.0006830822676420212,0.00036371778696775436
1782952697749311200,0.185311279296875,-0.0015623080544173717,-0.0017896259669214487,-0.0008978216210380197
1782952697759239200,0.1952392578125,0.0003281035169493407,-0.00005857134237885475,-0.00032568417373113334
1782952697769166300,0.205166259765625,0.0007803082698956132,0.0009065582416951656,-0.003710029413923621
1782952697779094300,0.21509423828125,0.0007808625232428312,0.00003634020686149597,-0.00029555667424574494
1782952697789021200,0.225021240234375,0.0015372002962976694,-0.000008933711796998978,-0.0018364617135375738
1782952697798949000,0.23494921875,-0.0013559553772211075,0.002065338660031557,-0.00022683004499413073
1782952697808876300,0.244876220703125,0.000669112429022789,-0.0007325783371925354,0.0020831958390772343
1782952697818804200,0.25480419921875,0.0004427495296113193,0.0024474402889609337,-0.0006774571957066655
1782952697828731400,0.2647314453125,0.0006920213927514851,-0.0011811165604740381,0.0022797170095145702
1782952697838658300,0.274658203125,0.003125276416540146,-0.0019213911145925522,0.0007009529508650303
1782952697848586200,0.284586181640625,0.00009965902427211404,-0.00011124042794108391,0.0008253225823864341
1782952697858513400,0.294513427734375,-0.0030611203983426094,0.0006574918515980244,-0.0019071814604103565
1782952697868441300,0.30444140625,0.00009765487629920244,0.001570423599332571,0.0010689010377973318
1782952697878368300,0.3143681640625,-0.004139308352023363,0.002053357195109129,0.0028767199255526066
1782952697888296400,0.32429638671875,-0.0008881214307621121,0.0013505485840141773,0.0006753508932888508
1782952697898223400,0.334223388671875,0.0003516159194987267,0.00048584025353193283,0.0030021846760064363
1782952697908151300,0.3441513671875,-0.0015365651343017817,0.0014906511642038822,-0.000994421076029539
1782952697918078200,0.354078125,-0.0016350282821804285,0.0006264736875891685,0.0012029872741550207
1782952697928006100,0.364006103515625,-0.0003852067166008055,0.0016722972504794598,0.001512979157269001
1782952697937933300,0.373933349609375,0.0001774586853571236,-0.0008588302880525589,0.00021884654415771365
1782952697947860200,0.383860107421875,0.0015961246099323034,-0.0004279310815036297,0.00041831727139651775
1782952697957788200,0.3937880859375,-0.0004679578705690801,-0.0010310136713087559,0.00144031154923141
1782952697967715300,0.40371533203125,0.0005024980055168271,-0.0013633761554956436,0.001767880516126752
1782952697977643300,0.413643310546875,0.0012780542019754648,0.000004730653017759323,0.0013454167637974024
1782952697987570200,0.423570068359375,0.0002660529571585357,0.0013759923167526722,0.00001649936893954873
1782952697997498400,0.433498291015625,-0.002561610657721758,0.0020324168726801872,0.0031458670273423195
1782952698007425300,0.44342529296875,-0.0005314829759299755,0.0013975193724036217,-0.0022033583372831345
1782952698017353200,0.453353271484375,0.0003216272161807865,-0.0024125187192112207,0.0019307027105242014
1782952698027280400,0.4632802734375,0.0008156435796990991,0.00037767505273222923,-0.0010871912818402052
1782952698037208300,0.473208251953125,-0.0002307338872924447,0.0001281779259443283,-0.0000057988218031823635
1782952698047135200,0.48313525390625,0.001142658293247223,-0.0017719876486808062,0.00210422370582819
1782952698057063400,0.4930634765625,0.00019891365082003176,0.0033163600601255894,0.0008950503543019295
1782952698066990300,0.502990234375,-0.0015638326294720173,0.0012659919448196888,0.00016720849089324474
1782952698076917200,0.512917236328125,-0.0008049382013268769,0.002501106821000576,0.0017126536695286632
1782952698086845400,0.522845458984375,-0.0001884164521470666,-0.00027443980798125267,0.0004316732520237565
1782952698096772000,0.532772216796875,-0.0019470870029181242,-0.0007919450290501118,-0.001238956581801176
1782952698106700500,0.542700439453125,0.002143794670701027,-0.0019781168084591627,0.002577619394287467
1782952698116627500,0.55262744140625,-0.0002646355424076319,0.0014954376965761185,0.000509872566908598
1782952698126555400,0.562555419921875,0.002591604832559824,0.000012855976819992065,-0.0016728541813790798
1782952698136482600,0.572482666015625,-0.000008844188414514065,0.0012699938379228115,-0.000514148036018014
1782952698146410500,0.582410400390625,-0.001109262346290052,-0.00018355948850512505,0.0015953418333083391
1782952698156337400,0.59233740234375,-0.00044401217019185424,0.00019164243713021278,-0.0005757617182098329
1782952698166265600,0.602265625,-0.0013215236831456423,0.0007498408667743206,-0.0007038597832433879
1782952698176192500,0.612192626953125,-0.0005396655760705471,-0.0013744758907705545,0.0001615882501937449
1782952698186119700,0.62211962890625,0.0009852604707702994,0.0009512626565992832,0.003014366375282407
1782952698196047600,0.632047607421875,-0.0005325628444552422,0.0004896312020719051,0.001075088046491146
1782952698205974300,0.641974365234375,-0.003036999609321356,-0.0020345128141343594,0.0005424558185040951
1782952698215902500,0.65190234375,0.002967003732919693,0.000681629404425621,0.001054554246366024
1782952698225829400,0.661829345703125,0.0016024000942707062,0.001280308235436678,-0.00027356413193047047
1782952698235757300,0.67175732421875,-0.0011743046343326569,-0.0008650920353829861,0.002991519635543227
1782952698245684500,0.6816845703125,0.002851329743862152,0.00156424380838871,0.0017515518702566624
1782952698255612400,0.6916123046875,-0.0001490947906859219,-0.00005825469270348549,-0.0013417289592325687
1782952698265539300,0.701539306640625,0.0010637087980285287,0.0015255268663167953,-0.0005225407076068223
1782952698275467500,0.711467529296875,-0.0008631774107925594,0.002027382142841816,-0.0024576615542173386
1782952698285394400,0.72139453125,0.0019728229381144047,0.0013426835648715496,-0.0002706736559048295
1782952698295322400,0.731322265625,0.0005544298328459263,-0.00019618403166532516,0.0005364404059946537
1782952698305249500,0.74124951171875,0.00044470763532444835,0.0005399137735366821,-0.0010012687416747212
1782952698315176400,0.751176513671875,-0.00003194529563188553,-0.0015256940387189388,-0.0003829205525107682
1782952698325104400,0.7611044921875,-0.0012215792667120695,-0.0009826754685491323,0.00015290745068341494
1782952698335031600,0.771031494140625,0.0032127192243933678,0.000865299254655838,-0.0011795834871008992
1782952698344959500,0.78095947265625,-0.001876847818493843,-0.0011310060508549213,-0.000317784579237923
1782952698354886700,0.79088671875,0.00020033057080581784,0.0006425892934203148,0.0018168906681239605
1782952698364814600,0.800814697265625,0.0001420073676854372,-0.0012325423303991556,-0.0016918240580707788
1782952698374741500,0.810741455078125,-0.0002457799855619669,0.000683959573507309,0.0016720688436180353
1782952698384669400,0.82066943359375,0.0005782020161859691,0.001968668308109045,0.0008803110104054213
1782952698394596400,0.830596435546875,0.000832477817311883,0.0005317977629601955,0.00007108546560630202
1782952698404524500,0.840524658203125,-0.0010072338627651334,0.0012244856916368008,-0.0008471724577248096
1782952698414451500,0.850451416015625,-0.000383748731110245,-0.0008558831177651882,0.0013513317098841071
1782952698424378400,0.86037841796875,0.0020663593895733356,-0.0006612059660255909,-0.0009512373362667859
1782952698434306300,0.870306396484375,0.0001652308856137097,-0.0014915256761014462,0.0004996262141503394
1782952698444233500,0.8802333984375,0.0011452741455286741,-0.0021434675436466932,-0.0012668485287576914
1782952698454161400,0.890161376953125,0.001451136078685522,-0.00022782757878303528,0.0017347271787002683
1782952698464088300,0.90008837890625,0.0010508629493415356,-0.0005428795702755451,0.0015235383762046695
1782952698474016500,0.9100166015625,0.0016274901572614908,-0.0007201633416116238,-0.001653255894780159
1782952698483943400,0.919943359375,-0.0007650937186554074,-0.0015601245686411858,0.0007489154231734574
1782952698493871400,0.929871337890625,0.0015363456914201379,-0.0010536713525652885,0.00043721566908061504
1782952698503798500,0.939798583984375,0.0018210376147180796,0.0007048137485980988,0.0013562726089730859
1782952698513726500,0.9497265625,-0.0014481566613540053,-0.00042019598186016083,-0.0007624403806403279
1782952698523653600,0.959653564453125,-0.003076679538935423,-0.0006636092439293861,-0.00015657121548429132
1782952698533581600,0.96958154296875,0.00213057198561728,-0.0008598892018198967,0.0008671086980029941
1782952698543508500,0.979508544921875,-0.000838319887407124,-0.0011059653479605913,0.0026082834228873253
1782952698553435600,0.989435546875,-0.002095660660415888,-0.0005784374661743641,-0.0003596866736188531
1782952698563363600,0.999363525390625,0.0002559106796979904,0.00072517991065979,0.0006706903805024922
1782952698573290200,1.009290283203125,-0.00011145678581669927,0.000532140489667654,-0.0012746676802635193
1782952698583218400,1.019218505859375,0.0012600711779668927,0.0011388086713850498,0.0006910115480422974
1782952698593145300,1.029145263671875,-0.00011730322148650885,-0.000361777376383543,-0.0010810783132910728
1782952698603073300,1.0390732421875,0.00011146231554448605,0.0016268049366772175,-0.00007733283564448357
1782952698613000400,1.04900048828125,-0.00038346322253346443,-0.002463333308696747,0.0015610092086717486
1782952698622928400,1.058928466796875,-0.0013179664965718985,0.001877353060990572,-0.0004946847911924124
1782952698632855300,1.068855224609375,-0.001972986850887537,-0.00014284439384937286,-0.0016208196757361293
1782952698642783500,1.078783447265625,-0.0011402163654565811,-0.0013652353081852198,0.0024495557881891727
1782952698652710400,1.08871044921875,-0.001396622508764267,0.0009411266073584557,-0.00047945178812369704
1782952698662637600,1.098637451171875,0.0007770495722070336,-0.000209092628210783,0.0022811810486018658
1782952698672565500,1.1085654296875,-0.0005478995735757053,0.00032528722658753395,-0.000564312154892832
1782952698682492400,1.118492431640625,0.0014950113836675882,-0.0006350483745336533,-0.0003099802997894585
1782952698692420600,1.128420654296875,-0.0029368139803409576,-0.00008926447480916977,-0.0002502608404029161
1782952698702347500,1.138347412109375,-0.0018209497211501002,0.00022126035764813423,0.0016216749791055918
1782952698712275500,1.148275390625,-0.0016587335849180818,0.00031653326004743576,0.0002704972866922617
1782952698722202600,1.15820263671875,-0.0011466077994555235,-0.00018067890778183937,-0.001162283355370164
1782952698732130600,1.168130615234375,0.0011536362580955029,-0.0019390678498893976,-0.0005423387628979981
1782952698742057500,1.178057373046875,-0.0007044513477012515,-0.000665011815726757,-0.00027655530720949173
1782952698751985700,1.187985595703125,0.0016970529686659575,-0.0008268370293080807,-0.0008975580567494035
1782952698761912300,1.197912353515625,-0.0008313520811498165,0.0008448292501270771,0.0022558909840881824
1782952698771839500,1.207839599609375,0.0014881788520142436,0.0007439544424414635,0.001134955557063222
1782952698781767400,1.217767333984375,0.0007012147689238191,-0.001131709897890687,-0.002224622294306755
1782952698791694300,1.2276943359375,0.0004998181248083711,0.001562232617288828,0.0010373924160376191
1782952698801622300,1.237622314453125,-0.0000461299205198884,-0.0016913511790335178,0.0028304988518357277
1782952698811549400,1.247549560546875,-0.0014948140596970916,0.0013815602287650108,0.0004163901321589947
1782952698821477400,1.257477294921875,0.002080213278532028,0.0011282935738563538,0.0018534319242462516
1782952698831404500,1.267404541015625,-0.00020306988153606653,0.00008182739838957787,-0.001554199494421482
1782952698841332500,1.27733251953125,-0.0012590133119374514,-0.0009006126783788204,-0.0010468673426657915
1782952698851259400,1.28725927734375,0.001541991950944066,0.001151182223111391,-0.001364686992019415
1782952698861187600,1.2971875,-0.0012106513604521751,-0.0007761474698781967,0.0005682352930307388
1782952698871114500,1.307114501953125,0.00003390962956473231,0.0004342673346400261,-0.0007155612693168223
1782952698881041400,1.31704150390625,0.0007473704754374921,0.0020681163296103477,-0.0019488711841404438
1782952698890969600,1.326969482421875,-0.002861025743186474,0.00441167876124382,0.003098700661212206
1782952698900896500,1.336896484375,0.000711338478140533,0.004232980310916901,0.001640619826503098
1782952698910824400,1.346824462890625,0.0017376276664435863,0.003165259025990963,0.0026714520063251257
1782952698920751400,1.35675146484375,0.0028231320902705193,-0.002209000289440155,-0.0015374078648164868
1782952698930679600,1.366679443359375,-0.0029967427253723145,-0.0027082161977887154,0.0029618702828884125
1782952698940606500,1.3766064453125,-0.0001018864568322897,-0.0031132828444242477,0.0005040387623012066
1782952698950534400,1.386534423828125,-0.001425118651241064,-0.0018925955519080162,0.00021516659762710333
1782952698960461300,1.39646142578125,-0.002141775330528617,-0.0002480936236679554,0.001115581369958818
1782952698970389200,1.40638916015625,-0.002087824046611786,-0.0035808710381388664,-0.00022175611229613423
1782952698980316400,1.41631640625,0.0013231525663286448,0.0026184353046119213,0.0007777282153256238
1782952698990243300,1.426243408203125,-0.0012655172031372786,-0.0034060529433190823,-0.0008515865774825215
1782952699000171500,1.436171630859375,0.00061973457923159,-0.003109909128397703,0.0018248902633786201
1782952699010098400,1.446098388671875,0.001746952417306602,-0.0004192804917693138,0.000026374764274805784
1782952699020026400,1.4560263671875,-0.002225152449682355,0.0004481109790503979,0.0007486240356229246
1782952699029953500,1.46595361328125,-0.0008168675703927875,0.00007687695324420929,-0.00029716567951254547
1782952699039881500,1.475881591796875,-0.0006181957433000207,-0.0011729446705430746,0.0012405435554683208
1782952699049808400,1.485808349609375,0.0009932430693879724,-0.0008261501789093018,0.00040187942795455456
1782952699059736600,1.495736572265625,0.0014723457861691713,-0.0013710330240428448,0.0013544921530410647
1782952699069663500,1.50566357421875,-0.001663094386458397,-0.0000980026088654995,-0.002695950912311673
1782952699079591400,1.51559130859375,0.00014093099161982536,-0.0018599499017000198,0.0017781597562134266
1782952699089518600,1.5255185546875,-0.0008281079353764653,-0.0007192837074398994,0.0019475433509796858
1782952699099445200,1.5354453125,-0.0018672734731808305,-0.0002564266324043274,0.002765932586044073
1782952699109373700,1.545373779296875,-0.0012846160680055618,0.0022438005544245243,-0.0006930190720595419
1782952699119300600,1.555300537109375,0.0018826813902705908,0.0011471104808151722,-0.00009194359881803393
1782952699129228500,1.565228515625,0.001405170070938766,0.0014454447664320469,0.0006104357307776809
1782952699139155700,1.57515576171875,-0.0005935323424637318,-0.0027714045718312263,-0.00018425154848955572
1782952699149083600,1.585083740234375,0.0011575540993362665,-0.00020222924649715424,0.0012929871445521712
1782952699159008500,1.595008544921875,-0.00017455907072871923,-0.0005761370994150639,-0.0017350269481539726
1782952699168936400,1.6049365234375,-0.00021655467571690679,0.0002278950996696949,0.0006987513625063002
1782952699178863600,1.614863525390625,-0.000704978359863162,-0.001640046015381813,0.002018880331888795
1782952699188791600,1.62479150390625,-0.0008280840120278299,-0.0006755348294973373,0.002660152269527316
1782952699198718500,1.634718505859375,-0.003033447777852416,0.00159454345703125,0.0005828866851516068
1782952699208646700,1.644646728515625,0.00017525145085528493,0.0013715787790715694,-0.0007215029327198863
1782952699218573600,1.654573486328125,0.00016566409613005817,0.0007739653810858727,0.001001295866444707
1782952699228501500,1.66450146484375,0.0025095539167523384,-0.0009039170108735561,0.00246818782761693
1782952699238428700,1.6744287109375,-0.0015890509821474552,-0.00027594389393925667,-0.0008043046691454947
1782952699248355600,1.68435546875,-0.0001504765823483467,0.00037142587825655937,0.0015893534291535616
1782952699258283500,1.694283447265625,-0.0010160040110349655,-0.001775081967934966,0.0017611272633075714
1782952699268210700,1.704210693359375,-0.00034293305361643434,0.0028289579786360264,-0.0010930788703262806
1782952699278138600,1.714138671875,0.0020307423546910286,0.0001482199877500534,0.002642537234351039
1782952699288065500,1.7240654296875,-0.0001809258828870952,-0.000382840633392334,-0.00038399698678404093
1782952699297993500,1.733993408203125,-0.0019846849609166384,-0.0003444910980761051,-0.0011147684417665005
1782952699307920400,1.74392041015625,0.0013402641052380204,-0.0018507654312998056,0.00004684383748099208
1782952699317848300,1.753848388671875,-0.0025263794232159853,-0.0014217302668839693,-0.001090059638954699
1782952699327775500,1.763775390625,0.00006285775452852249,0.0005647637881338596,0.0018969658995047212
1782952699337702400,1.773702392578125,-0.001405076589435339,-0.001968168653547764,-0.0019097564509138465
1782952699347630600,1.783630615234375,-0.0015272048767656088,0.0015255240723490715,0.0005822110106237233
1782952699357557500,1.7935576171875,0.00044300174340605736,0.00047730375081300735,0.002806483069434762
1782952699367485400,1.8034853515625,-0.0002395060728304088,0.001747815404087305,-0.0021365846041589975
1782952699377412600,1.81341259765625,-0.0020126388408243656,0.0005675023421645164,0.0006791756022721529
1782952699387340500,1.823340576171875,0.00003649719292297959,0.0008351975120604038,0.0018839796539396048
1782952699397267500,1.833267333984375,-0.002472999505698681,-0.0016066550742834806,0.0014970223419368267
1782952699407195600,1.843195556640625,-0.0002484520082361996,-0.0007612644694745541,-0.0004342145402915776
1782952699417122600,1.85312255859375,0.0019859401509165764,-0.0006310357712209225,-0.002970342757180333
1782952699427050500,1.863050537109375,-0.00007912988075986505,0.00012337835505604744,0.0017945977160707116
1782952699436977700,1.872977783203125,0.00012886303011327982,-0.0007823626510798931,0.0009825999150052667
1782952699446904300,1.882904296875,0.002109006978571415,0.00015949364751577377,0.0006229269201867282
1782952699456832800,1.892832763671875,-0.0005504254950210452,0.0022066659294068813,-0.00011716550216078758
1782952699466759400,1.902759521484375,0.00009042990859597921,-0.00040954770520329475,-0.0009723698603920639
1782952699476687400,1.912687255859375,0.0008704697829671204,0.002068790141493082,-0.0015840979758650064
1782952699486614500,1.922614501953125,-0.00021073321113362908,0.0005422802641987801,0.0010939782951027155
1782952699496542500,1.93254248046875,-0.0013891819398850203,-0.0011725288350135088,0.00024922366719692945
1782952699506469400,1.942469482421875,-0.00037991401040926576,0.0021553109399974346,-0.0012101482134312391
1782952699516397600,1.9523974609375,-0.0025514555163681507,0.00006126752123236656,-0.0005081389099359512
1782952699526324500,1.962324462890625,-0.00142071268055588,-0.0030047385953366756,-0.0007983936229720712
1782952699536254700,1.972254638671875,0.0010999692603945732,0.0010275538079440594,-0.00004498538328334689
1782952699546182700,1.9821826171875,0.0008596151601523161,-0.0007246220484375954,0.0003251507878303528
1782952699556109300,1.992109375,0.0032229041680693626,0.0016932617872953415,0.001545677543617785
1782952699566037500,2.00203759765625,-0.002180882729589939,-0.001215291442349553,-0.0013863107888028026
1782952699575964400,2.01196435546875,-0.002770773135125637,-0.0002746628597378731,0.0006478115683421493
1782952699585892400,2.021892333984375,0.0019529357086867094,-0.0023633490782231092,0.0021846387535333633
1782952699595819500,2.031819580078125,0.001058912486769259,0.0010446980595588684,0.0004168324521742761
1782952699605746400,2.041746337890625,0.0020274168346077204,0.0002658921293914318,0.0009625699021853507
1782952699615674400,2.05167431640625,-0.0013800978194922209,-0.0019866093061864376,0.000996125629171729
1782952699625601500,2.0616015625,0.0008036257349886,0.00041876453906297684,0.000745239551179111
1782952699635529500,2.071529541015625,-0.0008073204080574214,-0.000723731704056263,0.00031940010376274586
1782952699645456600,2.08145654296875,-0.001529474975541234,0.0016109929420053959,-0.00039289373671635985
1782952699655384600,2.091384521484375,0.0011491323821246624,0.00048021459951996803,0.0008761025383137167
1782952699665311500,2.1013115234375,-0.002607140224426985,0.0002530766651034355,-0.001747745438478887
1782952699675239700,2.11123974609375,-0.0003900586743839085,-0.000418306328356266,-0.0011227014474570751
1782952699685166600,2.12116650390625,-0.0021275170147418976,-0.0014303955249488354,0.000367449305485934
1782952699695094500,2.131094482421875,0.0020283458288758993,-0.00006792228668928146,0.00021564908092841506
1782952699705021700,2.141021728515625,-0.0009010406793095171,0.0016625444404780865,0.0007603099220432341
1782952699714948600,2.150948486328125,-0.001932749291881919,0.0014702645130455494,0.000295854639261961
1782952699724876500,2.16087646484375,-0.0004884621594101191,-0.00012345938012003899,-0.002026172121986747
1782952699734803500,2.170803466796875,-0.0013396083377301693,-0.0007839235477149487,0.0007256721728481352
1782952699744731400,2.1807314453125,-0.0004974901094101369,-0.0013217097148299217,0.0008697703015059233
1782952699754658600,2.190658447265625,-0.0006215934990905225,-0.0005744267255067825,-0.00010414770804345608
1782952699764586500,2.20058642578125,0.00110812287312001,-0.00033153221011161804,0.00018960487795993686
1782952699774513400,2.210513427734375,0.001581632881425321,-0.0004979800432920456,-0.0020333356224000454
1782952699784441300,2.22044140625,0.0005537390243262053,-0.0020245949272066355,0.0002427700674161315
1782952699794368500,2.230368408203125,0.00102565111592412,-0.00029913289472460747,0.003093950217589736
1782952699804296400,2.24029638671875,0.00020400166977196932,-0.00032344553619623184,-0.0008408721187151968
1782952699814223600,2.2502236328125,-0.0018924386240541935,-0.0007274472154676914,0.00021107651991769671
1782952699824150500,2.260150634765625,0.0020445853006094694,0.0007484112866222858,0.002198183676227927
1782952699834078500,2.270078369140625,-0.00025185843696817756,-0.0014540227130055428,0.00024209183175116777
1782952699844005600,2.280005615234375,-0.0014667920768260956,0.00013712141662836075,-0.0021899847779423
1782952699853933600,2.28993359375,-0.0013650592882186174,0.0007057059556245804,0.0006856964319013059
1782952699863860500,2.299860595703125,0.0008643763139843941,-0.0008269166573882103,0.0019582253880798817
1782952699873788700,2.30978857421875,-0.00028797349659726024,-0.0004514111205935478,-0.0013904334045946598
1782952699883715600,2.319715576171875,-0.0015021093422546983,-0.0017335156444460154,0.0013734066160395741
1782952699893643500,2.3296435546875,-0.000897305435501039,-0.0009393610525876284,-0.0007328875362873077
1782952699903570700,2.33957080078125,0.0008725295192562044,-0.001127432333305478,0.0009639266063459218
1782952699913498600,2.34949853515625,-0.0024409755133092403,-0.0008579203858971596,-0.0008760513737797737
1782952699923425500,2.359425537109375,-0.000022229156456887722,-0.00015452923253178596,0.0028464398346841335
1782952699933352400,2.3693525390625,-0.0007737731793895364,-0.0008594682440161705,0.0016639964887872338
1782952699943280400,2.3792802734375,-0.0004248206387273967,-0.00048663467168807983,-0.0009676938643679023
1782952699953207600,2.38920751953125,0.00033844131394289434,0.00008301576599478722,-0.0025597314815968275
1782952699963135500,2.399135498046875,0.0006190113490447402,0.0012321192771196365,0.0018938062712550163
1782952699973062400,2.4090625,0.001115690916776657,0.00042890990152955055,0.00014837051276117563
1782952699982990600,2.418990478515625,0.0007451244164258242,-0.0019284954760223627,-0.0015222355723381042
1782952699992917500,2.42891748046875,-0.000775540538597852,-0.0019362187013030052,-0.0014756303280591965
1782952700002845400,2.438845458984375,-0.0006268154829740524,0.0005836095660924911,0.0005134364473633468
1782952700012772600,2.448772705078125,-0.0019112579757347703,0.0008845468983054161,-0.0008224051562137902
1782952700022700500,2.458700439453125,-0.0008268817327916622,0.001439330168068409,-0.0010432354174554348
1782952700032627500,2.46862744140625,-0.00035710004158318043,-0.0006129019893705845,0.0018686649855226278
1782952700042554600,2.4785546875,-0.0027301283553242683,-0.000015085563063621521,0.00023002218222245574
1782952700052482600,2.488482666015625,-0.0033684878144413233,0.0009199501946568489,-0.0019063656218349934
1782952700062409700,2.49840966796875,-0.002961462829262018,-0.0012565883807837963,0.0006316659273579717
1782952700072337700,2.508337646484375,0.0014543244615197182,-0.00003286590799689293,0.0018894770182669163
1782952700082264300,2.518264404296875,0.0015285506378859282,0.0004464820958673954,0.0021678211633116007
1782952700092192800,2.52819287109375,-0.0005519107799045742,-0.0010384966153651476,0.003916718997061253
1782952700102119400,2.538119384765625,0.00030313729075714946,0.0014691799879074097,0.0004780010203830898
1782952700112046600,2.548046630859375,0.002366820815950632,-0.0013705487363040447,0.00028758501866832376
1782952700121973800,2.557973876953125,-0.001938983448781073,0.000001521781086921692,-0.000435016059782356
1782952700131900700,2.567900634765625,-0.0024497779086232185,0.0009181816130876541,0.0006270526209846139
1782952700141828900,2.577828857421875,-0.00019381486345082521,-0.0032334551215171814,0.0006872786907479167
1782952700151755800,2.587755859375,-0.0009679957875050604,0.0000646035186946392,0.0006787566235288978
1782952700161683700,2.59768359375,0.0022803843021392822,0.00025465991348028183,-0.0007284378516487777
1782952700171611000,2.60761083984375,-0.0018118288135156035,0.0017172680236399174,-0.0019082182552665472
1782952700181538800,2.617538818359375,0.0003415584214963019,-0.0027146136853843927,0.00026379653718322515
1782952700191465700,2.6274658203125,0.0011703341733664274,0.000946433749049902,0.0006334432400763035
1782952700201394000,2.637393798828125,0.00033563459874130785,0.000523037277162075,-0.0023959511891007423
1782952700211320800,2.64732080078125,-0.000016967940609902143,0.0012380960397422314,0.002844084519892931
1782952700221248800,2.657248779296875,0.00276711443439126,-0.00010134559124708176,0.0013422942720353603
1782952700231176000,2.667176025390625,-0.0013314904645085335,0.002067000139504671,-0.0006505491328425705
1782952700241102600,2.6771025390625,0.0003091043618042022,0.0007842662744224072,0.0004368066438473761
1782952700251030800,2.68703076171875,0.001163712702691555,-0.002398743759840727,-0.002684151753783226
1782952700260957700,2.696957763671875,0.00011170125799253583,0.002277076244354248,-0.0023095058277249336
1782952700270885600,2.7068857421875,-0.0013261393178254366,0.0005239173769950867,-0.0006887060008011758
1782952700280812800,2.716812744140625,-0.0005039424286223948,0.0012378511019051075,-0.00044977152720093727
1782952700290740700,2.72674072265625,-0.00033749494468793273,0.0009457021951675415,0.002381701488047838
1782952700300667600,2.736667724609375,-0.003952251747250557,0.002268994227051735,0.0009608054533600807
1782952700310595800,2.746595947265625,-0.0019167973659932613,0.0018370291218161583,-0.0007622598204761744
1782952700320522800,2.756522705078125,0.0029923918191343546,0.0006211088038980961,0.0005966095486655831
1782952700330450000,2.766449951171875,0.0008520091651007533,0.0011601322330534458,-0.0003557368472684175
1782952700340377900,2.7763779296875,-0.0007947037229314446,0.002838368061929941,0.0011673379922285676
1782952700350304800,2.7863046875,-0.0020644988398998976,-0.000392046757042408,0.0006863711168989539
1782952700360232700,2.796232666015625,-0.0006581206107512116,0.00034236861392855644,-0.00034732281346805394
1782952700370159900,2.806159912109375,0.0020910603925585747,-0.0030755321495234966,0.0021009212359786034
1782952700380087800,2.816087890625,-0.0022968214470893145,0.0014933357015252113,-0.0011144340969622135
1782952700390015000,2.826014892578125,0.001963437534868717,0.0008706888183951378,0.0006666880217380822
1782952700399943000,2.83594287109375,0.0019228225573897362,0.0004978291690349579,0.0004247443866916001
1782952700409869600,2.84586962890625,-0.003515618620440364,-0.0006712982431054115,0.0008689596434123814
1782952700419798000,2.855798095703125,-0.0004178692470304668,-0.00023072632029652596,-0.0021184715442359447
1782952700429724700,2.865724609375,-0.00023038260405883193,0.00008299387991428375,-0.0013288442278280854
1782952700439651800,2.87565185546875,-0.0011789348209276795,0.0028245938010513783,0.001587367383763194
1782952700449579800,2.885579833984375,0.0014847589191049337,-0.0006742668338119984,-0.0009791209595277905
1782952700459506700,2.895506591796875,-0.0009092583786696196,0.001915771048516035,-0.0006030973745509982
1782952700469434600,2.9054345703125,-0.002900770166888833,0.0006718086078763008,0.0012009278871119022
1782952700479361800,2.91536181640625,-0.0005562395672313869,-0.0014995094388723373,0.0008150520152412355
1782952700489289700,2.925289794921875,-0.0013834175188094378,-0.00047712167724967003,0.00028508302057161927
1782952700499217000,2.935216796875,-0.0000945354113355279,-0.0005354881286621094,0.001305946265347302
1782952700509144800,2.945144775390625,0.001985659822821617,-0.0007173819467425346,0.0006915550911799073
1782952700519071700,2.95507177734375,-0.0013106465339660645,-0.0006310371682047844,0.0007973762694746256
1782952700528999700,2.964999755859375,-0.0011346114333719015,0.0007905582897365093,0.0008407856803387403
1782952700538926800,2.9749267578125,0.0011081274133175611,-0.0030612158589065075,-0.0010015602456405759
1782952700548853800,2.984853759765625,-0.0018314698245376348,0.00035135867074131966,0.000014702032785862684
1782952700558782000,2.994781982421875,0.004582652356475592,-0.000604675617069006,0.0015637138858437538
1782952700568708900,3.004708984375,-0.00006802566349506378,0.0009325006976723671,0.00012054695980623364
1782952700578636800,3.01463671875,0.0006515731220133603,0.0020304638892412186,0.0006775243091396987
1782952700588563700,3.024563720703125,-0.000616357836406678,-0.0010763800237327814,0.0004506230470724404
1782952700598491600,3.03449169921875,0.0012594126164913177,0.00003465497866272926,-0.0007376964204013348
1782952700608418800,3.044418701171875,-0.0007336971466429532,-0.00133740552701056,0.001311606029048562
1782952700618346800,3.0543466796875,-0.0007134621264412999,0.000020331237465143204,-0.0016907911049202085
1782952700628273700,3.064273681640625,-0.0016373127000406384,0.001975091639906168,-0.0004990266170352697
1782952700638200800,3.074200927734375,-0.0002826001727953553,0.0002067149616777897,0.0005364038515836
1782952700648128800,3.084128662109375,0.0008590969373472035,-0.0002556098625063896,-0.0008106229943223298
1782952700658055700,3.0940556640625,0.0011697064619511366,-0.00004627509042620659,0.0006238885107450187
1782952700667984000,3.10398388671875,-0.0006255304906517267,-0.0014966328162699938,-0.00092527229571715
1782952700677910800,3.113910888671875,-0.0007540624937973917,-0.000936378724873066,-0.0020520074758678675
1782952700687838700,3.123838623046875,-0.00037536100717261434,0.0004724333994090557,-0.0031263267155736685
1782952700697766000,3.133765869140625,-0.0008929872419685125,0.00044533656910061836,0.00005563610466197133
1782952700707693800,3.14369384765625,0.00020130566554144025,0.0009545329958200455,0.00044392497511580586
1782952700717620700,3.153620849609375,0.0002787827397696674,0.0005552424117922783,0.0006705381674692035
1782952700727549000,3.163548828125,0.0009568235836923122,0.0000034351833164691925,-0.0016338950954377651
1782952700737475800,3.173475830078125,-0.0019298691768199205,0.001122842077165842,-0.001771110575646162
1782952700747402800,3.18340283203125,-0.0018049669452011585,-0.0018212825525552034,-0.0005380669608712196
1782952700757331000,3.1933310546875,-0.0009777126833796501,-0.00007244106382131577,0.0007971221348270774
1782952700767257600,3.203257568359375,-0.00169090717099607,-0.0010889696422964334,-0.00023991279886104167
1782952700777185800,3.213185791015625,0.0009424890740774572,0.0007721376605331898,-0.0027176341973245144
1782952700787112700,3.22311279296875,0.0005645865458063781,0.00045309076085686684,0.0007516657933592796
1782952700797040600,3.23304052734375,0.0005320087657310069,-0.0006900462321937084,0.0028129175771027803
1782952700806967800,3.2429677734375,0.0005376014159992337,0.00013553351163864136,0.005164755042642355
1782952700816895700,3.252895751953125,-0.0011604706523939967,0.0003231978043913841,-0.00039045626181177795
1782952700826822700,3.26282275390625,0.0020209415815770626,0.0005423757247626781,0.0005067626480013132
1782952700836749800,3.272749755859375,0.0008947363239713013,0.0008549708873033524,-0.0009323566919192672
1782952700846677800,3.282677734375,-0.0018682933878153563,-0.0010294816456735134,0.00013743509771302342
1782952700856605000,3.29260498046875,0.002019039588049054,0.0007297676056623459,-0.0014504422433674335
1782952700866532900,3.302532958984375,-0.0018196408636868,0.004006521310657263,0.002403418067842722
1782952700876459800,3.312459716796875,0.0007244808948598802,0.0013392320834100246,-0.0005853907787241042
1782952700886387700,3.3223876953125,-0.0011767498217523098,-0.003509052563458681,0.0018154489807784557
1782952700896315000,3.33231494140625,0.0005053594941273332,0.0011022868566215038,0.0018530238885432482
1782952700906242800,3.342242919921875,0.00017539382679387927,-0.0005499385297298431,-0.0011355754686519504
1782952700916170000,3.352169921875,0.0009823550935834646,0.001651246566325426,-0.001525203580968082
1782952700926098000,3.362097900390625,0.0009703708346933126,-0.00044972123578190804,0.00002369092544540763
1782952700936024800,3.37202490234375,0.001879667630419135,0.0012092133983969688,0.00021025462774559855
1782952700945951700,3.38195166015625,-0.001262596226297319,-0.0014520834665745497,-0.000005461450200527906
1782952700955879700,3.391879638671875,0.0028086756356060505,-0.0018024074379354715,0.00035582156851887703
1782952700965806800,3.401806884765625,0.00032501155510544777,0.0013664881698787212,0.00017446035053581
1782952700975734800,3.41173486328125,0.0018700642976909876,-0.0005215122364461422,-0.0008441580575890839
1782952700985661700,3.42166162109375,0.002921213861554861,0.0003299005329608917,-0.00109742465429008
1782952700995589600,3.431589599609375,0.0009828673209995031,0.0005649975501000881,0.0007081889198161662
1782952701005516800,3.441516845703125,-0.0002557688276283443,0.00004248553887009621,-0.0015040989965200424
1782952701015444700,3.45144482421875,-0.00028947083046659827,-0.0007174010388553143,-0.0012549773091450334
1782952701025372000,3.461371826171875,0.0005994923412799835,-0.00043031247332692146,0.0008158967830240726
1782952701035298800,3.471298828125,-0.000455910456366837,0.0011053336784243584,-0.0021604292560368776
1782952701045226800,3.481226806640625,-0.00018160475883632898,-0.0009295877534896135,-0.0011646733619272709
1782952701055154000,3.49115380859375,0.0025379497092217207,-0.0010998286306858063,-0.001687896903604269
1782952701065081900,3.501081787109375,0.001072145882062614,0.003045115154236555,-0.0020727235823869705
1782952701075008800,3.5110087890625,-0.0006798496469855309,-0.0006265938282012939,-0.000050465110689401627
1782952701084937000,3.52093701171875,0.002854165155440569,0.00047409068793058395,-0.000777774432208389
1782952701094864000,3.53086376953125,-0.0019310611533001065,0.0007841493934392929,0.0025417334400117397
1782952701104791800,3.540791748046875,-0.0012586129596456885,0.0012190435081720352,0.0015076278941705823
1782952701114719000,3.550718994140625,-0.0002947574248537421,-0.00007158936932682991,0.0006375120137818158
1782952701124647000,3.56064697265625,0.00023947266163304448,0.00030578067526221275,-0.0020645312033593655
1782952701134573800,3.57057373046875,-0.00021716952323913574,0.0005533304065465927,-0.000656168966088444
1782952701144500700,3.580500732421875,-0.000040601997170597315,0.0016044802032411098,-0.0009946567006409168
1782952701154428700,3.5904287109375,-0.0028256885707378387,0.0016320263966917992,0.0005277096061035991
1782952701164355800,3.60035595703125,0.0014348365366458893,-0.0021576518192887306,-0.0016283856239169836
1782952701174283800,3.61028369140625,0.0012408348266035318,-0.001739263767376542,-0.0004342745232861489
1782952701184210700,3.620210693359375,0.00047570859896950424,0.0009848838672041893,0.0016794763505458832
1782952701194139000,3.630138916015625,0.0029030607547611,-0.0012494293041527271,0.001934048137627542
1782952701204065800,3.640065673828125,-0.00008926709415391088,-0.000008662696927785873,0.0030821370892226696
1782952701213993700,3.64999365234375,-0.0002802645321935415,-0.0010779453441500664,0.0007639675168320537
1782952701223921000,3.6599208984375,-0.0011412645690143108,-0.00010802224278450012,-0.0004826582153327763
1782952701233847800,3.669847900390625,-0.0023702967446297407,0.00046788109466433525,0.0004562404938042164
1782952701243775700,3.679775634765625,-0.0005761252832598984,-0.0005419896915555,-0.0005413796752691269
1782952701253703000,3.689702880859375,0.00017453316831961274,-0.000640631653368473,-0.0005009595770388842
1782952701263630800,3.699630859375,0.0010744152823463082,-0.001461684238165617,-0.0019518497865647078
1782952701273558000,3.70955810546875,0.0008895100327208638,-0.00012796930968761444,0.0006640297942794859
1782952701283486000,3.71948583984375,0.00028896721778437495,0.002901109866797924,0.00018812291091307998
1782952701293412900,3.729412841796875,-0.0008027191506698728,-0.0003156210295855999,0.00011601560981944203
1782952701303340800,3.7393408203125,-0.00014651624951511621,-0.0003744768910109997,-0.0005622915341518819
1782952701313268000,3.74926806640625,-0.00015649199485778809,0.0018371855840086937,0.0018243442755192518
1782952701323196000,3.75919580078125,0.0009367356542497873,0.0006201211363077164,0.001235519303008914
1782952701333122800,3.769122802734375,-0.0010868398239836097,0.0016361959278583527,-0.0007142802351154387
1782952701343049700,3.7790498046875,0.0010644617723301053,0.001536327414214611,0.0005563138984143734
1782952701352977700,3.788977783203125,0.0016475197626277804,-0.0013092153239995241,0.0008120733546093106
1782952701362904800,3.79890478515625,-0.0004313437966629863,0.0018199989572167397,-0.0016023485222831368
1782952701372832800,3.808832763671875,0.0008047448936849833,0.0003804601728916168,0.0006784254219383001
1782952701382760000,3.818760009765625,0.000008992385119199753,-0.0005849357694387436,0.00014020054368302226
1782952701392687900,3.82868798828125,0.000013995275367051363,-0.0017059387173503637,-0.0007769678486511111
1782952701402614800,3.83861474609375,-0.001173508120700717,-0.0003743581473827362,-0.0009873575763776898
1782952701412542700,3.848542724609375,-0.0010364559711888433,-0.00029844697564840317,0.0012841969728469849
1782952701422470000,3.858469970703125,-0.0013752100057899952,-0.00103987124748528,0.0021321475505828857
1782952701432396800,3.868396728515625,0.0011778362095355988,-0.000533487182110548,-0.0023180958814918995
1782952701442325000,3.878324951171875,0.0019320433493703604,0.00082419253885746,0.0024010255001485348
1782952701452252000,3.888251953125,-0.001256084768101573,0.00015689991414546967,-0.002593112178146839
1782952701462179800,3.898179931640625,0.001195887685753405,0.000929749570786953,0.0013347840867936611
1782952701472107000,3.90810693359375,-0.0026969078462570906,0.0021260068751871586,-0.0032930828165262938
1782952701482035000,3.918034912109375,0.00040274520870298147,0.0016421102918684483,0.0007000608020462096
1782952701491961600,3.927961669921875,0.00039203724008984864,-0.0003535705618560314,-0.0006848579505458474
1782952701501890000,3.93789013671875,0.0009699431830085814,-0.00016235560178756714,-0.001124013215303421
1782952701511816700,3.947816650390625,-0.0021771369501948357,0.0004547182470560074,0.0019523422233760357
1782952701521744000,3.957743896484375,-0.0013158706715330482,0.0012744390405714512,-0.0007944420212879777
1782952701531671800,3.967671875,0.00028086273232474923,-0.0008711144328117371,-0.0004952340386807919
1782952701541598700,3.9775986328125,-0.0006365962908603251,0.0016186749562621117,0.0008328843978233635
1782952701551527000,3.98752685546875,0.0020919241942465305,-0.0005895840004086494,-0.00002639449667185545
1782952701561453800,3.997453857421875,-0.0009459437569603324,0.00002880208194255829,-0.0005502382991835475
1782952701571381800,4.0073818359375,-0.0018566376529633999,0.000196787528693676,-0.00009150075493380427
1782952701581309000,4.017308837890625,-0.00033091247314587235,0.00046896282583475113,0.0003082396578975022
1782952701591236900,4.02723681640625,-0.0008267288212664425,-0.000808443408459425,-0.0015759237576276064
1782952701601163800,4.037163818359375,-0.00005441211396828294,0.0007010363042354584,0.0015751284081488848
1782952701611092000,4.047092041015625,0.00005262729246169329,0.0004533105529844761,0.0005293117137625813
1782952701621019000,4.057018798828125,-0.00026109302416443825,0.0013678399845957756,-0.0019836470019072294
1782952701630946000,4.066946044921875,-0.002867423463612795,0.00008692126721143723,-0.000749535916838795
1782952701640874000,4.0768740234375,0.0018295935587957501,-0.0008838013745844364,-0.0024944390170276165
1782952701650801000,4.08680078125,-0.002688295440748334,0.0006092465482652187,-0.0014714975841343403
1782952701660728800,4.096728759765625,0.0010507827391847968,0.0007985974662005901,0.0018180389888584614
1782952701670655700,4.10665576171875,0.0006551760016009212,0.0009016003459692001,-0.0024373275227844715
1782952701680583700,4.116583740234375,-0.000752304564230144,0.0018326411955058575,-0.0012357091763988137
1782952701690510800,4.1265107421875,0.002349991351366043,-0.0024728544522076845,-0.00004740722943097353
1782952701700438800,4.136438720703125,0.00043917333823628724,-0.0005425955168902874,0.0006063988548703492
1782952701710365700,4.14636572265625,-0.0012503874022513628,0.001888609491288662,-0.0011644703336060047
1782952701720292900,4.15629296875,-0.0007023087819106877,-0.0016834887210279703,0.00015832175267860293
1782952701730220800,4.166220703125,0.000037150224670767784,0.0007736999541521072,-0.0006222643423825502
1782952701740147700,4.176147705078125,0.0011008167639374733,0.001371846068650484,0.0008656437275931239
1782952701750076000,4.186075927734375,0.000822005677036941,0.0019293185323476791,0.0005107999895699322
1782952701760002800,4.1960029296875,0.003936306107789278,-0.00039934972301125526,-0.0008961480343714356
1782952701769930800,4.2059306640625,0.000584677851293236,-0.0006555267609655857,-0.0011877669021487236
1782952701779858000,4.21585791015625,0.00039346289122477174,0.0009421035647392273,0.00041838549077510834
1782952701789785900,4.225785888671875,-0.0002950874622911215,0.0007234429940581322,0.0003437722334638238
1782952701799713000,4.235713134765625,-0.002983815036714077,0.0020904438570141792,0.0008596265688538551
1782952701809640000,4.245639892578125,0.0008849021978676319,0.00245516374707222,-0.001267801970243454
1782952701819567900,4.25556787109375,-0.00004747050115838647,-0.00019814353436231613,-0.000468853599159047
1782952701829494800,4.265494873046875,0.00016758439596742392,0.0013016755692660809,-0.00007751677185297012
1782952701839423000,4.275423095703125,-0.00033468782203271985,-0.0023268815129995346,0.0008127780165523291
1782952701849349600,4.285349609375,0.0018423607107251883,-0.0012006170582026243,0.00028107105754315853
1782952701859277800,4.29527783203125,-0.0016911213751882315,0.0013653384521603584,-0.0009740768000483513
1782952701869204700,4.305204833984375,-0.000277919287327677,0.002347064670175314,0.0018860145937651396
1782952701879132700,4.315132568359375,-0.0029011329170316458,0.0008298619650304317,0.0005373898311518133
1782952701889059800,4.325059814453125,-0.0025899107567965984,0.001103302463889122,0.000179924420081079
1782952701898987800,4.33498779296875,0.0019273430807515979,0.0015842695720493793,0.0003250666777603328
1782952701908914700,4.344914794921875,-0.0007578165968880057,0.001604367047548294,-0.000858069397509098
1782952701918841900,4.354841796875,0.000030479102861136198,0.0022302097640931606,-0.0012269171420484781
1782952701928769800,4.364769775390625,0.0012733771000057459,-0.000009725335985422134,-0.00018862576689571142
1782952701938697000,4.374697021484375,0.0019626033026725054,0.0016651367768645287,0.0013133970787748694
1782952701948625000,4.384625,0.00030778482323512435,0.0018920120783150196,0.0010533868335187435
1782952701958551800,4.3945517578125,0.0005354851018637419,-0.0004774024710059166,-0.00018897786503657699
1782952701968479700,4.404479736328125,0.00027390423929318786,-0.001273441594094038,0.0006113314302638173
1782952701978407000,4.414406982421875,-0.0007945559336803854,-0.0005083153955638409,-0.0012390329502522945
1782952701988334800,4.4243349609375,0.000867254741024226,-0.0010048747062683105,0.000979748321697116
1782952701998262000,4.434261962890625,0.0006565986550413072,-0.0016253911890089512,-0.0011790101416409016
1782952702008188700,4.444188720703125,0.0011349765118211508,-0.0021680283825844526,-0.0012615076266229153
1782952702018116600,4.45411669921875,-0.0009955524001270533,-0.00007851235568523407,-0.0022729760967195034
1782952702028043800,4.464043701171875,0.0022925538942217827,-0.002308835508301854,0.0006336502847261727
1782952702037971700,4.4739716796875,-0.0016033845022320747,-0.0013775283005088568,0.00013297604164108634
1782952702047899000,4.48389892578125,0.0020412467420101166,0.001280035823583603,-0.0002486355078872293
1782952702057826800,4.493826904296875,-0.0013047487009316683,-0.0033759684301912785,-0.0019791575614362955
1782952702067753700,4.503753662109375,-0.0011435151100158691,-0.0011781530920416117,0.0004817367298528552
1782952702077681700,4.513681640625,-0.0013256752863526344,-0.0020966771990060806,0.0026221193838864565
1782952702087608800,4.52360888671875,0.0019212310435250401,-0.0007601170800626278,0.0008167105261236429
1782952702097536800,4.533536865234375,0.0001235973322764039,-0.0013534692116081715,0.00019752554362639785
1782952702107464400,4.54346435546875,0.0004514809406828135,-0.002363539533689618,-0.0000682746758684516
1782952702117391400,4.553391357421875,-0.0011059356620535254,0.00026872893795371056,-0.0004230077611282468
1782952702127319300,4.5633193359375,-0.0018670873250812292,0.0004331497475504875,-0.0003407250624150038
1782952702137246500,4.57324658203125,0.0005888799787499011,-0.0003929627127945423,0.003916870802640915
1782952702147174400,4.58317431640625,0.000741057563573122,-0.0018277987837791443,0.0000351167400367558
1782952702157101300,4.593101318359375,-0.0004219449474476278,0.00022842781618237495,0.0004305961774662137
1782952702167029500,4.603029541015625,0.0017178063280880451,0.0006554173305630684,-0.0019972543232142925
1782952702176956400,4.612956298828125,-0.0009826390305534005,-0.0002607102505862713,0.0008278271416202188
1782952702186884400,4.62288427734375,0.0008855717605911195,-0.0019392494577914476,0.003958843648433685
1782952702196811500,4.6328115234375,-0.0007160532986745238,-0.0010854401625692844,0.00018967187497764826
1782952702206738400,4.642738525390625,-0.00005319557385519147,0.0012625507079064846,0.00047666457248851657
1782952702216666400,4.652666259765625,-0.0026178197003901005,0.0006963624618947506,-0.0008538507390767336
1782952702226593500,4.662593505859375,0.00043585957610048354,0.00023920927196741104,-0.00011487369192764163
1782952702236521500,4.672521484375,-0.00021608220413327217,0.0006003342568874359,0.0007778179133310914
1782952702246448600,4.68244873046875,0.0011984107550233603,-0.0011025979183614254,0.000017637910787016153
1782952702256376600,4.69237646484375,-0.0005339754861779511,-0.00024559255689382553,0.001951092854142189
1782952702266303500,4.702303466796875,-0.0004934294847771525,-0.00034803617745637894,0.0004047961556352675
1782952702276231400,4.7122314453125,0.0022166031412780285,0.0006109680980443954,0.00019999907817691565
1782952702286158600,4.72215869140625,0.0009888401255011559,-0.0023763692006468773,0.000500690599437803
1782952702296085200,4.732085205078125,-0.0005318248877301812,0.00017280830070376396,0.00030441564740613103
1782952702306013400,4.742013427734375,-0.003450809046626091,0.0012892172671854496,0.0036022569984197617
1782952702315940400,4.7519404296875,-0.0003745918511413038,-0.0011007036082446575,-0.0004532049933914095
1782952702325868300,4.761868408203125,-0.002691806759685278,-0.0011258665472269058,0.0008664520573802292
1782952702335795500,4.77179541015625,-0.000513074453920126,-0.0015932514797896147,0.002426797989755869
1782952702345723400,4.781723388671875,0.0016347428318113089,0.0005005109123885632,0.00023445038823410869
1782952702355650300,4.791650390625,0.0015061122830957174,-0.001300052274018526,0.0013471189886331558
1782952702365578500,4.80157861328125,-0.0010585901327431202,-0.00010402500629425049,0.0010755554540082812
1782952702375505400,4.81150537109375,0.0012498379219323397,0.00041981879621744156,0.000226805976126343
1782952702385433300,4.821433349609375,-0.0012676494661718607,0.0006494834087789059,-0.002489801961928606
1782952702395360500,4.831360595703125,0.0012540979078039527,0.0015307231806218624,0.0008290292462334037
1782952702405287400,4.841287353515625,0.003088882192969322,0.00006786733865737915,0.0034068883396685123
1782952702415215600,4.851215576171875,-0.0018936257110908628,0.001715032383799553,0.00031069747637957335
1782952702425142500,4.861142578125,0.00011943723075091839,-0.0020548540633171797,0.0017753969877958298
1782952702435070500,4.871070556640625,0.002091241767629981,0.00004478218033909798,-0.00019134738249704242
1782952702444997600,4.88099755859375,-0.0000659169745631516,0.00029120733961462975,0.0012892443919554353
1782952702454925600,4.890925537109375,-0.00009148335084319115,-0.0008086781017482281,-0.0012436880497261882
1782952702464852200,4.900852294921875,0.0019358285935595632,0.002427359577268362,-0.001582092372700572
1782952702474780700,4.91078076171875,-0.0023736986331641674,0.0002153380773961544,-0.00032454769825562835
1782952702484707300,4.920707275390625,-0.0006080238963477314,0.001691704150289297,0.0006511654937639832
1782952702494634500,4.930634521484375,0.0005935943336226046,0.00025359727442264557,0.0006394475931301713
1782952702504562400,4.9405625,-0.002469114726409316,0.00042122136801481247,-0.002264315728098154
1782952702514489300,4.9504892578125,0.0008537113899365067,-0.002968183718621731,-0.00016760907601565123
1782952702524417300,4.960417236328125,-0.001410490833222866,0.0007643569260835648,-0.0015583118656650186
1782952702534344400,4.970344482421875,-0.00020354619482532144,-0.002785636577755213,0.0008398646605201066
1782952702544272400,4.9802724609375,0.001045750337652862,0.0008723558858036995,0.0006149123655632138
1782952702554199600,4.990199462890625,0.00012056820560246706,-0.0009042387828230858,0.00018134975107386708
1782952702564127500,5.00012744140625,-0.0010339855216443539,-0.0009997021406888962,-0.0005172650562599301
1782952702574054400,5.010054443359375,-0.0010635466314852238,0.0004924670793116093,-0.003250733483582735
1782952702583981600,5.019981689453125,-0.0013150570448487997,0.0001337905414402485,-0.0010037246393039823
1782952702593909500,5.029909423828125,-0.0008998702396638691,0.0006312690675258636,0.0008309271070174873
1782952702603836400,5.03983642578125,-0.00031849462538957596,-0.0009741969406604767,0.0009800014086067677
1782952702613764600,5.0497646484375,0.00008657213766127825,-0.0007680682465434074,-0.0013361498713493347
1782952702623691500,5.05969140625,0.0007952434243634343,0.0006592292338609695,-0.0006013229722157121
1782952702633619500,5.069619384765625,0.001591794891282916,-0.0006182892248034477,0.0023579816333949566
1782952702643546400,5.07954638671875,0.0019703293219208717,-0.0007050256244838238,0.0007192600751295686
1782952702653474600,5.089474609375,-0.0011868481524288654,-0.0008285962976515293,0.00013123411918058991
1782952702663401500,5.0994013671875,0.00025581533554941416,0.0006003049202263355,0.0011011292226612568
1782952702673328400,5.109328369140625,-0.0024587446823716164,0.0009782076813280582,-0.0010435143485665321
1782952702683256300,5.11925634765625,0.004420867655426264,-0.0004352116957306862,0.0010248329490423203
1782952702693183500,5.12918359375,0.0003840483259409666,-0.001027232501655817,-0.001043644268065691
1782952702703111400,5.139111328125,0.0011776169994845986,0.0004056449979543686,-0.0012260819785296917
1782952702713038300,5.149038330078125,0.0007296733092516661,-0.0013443180359899998,0.0017055257922038436
1782952702722966500,5.158966552734375,0.000030185561627149582,0.00037032272666692734,0.0015868359478190541
1782952702732893400,5.1688935546875,-0.00004784506745636463,-0.0010294346138834953,-0.00006459013093262911
1782952702742821400,5.1788212890625,0.00009858357952907681,0.00045535387471318245,-0.0028997650370001793
1782952702752748500,5.18874853515625,0.0014096577651798725,-0.000787543598562479,-0.00011702807387337089
1782952702762675500,5.198675537109375,0.0013319234130904078,-0.0008643465116620064,-0.0024025351740419865
1782952702772603400,5.208603271484375,-0.0012287059798836708,0.000016094651073217392,-0.0004022348439320922
1782952702782530600,5.218530517578125,0.0002673663548193872,0.0006033340469002724,-0.0030070615466684103
1782952702792458500,5.22845849609375,-0.000003477092832326889,-0.0012270566076040268,0.0009999305475503206
1782952702802385700,5.2383857421875,-0.0006548824603669345,0.0007007853128015995,-0.0028766728937625885
1782952702812313600,5.248313720703125,-0.0010157409124076366,0.0016952096484601498,-0.0003384142182767391
1782952702822240300,5.258240234375,-0.0015477025881409645,-0.00003732042387127876,0.00007397151784971356
1782952702832168400,5.26816845703125,0.0010699183912947774,0.001868437509983778,-0.00005678966408595443
1782952702842095400,5.278095458984375,0.0003172518336214125,0.00045640813186764717,0.000430513930041343
1782952702852023300,5.288023193359375,-0.0001578561495989561,-0.001084496732801199,0.0019767452031373978
1782952702861950500,5.297950439453125,0.0006818217225372791,-0.0009200000204145908,0.0011680234456434846
1782952702871877400,5.30787744140625,-0.0006340461550280452,0.000025688670575618744,-0.00044718378921970725
1782952702881802500,5.317802490234375,-0.0006573135033249855,0.0003488096408545971,-0.001977375242859125
1782952702891730400,5.32773046875,0.0009421810391359031,-0.00013535283505916595,0.0006418436532840133
1782952702901657300,5.3376572265625,-0.0010770849185064435,-0.0017680658493191004,0.0023358610924333334
1782952702911584300,5.347584228515625,0.0013509190175682306,0.0018181465566158295,0.0025108307600021362
1782952702921512400,5.357512451171875,0.0008142966544255614,-0.0009535732679069042,0.0015853887889534235
1782952702931439400,5.367439453125,0.00017939909594133496,-0.00204253988340497,-0.0001664385781623423
1782952702941367300,5.3773671875,0.0009503476321697235,0.0011202935129404068,0.0014752483693882823
1782952702951294500,5.38729443359375,-0.001854227390140295,-0.0009457864798605442,-0.0006257194327190518
1782952702961222400,5.397222412109375,0.0013689385959878564,-0.0005171117372810841,0.0018265937687829137
1782952702971149600,5.407149658203125,-0.0004955404438078403,0.0015510995872318745,-0.00018063077004626393
1782952702981077500,5.417077392578125,-0.0021383040584623814,0.0013907421380281448,-0.0013630856992676854
1782952702991004400,5.42700439453125,-0.0009819597471505404,-0.0005999710410833359,-0.0002448243903927505
1782952703000931600,5.436931640625,0.0025680060498416424,0.0004548565484583378,0.00093812559498474
1782952703010859500,5.446859619140625,0.0013629257446154952,0.00043408386409282684,0.00033119117142632604
1782952703020786400,5.456786376953125,0.0009080113959498703,-0.0027316564228385687,0.0038516921922564507
1782952703030714600,5.466714599609375,0.0007665975717827678,-0.0003467956557869911,0.0019651087932288647
1782952703040641500,5.4766416015625,0.0021194899454712868,-0.0009550619870424271,-0.0005169955547899008
1782952703050569500,5.486569580078125,-0.0007450059056282043,-0.001649081939831376,-0.00012284767581149936
1782952703060496600,5.49649658203125,0.000021907093469053507,0.00014357175678014755,0.0005321024800650775
1782952703070424600,5.506424560546875,0.002772153588011861,-0.0002204827032983303,-0.000620513572357595
1782952703080351200,5.516351318359375,-0.0011058950331062078,0.0002906029112637043,0.00003677193308249116
1782952703090278400,5.5262783203125,-0.0013666185550391674,-0.0022276819217950106,0.002327356953173876
1782952703100206300,5.536206298828125,-0.0004639956168830395,-0.0021098346915096045,0.001486331457272172
1782952703110133500,5.546133544921875,-0.000263193272985518,-0.0006424328312277794,0.001338259782642126
1782952703120061200,5.556061279296875,0.0002603121683932841,-0.0005942089483141899,-0.0011445027776062489
1782952703129988000,5.565988037109375,-0.0006041498854756355,-0.00198677578009665,0.001708808122202754
1782952703139916300,5.575916259765625,0.00032610143534839153,-0.002329840324819088,0.0008818351780064404
1782952703149843200,5.58584326171875,-0.0019690105691552162,0.0004121502861380577,-0.00132992013823241
1782952703159771100,5.595771240234375,0.00027205265359953046,0.0000020172446966171265,0.0014510034816339612
1782952703169698300,5.6056982421875,-0.0015452886000275612,-0.0001825396902859211,0.0019780430011451244
1782952703179625200,5.615625244140625,-0.00212226714938879,0.002997970674186945,-0.0003097502631135285
1782952703189553200,5.62555322265625,0.0007371690007857978,0.00036783237010240555,0.0006649666465818882
1782952703199480000,5.63547998046875,0.0006515125860460103,0.0002590008080005646,0.0008931393385864794
1782952703209408000,5.645407958984375,-0.002689955523237586,0.0009740595705807209,0.00010963738895952702
1782952703219335200,5.655335205078125,0.0012927833013236523,-0.00031505757942795753,0.000497666944283992
1782952703229263000,5.66526318359375,0.0016112974844872952,-0.00013529416173696518,0.00027822243282571435
1782952703239190000,5.67518994140625,-0.0003227515844628215,-0.0006587076932191849,0.00044978567166253924
1782952703249118200,5.6851181640625,0.0017398666823282838,-0.0002070353366434574,-0.002940418431535363
1782952703259045000,5.695045166015625,-0.0011102755088359118,0.0036133802495896816,-0.0032542929984629154
1782952703268972000,5.704971923828125,0.00033528823405504227,-0.00258672540076077,-0.001907532336190343
1782952703278900200,5.714900146484375,0.0017734533175826073,0.0005922224372625351,-0.0015069644432514906
1782952703288827100,5.7248271484375,0.0006882151355966926,-0.002159355441108346,0.0011567292967811227
1782952703298755000,5.734755126953125,0.0011914047645404935,0.0005916459485888481,-0.0007855566218495369
1782952703308682200,5.74468212890625,-0.00047094037290662527,0.00013624504208564758,0.0020182193256914616
1782952703318610200,5.754610107421875,-0.0005369550781324506,-0.0008293795399367809,-0.00018384610302746296
1782952703328537300,5.764537353515625,-0.0005286992527544498,0.0012987521477043629,-0.0012746768770739436
1782952703338465300,5.77446533203125,0.00027455994859337807,0.00032828981056809425,0.0006584870279766619
1782952703348392200,5.78439208984375,0.0012098620645701885,-0.001748443115502596,0.0005365142715163529
1782952703358320000,5.794320068359375,-0.0005608017672784626,0.0006215553730726242,0.0006392828654497862
1782952703368247300,5.804247314453125,-0.0009099422604776919,-0.001993136014789343,-0.00015433912631124258
1782952703378174000,5.814174072265625,0.002860568230971694,-0.002995228860527277,-0.0006093920674175024
1782952703388102100,5.82410205078125,0.0018701385706663132,0.00037739798426628113,0.0006585388910025358
1782952703398029000,5.834029052734375,-0.001575174741446972,-0.00021322956308722496,0.0002635862911120057
1782952703407957000,5.84395703125,-0.00014532351633533835,-0.0021743811666965485,0.0017674734117463231
1782952703417884200,5.85388427734375,0.0006824555457569659,0.0007277852855622768,0.00007310661021620035
1782952703427812000,5.86381201171875,0.0004409068205859512,-0.00042989104986190796,-0.0022563603706657887
1782952703437739000,5.873739013671875,0.0007891691639088094,-0.00028961803764104843,-0.000922664359677583
1782952703447667200,5.883667236328125,0.0013931740541011095,-0.002055560238659382,-0.003254794515669346
1782952703457594000,5.893593994140625,0.0017212815582752228,-0.0007630344480276108,0.0021673974115401506
1782952703467521300,5.903521240234375,-0.0005549221532419324,-0.0021920865401625633,-0.002133341273292899
1782952703477449200,5.91344921875,0.0009717789944261312,-0.0006331419572234154,0.0003380601992830634
1782952703487376100,5.923376220703125,0.0005275637377053499,0.00004782853648066521,-0.0015349409077316523
1782952703497304300,5.93330419921875,0.003078460693359375,-0.00249986769631505,0.0008795231697149575
1782952703507231200,5.943231201171875,-0.00028697599191218615,0.0007811468094587326,-0.00010717799887061119
1782952703517159200,5.9531591796875,-0.00013697741087526083,0.0006188815459609032,-0.0009055708069354296
1782952703527086300,5.96308642578125,-0.0027958774007856846,-0.00007753493264317513,-0.0018203665968030691
1782952703537014300,5.97301416015625,0.0007203040877357125,0.00024220161139965057,-0.0004250903148204088
1782952703546941000,5.98294091796875,-0.0009990326361730695,-0.0005231909453868866,0.0012788001913577318
1782952703556868000,5.9928681640625,0.00003586109960451722,-0.0015411076601594687,0.00012080254964530468
1782952703566796000,6.002796142578125,-0.0017884040717035532,-0.0008598710410296917,-0.0015252972953021526
1782952703576723200,6.01272314453125,0.0012133920099586248,-0.000925443833693862,0.0003411733778193593
1782952703586651100,6.022651123046875,0.0002863456611521542,-0.000012245960533618927,0.0004921745276078582
1782952703596578000,6.032578125,0.0008993978844955564,-0.0013492521829903126,0.0014543666038662195
1782952703606506000,6.042506103515625,-0.001487593399360776,-0.0010555055923759937,-0.0010324933100491762
1782952703616433200,6.05243310546875,0.00041937868809327483,-0.0006589358672499657,-0.0002686309162527323
1782952703626361000,6.062361083984375,0.0012156638549640775,-0.0006866329349577427,0.0011689432431012392
1782952703636288300,6.072288330078125,0.001633098116144538,0.0017562080174684525,0.0009193193400278687
1782952703646215200,6.082215087890625,0.0009476004051975906,-0.0011908458545804024,-0.0007731195073574781
1782952703656143000,6.09214306640625,-0.0003149143303744495,0.00002240389585494995,0.0015945802442729473
1782952703666070300,6.1020703125,-0.001631314866244793,0.00044398242607712746,0.0006254559266380966
1782952703675998200,6.111998291015625,0.0009958210866898298,-0.00044794054701924324,0.0006483971374109387
1782952703685925000,6.121925048828125,-0.00016851304098963737,0.001916680485010147,-0.0014339284971356392
1782952703695853300,6.131853271484375,0.00014341861242428422,0.0005833357572555542,0.0004669537302106619
1782952703705780200,6.1417802734375,0.0014931086916476488,-0.00017752917483448982,0.000060289050452411175
1782952703715708200,6.151708251953125,-0.0017109294421970844,-0.0007408545352518559,0.0006888891803100705
1782952703725635000,6.161635009765625,0.0007415756699629128,0.0016264291480183601,-0.00021525396732613444
1782952703735563300,6.171563232421875,0.0007607144070789218,0.0018833018839359283,-0.0005318338517099619
1782952703745490200,6.181490234375,-0.00034236692590638995,0.0007671709172427654,-0.001263936748728156
1782952703755417000,6.1914169921875,0.0002829912700690329,0.00023414986208081245,0.0005819840007461607
1782952703765345000,6.201344970703125,0.0008249445236288011,0.0002080509439110756,0.0006754609639756382
1782952703775272200,6.211272216796875,-0.0008117860998027027,-0.00013005733489990234,-0.001746324822306633
1782952703785200000,6.2212001953125,-0.0006549259996972978,0.0004454520530998707,0.0008068477618508041
1782952703795127000,6.231126953125,-0.00037900242023169994,-0.0029860995709896088,0.002924143336713314
1782952703805055200,6.24105517578125,0.0023768367245793343,0.0015926733613014221,0.000005585257895290852
1782952703814982100,6.250982177734375,-0.0010711920913308859,0.0005278186872601509,0.0003676729975268245
1782952703824910000,6.26091015625,-0.0038081228267401457,0.0005230247043073177,-0.000796927313786
1782952703834837200,6.270837158203125,0.00000644405372440815,-0.000392816960811615,0.00030564574990421534
1782952703844764200,6.28076416015625,0.0023191331420093775,0.0016421042382717133,0.000004442292265594006
1782952703854692000,6.290692138671875,0.0008639314328320324,0.0013992092572152615,0.0013003022177144885
1782952703864619300,6.300619384765625,-0.000030358030926436186,-0.0009305241983383894,0.00036979373544454575
1782952703874547200,6.310547119140625,-0.0004241757560521364,-0.000285519752651453,0.0008155851392075419
1782952703884474400,6.320474365234375,0.0008389615686610341,0.0030455621890723705,0.0005226373905315995
1782952703894402300,6.33040234375,0.0001975984196178615,0.0016414690762758255,0.0012142432387918234
1782952703904329000,6.340328857421875,-0.001330257160589099,0.00007313350215554237,-0.0007964433170855045
1782952703914257200,6.350257080078125,-0.00021921470761299133,0.002815036103129387,-0.0015528993681073189
1782952703924184000,6.36018408203125,-0.0022131232544779778,-0.0019072811119258404,0.0008034655475057662
1782952703934111200,6.370111328125,-0.0010111493756994605,0.0007034516893327236,0.0015381798148155212
1782952703944039200,6.3800390625,-0.0006601447239518166,-0.00037353066727519035,0.0007083388627506793
1782952703953966000,6.389966064453125,-0.000023489410523325205,0.00014524906873703003,-0.00011352775618433952
1782952703963894000,6.39989404296875,-0.0002770223654806614,0.00037534628063440323,0.002719276584684849
1782952703973821200,6.4098212890625,0.0011835701297968626,0.000030163675546646118,0.0024090332444757223
1782952703983749000,6.4197490234375,0.0009356297669000924,0.0006554736755788326,0.002924621105194092
1782952703993676300,6.42967626953125,-0.000382367754355073,0.00035714125260710716,-0.0010150875896215439
1782952704003604200,6.439604248046875,-0.001692110439762473,-0.0012812353670597076,0.0007953293970786035
1782952704013531100,6.44953125,-0.0013899493496865034,-0.0001993924379348755,0.00010190415196120739
1782952704023458300,6.459458251953125,0.0011262053158134222,-0.0026178089901804924,0.000010025047231465578
1782952704033386200,6.46938623046875,0.0007695270469412208,-0.0007915105670690536,-0.0011650410015136003
1782952704043313200,6.479313232421875,0.0010816495632752776,0.0007717651315033436,-0.001521638361737132
1782952704053241300,6.489241455078125,0.0022349392529577017,-0.003969246055930853,-0.0005205648485571146
1782952704063168000,6.49916796875,0.0011124168522655964,0.000015908386558294296,0.0028589866124093533
1782952704073096200,6.50909619140625,0.0012719836086034775,0.0006675291806459427,0.0004177792579866946
1782952704083023000,6.519023193359375,-0.0008974273223429918,0.0006707250140607357,0.0007085963734425604
1782952704092951000,6.528950927734375,-0.00080687808804214,-0.0012465992476791143,0.0014839139766991138
1782952704102878200,6.538878173828125,0.00023148837499320507,0.0010237456299364567,0.0012799156829714775
1782952704112805400,6.548805419921875,-0.00018812285270541906,0.0007344256155192852,0.002220671158283949
1782952704122733300,6.5587333984375,-0.001984424889087677,0.0028140880167484283,0.0006182470242492855
1782952704132660500,6.568660400390625,-0.0014332070713862777,0.00038233213126659393,0.0015933517133817077
1782952704142588400,6.57858837890625,0.0002768085687421262,-0.0010792107786983252,-0.0011198768625035882
1782952704152515300,6.588515380859375,-0.00015782046830281615,-0.0004745745100080967,-0.0018939340952783823
1782952704162443500,6.598443603515625,-0.0005940462579019368,0.00025166943669319153,-0.00006567401578649879
1782952704172370400,6.608370361328125,0.0034025884233415127,0.0003952234983444214,0.001061488059349358
1782952704182298400,6.61829833984375,-0.0007612639456056058,0.0030578519217669964,-0.0002786146360449493
1782952704192225500,6.6282255859375,-0.0003490297822281718,-0.0013201064430177212,0.0006054295809008181
1782952704202152400,6.63815234375,-0.0005431742174550891,0.0010751406662166119,-0.0009871406946331263
1782952704212080400,6.648080322265625,-0.0004821580369025469,-0.002645561471581459,-0.0003015521797351539
1782952704222007600,6.658007568359375,-0.000595608726143837,-0.0019379595760256052,0.000153315719217062
1782952704231935500,6.667935546875,0.0004342622123658657,0.0023955325596034527,-0.0018485800828784704
1782952704241862400,6.6778623046875,0.000045440683607012033,-0.0008612473029643297,-0.001180392922833562
1782952704251790600,6.68779052734375,-0.00035448744893074036,0.0014308770187199116,-0.0013258494436740875
1782952704261717200,6.69771728515625,-0.0009326597210019827,0.0017730933614075184,-0.0007551340386271477
1782952704271645200,6.707645263671875,0.0021415860392153263,0.0009225462563335896,-0.00117987219709903
1782952704281572400,6.717572265625,0.0020491741597652435,0.0000072177499532699585,-0.0012587017845362425
1782952704291499300,6.727499267578125,0.00019220291869714856,0.0013181697577238083,-0.003537615528330207
1782952704301427500,6.737427490234375,0.0021024884190410376,-0.0006778696551918983,-0.00011625245679169893
1782952704311354400,6.747354248046875,0.00013507029507309198,0.0006954725831747055,0.00006299471715465188
1782952704321282300,6.7572822265625,0.0007238952093757689,-0.0007405038923025131,0.0003556761075742543
1782952704331209500,6.76720947265625,0.000050190254114568233,0.00030282698571681976,-0.0014170336071401834
1782952704341137400,6.777137451171875,-0.0006305137649178505,0.0015265494585037231,-0.0010772142559289932
1782952704351064300,6.787064208984375,0.0003288925508968532,-0.001376366475597024,-0.002717453520745039
1782952704360992500,6.796992431640625,-0.0014879158698022366,-0.00010417448356747627,0.0012277534697204828
1782952704370919400,6.80691943359375,-0.0023530740290880203,-0.0007942160591483116,-0.0008967486210167408
1782952704380846600,6.8168466796875,-0.0012489273212850094,-0.0016048823017627,0.002307566814124584
1782952704390774500,6.8267744140625,-0.0007905354723334312,-0.00020663300529122353,-0.0011706396471709013
1782952704400701400,6.836701416015625,-0.0010954674798995256,0.0008383914828300476,-0.0017512086778879166
1782952704410629600,6.846629638671875,-0.0010644544381648302,0.0031280508264899254,-0.0024579151067882776
1782952704420556300,6.856556396484375,-0.00015631644055247307,-0.00004750257357954979,0.0009570562979206443
1782952704430484200,6.866484130859375,-0.00013301934814080596,0.0018451837822794914,-0.0008992911316454411
1782952704440411400,6.876411376953125,-0.0015426306053996086,0.00016739265993237495,0.0005095211090520024
1782952704450339300,6.88633935546875,0.000690918997861445,-0.00032464368268847466,-0.0013896464370191097
1782952704460266200,6.896266357421875,-0.000528542441315949,0.001102278009057045,-0.0023316065780818462
1782952704470193400,6.906193359375,0.0006010496290400624,0.0007244087755680084,-0.0022212243638932705
1782952704480121300,6.916121337890625,-0.0008309320546686649,-0.00014671124517917633,0.0004648398025892675
1782952704490048500,6.926048583984375,0.00004145281855016947,0.0016653970815241337,-0.002361373510211706
1782952704499976400,6.9359765625,-0.00007226417073979974,-0.0013482358772307634,-0.0037566032260656357
1782952704509903400,6.9459033203125,0.0007557227509096265,0.003052986692637205,-0.0000055720447562634945
1782952704519831300,6.955831298828125,0.0007709027850069106,0.0005799750797450542,-0.000004773144610226154
1782952704529758500,6.965758544921875,-0.00011985166929662228,0.0007286337204277515,0.00038682372542098165
1782952704539686400,6.975686279296875,-0.0033028617035597563,-0.000500149093568325,0.0004736427799798548
1782952704549613600,6.985613525390625,0.0004526312695816159,0.00027467217296361923,0.0006526483921334147
1782952704559540500,6.99554052734375,-0.0014414089964702725,-0.0003588935360312462,-0.0003178074839524925
1782952704569468400,7.005468505859375,0.0016650939360260963,0.0005121566355228424,0.002833673730492592
1782952704579395300,7.015395263671875,0.0010139510268345475,0.0005323966033756733,-0.00021111825481057167
1782952704589323500,7.025323486328125,-0.0002965813037008047,-0.002891962882131338,0.001239916542544961
1782952704599250400,7.03525048828125,-0.0009125703945755959,-0.0007073716260492802,0.00022072490537539124
1782952704609178400,7.045178466796875,0.001265578088350594,0.001462449785321951,0.0002875718637369573
1782952704619105300,7.055105224609375,-0.0005400452064350247,0.00008639413863420486,-0.0013034006115049124
1782952704629033200,7.065033203125,-0.0009531922405585647,0.0004853382706642151,0.000019429600797593594
1782952704638960400,7.07496044921875,0.0010609565069898963,-0.001678480301052332,0.0002940014819614589
1782952704648887300,7.08488720703125,0.0013379562878981233,0.0014836769551038742,0.00006522453622892499
1782952704658815500,7.0948154296875,-0.0009491664823144674,-0.0012580472975969315,-0.002364909974858165
1782952704668742400,7.104742431640625,-0.0019247082527726889,0.001751250121742487,0.0017222537426277995
1782952704678670300,7.11467041015625,0.0002356480690650642,-0.0017492088954895735,-0.0010663422290235758
1782952704688597500,7.124597412109375,-0.00025913596618920565,0.00005402835085988045,0.0010645308066159487
1782952704698525400,7.134525390625,0.002703897189348936,0.0007248786278069019,-0.0005208487855270505
1782952704708452400,7.144452392578125,0.002169706393033266,-0.00019310694187879562,0.0012177826138213277
1782952704718380500,7.154380615234375,-0.0008729551918804646,0.00095391646027565,-0.00090315897250548
1782952704728307500,7.164307373046875,0.001120967324823141,-0.000058902427554130554,0.0005526278400793672
1782952704738234600,7.174234619140625,0.0013952730223536491,-0.0003036470152437687,-0.00098028767388314
1782952704748162600,7.18416259765625,0.0015052254311740398,-0.000516112893819809,-0.002343539148569107
1782952704758089200,7.194089111328125,0.0007318435236811638,0.0020714146085083485,0.0007606415310874581
1782952704768017400,7.204017333984375,0.0013059962075203657,0.00045617762953042984,-0.0014540697447955608
1782952704777944300,7.2139443359375,0.001000531716272235,0.0018727132119238377,-0.00103462184779346
1782952704787872300,7.223872314453125,-0.0013704802840948105,0.001227386761456728,-0.0006413293885998428
1782952704797799400,7.23379931640625,-0.0016288070473819971,-0.0001745014451444149,0.0009224787936545908
1782952704807727400,7.243727294921875,0.00022729113698005676,-0.00027200672775506973,0.001964135793969035
1782952704817654300,7.253654296875,0.0008733740542083979,0.00010110205039381981,-0.0012748007429763675
1782952704827581400,7.26358154296875,0.00044149067252874374,0.0005861455574631691,-0.001721627777442336
1782952704837509400,7.27350927734375,-0.001248018816113472,0.00008973246440291405,-0.0008680847240611911
1782952704847436500,7.2834365234375,-0.0007609083550050855,0.00025180308148264885,-0.002257849555462599
1782952704857364500,7.293364501953125,-0.0008895390201359987,-0.00019347760826349258,0.0011089188046753407
1782952704867291400,7.30329150390625,-0.0005741548957303166,-0.0009679519571363926,0.0010289227357134223
1782952704877219300,7.31321923828125,0.0033295066095888615,-0.00024650152772665024,0.001271803048439324
1782952704887146500,7.323146484375,0.0012506658677011728,-0.0010830790270119905,-0.0007672245847061276
1782952704897073400,7.333073486328125,0.000495659711305052,-0.001125955954194069,-0.0012585778022184968
1782952704907001600,7.343001708984375,-0.0004460960626602173,-0.0013221402186900377,-0.002213691361248493
1782952704916928300,7.35292822265625,0.00013979937648400664,-0.002575956517830491,0.0008121922728605568
1782952704926856400,7.3628564453125,0.00045456812949851155,-0.0020624143071472645,0.0020741778425872326
1782952704936783400,7.372783447265625,-0.0004293350502848625,-0.000856268685311079,0.0005503169959411025
1782952704946711300,7.382711181640625,0.0006116657750681043,-0.00040070293471217155,-0.001219617435708642
1782952704956638500,7.392638427734375,0.0026204881723970175,0.0009585744701325893,-0.0013884617947041988
1782952704966566400,7.40256640625,0.002222662791609764,-0.0006863465532660484,0.0008696861332282424
1782952704976493300,7.412493408203125,-0.0012849867343902588,-0.0007662409916520119,0.002378899371251464
1782952704986420500,7.42242041015625,0.0018924262840300798,-0.0021053038071841,0.003302270080894232
1782952704996348400,7.432348388671875,-0.0001867036335170269,-0.0016009011305868626,0.00024176528677344322
1782952705006275300,7.442275390625,-0.00021144049242138863,0.001765263732522726,0.0005396007327362895
1782952705016203500,7.45220361328125,-0.001108126831240952,-0.0020329365506768227,0.0005888692103326321
1782952705026130400,7.46213037109375,0.001530193374492228,-0.0016186153516173363,0.0005729522672481835
1782952705036058400,7.472058349609375,-0.0007212429773062468,0.0008197748102247715,0.0005886648432351649
1782952705045985500,7.481985595703125,-0.0026889005675911903,0.00017738807946443558,-0.002029597293585539
1782952705055913500,7.49191357421875,-0.00043346919119358063,0.0007417122833430767,-0.0001573949703015387
1782952705065840400,7.50184033203125,-0.0006885001203045249,0.0006715091876685619,-0.00025037169689312577
1782952705075767600,7.511767578125,0.0024875858798623085,0.0004368843510746956,0.001042859279550612
1782952705085695500,7.521695556640625,0.0010775699047371745,-0.0010494205635040998,-0.0000726672587916255
1782952705095622400,7.531622314453125,0.0018392340280115604,-0.0018981699831783772,0.002107396489009261
1782952705105550600,7.541550537109375,-0.0004376844735816121,-0.0018584737554192543,0.0028088316321372986
1782952705115477500,7.5514775390625,-0.00009573460556566715,-0.0030433142092078924,0.0029105646535754204
1782952705125405400,7.561405517578125,-0.0009316718205809593,0.0004799342714250088,-0.002261097077280283
1782952705135332600,7.57133251953125,0.002436694223433733,0.00024344539269804955,0.00004599941894412041
1782952705145260500,7.581260498046875,0.0007346433121711016,-0.001821490004658699,0.0005816025659441948
1782952705155187700,7.591187744140625,0.0012486334890127182,-0.0009061614982783794,0.001076417975127697
1782952705165114600,7.601114501953125,0.002255805768072605,0.0029627084732055664,-0.004051872529089451
1782952705175042600,7.61104248046875,0.0024233185686171055,-0.0009923519100993872,-0.00012157962191849947
1782952705184969500,7.620969482421875,-0.00006851425860077143,0.002073196694254875,0.0004084293614141643
1782952705194897700,7.630897705078125,-0.00032843882218003273,0.0008675837889313698,-0.0008752142312005162
1782952705204824300,7.64082421875,0.0025539726484566927,0.0005500889383256435,0.001540261204354465
1782952705214752500,7.65075244140625,0.0018884486053138971,-0.000019028782844543457,-0.0014837582129985094
1782952705224679400,7.660679443359375,0.0015769810415804386,-0.002653488889336586,-0.0009238013881258667
1782952705234607400,7.670607421875,-0.00004275352694094181,0.0006797234527766705,-0.0007762622553855181
1782952705244534500,7.680534423828125,0.001013419940136373,0.00217897305265069,-0.00009123847121372819
1782952705254461400,7.69046142578125,0.002869110554456711,-0.0008844612166285515,0.00023180298740044236
1782952705264389600,7.7003896484375,-0.0005556840915232897,0.001095577608793974,-0.00045359283103607595
1782952705274316500,7.710316650390625,-0.0011474385391920805,0.0004641423001885414,-0.0013161906972527504
1782952705284244500,7.720244384765625,0.0021694216411560774,-0.0002887970767915249,-0.0030465705785900354
1782952705294171600,7.730171630859375,-0.0012982804328203201,-0.00024032732471823692,0.0005915737128816545
1782952705304099600,7.740099609375,0.0011450171004980803,0.0015335208736360073,-0.00006803561700507998
1782952705314026500,7.750026611328125,0.00031837186543270946,-0.0006137858144938946,0.0005351703730411828
1782952705323953700,7.75995361328125,-0.0013248883187770844,0.00015190523117780685,-0.0004484595265239477
1782952705333881600,7.769881591796875,0.002561728935688734,-0.00013837916776537895,0.001960369758307934
1782952705343808800,7.779808837890625,-0.0001906510442495346,-0.0029755844734609127,-0.0006793090142309666
1782952705353736700,7.78973681640625,-0.00036855018697679043,0.0008303388021886349,0.0006778378738090396
1782952705363663400,7.799663330078125,-0.0018862622091546655,0.00004302198067307472,-0.001132545992732048
1782952705373591300,7.80959130859375,-0.0037858951836824417,0.001833997666835785,-0.0004222809220664203
1782952705383518500,7.8195185546875,-0.0020120549015700817,0.0007093353196978569,-0.00033854530192911625
1782952705393446400,7.8294462890625,-0.00011694966815412045,0.00016391975805163383,-0.0000032533425837755203
1782952705403373600,7.83937353515625,0.00032154895598068833,0.0010272492654621601,-0.00021810451289638877
1782952705413300500,7.849300537109375,0.00016362348105758429,-0.002005558693781495,0.001981932669878006
1782952705423228400,7.859228515625,-0.0016379770822823048,0.0024085072800517082,-0.0018959701992571354
1782952705433155600,7.869155517578125,-0.0013825800269842148,-0.0012240447103977203,-0.0006735792267136276
1782952705443083500,7.87908349609375,0.002133897738531232,-0.00038567837327718735,0.00008593144593760371
1782952705453010400,7.889010498046875,-0.0013838716549798846,-0.000024819746613502502,0.0013828908558934927
1782952705462938600,7.898938720703125,-0.0000814636005088687,-0.001519233686849475,0.0022161484230309725
1782952705472865500,7.908865478515625,-0.0023651241790503263,0.0001463070511817932,-0.0016302550211548805
1782952705482793500,7.91879345703125,0.0019302947912365198,-0.000424225814640522,0.0006537862936966121
1782952705492720600,7.928720703125,0.003583052661269903,-0.001345679396763444,0.0017944183200597763
1782952705502647600,7.9386474609375,-0.0004050463903695345,0.0021011298522353172,-0.0009316469077020884
1782952705512575700,7.94857568359375,-0.0009400754934176803,0.0013429280370473862,0.0027280692011117935
1782952705522502400,7.95850244140625,0.0004462313954718411,0.001789309550076723,0.0002750316634774208
1782952705532430600,7.9684306640625,-0.0012331579346209764,-0.0015814532525837421,0.001593829016201198
1782952705542357500,7.978357421875,-0.0015607327222824097,0.0015180399641394615,-0.00031643372494727373
1782952705552285400,7.988285400390625,0.0004946949775330722,-0.000026327092200517654,-0.0012922158930450678
1782952705562212400,7.99821240234375,0.0019345578039065003,-0.00077576725743711,-0.0012248378479853272
1782952705572139500,8.008139404296875,0.0002458473900333047,0.0008732620626688004,0.0014343285001814365
1782952705582067500,8.0180673828125,0.0007566837011836469,-0.0009079719893634319,-0.003550285007804632
1782952705591994600,8.02799462890625,-0.00020338583271950483,0.0005053677596151829,-0.0010274725500494242
1782952705601922600,8.037922607421875,0.000520404486451298,-0.00018750084564089775,0.00008733075810596347
1782952705611849500,8.047849365234375,-0.0015896179247647524,0.00011024065315723419,0.0005525849992409348
1782952705621777400,8.05777734375,-0.002032048301771283,0.0012325383722782135,0.0011104984441772103
1782952705631704600,8.06770458984375,-0.00023574597435072064,0.0012509142979979515,0.0006058294093236327
1782952705641632500,8.077632568359375,0.0012739177327603102,-0.0011342025827616453,0.001492175622843206
1782952705651559700,8.0875595703125,0.003528549801558256,0.0012871436774730682,0.00005673180567100644
1782952705661486600,8.097486572265625,-0.0013567318674176931,0.0004502590745687485,0.000891443807631731
1782952705671414500,8.10741455078125,0.0010811256943270564,-0.00016519753262400627,0.0024121087044477463
1782952705681341700,8.117341796875,0.0006768340244889259,0.001873035915195942,-0.0003271672176197171
1782952705691269600,8.12726953125,-0.0009402374271303415,0.0011856737546622753,-0.0002581913722679019
1782952705701196500,8.137196533203126,-0.0014067176962271333,0.0007287110202014446,-0.0014200955629348755
1782952705711124500,8.14712451171875,0.001007437938824296,0.0005912920460104942,-0.0010003814240917563
1782952705721051400,8.157051513671876,-0.0015185126103460789,-0.000876810634508729,0.00013654155191034079
1782952705730979300,8.166979248046875,-0.00006495916750282049,-0.0007330002263188362,0.000687283230945468
1782952705740906500,8.176906494140624,-0.0013041624333709478,-0.0019406999927014112,0.001983487978577614
1782952705750833400,8.18683349609375,0.000977101270109415,-0.0007803605403751135,0.0014354095328599215
1782952705760761600,8.19676171875,0.0005614272668026388,0.001289248000830412,-0.0017689889064058661
1782952705770688500,8.2066884765625,-0.0003211442963220179,0.000760877039283514,-0.0007255624514073133
1782952705780616400,8.216616455078125,0.0005198472645133734,-0.0017464591655880213,-0.0010936465114355087
1782952705790543600,8.226543701171876,0.0007163885748013854,0.000003237742930650711,-0.000160474912263453
1782952705800471600,8.236471435546875,0.0003176425234414637,0.00312135461717844,0.0006474783876910806
1782952705810398500,8.2463984375,0.0019972980953752995,-0.0014773919247090816,-0.0003288364387117326
1782952705820326700,8.25632666015625,-0.0005090046906843781,0.0005833464674651623,-0.00115264393389225
1782952705830253600,8.266253662109374,-0.0008999566780403256,-0.0030707770492881536,0.0002388577559031546
1782952705840180700,8.2761806640625,-0.0002368708373978734,-0.0005579469725489616,-0.001923897536471486
1782952705850108700,8.286108642578125,-0.0012589921243488789,0.0008647139184176922,-0.0012085724156349897
1782952705860035300,8.296035400390625,-0.0004493372980505228,0.0012381421402096748,-0.0005629227962344885
1782952705869963500,8.305963623046875,0.002091318368911743,0.001689814031124115,0.0016003628261387348
1782952705879890400,8.315890380859376,-0.0005200710729695857,0.0001493091695010662,0.00033732078736647964
1782952705889818400,8.325818359375,0.0014972734497860074,-0.000591582152992487,-0.003333047963678837
1782952705899745500,8.33574560546875,-0.0006065394263714552,0.0001780516467988491,-0.0031648227013647556
1782952705909673500,8.345673583984375,-0.0006169256521388888,0.00033411290496587753,0.0003699909429997206
1782952705919600400,8.355600341796874,-0.0025135441683232784,0.00032466137781739235,-0.0017904960550367832
1782952705929527600,8.365527587890625,0.0003000855213031173,0.0010740747675299644,-0.0012786365114152431
1782952705939455500,8.37545556640625,0.0014640378067269921,-0.0007711891084909439,-0.00031117157777771354
1782952705949382700,8.385382568359375,-0.0012206949759274721,0.0004863552749156952,0.0008587550837546587
1782952705959310600,8.395310546875,0.000006076821591705084,0.001762458123266697,-0.002267462434247136
1782952705969237500,8.405237548828126,-0.0005926017765887082,0.000014359131455421448,0.0005933052743785083
1782952705979165400,8.41516552734375,0.000178258225787431,0.001071886159479618,0.00041826412780210376
1782952705989092600,8.425092529296874,0.0008240747847594321,0.000806635245680809,-0.0014595307875424623
1782952705999019500,8.43501953125,0.0004912908188998699,0.00030876370146870613,-0.0012321553658694029
1782952706008947700,8.44494775390625,0.0018412471981719136,0.00023446138948202133,-0.0015786326257511973
1782952706018874600,8.45487451171875,0.0001475397148169577,0.0023779370822012424,-0.00005458621308207512
1782952706028802600,8.464802490234375,0.0006338329403661191,-0.000687361229211092,-0.00026657385751605034
1782952706038729500,8.4747294921875,-0.00228047464042902,0.002066179644316435,0.0010993212927132845
1782952706048657400,8.484657470703125,0.0016000173054635525,-0.0030662640929222107,0.0002532348735257983
1782952706058584600,8.49458447265625,0.00001895177410915494,0.00032802764326334,0.0034400993026793003
1782952706068512500,8.504512451171875,0.0005670302780345082,0.0015493533574044704,-0.0015818235697224736
1782952706078439400,8.514439453125,-0.0030684007797390223,0.0009577726013958454,-0.0016554867615923285
1782952706088366600,8.52436669921875,0.002117306459695101,0.000257361214607954,-0.00036811467725783587
1782952706098294500,8.53429443359375,-0.0010117474012076855,-0.0014555270317941904,0.0024112705141305923
1782952706108221400,8.544221435546875,-0.0005528847104869783,-0.0008661693427711725,-0.0009309967281296849
1782952706118149000,8.554149169921875,-0.0010822596959769726,0.001818129327148199,0.0006961266044527292
1782952706128075800,8.56407568359375,-0.00036586920032277703,0.0019286507740616798,0.00001196045195683837
1782952706138004000,8.57400390625,-0.00035164441214874387,0.00040691811591386795,-0.0010665901936590672
1782952706147931000,8.583930908203126,0.00045422810944728553,0.0016056066378951073,0.003021095646545291
1782952706157858800,8.59385888671875,0.00004110927693545818,-0.0009811080526560545,-0.0013049975968897343
1782952706167786000,8.603785888671876,-0.00129899347666651,-0.0010788459330797195,-0.0014573305379599333
1782952706177713000,8.613712890625,0.0032811991404742002,0.00011836737394332886,-0.00221874937415123
1782952706187640800,8.623640869140624,0.0001272174995392561,0.0027162814512848854,-0.0002512059290893376
1782952706197568000,8.633568115234375,0.0016362876631319523,0.002188107930123806,0.004029605071991682
1782952706207496000,8.643495849609375,-0.00043698318768292665,0.0028909160755574703,-0.0005401133093982935
1782952706217422800,8.6534228515625,-0.0014566603349521756,-0.0013751215301454067,-0.0034798569977283478
1782952706227351000,8.66335107421875,-0.0011916757794097066,0.0003010719083249569,-0.0006033767713233829
1782952706237278000,8.67327783203125,-0.0027686087414622307,0.0019573085010051727,0.0010064500384032726
1782952706247205000,8.683205078125,0.0015262712258845568,0.0011578272096812725,0.00077289086766541
1782952706257133000,8.693133056640624,0.0002364187384955585,0.0026133842766284943,-0.00014339253539219499
1782952706267060000,8.70306005859375,-0.00027224502991884947,0.0005518314428627491,0.0017120317788794637
1782952706276988000,8.71298779296875,-0.001390768331475556,-0.00004876777529716492,-0.0003597087343223393
1782952706286915000,8.7229150390625,-0.0013652018969878554,0.0017259628511965275,0.0012935816776007414
1782952706296843000,8.732843017578125,0.0013269640039652586,-0.000040197279304265976,-0.00037731602787971497
1782952706306770000,8.74277001953125,0.001232954440638423,-0.00010171625763177872,0.0002575815888121724
1782952706316697900,8.75269775390625,-0.0001432404387742281,0.0014913715422153473,0.0005188215291127563
1782952706326624800,8.762624755859376,0.0013899414334446192,-0.000598943792283535,0.00045330775901675224
1782952706336552000,8.772552001953125,0.001946380129083991,0.0010270308703184128,0.00027310452423989773
1782952706346479900,8.78247998046875,-0.0009069305961020291,0.001470713410526514,-0.0014409059658646584
1782952706356407000,8.792406982421875,0.00023799901828169823,-0.0003603566437959671,-0.0008504586876370013
1782952706366335000,8.8023349609375,-0.0013399238232523203,-0.0022575927432626486,0.0005538261611945927
1782952706376262000,8.812261962890625,0.0023393763694912195,0.00019269296899437904,-0.002251502126455307
1782952706386189800,8.82218994140625,0.0024357829242944717,-0.0020491559989750385,-0.0005449484451673925
1782952706396117000,8.832116943359376,-0.0017737578600645065,-0.0014813952147960663,-0.0009775722865015268
1782952706406044000,8.8420439453125,-0.00031434575794264674,-0.003108586650341749,0.0010014227591454983
1782952706415972000,8.85197216796875,-0.0024822503328323364,0.0017584199085831642,0.0008357804617844522
1782952706425899000,8.86189892578125,0.0006432353984564543,0.001046823337674141,-0.0012039345456287265
1782952706435827000,8.871826904296874,0.0003495907294563949,-0.00018750876188278198,-0.002266035182401538
1782952706445754000,8.881754150390625,0.0011597243137657642,-0.00038564810529351234,0.002499425085261464
1782952706455682000,8.89168212890625,-0.0019236321095377207,0.0005867979489266872,0.000056294898968189955
1782952706465609000,8.90160888671875,0.0006338013336062431,-0.0024191117845475674,0.00002167379716411233
1782952706475537200,8.911537109375,-0.00011815631296485662,0.0002535684034228325,0.001047746161930263
1782952706485463800,8.9214638671875,0.00015082291793078184,-0.0010793437249958515,-0.0015254000900313258
1782952706495391000,8.931390869140625,0.00019462592899799347,-0.0010806531645357609,-0.00009912572568282485
1782952706505319000,8.94131884765625,0.0003323113778606057,-0.0005842400714755058,0.0007940984796732664
1782952706515245800,8.951245849609375,0.00033619877649471164,0.0011072289198637009,0.0007488214178010821
1782952706525174000,8.961174072265624,0.0012573861749842763,-0.00036549894139170647,-0.00025039666797965765
1782952706535101000,8.971100830078125,0.0008737827884033322,0.0004907879047095776,-0.00002142705488950014
1782952706545028900,8.98102880859375,0.0001914809108711779,-0.0005217459984123707,-0.00018787465523928404
1782952706554956000,8.9909560546875,-0.0011752982391044497,-0.000008242204785346985,0.0011952018830925226
1782952706564884000,9.000884033203125,0.0003901079180650413,-0.001903614029288292,-0.002394739305600524
1782952706574811000,9.010810791015626,0.0001804789062589407,0.0009033549576997757,0.0012822751887142658
1782952706584738000,9.020738037109375,-0.003288288600742817,0.0010394426062703133,0.0011182243470102549
1782952706594666000,9.030666015625,-0.003676834749057889,0.0019387919455766678,-0.0016830808017402887
1782952706604593200,9.04059326171875,-0.0006773166824132204,-0.0020703307818621397,-0.001999464351683855
1782952706614521000,9.05052099609375,-0.002715705893933773,0.0018957550637423992,-0.0005400165682658553
1782952706624448000,9.060447998046875,-0.0013633526396006346,0.0012446125037968159,0.00006159156328067183
1782952706634376000,9.0703759765625,-0.0003961974289268255,0.00022888276726007462,-0.0021644989028573036
1782952706644302800,9.080302734375,0.0007963661337271333,-0.001331995939835906,-0.0010337206767871976
1782952706654229800,9.090229736328125,0.0017833709716796875,-0.0009609262924641371,0.0019312564982101321
1782952706664158000,9.100157958984376,-0.0011303935898467898,0.0006388346664607525,0.0001711733639240265
1782952706674084900,9.1100849609375,-0.0017994914669543505,-0.000398960430175066,-0.0007160148816183209
1782952706684012800,9.1200126953125,0.00042238389141857624,-0.00011346954852342606,-0.0005034946370869875
1782952706693940000,9.12993994140625,-0.002137216739356518,-0.00044513260945677757,0.0004075851757079363
1782952706703868000,9.139867919921874,-0.0012115020072087646,-0.00022195978090167046,0.0012291702441871166
1782952706713795000,9.149795166015625,0.0006575143779627979,-0.000876772915944457,-0.0012383087305352092
1782952706723723000,9.159722900390625,-0.002162506803870201,-0.0003838217817246914,-0.0026548439636826515
1782952706733650000,9.16964990234375,0.002849675714969635,-0.0003508985973894596,0.0014030373422428966
1782952706743577000,9.1795771484375,-0.0010095108300447464,-0.00048831757158041,0.0013108918210491538
1782952706753505000,9.189505126953126,-0.0011617459822446108,-0.0017473208718001842,0.001684871967881918
1782952706763432000,9.199431884765625,-0.0014365841634571552,-0.0029779677279293537,0.0002723312354646623
1782952706773360000,9.209360107421874,-0.00022633885964751244,0.0006065675988793373,-0.0023370995186269283
1782952706783287000,9.219287109375,-0.0008388658752664924,0.000018275342881679535,-0.0014129825867712498
1782952706793215000,9.229215087890625,-0.0008720172918401659,0.0003356337547302246,0.0002947140601463616
1782952706803142100,9.23914208984375,0.00040869685471989214,0.0003393623046576977,-0.0011271476978436112
1782952706813070000,9.249070068359375,-0.00027852284256368876,0.00001698452979326248,0.0005992368678562343
1782952706822996700,9.258996826171876,-0.001344319898635149,0.0009080781601369381,-0.002332104602828622
1782952706832924000,9.268923828125,-0.000623558007646352,0.001871270127594471,-0.00031682918779551983
1782952706842851800,9.278851806640626,-0.0023572759237140417,-0.0003969445824623108,0.0010086260735988617
1782952706852779000,9.288779052734375,-0.0009349333704449236,0.001152561977505684,-0.003168841591104865
1782952706862707000,9.29870703125,-0.0003237379132770002,-0.00035079242661595345,-0.0006532195839099586
1782952706872633900,9.3086337890625,0.000777713255956769,-0.0014843828976154327,0.0008987970068119466
1782952706882562000,9.31856201171875,-0.0009767771698534489,0.0004820949397981167,0.002967806765809655
1782952706892489000,9.328489013671875,0.0001333077671006322,-0.0014881556853652,0.00026729085948318243
1782952706902416000,9.338415771484375,0.0005988283082842827,0.0025787577033042908,0.00002467684680595994
1782952706912344000,9.348343994140626,0.00044886604882776737,-0.0006457804702222347,0.0012667804257944226
1782952706922271000,9.35827099609375,0.0008882876136340201,0.0013763573952019215,-0.000660283025354147
1782952706932199000,9.368198974609374,-0.00024989224039018154,-0.0004301057197153568,0.001386305782943964
1782952706942126000,9.3781259765625,0.0014020665548741817,0.000398936215788126,-0.0005199849838390946
1782952706952054000,9.388053955078124,-0.0018861081916838884,0.001065367367118597,0.0019983879756182432
1782952706961981200,9.397981201171875,0.002414630725979805,0.0011367402039468288,-0.0013665161095559597
1782952706971909000,9.4079091796875,-0.0016636132495477796,-0.002627732465043664,-0.0008131031645461917
1782952706981835800,9.417835693359375,-0.0015064867911860347,0.0009371750056743622,-0.0005832723691128194
1782952706991763000,9.427762939453125,0.000011195021215826273,0.0017544124275445938,-0.0014781397767364979
1782952707001691000,9.43769091796875,-0.002822142094373703,0.002251624595373869,-0.0016413915436714888
1782952707011617800,9.44761767578125,-0.001806085230782628,0.0003090030513703823,0.0014964024303480983
1782952707021546000,9.4575458984375,-0.001698759850114584,0.002763905096799135,0.000707307830452919
1782952707031473000,9.467472900390625,0.0012244213139638305,0.0008123163133859634,-0.0003089330857619643
1782952707041400800,9.47740087890625,-0.0014802850782871246,-0.0025933338329195976,0.0008889567689038813
1782952707051328000,9.487327880859375,0.0010607929434627295,0.0020894398912787437,-0.0010421158513054252
1782952707061255000,9.4972548828125,-0.0013155456399545074,-0.0006371042691171169,0.0007912041619420052
1782952707071182800,9.507182861328126,-0.0002361088991165161,0.001461920328438282,-0.003548956476151943
1782952707081110000,9.517110107421875,0.0006560501060448587,0.00011116545647382736,-0.0010852660052478313
1782952707091038000,9.527037841796876,0.0007418285822495818,0.00009590713307261467,-0.0003610165440477431
1782952707100965000,9.536965087890625,-0.000715453177690506,-0.00032167648896574974,0.0011452672770246863
1782952707110893000,9.54689306640625,0.00038671912625432014,0.0003441888839006424,0.0005656939465552568
1782952707120819500,9.5568193359375,-0.00007746985647827387,0.0007625715807080269,-0.0009903910104185343
1782952707130747600,9.56674755859375,0.00015357183292508125,0.002106793224811554,-0.003365230979397893
1782952707140674600,9.576674560546875,-0.0018581801559776068,0.0011784154921770096,-0.004034749697893858
1782952707150601700,9.586601806640624,-0.0004799235030077398,-0.00047979503870010376,-0.0006298747612163424
1782952707160529700,9.59652978515625,0.00032541644759476185,0.0026126676239073277,-0.0012783544370904565
1782952707170456600,9.60645654296875,-0.0017114196671172976,0.0010753283277153969,-0.0006335117504931986
1782952707180384500,9.616384521484376,0.0007128559518605471,0.00036133453249931335,0.0009175132727250457
1782952707190311700,9.626311767578125,-0.0006671501323580742,0.0018104249611496925,-0.00037637754576280713
1782952707200239600,9.636239501953124,0.0007323409663513303,-0.0006788317114114761,0.00044387602247297764
1782952707210166800,9.646166748046875,0.001540366793051362,0.00036952225491404533,-0.0020564128644764423
1782952707220093700,9.65609375,0.0005978741683065891,0.0002813716419041157,-0.0020449613220989704
1782952707230021600,9.666021728515625,-0.0036075075622648,0.0018570572137832642,-0.001658327179029584
1782952707239948800,9.67594873046875,-0.0010032025165855885,0.0004373257979750633,0.0008202767348848283
1782952707249876700,9.685876708984376,-0.0019032168202102184,0.0005059484392404556,-0.000025382847525179386
1782952707259803600,9.6958037109375,0.0010092160664498806,-0.00023227976635098457,0.0022369723301380873
1782952707269731800,9.70573193359375,0.0006387870525941253,-0.001768031157553196,0.0008122276631183922
1782952707279658500,9.715658447265625,-0.0005500480183400214,0.001189142931252718,-0.0023369602859020233
1782952707289587700,9.725587646484374,0.001972830854356289,0.0006138649769127369,-0.0024162624031305313
1782952707299515600,9.735515625,0.0023051933385431767,0.0008053462952375412,-0.0013789610238745809
1782952707309442800,9.74544287109375,-0.002577523933723569,-0.00019275210797786713,-0.00035458995262160897
1782952707319370800,9.755370849609376,0.0005841809324920177,0.0015372373163700104,-0.001342090079560876
1782952707329297700,9.765297607421875,0.0009416533284820616,-0.000020120758563280106,-0.000506577780470252
1782952707339225900,9.775225830078124,0.0019496597815304995,-0.00023663602769374847,-0.0010674394434317946
1782952707349152500,9.785152587890625,0.0005504109431058168,-0.002492972183972597,-0.0009820027044042945
1782952707359079700,9.79507958984375,0.0005429540760815144,0.00025061657652258873,0.0003836663090623915
1782952707369007600,9.805007568359375,-0.00029550434555858374,-0.00015264935791492462,-0.000037489167880266905
1782952707378934500,9.8149345703125,0.0017782992217689753,0.0011104876175522804,-0.0006436246330849826
1782952707388862700,9.82486279296875,0.00288393534719944,-0.0003169570118188858,-0.000019640487153083086
1782952707398789600,9.83478955078125,0.0006452822126448154,-0.0006080404855310917,0.00015186704695224762
1782952707408717600,9.844717529296876,-0.0018567610532045364,0.0002173059619963169,0.0011202171444892883
1782952707418644700,9.854644775390625,0.0018381085246801376,-0.0007526176050305367,-0.0007945956895127892
1782952707428572700,9.86457275390625,-0.001006110804155469,-0.0016137617640197277,-0.0016801070887595415
1782952707438499600,9.87449951171875,0.001057572546415031,0.00011489586904644966,0.0004885048838332295
1782952707448426800,9.8844267578125,0.002496490953490138,0.000059546902775764465,-0.001356744091026485
1782952707458354700,9.894354736328125,0.003175064455717802,-0.0012153084389865398,0.0006419582641683519
1782952707468281900,9.90428173828125,-0.0006114842835813761,0.0006882664747536182,0.0005960218841210008
1782952707478209800,9.914209716796876,-0.002693810034543276,0.0013900091871619225,-0.00043382254079915583
1782952707488136700,9.92413671875,0.0014021145179867744,0.0006964057683944702,0.0005735502345487475
1782952707498064600,9.934064697265624,-0.0015507984207943082,0.00022635748609900475,-0.0005186120979487896
1782952707507991600,9.943991455078125,-0.000832905585411936,0.0011526471935212612,0.0006291053141467273
1782952707517918500,9.95391845703125,0.00009174394654110074,-0.0003038356080651283,-0.0018207365646958351
1782952707527846700,9.9638466796875,-0.0006805483717471361,0.0020583965815603733,-0.0028263102285563946
1782952707537773600,9.973773681640624,0.0006220037466846406,-0.001937410095706582,0.0027996175922453403
1782952707547701500,9.983701416015625,-0.00020646944176405668,0.0008124345913529396,-0.0012867795303463936
1782952707557628700,9.993628662109375,0.0003930080565623939,0.0003732792101800442,0.0007689145277254283
1782952707567556600,10.003556640625,-0.0027057533152401447,0.0010883798822760582,-0.002396932803094387
1782952707577483800,10.01348388671875,0.0006418400444090366,-0.00007861712947487831,-0.00020648277131840587
1782952707587411700,10.02341162109375,-0.0006377481622621417,-0.0006479290314018726,0.0024422993883490562
1782952707597338600,10.033338623046875,0.0013774657854810357,0.0017422577366232872,0.0008015257772058249
1782952707607265800,10.043265869140624,0.00002728303661569953,0.0031929239630699158,-0.00016986479749903083
1782952707617193700,10.05319384765625,-0.00042545434553176165,-0.002026339527219534,0.0026538849342614412
1782952707627120600,10.06312060546875,0.00048516830429434776,0.0010536168701946735,0.0003829858615063131
1782952707637048800,10.073048828125,0.00010620045941323042,0.0008237860165536404,0.0023281588219106197
1782952707646975700,10.082975830078125,-0.0005621532327495515,-0.002119250362738967,-0.0002124794409610331
1782952707656903700,10.092903564453126,-0.0016950620338320732,0.0004432434216141701,0.0007808796362951398
1782952707666830800,10.102830810546875,-0.0025809756480157375,0.0014763474464416504,0.0007258265395648777
1782952707676757500,10.112757568359376,0.0008622253080829978,-0.0008259555324912071,-0.00013543979730457067
1782952707686685400,10.122685546875,-0.0015255212783813477,0.00034594209864735603,0.0014410630101338029
1782952707696612600,10.132612548828124,0.000547749747056514,0.0008506113663315773,-0.0009331451146863401
1782952707706540500,10.14254052734375,0.0007812338299117982,0.001928646583110094,-0.0007775066769681871
1782952707716467700,10.1524677734375,0.0011370321735739708,0.0005912068299949169,0.0017250657547265291
1782952707726395600,10.162395751953126,0.0033014838118106127,-0.0007619471289217472,0.0019996585324406624
1782952707736322600,10.172322509765625,0.00034590758150443435,-0.0007795239798724651,-0.002804417861625552
1782952707746250800,10.182250732421876,0.00010648398892953992,0.0027288170531392097,-0.0006922984612174332
1782952707756177700,10.192177734375,-0.0029241933953016996,-0.0001971977762877941,0.0005894809146411717
1782952707766104600,10.2021044921875,0.0014386553084477782,-0.0016539713833481073,0.00224517029710114
1782952707776032800,10.21203271484375,-0.001372843747958541,0.0012241066433489323,0.000340743747074157
1782952707785959700,10.221959716796874,-0.001637316308915615,0.0009342650882899761,0.00003616459434852004
1782952707795887600,10.2318876953125,0.0021283936221152544,-0.002776050940155983,0.001130723743699491
1782952707805814800,10.241814697265625,-0.0003149438416585326,-0.0008618016727268696,0.0027774423360824585
1782952707815742700,10.25174267578125,0.00028213689802214503,0.0011563417501747608,0.0011582403676584363
1782952707825670000,10.261669921875,-0.0012393058277666569,0.0012304158881306648,-0.00037170134601183236
1782952707835596500,10.271596435546876,-0.00040227442514151335,0.00007913168519735336,0.0002187214558944106
1782952707845524500,10.2815244140625,0.002300273859873414,0.001133886631578207,-0.00064742227550596
1782952707855451600,10.29145166015625,0.001041131210513413,-0.0024254280142486095,0.0008285015355795622
1782952707865379600,10.301379638671875,-0.0017180198337882757,0.001726553775370121,-0.0005796874756924808
1782952707875306500,10.311306396484374,0.00109587621409446,0.0003600860945880413,-0.0005218968726694584
1782952707885234700,10.321234619140625,-0.000013091601431369781,-0.0018396086525171995,0.0005228949594311416
1782952707895161600,10.33116162109375,0.00007718958659097552,-0.001073949970304966,-0.00184705201536417
1782952707905089500,10.341089599609376,0.0009917692514136434,-0.0006330134347081184,-0.0007970693986862898
1782952707915016700,10.3510166015625,-0.001490563154220581,-0.00037655094638466835,-0.00015977490693330765
1782952707924943600,10.360943603515626,0.0012215577298775315,0.0022024279460310936,0.0036037603858858347
1782952707934871600,10.37087158203125,-0.0010013827122747898,-0.0014418417122215033,0.00026628695195540786
1782952707944798700,10.380798828125,-0.0027711307629942894,0.002357314806431532,0.002762146294116974
1782952707954726700,10.3907265625,-0.0016920180059969425,-0.000621164683252573,0.00016449904069304466
1782952707964653800,10.40065380859375,0.0024465778842568398,0.0009095454588532448,-0.00035920782829634845
1782952707974581800,10.410581787109376,-0.0016381783643737435,-0.00039407191798090935,-0.0002236529253423214
1782952707984508700,10.4205087890625,0.0033218907192349434,-0.000878580380231142,0.0007127164280973375
1782952707994435600,10.430435546875,-0.0009831092320382595,-0.0005203853361308575,0.0007428101380355656
1782952708004363800,10.44036376953125,-0.00022314587840810418,0.0008835340850055218,0.002615674864500761
1782952708014290700,10.450290771484376,-0.002090554451569915,0.0023980741389095783,0.0005362786469049752
1782952708024218600,10.460218505859375,-0.0006667322013527155,-0.0008147056214511395,-0.0010562314419075847
1782952708034145500,10.4701455078125,-0.00026273063849657774,0.0016460553742945194,0.0005853410693816841
1782952708044073500,10.480073486328125,-0.0012497554998844862,0.00039553362876176834,0.0018778550438582897
1782952708054000600,10.490000732421874,0.0007817038567736745,-0.00010807020589709282,-0.0015464373864233494
1782952708063928600,10.499928466796876,-0.0006473717512562871,0.001285769511014223,-0.00036534277023747563
1782952708073855700,10.509855712890625,0.0002935230149887502,0.0029667564667761326,0.0016072605503723025
1782952708083782700,10.51978271484375,-0.000020003120880573988,-0.0007440177723765373,-0.0011813620803877711
1782952708093710600,10.529710693359375,-0.0007300018332898617,-0.0009424232412129641,-0.0012740400852635503
1782952708103637800,10.5396376953125,0.00018953211838379502,-0.003297617193311453,-0.00009642384247854352
1782952708113566500,10.54956640625,-0.0010746705811470747,0.0006425296887755394,-0.0011150829959660769
1782952708123493000,10.5594931640625,-0.0002154413377866149,-0.0015543773770332336,-0.00015437044203281403
1782952708133421000,10.569421142578125,0.0009270547307096422,0.0024430272169411182,0.0003111501573584974
1782952708143348200,10.57934814453125,-0.0017440428491681814,0.00047919293865561485,-0.0004382592742331326
1782952708153275100,10.589275146484376,0.0011505469447001815,0.005925890523940325,0.0010392623953521252
1782952708163203300,10.599203369140625,-0.0017789348494261503,0.0074873389676213264,0.0007945049437694252
1782952708173130200,10.609130126953126,0.001194750890135765,0.0020955028012394905,0.0036020094994455576
1782952708183058200,10.61905810546875,-0.00020051700994372368,-0.0008006705902516842,-0.00231292936950922
1782952708192985300,10.6289853515625,0.0024687694385647774,-0.0016925630625337362,-0.00013659399701282382
1782952708202913300,10.638913330078125,-0.0007112527964636683,-0.0003909091465175152,-0.0015536071732640266
1782952708212840200,10.648840087890624,0.0022754822857677937,-0.00043485127389431,-0.0008798273629508913
1782952708222767400,10.658767333984375,-0.0008776728063821793,-0.0023407835979014635,-0.0006882238667458296
1782952708232695300,10.6686953125,0.0019143852405250072,-0.004677174612879753,-0.00034334452357143164
1782952708242622500,10.67862255859375,0.0006342439446598291,-0.003918341360986233,0.0007466017850674689
1782952708252550400,10.68855029296875,-0.0011905540013685822,-0.001783551648259163,0.00047629099572077394
1782952708262477300,10.698477294921876,0.0011670447420328856,-0.0010673829820007086,0.0004867297247983515
