time,seconds_elapsed,z,y,x
1782952679328644000,0.06964404296875,0.016745967617630957,0.005630334037169814,0.017290472590760327
1782952679338571000,0.079571044921875,0.03605214111208915,-0.0003105089875869453,0.006398025907459668
1782952679348499000,0.0894990234375,0.005229717347025871,-0.012806929401960224,0.005549537585652433
1782952679358426000,0.099426025390625,0.014956161591410637,0.0025473098626360297,-0.013367522426787763
1782952679368354000,0.10935400390625,0.019891864427924157,-0.011875585102289914,-0.010914955342630855
1782952679378281200,0.11928125,0.01764905393719673,-0.0059282575378194445,0.00004920487001072615
1782952679388209200,0.129209228515625,0.014807108509540557,0.003778952283132821,-0.0034234031439991665
1782952679398136000,0.139135986328125,0.019445874226093292,-0.003554221882857382,0.021862936172029
1782952679408064000,0.14906396484375,0.019593758264183997,-0.00053041708227247,0.0042858286596136165
1782952679417991200,0.1589912109375,0.023038930281996727,0.003689246439374983,-0.002044748901668936
1782952679427919000,0.168919189453125,0.021396423771977424,-0.009025419835560024,-0.009948425565147773
1782952679437846300,0.17884619140625,0.01526011297404766,-0.0049444523985497655,-0.003196613217378035
1782952679447774200,0.188774169921875,0.022447394129633903,-0.013644037813227624,-0.011293383033853023
1782952679457700900,0.198700927734375,0.007632102313637733,-0.008689940803498029,-0.004505649989331141
1782952679467629300,0.20862939453125,0.017508184161782264,-0.001979940037149936,0.0016504477878799661
1782952679477556000,0.218555908203125,0.022895722419023514,-0.00018370427014306187,0.006344386890926398
1782952679487484000,0.22848388671875,0.021548399463295936,-0.0010313706080429255,0.010359175490238704
1782952679497411000,0.2384111328125,0.029180501776933668,-0.0077998235633596775,0.010672780617210081
1782952679507339000,0.248339111328125,0.025742928543686865,-0.014968436551094054,0.02458496328075416
1782952679517266000,0.258265869140625,0.03532207327187061,-0.00666643561925739,0.016538238584506326
1782952679527194000,0.268194091796875,0.024251228681206702,-0.004005874640494585,0.0018592271337751298
1782952679537121000,0.27812109375,0.020809563794732092,-0.01372968853637576,-0.004207132833637297
1782952679547049000,0.288049072265625,0.01541910292804241,0.001064122100174427,-0.00029190931839402764
1782952679556976000,0.29797607421875,0.013327099084854126,-0.008141074749082326,0.0011169893651502207
1782952679566904000,0.307904052734375,0.022152795097231864,-0.008932955779135226,-0.020954566322569736
1782952679576831000,0.3178310546875,0.03397358127236366,-0.007845690265391022,-0.002634070264059119
1782952679586759200,0.32775927734375,0.017366145342588422,0.008986896189767868,0.004148004791233688
1782952679596686000,0.33768603515625,0.030233225700259207,-0.0026399200495332478,-0.011464739279076456
1782952679606614000,0.347614013671875,0.010928221249580383,-0.005594239810481667,-0.009696163270552642
1782952679616541200,0.357541259765625,0.020053776991367338,-0.005658372821565717,-0.005141979698068462
1782952679626469000,0.36746923828125,0.015274141499400137,-0.01775498026339337,-0.0009993497682735323
1782952679636396300,0.377396240234375,0.02889408605098724,-0.008734620195440947,-0.0015741905141621827
1782952679646324200,0.38732421875,0.017666005071997642,0.00927497414983809,0.004456910910201259
1782952679656251100,0.397251220703125,0.027235797449946402,-0.00621102000195533,-0.008437573477625847
1782952679666179000,0.407178955078125,0.04025543802082538,-0.005781104152090847,-0.006407154495408758
1782952679676106000,0.41710595703125,0.018257541224360466,-0.014412702364474533,-0.0032571112329605966
1782952679686034200,0.4270341796875,0.018854338073730468,-0.0029763123970478773,-0.006486115182866342
1782952679695961000,0.436961181640625,0.025738252368569373,-0.011967355038970708,0.013093788085901177
1782952679705888000,0.446887939453125,0.022594693645834923,0.007991090085450559,0.0010523174979491158
1782952679715816000,0.45681591796875,0.020949849048256874,-0.004006934086419642,0.024268339646211824
1782952679725743000,0.4667431640625,0.019457564663887022,-0.0010331607063300908,0.007314021940948441
1782952679735671000,0.476671142578125,0.019762100568413734,-0.00644534021448344,0.001315585243748501
1782952679745599000,0.486598876953125,0.03712123164832592,-0.003957322791032493,-0.008017662998544983
1782952679755526100,0.496526123046875,0.03772270467281341,-0.0037809615771286186,-0.0016804273676127195
1782952679765453000,0.506453125,0.012584171763062476,-0.001405007959716022,0.002487642964115366
1782952679775381000,0.516381103515625,0.022907412856817244,-0.001788856178149581,0.009238569395896047
1782952679785308200,0.52630810546875,0.024104513686895368,-0.00685242317803204,-0.005033400190481916
1782952679795236000,0.536236083984375,0.013781857115030287,-0.003333710999973118,-0.005848812793171964
1782952679805163300,0.546163330078125,0.013184475743770598,0.005007361566927284,0.00032125414388719945
1782952679815091200,0.55609130859375,0.025903672063350675,-0.0005419065906666219,0.007414463807852007
1782952679825018000,0.56601806640625,0.004062427133321762,0.006581698211561888,-0.008225200235424562
1782952679834946000,0.575946044921875,0.025164251872897146,-0.012716091047041118,0.010897319221240468
1782952679844873200,0.585873291015625,0.01813186901807785,-0.014975980536732821,-0.0018077389751328153
1782952679854801200,0.59580126953125,0.01020633671581745,-0.01859446329483762,-0.007407449545175768
1782952679864728000,0.60572802734375,0.004519523251056671,-0.0012191482651047409,0.000652216831035912
1782952679874656300,0.61565625,0.025023966619372368,-0.004659315314237028,0.0091442513091024
1782952679884583000,0.6255830078125,0.010061375287175179,-0.010688494209572671,-0.0014893526417668907
1782952679894511000,0.635510986328125,0.016642507243156433,-0.0003067095953039825,0.011747410411667079
1782952679904438000,0.64543798828125,0.02936521069407463,-0.0002541026252321899,0.015148291196604258
1782952679914366000,0.655365966796875,0.03370236311554908,-0.0036119982183910903,-0.014755346356262453
1782952679924293000,0.665293212890625,0.028612346500158307,0.008440386489219963,-0.004237706068414263
1782952679934221000,0.675220947265625,0.02112812822461128,-0.00449345722803846,-0.006810428933519869
1782952679944148000,0.68514794921875,0.01080021095573902,0.0011526223675347863,0.002929979904135689
1782952679954076200,0.695076171875,0.020525486156344412,-0.014211955627985298,0.009862916405894793
1782952679964003000,0.705003173828125,0.029353520256280897,-0.014782522057555616,0.0070792268043849615
1782952679973931000,0.714930908203125,0.018129530930519104,-0.01341786437453702,0.008056405840045772
1782952679983858200,0.724858154296875,0.014682605347037315,-0.008862593956664205,-0.009077821309654973
1782952679993786000,0.7347861328125,0.02560731946527958,-0.012980240142252296,0.00012284549495670944
1782952680003713000,0.744713134765625,0.01019815340936184,-0.015297284912969916,0.0008654668560717254
1782952680013641200,0.75464111328125,0.01962882957756519,-0.00481351949525997,-0.00949364013550803
1782952680023568100,0.764568115234375,0.03250000158846378,-0.010118274839874356,-0.008599755469127557
1782952680033496000,0.77449609375,0.02187456267774105,-0.005619410784356296,-0.0028173270096303895
1782952680043423200,0.78442333984375,0.028903438401222226,-0.01023010118389502,-0.0007910088137956336
1782952680053351200,0.79435107421875,0.0200771578669548,0.004191752601414919,-0.004117554854042828
1782952680063278000,0.804278076171875,0.025765140375494957,-0.011439002049621195,0.012033072652365081
1782952680073206300,0.814206298828125,0.024565701457858084,-0.0005963036590255796,0.006103449707943946
1782952680083133000,0.8241328125,0.027408231407403946,0.006019461218919605,0.0009710917881689965
1782952680093061000,0.83406103515625,0.03639350189566612,0.001001413861196488,0.007303258518339135
1782952680102988300,0.84398828125,0.029361119040846824,0.0000896875774487853,0.011323609208757988
1782952680112916200,0.853916259765625,0.033550387424230575,-0.004216101591382176,-0.004919368189643137
1782952680122843400,0.863843505859375,0.01739244882762432,-0.006551138676516711,-0.003812283730576746
1782952680132771300,0.873771240234375,0.02188274598419666,-0.002541318513266742,0.010511525640892796
1782952680142698200,0.8836982421875,0.010062544330954552,0.0007380867498926818,0.013027467684308066
1782952680152626200,0.893626220703125,0.009164134186506271,0.00001293254680931568,0.006869305814174003
1782952680162553300,0.90355322265625,0.024731705674529075,-0.006592895459011197,-0.004789672828791663
1782952680172481300,0.913481201171875,0.04343406805694103,-0.00532793529080227,0.0016475936770904808
1782952680182408400,0.923408447265625,0.024574469286203382,-0.017124810867384075,-0.01184448214455042
1782952680192336400,0.93333642578125,0.031604514053463935,-0.0036938678155653175,0.005792059370945207
1782952680202263300,0.94326318359375,0.01858896513581276,-0.00484592392751947,-0.00238372136533726
1782952680212191200,0.953191162109375,0.026817279776930807,-0.005236183620430529,0.005011357322032563
1782952680222118100,0.9631181640625,0.021575287470221517,-0.0037982415054924785,0.0037201850003330036
1782952680232046300,0.97304638671875,0.029497897163033485,-0.013388674812670797,0.00642853521015495
1782952680241973200,0.98297314453125,0.0345861602127552,0.0013949249571189282,-0.004699195233476348
1782952680251901200,0.992901123046875,0.02620937701165676,0.006399546577688306,-0.007226855114148929
1782952680261828000,1.002828125,0.03264379397332668,0.008171597751509397,0.001351615538354963
1782952680271756300,1.01275634765625,0.012290157252550124,-0.0052241643890738486,0.004866660754871554
1782952680281683200,1.02268310546875,0.016176643297076226,-0.012276402721833437,-0.0010639759697020053
1782952680291611100,1.032611083984375,0.024853286227583885,-0.006393957087118179,-0.0010490797946695238
1782952680301538300,1.042538330078125,0.03039163113236427,-0.004682093401625752,-0.013116264779190532
1782952680311466200,1.05246630859375,0.022760113340616225,0.0031255298756994307,-0.002831218537664972
1782952680321393200,1.06239306640625,0.036675241446495054,-0.0032901093202643093,0.004453933501825668
1782952680331321300,1.0723212890625,0.0257458511531353,-0.006707023357972503,-0.00465217318739742
1782952680341248300,1.082248291015625,0.026493454650044438,0.00004197597820311784,-0.0008430586614413186
1782952680351176200,1.09217626953125,0.030685061120986935,-0.0010851466218940913,-0.00026889833556488155
1782952680361103400,1.102103271484375,0.020511457630991936,-0.0002303746897727251,-0.008202426714613102
1782952680371031300,1.11203125,0.019165888240933418,-0.010748846094682811,-0.0030601319227134805
1782952680380958200,1.121958251953125,0.024550503888726233,-0.009922167745884508,-0.008594248176948167
1782952680390885400,1.131885498046875,0.005694412249326705,-0.007146912612579762,-0.005992116554267704
1782952680400813300,1.141813232421875,0.024695465317368506,-0.013168456190731375,-0.004132615425856784
1782952680410740200,1.151740234375,0.019005729243159294,-0.011954459024779499,0.009055719075701199
1782952680420668400,1.16166845703125,0.027983400946855544,0.0037835188603959975,0.003852063185116276
1782952680430595000,1.171594970703125,0.027984569990634915,0.0013497158422134815,0.001961440832656808
1782952680440523300,1.181523193359375,0.019006898286938665,-0.020959256197419018,-0.014363460961845702
1782952680450450200,1.1914501953125,0.022895137897133825,-0.010688329812791197,-0.008715824163425713
1782952680460378000,1.201378173828125,0.024389760369062423,0.004032123326603323,0.006821251721633598
1782952680470305300,1.21130517578125,0.02110240926146507,-0.008997673312108963,0.0023274154676822946
1782952680480233200,1.221233154296875,0.014366963526606559,-0.0059337191642262034,-0.0034429069954901932
1782952680490160000,1.23116015625,0.03397065866291523,0.005693590265419334,0.018961209681420586
1782952680500088300,1.24108837890625,0.0228963069409132,0.00601388999465853,0.0012385470853187143
1782952680510015200,1.25101513671875,0.027685879305005073,-0.0001350062902085483,-0.015473627860564738
1782952680519943200,1.260943115234375,0.029480361506342888,0.00003061433397233486,-0.0050695948818698525
1782952680529870300,1.270870361328125,0.024242460852861403,0.0009487886248156428,0.001048435907275416
1782952680539798300,1.28079833984375,0.03502279806435108,-0.012003102205786853,-0.01647073543940205
1782952680549725200,1.29072509765625,0.02440028176307678,-0.0026499299868941307,0.0014244250462390482
1782952680559653400,1.3006533203125,0.025299860951304435,-0.0015129253135994075,-0.003205618507741019
1782952680569580300,1.310580322265625,0.037871757754683495,-0.013994805745966732,0.021978877002163787
1782952680579508200,1.32050830078125,0.018870120164752004,-0.005969101004861295,-0.0012559914104640483
1782952680589435400,1.330435302734375,0.015425532668828963,-0.006768580819480121,-0.002116316300537437
1782952680599363300,1.34036328125,0.025898995888233182,-0.013304010470211505,0.008103121925448067
1782952680609290200,1.350290283203125,0.024849779096245764,-0.009156352738849818,0.003902345767361112
1782952680619218400,1.360218505859375,0.01871522186398506,-0.008114972193446009,-0.0009597073110518976
1782952680629145000,1.37014501953125,0.01841536213457584,-0.003447327442280948,0.009297021584864706
1782952680639073300,1.3800732421875,0.02798924616575241,-0.0237178889894858,0.017271279266523196
1782952680649000200,1.390000244140625,0.021401684468984602,0.010812741643749176,0.004218608642299659
1782952680658928000,1.39992822265625,0.03307224851846695,0.00982477178601548,-0.0019632354975212363
1782952680668855300,1.409855224609375,0.019605448701977727,-0.0028923787069506943,-0.011578625149442814
1782952680678783200,1.419783203125,0.02304652906656265,-0.015298983679711818,-0.0017489716923329978
1782952680688710100,1.429710205078125,0.023792378997802732,-0.016731445901934056,0.0017892352040624244
1782952680698638000,1.43963818359375,0.037862405404448504,-0.019568642089236525,0.008749420472350902
1782952680708565200,1.449565185546875,0.029181670820713042,-0.013820947016403079,0.00834114106555935
1782952680718493200,1.4594931640625,0.0282815071105957,0.005884710657037794,0.0016848386812489478
1782952680728420400,1.46942041015625,0.022748422902822495,0.0008428440323099493,0.0032929086321266364
1782952680738348300,1.479348388671875,0.02200608010292053,-0.011750150358024984,0.001607846188591793
1782952680748275200,1.489275146484375,0.008095628172159194,-0.005041501298546791,0.00039289917456917465
1782952680758203400,1.499203369140625,0.015881459742784498,-0.009224321674834937,0.004929674954526126
1782952680768130300,1.50913037109375,0.025611411118507385,-0.008554715317580848,0.0006356492887251079
1782952680778058200,1.519058349609375,0.01603694256544113,0.004678586270287633,-0.006395244861906394
1782952680787985400,1.5289853515625,0.02157470294833183,-0.0101614381281659,0.004162572172703221
1782952680797913300,1.538913330078125,0.031602760487794875,-0.0018779409673996268,0.003781564365327358
1782952680807840300,1.54884033203125,0.015290508112311363,0.00448015935504809,0.014191766789904794
1782952680817767200,1.55876708984375,0.032498248022794725,-0.008624346487689763,0.016605075009330176
1782952680827695400,1.5686953125,0.01768470977246761,0.003184785782266408,-0.011377202559518627
1782952680837622300,1.578622314453125,0.024415479332208632,-0.004647643142752349,-0.006547754842764698
1782952680847550200,1.58855029296875,0.022020693150162696,-0.0020804595358669756,0.007319236972182988
1782952680857477000,1.59847705078125,0.031444939577579496,-0.009745897863525897,0.005029637330817059
1782952680867405000,1.608405029296875,0.026505729609727857,-0.001316361561883241,-0.003553358799754642
1782952680877332200,1.618332275390625,0.01109656355381012,0.00036755467075854536,-0.0010153008226538077
1782952680887260200,1.62826025390625,0.003465630283951759,0.0018438377683982251,-0.009689943592320196
1782952680897187300,1.638187255859375,0.021274843218922614,-0.004522372795268893,0.00364760838788934
1782952680907115300,1.648115234375,0.022323475489020347,-0.019267832511756566,-0.0004897699780529364
1782952680917042200,1.658042236328125,0.015588029754161833,-0.005920311693381518,0.023485632869880646
1782952680926970400,1.667970458984375,0.03877952024936676,-0.0013603285677731035,-0.011744072243687696
1782952680936897300,1.677897216796875,0.02007598882317543,0.0018931202702224253,0.0069564452415099365
1782952680946825200,1.6878251953125,0.02082534588575363,-0.0017218188239261508,0.0023950419103726745
1782952680956752400,1.69775244140625,0.025319150173664092,-0.012946776264067738,-0.010062489532027393
1782952680966680300,1.707680419921875,0.026072598889470097,-0.020415322046447543,0.009694994226773269
1782952680976607200,1.717607177734375,0.024727029499411583,-0.008498930009733886,0.0019069524327525868
1782952680986535400,1.727535400390625,0.028017303216457366,-0.001971793263312429,0.004893393498170189
1782952680996462300,1.73746240234375,0.017694646644592284,0.00021508578909561036,-0.004917025535507128
1782952681006390300,1.747390380859375,0.03146481332182884,-0.007250098992418497,0.003578013750398531
1782952681016317400,1.7573173828125,0.033409517648816105,-0.00047203795854002233,0.002939734113169834
1782952681026245400,1.767245361328125,0.013362170398235321,0.003861388135887682,0.005700659327022731
1782952681036172000,1.777172119140625,0.013214286360144614,-0.0008617131295613944,-0.009198625544575043
1782952681046100200,1.787100341796875,0.013362170398235321,0.004902860012836754,0.011526506803138182
1782952681056027100,1.797027099609375,0.027278467547893523,-0.0051323579197749495,0.004558937379415147
1782952681065955000,1.806955078125,0.02473579732775688,-0.014928524665813892,0.003109263727487996
1782952681075882200,1.81688232421875,0.009920505511760712,-0.013999481921084224,0.0010204290889203548
1782952681085810200,1.82681005859375,0.019198621466755866,-0.006096271048486233,-0.009528478553448802
1782952681095737600,1.836737548828125,0.014864976176619528,-0.006185465435590594,0.0011127333151409401
1782952681105665800,1.846665771484375,0.02983049011826515,-0.0041598961584269996,-0.0053755327256163575
1782952681115592700,1.8565927734375,0.02174947499334812,-0.009372242245543748,-0.006250831422535702
1782952681125520600,1.866520751953125,0.034469255834817886,-0.006250913620926439,-0.006722303125495091
1782952681135447800,1.87644775390625,0.020707856985926625,0.004939191701542586,-0.004000687008723617
1782952681145375700,1.886375732421875,0.014724690923094749,-0.008286638965923339,0.003898477876419201
1782952681155302400,1.896302490234375,0.030286417192220687,-0.02009356101248413,0.0003964154390618205
1782952681165230600,1.906230712890625,0.029086978274583813,-0.01359791538286954,0.011862908283807337
1782952681175157500,1.916157470703125,0.021904957816004753,0.007960621881950646,-0.0027008701562648636
1782952681185084700,1.926084716796875,0.032227029865980146,-0.007935450908076017,0.00036505218641832467
1782952681195012600,1.9360126953125,0.027587095105648038,-0.003865735517442226,-0.001942261208151467
1782952681204939500,1.945939453125,0.02818623004257679,-0.0055202795251272615,-0.006035138278664089
1782952681214867700,1.95586767578125,0.007981646403670311,-0.0035818222758360204,0.003930631146929227
1782952681224794600,1.965794677734375,0.01337093822658062,-0.00636197277996689,0.0020791854608105493
1782952681234722600,1.97572265625,0.023247604596614835,-0.01162895339746028,-0.0006690538014052436
1782952681244649700,1.985649658203125,0.006036357554793357,-0.01856284431386739,-0.012534313872503117
1782952681254577700,1.99557763671875,0.01501344473659992,-0.023001849674619733,-0.010920083608897402
1782952681264504600,2.005504638671875,0.025044424885511396,-0.014648630012199283,0.002211278274725191
1782952681274432800,2.015432861328125,0.015317396119236945,-0.006851126270089298,0.003384806432970799
1782952681284359700,2.025359619140625,0.023697686451673507,0.006925890273042023,0.0023594271742971612
1782952681294287600,2.03528759765625,0.02160042191147804,-0.009001984161045402,0.005506611759378575
1782952681304214800,2.04521484375,0.021157938840985296,-0.004406546129565685,0.0014378370836609974
1782952681314142700,2.055142822265625,0.006193593943119049,0.0005695069836452603,0.008251960378186776
1782952681324069600,2.065069580078125,0.0228004453510046,-0.0100733397196047,-0.0034359475317411125
1782952681333997800,2.074997802734375,0.02743979558944702,-0.00443290441352874,0.018157985273445955
1782952681343924500,2.084924560546875,0.03925765915513038,-0.0013554879958741367,0.008390263737179339
1782952681353852400,2.094852294921875,0.0236935947984457,-0.00999819212416187,0.008438148866361007
1782952681363779600,2.104779541015625,0.02009995422065258,-0.012907741161622107,0.016123196076788006
1782952681373707500,2.11470751953125,0.0160556472659111,-0.011412479368876665,0.000019723047199659048
1782952681383634700,2.124634765625,0.0046831893801689145,0.010153090424928814,0.00019006094569340348
1782952681393562600,2.134562744140625,0.0019891279906034467,-0.0020778657199814914,0.010157638735882938
1782952681403489500,2.144489501953125,0.01875146222114563,-0.003078238401561975,0.021983927636616864
1782952681413417500,2.15441748046875,0.023541034585237503,-0.002686700067017227,0.0009601183030055836
1782952681423344600,2.1643447265625,0.005879705688357353,-0.010351827867422253,0.010993445672630331
1782952681433272600,2.1742724609375,0.015306874725222587,0.01045192724103108,0.0017854632112430408
1782952681443199700,2.18419970703125,0.013362754920125007,-0.005886391157470643,0.004510454028612002
1782952681453127700,2.194127685546875,0.03281155175566673,-0.0009380480350926518,0.0011838349231285974
1782952681463054600,2.2040546875,0.014556933140754699,-0.0041053712259046735,-0.006424621653440408
1782952681472982500,2.213982421875,0.019645196190476416,0.006945307359565049,0.0020887889727950093
1782952681482909700,2.22390966796875,0.030271219623088836,-0.005576265762373805,0.007190162665839306
1782952681492837600,2.233837646484375,0.028777181673049924,-0.014919647239614277,0.0020193541655084118
1782952681502764800,2.243764892578125,0.015456512328982352,-0.01198182195574045,0.005297795880865305
1782952681512691700,2.253691650390625,0.03072247052192688,-0.01625182742513716,0.006863752856221981
1782952681522619600,2.26361962890625,0.02593348267972469,-0.008737506272271276,0.00889308042647317
1782952681532546600,2.273546630859375,0.0202472537368536,-0.00770640965886414,-0.009958079309482127
1782952681542474800,2.283474853515625,0.012165654090046881,-0.016369809515308587,0.004058344613248482
1782952681552401700,2.293401611328125,0.026529695007205006,-0.01603140787379816,-0.010475458813668228
1782952681562329600,2.30332958984375,0.02772738035917282,-0.0018211875451728701,-0.003990667938208207
1782952681572256500,2.313256591796875,0.01905249099433422,-0.003611157968174666,0.007107936875638552
1782952681582184400,2.323184326171875,0.028777181673049924,-0.006559358515590429,-0.007488483458710834
1782952681592111600,2.333111572265625,0.011121697995066642,-0.005696567673794925,-0.01371526728537865
1782952681602039600,2.34303955078125,0.017258593314886092,-0.013084540766943245,-0.011615874720178544
1782952681611966700,2.352966796875,0.011872808623313903,-0.008484024701546878,-0.008888276387192308
1782952681621894700,2.362894775390625,0.02907937949001789,-0.0018249869374558328,0.002281959757604636
1782952681631821600,2.372821533203125,0.019499650239944457,-0.0021735081141814588,0.004843526474456302
1782952681641749500,2.38274951171875,0.013065817800164222,0.00010921426182612776,0.0273689497097861
1782952681651676700,2.3926767578125,0.025334347742795943,0.00810916350716725,0.002871281119994819
1782952681661604600,2.4026044921875,0.03879705590605736,-0.004120714925508946,0.004021871360647492
1782952681671531800,2.41253173828125,0.015750526839494704,-0.0067575479688122865,0.011452450619661249
1782952681681459700,2.422459716796875,0.02143967839181423,0.00571989375045523,-0.0026169045001268386
1782952681691386600,2.43238671875,0.017552023303508756,-0.007381031895708292,-0.008637205969262868
1782952681701314600,2.442314453125,0.011268997511267661,-0.015238522196747362,-0.0004839521586196497
1782952681711241700,2.45224169921875,0.022044658547639845,0.0034129137160256503,0.0007817158290650695
1782952681721169700,2.462169677734375,0.02144844622015953,0.012787366184964776,0.008329989483882673
1782952681731096800,2.472096923828125,0.027580665364861486,-0.005353508123476058,0.006577981017669663
1782952681741024800,2.482024658203125,0.009174071058630943,-0.013411617296840995,0.013720103290700354
1782952681750951400,2.491951416015625,0.017258593314886092,-0.0005374861438758671,-0.009023711935663595
1782952681760879600,2.501879638671875,0.022646131572127342,-0.01177988790916279,-0.009024214259162545
1782952681770806500,2.511806640625,0.02129413244128227,-0.0042388796787709,0.009305355588370002
1782952681780734500,2.521734375,0.01321662444770336,-0.00670943451076746,-0.0002457229559542611
1782952681790661600,2.53166162109375,0.014563947403430939,-0.022273718063160777,-0.0009748592144111171
1782952681800589600,2.541589599609375,0.0141167881578207,-0.01979333595689386,0.009811752474238164
1782952681810516500,2.5515166015625,0.020251345390081405,0.0010229498395696282,0.014273421757947652
1782952681820444700,2.561444580078125,0.020098785176873205,-0.006679824823793023,0.003749315196694806
1782952681830371600,2.57137158203125,0.02293897703886032,0.0021230931011959908,0.003830408475734293
1782952681840298800,2.581298828125,0.026830723780393598,-0.0009116714848205447,-0.0005142468321835622
1782952681850226700,2.591226806640625,0.012616320466995238,-0.011409995150845497,-0.0010503858357667922
1782952681860153600,2.601153564453125,0.016208792001008988,-0.0021502916353754696,-0.009651844638213515
1782952681870081500,2.61108154296875,0.026533202138543127,-0.006922931130975484,-0.0009805126370629295
1782952681880008700,2.6210087890625,0.03131926737129688,-0.006568181142862886,0.01614247616599314
1782952681889936600,2.6309365234375,0.017851298511028287,0.0003487221061252057,0.007631805486115626
1782952681899863800,2.64086376953125,0.027875848919153214,-0.006965418565832078,-0.002161009392212145
1782952681909791700,2.650791748046875,0.019051906472444532,-0.00830939878700301,-0.002871564247785136
1782952681919718700,2.66071875,0.004835749593377113,-0.0006521254994906484,0.002259519596933387
1782952681929646800,2.670646728515625,0.017706921604275703,-0.0025286782274022697,0.0001623737877467647
1782952681939573500,2.680573486328125,0.031027590948343276,-0.0029275048192590474,-0.000555807251855731
1782952681949501400,2.69050146484375,0.04359890322983265,0.01262295113718137,-0.0032289080517832187
1782952681959428600,2.7004287109375,0.023696517407894132,-0.018645298432931303,0.005547601356892846
1782952681969356500,2.7103564453125,0.02653963187932968,0.002317903287243098,0.011190589379658921
1782952681979283500,2.720283447265625,0.021899112597107886,0.005937847350072115,0.006709498442849144
1782952681989211600,2.730211669921875,0.041352585607767105,0.010716861787531524,0.00956496093920432
1782952681999138600,2.740138671875,0.03462064700424671,-0.001275006638187915,0.007937400836567394
1782952682009066500,2.75006640625,0.011572948893904686,-0.00044889454497024415,-0.009259945544064976
1782952682018993700,2.75999365234375,0.01681201859116554,-0.014429288173094391,-0.007674174189963377
1782952682028921600,2.769921630859375,0.007681786674261093,-0.008509597534220665,-0.012146707360981963
1782952682038848500,2.7798486328125,0.0124655138194561,-0.0068595470385625955,0.002602729844301939
1782952682048776700,2.789776611328125,0.010067220506072044,-0.009573938830103724,0.012895603199256584
1782952682058703600,2.79970361328125,0.011712065103650093,-0.009083324035257101,0.004969299145438708
1782952682068631600,2.809631591796875,0.027125907334685322,-0.0046239517399109895,-0.006061839055921882
1782952682078558700,2.819558837890625,0.01111351468861103,-0.009067688074707984,0.015100976889580488
1782952682088486100,2.829486083984375,0.029672084686160085,0.008498181091062724,0.0015717702282126993
1782952682098413300,2.839413330078125,0.03565758883655071,-0.011114921194408088,-0.001296250355616212
1782952682108341200,2.84934130859375,0.01784954494535923,-0.00706217520488426,-0.0046933865471975875
1782952682118268200,2.85926806640625,0.022492986837029456,-0.005595116593316197,-0.003546760095609352
1782952682128196400,2.8691962890625,0.03685878131985664,-0.0013049816513434052,-0.005067864149087108
1782952682138123300,2.879123291015625,0.020851064848899842,-0.004410235923994333,0.0006247123361798003
1782952682148050400,2.889050537109375,0.011570610806345938,-0.018247878346871582,-0.0015449735528323798
1782952682157978400,2.898978271484375,0.022643793484568596,-0.009292820333782583,0.015580143275228327
1782952682167905300,2.9089052734375,0.02848024455308914,-0.010197057430818677,0.0038341211030492556
1782952682177833200,2.918833251953125,0.017853636598587037,-0.015635412559844554,-0.01258158708033152
1782952682187760000,2.928760009765625,0.025483400824666023,-0.0010412344149313866,0.007100438555772416
1782952682197688000,2.93868798828125,0.02414016952216625,0.0070745232298038896,0.01025203902106732
1782952682207615200,2.948615234375,0.016360183170437814,-0.0070278162775561205,0.00503530445320066
1782952682217543200,2.958543212890625,0.017107786667346952,-0.010467070011235773,0.0021741702678846194
1782952682227470000,2.968469970703125,0.01770224542915821,-0.004165595246851444,0.027537365079252047
1782952682237398300,2.978398193359375,0.016203531304001807,-0.008872384698316454,0.0009352624229621142
1782952682247325200,2.9883251953125,0.01919628337919712,-0.009175897689536213,-0.005508273993502371
1782952682257253000,2.998253173828125,0.02158697790801525,-0.005176854648627341,-0.006168445802130736
1782952682267180300,3.00818017578125,0.017095511707663536,0.0007134820315986871,0.014517144553060643
1782952682277108200,3.018108154296875,0.03101005529165268,-0.015946579134557395,-0.009129090272588654
1782952682287035100,3.02803515625,0.029361119040846824,-0.010893880588561295,-0.00518696048411075
1782952682296963300,3.03796337890625,0.01933013889193535,-0.018363266621157524,-0.006421808641846292
1782952682306890200,3.04789013671875,0.028162849166989325,-0.01129937438322231,0.008450350760808214
1782952682316818200,3.057818115234375,0.019635843840241432,-0.007962722507491707,0.013902620250754989
1782952682326745300,3.067745361328125,0.012002572482824325,-0.0065602535647340116,-0.004897900709928945
1782952682336673300,3.07767333984375,0.02203063002228737,-0.009796970463637263,-0.017785621996829284
1782952682346600200,3.08760009765625,0.02951367925405502,-0.0022138766571879387,-0.0065814287835033606
1782952682356528400,3.0975283203125,0.02591653154492378,-0.0029063889659941195,-0.0004576852062018588
1782952682366455300,3.107455322265625,0.02157294938266277,0.0032159115728922186,-0.00013860475309193133
1782952682376383200,3.11738330078125,0.02277297282218933,-0.0034421580768190323,0.008322372433007694
1782952682386310100,3.12731005859375,0.016789806759357453,-0.008308138411678373,-0.007662177791493013
1782952682396238300,3.13723828125,0.0241249719530344,-0.004373977300524711,0.02030566482662689
1782952682406165200,3.147165283203125,0.02248012735545635,-0.012339439754374324,0.0127025511454558
1782952682416093200,3.15709326171875,0.01365326229929924,0.011418909109663217,-0.008160386804328299
1782952682426020000,3.16702001953125,0.017694646644592284,0.004340294226631522,-0.0011599197580013424
1782952682435948000,3.176947998046875,0.006167874979972839,-0.005094363996945322,-0.00031216665513347834
1782952682445875200,3.186875244140625,0.007516366979479789,-0.02102949015572667,0.001155047220061533
1782952682455802000,3.196802001953125,0.020388123512268066,0.0011510697312653063,0.022329759099334476
1782952682465730300,3.206730224609375,0.0069195701301097865,-0.011373298135958611,0.001969286212394945
1782952682475657200,3.2166572265625,0.013801730859279632,-0.007462992824427783,0.014132177523197606
1782952682485585200,3.226585205078125,0.033708208334445953,-0.006756287593487649,0.007908969326526858
1782952682495512300,3.23651220703125,0.03236322346627712,-0.013567520244605839,0.0007810125761665404
1782952682505440300,3.246440185546875,0.023092121773958203,-0.0178051395480521,0.01147707817084156
1782952682515367200,3.2563671875,0.00903086319565773,-0.0013394867091439664,0.010074106904584913
1782952682525295400,3.26629541015625,0.01846037032008171,-0.009653525138646363,-0.0008542924415087327
1782952682535222300,3.27622216796875,0.029086393752694128,-0.005551953305024653,0.000848995211883448
1782952682545150200,3.286150146484375,0.015918284621834755,-0.003458506423421204,-0.0009595977131975814
1782952682555077400,3.296077392578125,0.01606733770370483,0.004977879744116217,0.007819208683841861
1782952682565005300,3.30600537109375,0.01935878046452999,0.008570442609675228,-0.005394520553876646
1782952682574932200,3.31593212890625,0.026688100439310074,-0.008067297126818447,0.008895354581950232
1782952682584860400,3.3258603515625,0.03656242872178554,-0.017000325971189886,0.003945751084247604
1782952682594787000,3.335787109375,0.01785831277370453,-0.009367273809481411,-0.007327255881857127
1782952682604715000,3.345715087890625,0.02324351294338703,-0.00884635520791635,-0.0029550960790831592
1782952682614642200,3.35564208984375,0.02279518465399742,0.0011870178274810312,0.003908232085453346
1782952682624570000,3.365570068359375,0.014563947403430939,-0.01252741834083572,0.0016824503613403067
1782952682634497300,3.375497314453125,0.023839725270867345,-0.007101484301965683,0.023161958440043963
1782952682644425200,3.38542529296875,0.012915595674514769,0.006821936708223075,0.018568479470210147
1782952682654352100,3.39535205078125,0.026083120283484456,-0.006506276621483266,0.008767549784085713
1782952682664280000,3.405280029296875,0.018448095360398292,-0.00022409107945859432,0.0022453997400356455
1782952682674207200,3.415207275390625,0.0037853637576103208,-0.015975476435478777,-0.004072916561295278
1782952682684135200,3.42513525390625,0.027872341787815093,-0.024794377380888907,-0.00393985106642358
1782952682694062300,3.435062255859375,0.025628946775197982,0.0055195488727651535,0.0016788792979205026
1782952682703990300,3.444990234375,0.024580899026989934,0.0022454043066129086,0.01500560849001631
1782952682713917200,3.454917236328125,0.03580430383086204,0.00807750799357891,0.009809090159693732
1782952682723845000,3.46484521484375,0.03041910366117954,0.009666055826656519,0.015795119466469623
1782952682733772300,3.474772216796875,0.009620061260461806,-0.005911050674691796,0.01115105195371434
1782952682743699200,3.48469921875,0.026080197674036024,-0.004106193209812045,-0.009868350632837973
1782952682753627400,3.49462744140625,0.015151391902565954,-0.02935123696764931,0.007884337208769283
1782952682763554000,3.504553955078125,0.009912322205305099,-0.01135013645607978,9.726809570565819e-7
1782952682773482200,3.514482177734375,0.018290274450182914,-0.00768204240258783,0.0019710306449094786
1782952682783409200,3.5244091796875,0.025772154638171195,-0.012309172480273991,0.003551500202808529
1782952682793337000,3.534337158203125,0.02113514248728752,-0.008040683114528656,0.0021859794366871936
1782952682803264300,3.54426416015625,0.0185872115701437,-0.021522680500149726,0.007397398508619517
1782952682813192200,3.554192138671875,0.017087328401207923,-0.016446473214402794,0.007885045028245077
1782952682823119000,3.564119140625,0.017083821269869803,-0.015296097602881491,-0.004495032697194256
1782952682833047000,3.574047119140625,0.023212533283233642,-0.0002792553327977657,-0.0015473025072366
1782952682842974200,3.58397412109375,0.015876783567667006,-0.008545892690308391,0.0044364161114441225
1782952682852902100,3.593902099609375,0.025603812333941458,-0.013918160313181578,0.0009334540583658963
1782952682862829300,3.603829345703125,0.02111176161170006,0.002160027578100562,0.016205065673962234
1782952682872757200,3.61375732421875,0.028895839616656302,0.008631835674401372,0.009128071925858966
1782952682882684200,3.62368408203125,0.026650106516480445,-0.01036916259471327,0.013169113777857273
1782952682892612000,3.633612060546875,0.03338321416378021,-0.009883680632710456,0.012587688027555123
1782952682902539300,3.643539306640625,0.019916998869180677,-0.013805859045125544,0.0021962222694884986
1782952682912467200,3.65346728515625,0.015128011026978493,-0.01453945228299126,0.007109270316199399
1782952682922394400,3.663394287109375,0.02335340305864811,-0.016933434747438875,0.003931695159431547
1782952682932322300,3.673322265625,0.00794248343706131,0.005465681527368724,-0.007997638557245954
1782952682942249200,3.683249267578125,0.013929741153120994,0.002241531849093735,0.010060338674136436
1782952682952177400,3.693177490234375,0.014229600882530212,-0.00706973745683208,0.0002510704179294407
1782952682962104300,3.703104248046875,0.032333997371792794,-0.00824128372054547,0.010869339802348986
1782952682972032300,3.7130322265625,0.020662264278531073,-0.010490523952059447,-0.012833653012104332
1782952682981959200,3.722959228515625,0.03936930283606052,-0.01429979830821976,-0.0015612534007756038
1782952682991887400,3.732887451171875,0.02530219903886318,-0.01516154797039926,0.003834280933253467
1782952683001814000,3.74281396484375,0.016774024668335913,0.0018399835771881043,-0.010167023052158764
1782952683011741200,3.7527412109375,0.024856208837032316,0.008066858735401182,0.0019193598231766371
1782952683021669000,3.762669189453125,0.033983518144488335,0.008816361928451805,0.011574154470302163
1782952683031596300,3.77259619140625,0.02156476607620716,-0.0047125981377437705,0.008953295314265414
1782952683041524200,3.782524169921875,0.0224649297863245,0.005527640847675502,0.0076319333502789955
1782952683051451100,3.792451171875,0.017675941944122312,-0.004951210932899266,0.010964050614787266
1782952683061379000,3.802379150390625,0.019022095856070516,-0.023063388869818298,0.007466961180069483
1782952683071306200,3.81230615234375,0.023362755408883093,-0.009357720529846847,0.006179236624203622
1782952683081234200,3.822234130859375,0.03772387371659278,-0.009220577081479131,-0.00022403171395417301
1782952683091161300,3.832161376953125,0.031737785044312475,-0.004110303129348904,-0.004269425514084287
1782952683101089300,3.84208935546875,0.017523381730914115,0.009749587657954544,0.0077943391040666025
1782952683111016200,3.85201611328125,0.02097089183628559,0.0034057533228769895,0.005513055199896916
1782952683120944400,3.8619443359375,0.024266426250338553,-0.008073964329622686,-0.004297455165325664
1782952683130871300,3.871871337890625,0.023819267004728317,0.0007002024249173701,0.011563290582993067
1782952683140799200,3.88179931640625,0.028604163193702695,-0.014768895391002297,0.0071329617190407585
1782952683150726400,3.891726318359375,0.02546118899285793,0.0018448241490870714,0.009852924734842963
1782952683160654300,3.901654296875,0.014538812962174415,-0.006583031652122736,0.004741568503901362
1782952683170581200,3.911581298828125,0.0075052610635757445,-0.017795440137945113,-0.020618881794530898
1782952683180509400,3.921509521484375,0.028903438401222226,0.0009092785983346402,0.0008100742738693952
1782952683190436400,3.931436279296875,0.01977788265943527,-0.00997660134686157,-0.0010881331634242087
1782952683200364300,3.9413642578125,0.02337152323722839,-0.010012823437713087,-0.0014017793895909562
1782952683210291200,3.951291259765625,0.025014029747247694,-0.00436411349363625,-0.0025782027578214184
1782952683220219100,3.96121923828125,0.024564532414078712,-0.007629271035734564,-0.0023984896762063723
1782952683230146000,3.97114599609375,0.024415479332208632,-0.011532470753043889,0.01303445911409799
1782952683240074200,3.98107421875,0.011247370201349258,-0.016623291086032985,0.001975670287408866
1782952683250001200,3.991001220703125,0.016782207974791526,-0.015954853772558272,0.011836682430584914
1782952683259929000,4.00092919921875,0.016633739414811135,-0.01689485630271956,0.008701832170691341
1782952683269856300,4.010856201171875,0.023065818288922308,-0.0010970745217055082,0.007862230408238247
1782952683279783200,4.020783203125,0.01902326489984989,-0.006071374069247394,0.008906136270868592
1782952683289711400,4.03071142578125,0.005557634127140045,-0.007463047623354941,0.018647705019148995
1782952683299638300,4.04063818359375,-0.00012859481573104857,-0.0060204658659175035,-0.0006861784661421552
1782952683309566200,4.050566162109375,0.022318799313902852,-0.012811587310768664,0.009309164113807491
1782952683319493400,4.060493408203125,0.024416063854098318,0.006408168275561183,0.0008119922363199293
1782952683329421300,4.07042138671875,0.02531564304232597,0.007390749572124332,0.015688421388715505
1782952683339348200,4.08034814453125,0.01977788265943527,-0.007256364336423575,0.0008279980896273628
1782952683349276400,4.0902763671875,0.014839841735363006,-0.011747538275830447,-0.009421803308581002
1782952683359203300,4.100203369140625,0.019181670331954954,-0.008835870346520095,-0.007316551824752241
1782952683369131300,4.11013134765625,0.009309095615148543,-0.017229787345509975,-0.000739283193135634
1782952683379058400,4.120058349609375,0.017543255475163458,-0.004221161358989775,-0.0039577931484906
1782952683388986400,4.129986328125,0.026824878561496734,0.0008879252830520272,-0.004659397512627765
1782952683398913000,4.1399130859375,0.02129120983183384,-0.0035422757167369126,0.013479298538458534
1782952683408841500,4.149841552734375,0.022486557096242903,0.012220105957332998,0.010412394381663762
1782952683418768100,4.15976806640625,0.0364028542459011,0.00008475567400455475,0.01215909648509696
1782952683428696000,4.169696044921875,0.013211948272585868,-0.015244495279807596,0.0037949079040903596
1782952683438623200,4.179623291015625,0.016655366724729538,-0.014543069012183696,0.0050903728084173054
1782952683448551200,4.18955126953125,0.02069733559191227,-0.0027516185293905435,-0.011251411622227168
1782952683458478300,4.199478271484375,0.010372340932488441,-0.014526428404636681,-0.004646478665550239
1782952683468406300,4.20940625,0.012613397857546806,-0.0016806100307032465,-0.020337206175783648
1782952683478333200,4.219333251953125,0.012611644291877746,-0.002522084089834243,0.019833151944051497
1782952683488261000,4.22926123046875,0.008420037820935249,0.005634316092543303,0.008004401658172719
1782952683498188300,4.239188232421875,0.02038695446848869,0.004892923140712082,0.000029121063207276162
1782952683508116200,4.2491162109375,0.03145955262482166,-0.017538049577083437,0.009996881516487336
1782952683518043400,4.25904345703125,0.03205342686474323,-0.011264102140441537,-0.0059396328817820174
1782952683527971300,4.268971435546875,0.029207974305748938,-0.009709036451857537,-0.003648608468309976
1782952683537898200,4.278898193359375,0.017983400458097456,-0.005295092467125505,-0.01797490662438795
1782952683547826200,4.288826171875,0.023518238231539725,-0.005668675019871443,-0.002205999311408959
1782952683557753300,4.29875341796875,0.027259178325533866,0.0071816185997799036,0.011091663616406731
1782952683567680300,4.30868017578125,0.027253917628526685,0.009437800028733909,0.0021842441373271866
1782952683577608400,4.3186083984375,0.03847966051995754,-0.004716379263717681,0.02043615933849942
1782952683587535000,4.32853515625,0.013787117812037467,-0.01329688660968095,0.0021346693745581432
1782952683597463300,4.33846337890625,0.01708265222609043,-0.017748130397498608,0.012913951706700027
1782952683607390200,4.34839013671875,0.031148586979508397,-0.01459960323870182,-0.008720614502974785
1782952683617318100,4.358318115234375,0.005857493856549263,-0.014962573065888135,-0.01228550847689621
1782952683627245300,4.368245361328125,0.024710662886500357,-0.013280191203206776,-0.007185769618512131
1782952683637173200,4.37817333984375,0.018127192842960358,-0.014486443454120307,0.018096957534900867
1782952683647100200,4.38810009765625,0.01783084024488926,-0.01638111636061221,0.013063840472209267
1782952683657028000,4.398028076171875,0.020073650735616684,-0.013936243959143757,0.0030120960964821275
1782952683666955300,4.407955322265625,0.013786533290147781,-0.010977101892605423,0.01151168369334191
1782952683676883200,4.41788330078125,0.02485737788081169,-0.012081775198876857,0.0182583677748451
1782952683686810400,4.427810302734375,0.032787001836299894,-0.00713785252328962,0.010049433687631972
1782952683696738300,4.43773828125,0.020068390038609503,-0.006508340714406221,0.001753478904091753
1782952683706665200,4.447665283203125,0.027250410497188567,-0.009195881031639874,0.002604305313457735
1782952683716593200,4.45759326171875,0.01453121417760849,0.00053575084451586,-0.005873198315757326
1782952683726520300,4.467520263671875,0.02530395260453224,-0.0037609782350249586,0.011362402282608671
1782952683736448300,4.4774482421875,0.018565584260225296,-0.0071937656952999526,0.0031061949875671414
1782952683746375400,4.48737548828125,0.013176292437314987,-0.0014313662436790764,-0.009338134479965083
1782952683756303400,4.497303466796875,0.024098083946108816,-0.00273201877977699,-0.0022036612238502127
1782952683766230300,4.507230224609375,0.021999065840244292,-0.016088362225424497,-0.003891358582465909
1782952683776158200,4.517158203125,0.026636077991127965,-0.011074059461057186,-0.014733107124990782
1782952683786085400,4.52708544921875,0.016907880181074142,0.0008535846220329404,0.011353063632105476
1782952683796013300,4.537013427734375,0.01975216369628906,-0.0055995735727250575,0.01552295602816157
1782952683805940200,4.546940185546875,0.02019756937623024,-0.0011634725551120937,0.020211721199168822
1782952683815867100,4.5568671875,0.026184242570400237,-0.0025687362431548533,-0.007020564552862197
1782952683825795000,4.566795166015625,0.020496260061860082,-0.0026513730253092944,-0.012224654268287121
1782952683835722200,4.57672216796875,0.020941081219911575,-0.007474171805568039,0.00298097487243358
1782952683845650200,4.586650146484375,0.020042671075463293,-0.018835304579697548,-0.005454105254006572
1782952683855577300,4.596577392578125,0.03126373779177666,-0.01428028989015147,-0.004852020308165811
1782952683865505300,4.60650537109375,0.040541269224882125,-0.007241495560854673,0.00845908662311267
1782952683875432200,4.61643212890625,0.03725450263917446,-0.0012840301948599518,0.007742070060712285
1782952683885360000,4.626360107421875,0.0008954875349998473,-0.002709989611059427,0.0020140432361513377
1782952683895287300,4.636287353515625,0.026482933256030083,-0.0032881182925775646,0.0008028179825982078
1782952683905215200,4.64621533203125,0.007331073540449142,0.006685450846981257,0.01656075637699105
1782952683915142400,4.656142333984375,0.018404840740561486,-0.0042584611620754,0.00894174644036684
1782952683925070300,4.6660703125,0.01840893239378929,-0.0060526145698502655,-0.004591273313015699
1782952683934997200,4.675997314453125,0.022748422902822495,-0.0032006774711422622,0.002634673052257858
1782952683944925200,4.68592529296875,0.031571780827641484,0.004890164928045123,0.007413573325285688
1782952683954852400,4.695852294921875,0.0056838908553123475,0.0008682524682022631,-0.002987696874164976
1782952683964780300,4.7057802734375,0.030074820268154143,0.0019194237552583216,0.007258601959282532
1782952683974707500,4.71570751953125,0.017203648257255552,0.004276544808037579,0.00382701094225049
1782952683984635400,4.725635498046875,0.009424830949306488,-0.010864873689785599,0.000850237320899032
1782952683994562000,4.73556201171875,0.022744331249594688,-0.0074569466761313374,-0.01908820162853226
1782952684004490200,4.745490234375,0.020948095482587813,-0.011776271179970352,0.0005196216936223209
1782952684014417200,4.755417236328125,0.021698621588945387,-0.017252601965516805,0.016673920728149823
1782952684024345000,4.765344970703125,0.01930441992878914,-0.005301978865638375,0.007935341310221701
1782952684034272300,4.775272216796875,0.02184533658325672,-0.0009987835126928984,0.016660595455695874
1782952684044199200,4.78519921875,0.021846505627036092,-0.007764386923797428,-0.013691306454478762
1782952684054127000,4.795127197265625,0.015417933884263038,-0.014518044168781488,-0.010845748864207416
1782952684064054300,4.80505419921875,0.016768179449439046,-0.00028672625320032237,0.005548889131681062
1782952684073982200,4.814982177734375,0.016621464455127716,-0.005052643747068941,0.002307587389205582
1782952684083909400,4.824909423828125,0.02769464713335037,-0.007453695273119956,0.0111956765467301
1782952684093838000,4.834838134765625,0.016167290946841238,0.006616367666143924,0.011421772353607229
1782952684103764700,4.8447646484375,0.011231003588438034,0.007285097240563481,0.004884580004052259
1782952684113692700,4.854692626953125,0.03262684283852577,-0.013137074671778827,-0.004848504043673165
1782952684123619800,4.864619873046875,0.03831424082517624,-0.011699333486240356,0.004336124941590242
1782952684133547800,4.8745478515625,0.02006020673215389,-0.008452971976157277,-0.006084311182633973
1782952684143475000,4.884474853515625,0.028291443982720373,-0.01972421624343842,0.004501298041199334
1782952684153403000,4.89440283203125,0.028441666108369824,-0.006149426007829606,0.01665600604554638
1782952684163329800,4.904329833984375,0.030083003574609756,-0.007323383424337953,0.0014863615336595103
1782952684173257700,4.9142578125,0.010932312902808189,0.002015120948385447,0.005842953874543309
1782952684183185000,4.924184814453125,0.020658757147192952,0.003489723545592278,-0.007445881859422661
1782952684193112800,4.93411279296875,0.023203765454888343,-0.013014489471726119,0.005629639917425811
1782952684203040000,4.9440400390625,0.02859013466835022,-0.007289207160100341,0.012699897964065893
1782952684212968000,4.953968017578125,0.011532032361626624,-0.0010085925206542014,0.007390813504206016
1782952684222894800,4.963894775390625,0.018867197555303573,0.0015743183783255516,-0.009402870279247872
1782952684232822800,4.97382275390625,0.018266309052705765,-0.00318628361960873,0.019406829990493132
1782952684242750000,4.98375,0.01018938558101654,0.010607099536433816,-0.003038947570789605
1782952684252678000,4.993677978515625,0.032336919981241226,0.006845080121792853,0.013298192650778218
1782952684262605000,5.00360498046875,0.018122516667842863,-0.01250345294335857,0.0016488449192605913
1782952684272533000,5.013532958984375,0.015576923838257789,-0.009003829058259725,0.0015984892717795446
1782952684282460000,5.0234599609375,0.02829845824539661,-0.012705807115044444,0.01985926363284234
1782952684292386800,5.03338671875,0.012736731976270675,-0.009586506050731986,0.0015093222841387614
1782952684302315000,5.04331494140625,0.025755203503370284,-0.0001328143331222236,0.01104939537725877
1782952684312242000,5.053241943359375,0.023213117805123328,-0.004788074526749551,0.0034070456642424684
1782952684322169900,5.063169921875,0.013785364246368408,-0.014065989552345125,-0.007117312058759853
1782952684332096800,5.0730966796875,0.025158991175889968,-0.001528725670929998,-0.00844491196728777
1782952684342024700,5.083024658203125,0.02576104872226715,0.0002931559939868748,-0.0024426073791459202
1782952684351952000,5.092951904296875,0.0013695347875356673,0.005729538361635059,0.014556832676054909
1782952684361879800,5.1028798828125,0.022620412608981132,-0.020238321511726824,0.012184367923671379
1782952684371807000,5.112806884765625,0.02875438531935215,0.00881645325999707,0.002975691342540085
1782952684381735000,5.12273486328125,0.025913024413585662,-0.007421564835496246,-0.0051994455063482745
1782952684391661800,5.132661865234375,0.02726151641309261,-0.0016507080827839673,0.0009696624494856223
1782952684401589800,5.14258984375,0.020976737055182455,0.000011781769338995218,-0.007698536879662424
1782952684411517000,5.152516845703125,0.02711070976555347,-0.0029348661418072877,0.0004352450455306098
1782952684421444900,5.16244482421875,0.016935937231779098,-0.009386544765532016,0.006622327049472369
1782952684431372000,5.1723720703125,0.03175239809155464,-0.013637608072441071,-0.0008360763648059218
1782952684441300000,5.182300048828125,0.02202887645661831,-0.004462989024538546,0.0014084557255497202
1782952684451227000,5.192226806640625,0.010358312407135964,-0.006770571847166866,-0.0040763232279336075
1782952684461154800,5.20215478515625,0.02756663683950901,-0.009782795807812363,-0.012388630924653261
1782952684471082000,5.21208203125,0.0135024556517601,-0.01791492006545886,0.00430833275236655
1782952684481010000,5.222010009765625,0.019487375280261038,-0.0026449067519046365,0.014955106712062842
1782952684490937000,5.23193701171875,0.026966917380690573,0.00026064196387305856,0.01147726540050935
1782952684500863700,5.24186376953125,0.01500000073313713,-0.003451181633491069,0.007964823133032768
1782952684510791700,5.251791748046875,0.011557751324772833,-0.008205152961239219,0.004911413212050683
1782952684520718800,5.26171875,0.020537176594138146,-0.004354103556275368,0.0074154090893454845
1782952684530646800,5.271646728515625,0.019189853638410567,-0.006898746537789702,-0.0037456208356888964
1782952684540574000,5.281573974609375,0.019786065965890883,-0.003855561183299869,-0.0007315839438699186
1782952684550502000,5.291501953125,0.03370002502799034,0.004886420334689319,0.00028496355437673625
1782952684560428800,5.3014287109375,0.025173019701242444,-0.0121286465479061,0.009697720473399386
1782952684570356700,5.311356689453125,0.01664484533071518,-0.008131978127174078,0.0044398045117734
1782952684580281900,5.32128173828125,0.017242226701974867,-0.002438406128063798,-0.010817659847461619
1782952684590208800,5.331208740234375,0.025020459488034247,-0.016702749530412255,-0.010253039101487957
1782952684600135700,5.3411357421875,0.017234627917408943,-0.005183814112376422,0.006333943128725514
1782952684610064000,5.35106396484375,0.025767478463053703,-0.0027460290388204157,0.0053339814390987155
1782952684619990800,5.36099072265625,0.013651508733630179,-0.0009841704654507339,0.0006015734891872853
1782952684629918700,5.370918701171875,0.026221651971340177,-0.008943623303622007,0.01045222863513045
1782952684639846000,5.380845947265625,0.023227146330475807,-0.003358187854103744,0.0126331163381692
1782952684649773800,5.39077392578125,0.00466857633292675,-0.01239126127315685,-0.008891098531940951
1782952684659701000,5.400700927734375,0.01963116766512394,-0.007122070432268083,0.004961408099927939
1782952684669629000,5.41062890625,0.018881810602545738,0.0008112250513397156,0.002009271162911318
1782952684679555800,5.420555908203125,0.009455810609459877,0.0008947386163286864,-0.009321909430949018
1782952684689483800,5.43048388671875,0.023819267004728317,-0.0023310002308338878,-0.007663387934467755
1782952684699411000,5.440410888671875,0.025915947023034094,-0.004451828309707344,0.0036590796299744393
1782952684709339000,5.4503388671875,0.011996142742037773,-0.016777623131219298,0.004501740999193862
1782952684719266000,5.46026611328125,0.011244447591900825,0.002311510079074651,-0.00402415464927908
1782952684729194000,5.470194091796875,0.030392215654253957,-0.010799736031703651,0.012972824020776897
1782952684739121000,5.480120849609375,0.015878537133336066,-0.008005776197928935,0.008967301006731578
1782952684749048800,5.490048828125,0.014978957945108413,-0.002523180068377405,0.009069222444668412
1782952684758976000,5.49997607421875,0.03353460533320904,-0.015426409451663493,-0.013601303783198817
1782952684768904000,5.509904052734375,0.019016835159063338,-0.011147837083321064,0.0013394912757212294
1782952684778830800,5.519830810546875,0.020362989071011542,0.00039908232018351554,0.0014750820878194643
1782952684788759000,5.529759033203125,0.021108254480361938,-0.011439750968292355,0.000034048400074243547
1782952684798685700,5.539685791015625,0.0287391877502203,-0.02159799249237403,-0.004302350536151789
1782952684808614000,5.54961376953125,0.024549919366836547,-0.013208130613993853,0.012833173521491699
1782952684818540800,5.559540771484375,0.03023439474403858,-0.012112024206668138,0.00024141210701782254
1782952684828468000,5.569468017578125,0.01332476099729538,-0.009700542618148029,0.009052832998870872
1782952684838396000,5.57939599609375,0.015571078619360922,0.001902892745565623,0.0017043881985126061
1782952684848322800,5.58932275390625,0.010929390293359756,-0.019985698457527904,0.001280468264594674
1782952684858250800,5.599250732421875,0.003298457023501396,-0.016865502344071866,-0.00412818127933424
1782952684868178000,5.609177978515625,0.021856442499160765,0.0033919257269240913,-0.005739890792290679
1782952684878105900,5.61910595703125,0.015423194581270217,0.0024713402832858265,-0.002697641586139798
1782952684888033000,5.629032958984375,0.019161212065815926,-0.013793565819133073,0.00877217572685331
1782952684897961000,5.6389609375,0.021851766324043273,0.0011090754867531358,0.006181186552694998
1782952684907887900,5.648887939453125,0.007186112111806869,-0.002018116623070091,-0.00486590726962313
1782952684917815800,5.65881591796875,0.023345219752192496,-0.0162031477115117,-0.008428896980825811
1782952684927743000,5.668742919921875,0.013916297149658202,-0.016286405548173934,0.009238683560327626
1782952684937671000,5.6786708984375,0.006879238119721413,-0.00998827351834625,0.011723198419017717
1782952684947600000,5.688599853515625,0.017651976546645163,0.003233903887309134,0.01011741632334888
1782952684957527800,5.69852783203125,0.028873627784848213,-0.003924059842247515,0.008745885941549203
1782952684967455000,5.708455078125,0.02168985376060009,-0.009140150522720068,0.0002485496672801673
1782952684977383000,5.7183828125,0.023783611169457434,0.0042159919935278595,-0.000780277357227169
1782952684987309800,5.728309814453125,0.023632220000028608,-0.004098028169665486,-0.003650366600556299
1782952684997237000,5.738237060546875,0.02408230185508728,-0.0052053135581314565,0.009418784801010043
1782952685007165000,5.7481650390625,0.027524551263451574,-0.006427092171739786,0.003169200054067187
1782952685017092000,5.758092041015625,0.01390811384320259,-0.013635836240462959,0.005374783806945197
1782952685027020000,5.76802001953125,0.016453706672787664,0.0003892550459131598,0.00931340189750772
1782952685036946700,5.77794677734375,0.03216390150189399,-0.009910678237490355,0.0045670887198299166
1782952685046875000,5.787875,0.021387071421742437,-0.004145155247021466,0.004123450305289589
1782952685056801800,5.7978017578125,0.030216274565458296,-0.007299966016132384,0.0028091893689474088
1782952685066729700,5.807729736328125,0.026625556597113607,-0.007123330807592719,-0.002523275966499932
1782952685076657000,5.817656982421875,0.011959902384877204,-0.017579148772452025,0.005983864749153144
1782952685086584800,5.827584716796875,0.01495382350385189,-0.0005790602632798254,-0.001182040258264169
1782952685096511500,5.837511474609375,0.015105799195170402,0.007114069788902997,-0.008369257481768727
1782952685106440000,5.84743994140625,0.02647650351524353,-0.013470489610917865,-0.005218068008427508
1782952685116366600,5.85736669921875,0.026478841602802276,0.01262172729447484,-0.003759124204656109
1782952685126294500,5.86729443359375,0.024830489873886107,-0.0020701025386340916,0.0037438627034425734
1782952685136221700,5.8772216796875,0.023331191226840017,0.0032908947715535757,-0.016230597407440654
1782952685146149600,5.887149658203125,0.011654781958460807,0.0028594628180377184,-0.0031479335037525743
1782952685156076500,5.89707666015625,0.029758009403944012,0.0016084763762541114,-0.007101845061569474
1782952685166004700,5.907004638671875,0.026167291435599326,0.006097403559647501,0.00018014233987778425
1782952685175931600,5.916931640625,0.011353753185272215,-0.0033187508928589522,0.0031801918055396525
1782952685185859600,5.926859619140625,0.015697919869422913,-0.0018236352305859326,0.012789987400313839
1782952685195786800,5.936786865234375,0.014649287599325178,0.0037196233113296327,0.0063405463994480665
1782952685205714700,5.946714599609375,0.03350304115116596,-0.010967512080352753,-0.005792611926794052
1782952685215641900,5.956641845703125,0.019739304214715956,-0.019563984180428085,-0.0014214385047089308
1782952685225568800,5.96656884765625,0.021982699227333067,0.0012839753959327936,-0.013059872116567567
1782952685235496700,5.97649658203125,0.02198211470544338,0.009240122032165527,-0.006597407237347215
1782952685245423900,5.986423828125,0.03185819655358791,-0.008417827597539871,0.005903004365554079
1782952685255351800,5.996351806640625,0.01973871969282627,-0.011464483550749718,0.007180184694519266
1782952685265278700,6.00627880859375,0.029763270100951193,0.006559175852499902,0.011089106333139353
1782952685275207000,6.01620703125,0.03425473630130291,-0.006220043558627366,0.003952185391611419
1782952685285133600,6.026133544921875,0.015552373918890952,0.007621580919623374,-0.004545251347357407
1782952685295061800,6.036061767578125,0.01854629503786564,0.006551357872225344,0.0003472836342873052
1782952685304988700,6.04598876953125,0.02408347089886665,-0.012639646543655543,-0.007621622018818743
1782952685314916600,6.05591650390625,0.03755611593425274,-0.013070073850173503,-0.005644243831513449
1782952685324843500,6.065843505859375,0.0008943184912204742,-0.0018204203601926564,-0.00945936797314789
1782952685334771700,6.075771728515625,0.015707272219657897,-0.010455087312497198,-0.008099441264173947
1782952685344698600,6.08569873046875,0.015409750577807425,-0.017533117673639208,0.002698490969510749
1782952685354626600,6.09562646484375,0.032169162198901174,-0.01662595796715468,-0.003409196522133425
1782952685364553700,6.1055537109375,0.035464696612954136,-0.009573884031176566,0.00122440896211192
1782952685374481700,6.115481689453125,0.02439034489095211,-0.0011267755402252077,0.014813930975971742
1782952685384408800,6.125408935546875,0.014813538250327109,0.006662069971393793,0.00027861144540365786
1782952685394336800,6.135336669921875,0.03367079893350601,0.0011814283369109035,-0.01074340730116237
1782952685404263700,6.145263671875,0.02200140392780304,0.0005284625872038304,0.0022817451284732667
1782952685414191600,6.155191650390625,0.02140226899087429,-0.003909465061314404,0.010465553907584399
1782952685424118800,6.165118896484375,0.017362638211250305,-0.0078030019011348485,0.0013107903376221655
1782952685434046700,6.175046630859375,0.013021394136548042,-0.00620082740150392,-0.011396432416373864
1782952685443974000,6.184973876953125,0.012573650369048117,-0.004163147561438382,-0.014456847466877662
1782952685453900800,6.19490087890625,0.014217325922846793,-0.0006606923984363675,0.008520150894275866
1782952685463828700,6.204828857421875,0.029932196927070616,0.005843246135488152,0.007101429503038525
1782952685473755600,6.214755615234375,0.027238135537505148,-0.0037421639367006716,0.010555296283960342
1782952685483683800,6.224683837890625,0.018111410751938818,-0.011436079440172761,0.011683665559650398
1782952685493610500,6.234610595703125,0.014818798947334288,-0.013953103762399404,0.00761385427089408
1782952685503538700,6.24453857421875,0.018711130210757255,-0.010146733749378472,-0.009472355318884365
1782952685513465600,6.254465576171875,0.026940613895654678,-0.00413565676631406,0.010452301700366661
1782952685523393500,6.2643935546875,0.01886193685829639,-0.01957028605705127,0.00504075237987563
1782952685533320700,6.27432080078125,0.02260346147418022,-0.004653068236541003,-0.0020894876591162756
1782952685543248600,6.28424853515625,0.008389642682671547,-0.007425455559324473,0.007223900538659654
1782952685553175800,6.29417578125,0.02724281171262264,0.0005445186728611588,0.004825146000972017
1782952685563103700,6.304103759765625,0.026193010398745536,-0.008687529650703072,-0.0012964056192431598
1782952685573030700,6.31403076171875,0.018560908085107804,-0.007963544491399079,0.0004742573150899261
1782952685582958600,6.32395849609375,0.030534838995337484,0.0050876602615229785,0.007563959847716614
1782952685592885800,6.3338857421875,0.014080547800660132,0.0005461078417487443,0.0027244884938700123
1782952685602813700,6.343813720703125,0.030691490861773488,-0.011202526412624866,-0.0028957808070117605
1782952685612740900,6.353740966796875,0.021710896548628806,0.0017370163930580018,-0.002971887383679859
1782952685622668800,6.363668701171875,0.028296120157837865,-0.005926997162494808,0.0018131321028806268
1782952685632595700,6.373595703125,0.03218728237748146,-0.010467818929906935,0.01623212721082382
1782952685642523000,6.38352294921875,0.03593289864659309,-0.01017946697520092,-0.0012769291672157122
1782952685652450800,6.393450927734375,0.03084405107498169,-0.005824267440382391,0.015383291829144581
1782952685662377500,6.40337744140625,0.016032850912213324,-0.011461670539155602,0.004849088565562851
1782952685672306000,6.413305908203125,0.008851414975523948,-0.016445121507532894,-0.0019108248902717604
1782952685682232600,6.423232666015625,0.029501404294371602,-0.008792816656082869,0.010746142680943012
1782952685692160500,6.433160400390625,0.0175327340811491,-0.004859587126690894,-0.006350496971304528
1782952685702087700,6.443087646484375,0.025914777979254722,-0.009558503798954189,0.004931259556836448
1782952685712015600,6.453015625,0.023821605092287063,-0.011687624782137572,0.0028081162232905625
1782952685721942800,6.46294287109375,0.022174422407150268,-0.005953483310621232,-0.0075362087576882906
1782952685731870700,6.47287060546875,0.026959903118014335,-0.0013899930536746979,0.01187707380647771
1782952685741797600,6.482797607421875,0.015885551396012304,0.004043539769761264,0.004727759174257516
1782952685751725600,6.4927255859375,0.02950023525059223,-0.0037877566440962253,-0.006422470795549452
1782952685761652700,6.50265283203125,0.03025017683506012,-0.007145761835109442,-0.0006349688687128946
1782952685771580700,6.51258056640625,0.02681026551425457,-0.0010768719838932157,0.012070285690482706
1782952685781507800,6.5225078125,0.019025602987408637,-0.027005678488500415,0.0013617716061882675
1782952685791435800,6.532435791015625,0.018275076881051063,-0.007476729088835418,0.003732048968062736
1782952685801362700,6.54236279296875,0.019920506000518798,-0.00433055828390643,-0.004300249910610727
1782952685811290600,6.55229052734375,0.029795418804883955,0.009480305729899555,0.016072991126356646
1782952685821217800,6.5622177734375,0.030695582515001294,-0.01322917340202257,-0.0036193001754349094
1782952685831145700,6.572145751953125,0.0233668470621109,-0.00808817551806569,0.010828583100275136
1782952685841073000,6.582072998046875,0.010946341428160667,-0.001322626905888319,-0.00034600955923087893
1782952685851000800,6.592000732421875,0.024709493842720982,-0.0034458478712476787,-0.0012644624112872406
1782952685860927700,6.601927734375,0.021266075390577316,-0.009258023015037179,0.0026242201569024472
1782952685870854700,6.611854736328125,0.016029928302764892,-0.011415913434978574,0.00975802212615963
1782952685880782600,6.621782470703125,0.030544191345572468,0.009077259620651602,0.013957743404898791
1782952685890709800,6.631709716796875,0.02141571299433708,-0.007850074179563672,0.0001704931621206924
1782952685900637700,6.6416376953125,0.01887128920853138,-0.008561455585621297,0.017086109125078654
1782952685910564600,6.651564697265625,0.011686346140503883,-0.011682966873329132,-0.003763293489697389
1782952685920492500,6.661492431640625,0.03188450003862381,-0.015616981854010373,0.001293848335975781
1782952685930419700,6.671419677734375,0.027691724523901937,-0.01345242423126474,0.008397679858654737
1782952685940347600,6.68134765625,0.025447160467505454,-0.00572367487642914,-0.017711090889316983
1782952685950274800,6.69127490234375,0.022153964141011236,-0.0010793744682334363,-0.0021548399463295937
1782952685960202800,6.70120263671875,0.02140752968788147,-0.006063318626955151,-0.00785901553784497
1782952685970129700,6.711129638671875,0.03248012784421444,-0.012500676464382559,0.00886294558311347
1782952685980057600,6.7210576171875,0.02364917113482952,-0.008100925401784479,0.002624672248051502
1782952685989984800,6.73098486328125,0.018110241708159447,-0.02176067224079743,-0.0016494933732319622
1782952685999912700,6.74091259765625,0.019758008915185928,-0.006271919876337051,0.00718655963637866
1782952686009839900,6.75083984375,0.03172609460651874,-0.012323621130734682,0.013352315724501386
1782952686019767800,6.760767822265625,0.024390929412841794,-0.006218253460340202,-0.0046306006764061745
1782952686029694700,6.77069482421875,0.020350129589438437,-0.0072518160254694515,-0.001977305122069083
1782952686039622700,6.78062255859375,0.023345219752192496,-0.003588599076494574,-0.007977212257147766
1782952686049549800,6.7905498046875,0.025142040041089057,-0.009892758988309651,0.01081372345786076
1782952686059476700,6.800476806640625,0.025588614764809607,0.0020203268464654683,-0.010844310392369515
1782952686069404700,6.81040478515625,0.022891630765795708,-0.006976378351263701,-0.01014841424981132
1782952686079331600,6.82033154296875,0.014061258578300475,-0.000643028877582401,-0.0007446443548426031
1782952686089259500,6.830259521484375,0.012414660415053368,-0.007212269466370344,0.005958401514333672
1782952686099186200,6.840186279296875,0.022739070552587507,-0.011523593326844274,0.002672612176160328
1782952686109114000,6.850114013671875,0.019298574709892272,-0.011424991790577769,0.0009587026640539988
1782952686119041300,6.860041259765625,0.02214461179077625,-0.011676847659796475,-0.0005695846154587343
1782952686128969200,6.86996923828125,0.019449965879321098,-0.004904229986015707,-0.0038731151062995194
1782952686138896100,6.879896240234375,0.01331248603761196,-0.01280420772191137,0.004070277079637162
1782952686148824300,6.88982421875,0.023184476232528686,-0.00009677490536123514,-0.004699807154829614
1782952686158751200,6.899751220703125,0.028873627784848213,-0.01399080542428419,0.004047850618697703
1782952686168679200,6.90967919921875,0.027226445099711418,-0.01650667896904051,0.005490322778280824
1782952686178606300,6.9196064453125,0.019894787037372588,-0.008288903988245874,-0.00358737066721078
1782952686188534300,6.9295341796875,0.028575521621108053,-0.009853084565047174,-0.0019645643715048206
1782952686198461200,6.939461181640625,0.029327801293134687,-0.0025280754392035306,-0.01332096617158968
1782952686208389400,6.949389404296875,0.012273206117749213,-0.009319690074399114,-0.002185755674401298
1782952686218316300,6.95931640625,0.025289339557290076,-0.007773008621670305,-0.004425355861312709
1782952686228244200,6.969244140625,0.015115151545405388,0.003741762077901512,-0.0046169237775029615
1782952686238171400,6.97917138671875,0.019003975677490233,0.00572988542150706,-0.005568036790145561
1782952686248098000,6.98909814453125,0.03112052992880344,-0.006397975675109774,-0.0003329719811445102
1782952686258026200,6.999026123046875,0.02214168918132782,-0.01580835797395557,-0.01353644011975266
1782952686267953200,7.008953125,0.012263269245624542,-0.013051168220303952,-0.00007418861421756445
1782952686277881000,7.018881103515625,0.019890695384144782,-0.018135193486325443,0.006048468117695302
1782952686287808300,7.028808349609375,0.018833879807591436,-0.003649005760531872,-0.00159241572401952
1782952686297736200,7.038736083984375,0.014641104292869567,-0.004772438566200435,0.004681714375712909
1782952686307663000,7.0486630859375,0.013744447714090346,0.002463284840993583,-0.0033043753076344726
1782952686317591300,7.05859130859375,0.016734861701726913,0.0036188298179768022,0.0026083421677583827
1782952686327518200,7.068518310546875,0.027805706292390823,0.0006910327377729117,0.0030312985538737845
1782952686337446100,7.078446044921875,0.015533084696531295,-0.009829594091605394,-0.011442760342708788
1782952686347373300,7.088373291015625,0.017473112848401067,-0.01563208809159696,0.004897599315829575
1782952686357301200,7.09830126953125,0.024505495703220366,-0.013348415867518632,-0.004587670283555053
1782952686367228200,7.108228271484375,0.016574118182063103,-0.02096029737703502,0.0021292671136558055
1782952686377156400,7.11815625,0.020463526836037634,-0.0067430445194244385,0.0024764731161296366
1782952686387083300,7.128083251953125,0.026602175721526143,0.00362306760167703,0.0029499723793938756
1782952686397011200,7.13801123046875,0.022859482061862946,0.0005073650002479553,-0.0018145249089458956
1782952686406938400,7.1479384765625,0.007595277434587478,0.003269230929017067,-0.007554771894263103
1782952686416866300,7.1578662109375,0.011786299383640288,-0.00036974662784487007,-0.02032115465670358
1782952686426793200,7.167793212890625,0.025255437287688254,-0.010017627476993947,-0.012168572132918052
1782952686436721400,7.177721435546875,0.019265256962180136,-0.009442677133250981,0.0004653387896949425
1782952686446648300,7.1876484375,0.025099369943141936,0.011116985287331044,-0.012607694202545098
1782952686456575200,7.1975751953125,0.036765842339396476,0.00438051663916558,-0.010622835961682722
1782952686466503200,7.207503173828125,0.01506838979423046,-0.006086096714343875,-0.002524253214034252
1782952686476430000,7.21743017578125,0.018059388303756713,-0.00871249969517812,0.004689276627660729
1782952686486358300,7.227358154296875,0.01776420474946499,0.00046228374950587747,-0.000559172819298692
1782952686496285200,7.23728515625,0.030030981126427648,-0.011412972559221088,-0.011521483568148687
1782952686506213000,7.247213134765625,0.030479893937706944,-0.0015494396653957664,-0.00858988252908457
1782952686516140300,7.257140380859375,0.014022680133581161,-0.00537498930292204,-0.0045200073082465675
1782952686526068200,7.267068115234375,0.020906009906530378,-0.01015961149726063,-8.676496800035238e-8
1782952686535995100,7.2769951171875,0.023744448202848434,-0.0035479382725432515,-0.007458015255210921
1782952686545923300,7.28692333984375,0.011326280656456947,0.010140431872755288,-0.00199806021573022
1782952686555850200,7.296850341796875,0.016110007801651952,-0.0013828691931441425,-0.005935673659294843
1782952686565778200,7.306778076171875,0.026285364857316015,-0.007087784570176154,0.00331784214398358
1782952686575705300,7.316705322265625,0.021943536260724067,0.015420637298002839,0.000862220019637607
1782952686585633300,7.32663330078125,0.008628712135553359,0.00875224718367681,-0.00508043136971537
1782952686595560200,7.336560302734375,0.03241992208957672,0.005053776258230209,-0.005528248202451505
1782952686605488400,7.34648828125,0.014312602990865706,-0.005552830087859183,0.00024460871110204606
1782952686615415300,7.356415283203125,0.014909984362125395,-0.0049354288418777285,0.0017807276706211267
1782952686625343200,7.36634326171875,0.040349546045064924,-0.023382464756350963,-0.013057287433836608
1782952686635270400,7.3762705078125,0.01341185475885868,-0.0008391542378813028,-0.0021495107506634666
1782952686645197000,7.386197021484375,0.02643149532973766,-0.0055104705171659584,0.0002851507840445265
1782952686655125200,7.396125244140625,0.03391337551772594,-0.006093604167364537,-0.0031206527711823582
1782952686665052200,7.40605224609375,0.01056932480931282,-0.0039994448997080325,-0.018752174607198684
1782952686674980000,7.41597998046875,0.01819675094783306,0.01199342106198892,-0.005008115052175708
1782952686684907300,7.4259072265625,0.012356792747974394,-0.0006171820502728223,-0.014150589962722733
1782952686694835200,7.435835205078125,0.017290742018818854,0.004894110450800508,-0.019704424697579815
1782952686704762000,7.44576220703125,0.01818447598814964,-0.00239933449300006,-0.017423031195555813
1782952686714690300,7.455690185546875,0.025213936233520508,-0.00915366759141907,-0.01098989287551958
1782952686724617200,7.4656171875,0.016381810480356217,-0.01366743695512414,0.0037492055988404896
1782952686734545200,7.475545166015625,0.016828385204076767,-0.016719280540104953,0.006493220777087845
1782952686744472300,7.485472412109375,0.018620529317855832,-0.011505089555773883,0.0030840059886453673
1782952686754400300,7.495400146484375,0.023862521624565123,-0.002701002587005496,-0.0086464532882208
1782952686764327200,7.5053271484375,0.017426351097226143,-0.006818703571520745,-0.008477768490696326
1782952686774255400,7.51525537109375,0.00785012897849083,-0.008041669495217502,-0.009116112060006707
1782952686784182300,7.525182373046875,0.01966682350039482,-0.003409260454215109,-0.0018212834432953968
1782952686794110200,7.535110107421875,0.015326163947582244,-0.008313526972848921,-0.006251822369801811
1782952686804037400,7.545037353515625,0.00829495013654232,-0.01395083874007687,-0.016225615271646527
1782952686813965300,7.55496533203125,0.011589900028705595,0.0068830557783134275,-0.0020918668458703906
1782952686823892500,7.564892578125,0.021613281393051145,0.0008147504489868879,0.0026267637404380367
1782952686833820400,7.5748203125,0.02460778703391552,0.0011839673538692295,0.0091349628909491
1782952686843747000,7.5847470703125,0.028650340422987936,-0.003672678897064179,-0.014475748530169948
1782952686853674200,7.59467431640625,0.027606968849897384,-0.005008329681307077,-0.004455111678759567
1782952686863602200,7.604602294921875,0.02177519395649433,-0.0006469196014106273,-0.008770819453406147
1782952686873529000,7.614529052734375,0.014891864183545113,0.004916687608789653,0.009059605232952163
1782952686883457300,7.624457275390625,0.009203297153115271,0.00410022012675181,0.003217327211843803
1782952686893384200,7.63438427734375,0.024016250881552695,-0.008136069780401885,0.010486541896685957
1782952686903312100,7.64431201171875,0.023419454032182693,-0.00853602888341993,-0.002396370784356259
1782952686913239300,7.6542392578125,0.03419453054666519,-0.006195256177242845,0.00013524831880349665
1782952686923167200,7.664167236328125,0.01743336535990238,0.009123327252082526,-0.003834226134326309
1782952686933094100,7.67409423828125,0.03240063286721706,-0.0020673991248942912,-0.006485484995204024
1782952686943022300,7.684022216796875,0.01788344721496105,-0.0034747269058600064,0.00956591078727506
1782952686952949200,7.69394921875,0.01833177550435066,0.00046758097913116215,-0.00018835761237423867
1782952686962877200,7.703877197265625,0.03838379893004894,-0.008975571078155189,-0.0036204829189460724
1782952686972804400,7.713804443359375,0.010697335103154182,-0.01709039714112878,0.0020876792945200575
1782952686982732300,7.723732177734375,0.021769348737597463,-0.015261884806025772,-0.011150869290623814
1782952686992659500,7.733659423828125,0.01009352399110794,-0.010347918877284973,-0.00807489134480711
1782952687002587400,7.74358740234375,0.022664251750707624,-0.011105970702972262,-0.007610027479147538
1782952687012514300,7.753514404296875,0.016681670209765433,0.003460716646816581,-0.002505320184701122
1782952687022442200,7.763442138671875,0.023413608813285827,-0.008157624025084078,-0.001619623391353525
1782952687032369200,7.773369140625,0.013684826481342316,-0.008821239032968877,-0.0017914362943032755
1782952687042296000,7.783296142578125,0.030740006178617475,0.002242828757036477,0.0003712901309598237
1782952687052224300,7.793224365234375,0.027900983360409734,-0.002691431041061878,0.011617144228657707
1782952687062151200,7.803151123046875,0.01622515861392021,-0.0001264393912628293,-0.012689522700523957
1782952687072079000,7.8130791015625,0.03134147920310497,-0.003057780135422945,0.002357732974132523
1782952687082006300,7.82300634765625,0.01308686058819294,-0.013103099336940795,0.002456033116299659
1782952687091934200,7.832934326171875,0.00949964975118637,-0.00655544952545315,-0.014774407249758951
1782952687101861000,7.842861083984375,0.016533786171674728,-0.006730714760813862,-0.0025958891115617005
1782952687111789000,7.8527890625,0.012642623952031135,-0.0034066301057115197,-0.008556852475740015
1782952687121716000,7.862716064453125,0.01982756702005863,-0.0024205964767374097,-0.0037133305678609756
1782952687131644000,7.872643798828125,0.02431318800151348,-0.004085132155474275,-0.0010961749059846624
1782952687141571000,7.882571044921875,0.02192073990702629,-0.009232815508544445,-0.00017351623626891524
1782952687151499000,7.8924990234375,0.0204214412599802,-0.008528758892416954,-0.0017098680912284179
1782952687161426200,7.90242626953125,0.02790215240418911,-0.014060655790101736,-0.0016463104688795283
1782952687171354000,7.91235400390625,0.02580722595155239,-0.010435469296574592,-0.005396794709353708
1782952687181280800,7.92228076171875,0.01922200234234333,0.0002462663786485791,-0.008317266999627463
1782952687191209000,7.932208984375,0.019368717336654663,0.000648928895406425,-0.0008303270440315827
1782952687201135900,7.942135986328125,0.02326046407818794,-0.0031437779184430837,-0.002958712808275595
1782952687211062800,7.952062744140625,0.012637363255023955,0.006231989724747836,-0.016648877618438564
1782952687220991000,7.961990966796875,0.01967149967551231,-0.006488229508139193,-0.01652258892422542
1782952687230918000,7.97191796875,0.03777589616477489,0.00582992999618873,-0.004233285621623509
1782952687240845800,7.981845703125,0.02131809783875942,-0.008800689435284585,-0.0027652040967484936
1782952687250773000,7.99177294921875,0.011736030501127242,0.00830859506940469,0.00929853768851608
1782952687260701000,8.001700927734374,0.029991233637928962,-0.004390088185109198,-0.017491264993022195
1782952687270628000,8.011628173828125,0.023109657430648804,-0.013702654398977755,-0.011114131176541558
1782952687280556000,8.02155615234375,0.014873744004964828,-0.00826775160236284,0.012112604161980562
1782952687290483000,8.03148291015625,0.007392448338866233,-0.00379352879775688,0.01789451659824699
1782952687300411000,8.041410888671875,0.025653496694564817,0.0021656353349797427,-0.00629144199413713
1782952687310338000,8.051338134765626,0.012335749959945679,0.011117204483039676,-0.002227759052067995
1782952687320266000,8.061265869140625,0.017872341299057005,0.004506188845448195,-0.006060802442883141
1782952687330193200,8.071193115234376,0.025054946279525755,-0.007333338562771677,0.0010519613049225882
1782952687340121000,8.08112109375,0.026699790877103804,-0.011009067933447659,0.006631793564138934
1782952687350048000,8.091048095703124,0.02849427307844162,0.00040706469723954795,-0.01052004230748862
1782952687359976000,8.100975830078125,0.03148994776308536,0.005252879026904702,-0.008876544850203208
1782952687369902800,8.11090283203125,0.017421674922108648,0.0017136903163976966,0.00014405724634416401
1782952687379831000,8.1208310546875,0.029991818159818648,-0.011761438937019556,-0.0053030200452543795
1782952687389758000,8.130758056640625,0.024458149430155753,0.0011581570591777562,0.00038344179305713623
1782952687399684900,8.140684814453126,0.020714871248602867,0.009203954740241169,0.005346767855435609
1782952687409612800,8.15061279296875,0.019669161587953565,-0.0005575060185976326,0.00018074056149926034
1782952687419540000,8.1605400390625,0.009343582406640053,-0.003524045940302312,-0.0030633833257248623
1782952687429468000,8.170468017578125,0.014129647639393806,0.0007625636040233076,-0.007035163900372572
1782952687439395000,8.18039501953125,0.02699965060651302,-0.003911437822692096,0.006860003696288913
1782952687449323000,8.190322998046875,0.02535188339948654,-0.0006937544178217649,-0.008146641406766138
1782952687459250000,8.20025,0.016375380739569664,0.00015036825612187385,-0.00244047935414128
1782952687469177900,8.210177734375,0.025650574085116385,-0.0018660861328244208,-0.019193890492711214
1782952687479105000,8.22010498046875,0.03807107971906662,-0.0038271570727229118,-0.02307177310567349
1782952687489033000,8.230032958984374,0.027295418682694434,-0.009774119311012327,0.003493038880685344
1782952687498960100,8.239960205078125,0.02594575763940811,-0.0026177082177251576,-0.006484781742305494
1782952687508888000,8.24988818359375,0.02085807911157608,-0.00024049422498792408,0.006200955265667289
1782952687518815000,8.25981494140625,0.016070844835042952,-0.004027063558995724,0.006304041180806234
1782952687528743000,8.269742919921875,0.02459843468368053,0.0028916297882795334,-0.0004967888073064387
1782952687538670000,8.279670166015626,0.03417407228052616,-0.013665592057909817,-0.010772058006911538
1782952687548598000,8.289597900390625,0.02594458859562874,-0.008596892225183545,0.007041858502640388
1782952687558525000,8.29952490234375,0.021751813080906866,0.00784797355402261,-0.008219327617064117
1782952687568453000,8.309453125,0.026988544690608976,0.001010364352632314,-0.005173571279575117
1782952687578379800,8.3193798828125,0.01651274338364601,-0.003409516182541847,-0.008909246109984814
1782952687588307000,8.329306884765625,0.026238018584251403,0.002014372029714286,-0.0007936208959901705
1782952687598235000,8.33923486328125,0.01815758798122406,0.002127440482750535,-0.012963960294309072
1782952687608162000,8.349162109375,0.012471943560242652,0.0020833456126973034,-0.004991058886097743
1782952687618090000,8.359090087890625,0.024444120904803274,0.009671316523663698,-0.0009687537006102502
1782952687628017000,8.369016845703126,0.011723755541443824,-0.002997501315549016,-0.009305077027156949
1782952687637944800,8.37894482421875,0.006482347756624221,-0.014049696004670112,-0.0012727324827108532
1782952687647872000,8.3888720703125,0.020992519146203995,-0.00298476969813928,0.0007474117006640881
1782952687657800000,8.398800048828125,0.02114507935941219,-0.00025998437674716113,0.009391851128311828
1782952687667727000,8.40872705078125,0.026385318100452422,-0.01412635970376432,0.008635931894206441
1782952687677655000,8.418655029296875,0.020401567515730856,-0.008632949919253587,-0.011689122619479894
1782952687687582000,8.42858203125,0.021447277176380158,0.0027703414961695668,-0.010087455009925179
1782952687697510000,8.438510009765626,0.022642039918899536,0.006174706579558551,0.007697404368501156
1782952687707437000,8.44843701171875,0.02742985871732235,0.00005828779218718409,-0.0018005009501706809
1782952687717365000,8.458364990234376,0.026978023296594617,-0.012721004684176295,-0.004333690955908969
1782952687727292200,8.468292236328125,0.01440963362455368,-0.008257157143112271,-0.006563431902509183
1782952687737220000,8.47822021484375,0.014106266763806342,-0.003803118610009551,-0.006315649420209229
1782952687747146800,8.488146728515625,0.030859833166003225,0.00024613851448521015,-0.016698822273965925
1782952687757075000,8.498074951171875,0.019783727878332137,0.0033426614914089437,-0.003691762623446993
1782952687767001900,8.508001953125,0.024873159971833227,-0.0007833689300343394,-0.005863476072764023
1782952687776929000,8.517928955078125,0.02921265048086643,0.00040101854894310235,-0.0014121135539375245
1782952687786857000,8.52785693359375,0.02547346395254135,-0.002765683587361127,0.004107750412658788
1782952687796783900,8.537783935546875,0.014694880306720733,0.0054488947893492875,-0.005832843472482636
1782952687806711800,8.5477119140625,0.029203298130631446,-0.004202858517318964,-0.004464824788598344
1782952687816639000,8.557638916015625,0.031744799306988716,-0.0048644094322808085,-0.0037270211664959785
1782952687826567000,8.56756689453125,0.002720364874601364,0.0021322993209585547,0.00524120228884276
1782952687836494000,8.577494140625,0.020676292803883552,0.009767470374517142,-0.006646475110040046
1782952687846422000,8.587422119140625,0.02830722607374191,0.013528740870486944,0.007541898712958209
1782952687856349000,8.597348876953125,0.0378846172362566,0.016479772695805875,0.01600649262825027
1782952687866276900,8.60727685546875,0.04118132069408893,-0.0032906573095358906,0.0061761861505918204
1782952687876204000,8.6172041015625,0.026815526211261747,-0.006918364553712308,-0.0116490783034591
1782952687886132000,8.627132080078125,0.008555646899342536,-0.016021690197382123,-0.003444637728272937
1782952687896059100,8.63705908203125,0.029355273821949957,0.004793499620538205,-0.005924019754119217
1782952687905987000,8.646987060546875,0.027409400451183317,0.01498635580027476,-0.003520863035949878
1782952687915914000,8.6569140625,0.02501344522535801,0.007112115293834358,0.002874879582878202
1782952687925842000,8.666842041015625,0.017381927433609962,-0.0030795901084318756,-0.0015509420693153515
1782952687935769000,8.67676904296875,0.029652210941910742,0.011405592970363795,0.010651048276014626
1782952687945696000,8.686696044921876,0.017831424766778944,-0.0023435857177712023,0.011651827382971531
1782952687955624000,8.6966240234375,0.019926351219415665,-0.020041410700138658,-0.013307937726657837
1782952687965550800,8.70655078125,0.005413257220387459,-0.012623572191689162,-0.00709595874347724
1782952687975478800,8.716478759765625,0.023674305576086043,-0.005925426259916275,-0.002323136584786698
1782952687985406000,8.726406005859374,0.02816518725454807,-0.00928679245179519,0.017809139869734644
1782952687995334000,8.736333984375,0.027412907582521438,-0.0055724663700908415,0.006122337071504443
1782952688005261000,8.746260986328124,0.017381927433609962,0.0157288995295763,0.008902533241407945
1782952688015189000,8.75618896484375,0.018277999490499495,-0.008422321109566836,-0.005227872449811548
1782952688025116000,8.766115966796875,0.01872515873610973,-0.013599029627721755,-0.004742057127668522
1782952688035043800,8.7760439453125,0.013183891221880913,-0.010496971959155053,-0.015259268157253971
1782952688044971000,8.785970947265625,0.011386486411094665,0.001081566425319761,-0.02415765037992969
1782952688054899000,8.79589892578125,0.02335457210242748,-0.002716565482318401,-0.000181352482852526
1782952688064826000,8.805826171875,0.01812310118973255,-0.0036629064217209815,-0.004277444423758424
1782952688074754000,8.815754150390624,0.016623218020796776,0.0028911183316260576,0.02193577764595393
1782952688084681000,8.825680908203125,0.027398879057168958,0.0038832163752056657,0.02237195883982349
1782952688094609000,8.83560888671875,0.02919569934606552,0.003065415452606976,-0.004242341144336388
1782952688104536600,8.84553662109375,0.018866028511524198,0.00048754605492576955,0.008198910450120457
1782952688114464500,8.855464599609375,0.023348726883530617,-0.006347341466415673,0.0029332587066106496
1782952688124391700,8.8653916015625,0.018560323563218115,-0.0024389723836444315,-0.008983731551724486
1782952688134318600,8.875318603515625,0.023648002091050148,-0.012792992208153008,-0.012859116246923803
1782952688144246500,8.88524658203125,0.020058453166484833,-0.0017796316920779644,-0.00625883663247805
1782952688154173700,8.895173583984375,0.027992168775200842,-0.0009823803671635686,-0.0010693371314089745
1782952688164101600,8.9051015625,0.014821721556782722,-0.004188099339604377,-0.0012920947703067213
1782952688174028300,8.9150283203125,0.023355741146206855,-0.010759075227752327,-0.0028991463744547216
1782952688183956500,8.92495654296875,0.023951368951797485,-0.0009521496256813406,-0.012202291739429346
1782952688193883400,8.93488330078125,0.025296938341856,-0.000436674384213984,-0.006013520101900212
1782952688203811300,8.944811279296875,0.020959201398491858,-0.005745265653729438,-0.010389383398834615
1782952688213738500,8.954738525390624,0.02994038023352623,-0.007159881692007183,-0.0004269384414888918
1782952688223666400,8.96466650390625,0.02171148107051849,-0.004070500841923058,-0.005410626871883869
1782952688233593300,8.97459326171875,0.017371406039595604,-0.0006123049457557499,0.0009841065333690494
1782952688243521500,8.984521484375,0.023205519020557404,0.0009020086073316633,-0.010186896796408109
1782952688253448400,8.994448486328125,0.03128828771114349,-0.017577669201418757,-0.0009446832718560472
1782952688263376400,9.00437646484375,0.020813070926070213,-0.0008133622094988822,-0.0049060109511483456
1782952688273303600,9.014303466796875,0.025447160467505454,-0.0048848311658017335,-0.015156465369905345
1782952688283231500,9.0242314453125,0.02200432653725147,0.004869286536797881,-0.006413237176323309
1782952688293158700,9.03415869140625,0.018116671448946,0.0034451902841217815,-0.018474640874029138
1782952688303085600,9.04408544921875,0.011831307569146155,-0.0023583996944129466,-0.000279392330115661
1782952688313013500,9.054013427734375,0.021701544198393822,0.0038257140343077476,-0.0019068017357029019
1782952688322940700,9.063940673828125,0.025894904235005376,0.002211629901174456,-0.014627463926584459
1782952688332868600,9.07386865234375,0.01362578977048397,0.003998969975672662,-0.005543779131723567
1782952688342795500,9.08379541015625,0.01976560769975185,-0.00511177178947255,0.000544367975811474
1782952688352723700,9.0937236328125,0.03068973729610443,-0.0036075412389822304,0.0076868099092505865
1782952688362650400,9.103650390625,0.020067805516719817,0.002025624076090753,-0.004031063880678266
1782952688372578600,9.11357861328125,0.020514964762330053,-0.005834021649416536,0.0003261358149815351
1782952688382505500,9.12350537109375,0.013483166429400444,0.0014427096216008066,-0.0047561587182572106
1782952688392433400,9.133433349609374,0.033684827458858486,0.009365629841666669,-0.023894003608217463
1782952688402360300,9.1433603515625,0.025005261918902396,0.0016223222385160624,-0.02036930008078925
1782952688412288500,9.15328857421875,0.018870120164752004,-0.0036278716409578918,0.0027806025952799244
1782952688422215400,9.16321533203125,0.015730068573355675,-0.0041611017348244786,0.0036063858949346465
1782952688432143400,9.173143310546875,0.03877425955235958,-0.00780895671788603,-0.01333113137257751
1782952688442070500,9.183070556640626,0.026944705548882484,0.012042466101795435,0.002853343604505062
1782952688451998500,9.19299853515625,0.028583704927563666,-0.004010660413466394,-0.006206923782150261
1782952688461925600,9.202925537109374,0.03726210142374038,-0.008645571938809007,-0.004294253994664177
1782952688471852500,9.2128525390625,0.012876432707905769,0.010361618609074502,-0.0050528720759321
1782952688481780500,9.222780517578125,0.021259645649790763,-0.004070354711450636,-0.006681733653089031
1782952688491707600,9.232707763671876,0.012280220380425453,0.0016463607012294232,0.0005251335523789748
1782952688501635600,9.242635498046875,0.025000585743784904,0.008506985452026128,0.003225131492386572
1782952688511562500,9.2525625,0.035026889717578884,-0.004955375651363283,0.003082626882311888
1782952688521490700,9.26249072265625,0.032331659284234045,-0.005020221048500389,0.002712903087353334
1782952688531417600,9.27241748046875,0.03083528324663639,-0.0010050305903889238,0.0016094901564065367
1782952688541345500,9.282345458984375,0.027245734322071075,-0.006402633583918214,0.007582422519591636
1782952688551272400,9.2922724609375,0.02126023017168045,-0.002962722263112664,0.005975626643770374
1782952688561200600,9.30220068359375,0.023656185397505757,0.012244509746227412,-0.001069738990208134
1782952688571127300,9.312127197265625,0.019161212065815926,-0.005091441387496888,-0.0007043032112997024
1782952688581053400,9.322053466796875,0.026342063480615616,0.0014084602921269832,0.0035047019190154968
1782952688590980600,9.331980712890624,0.01063245317339897,0.006246657570917159,0.0028467038011644034
1782952688600908500,9.341908447265626,0.014819967991113661,-0.007700253912713379,0.007037342157727107
1782952688610835500,9.35183544921875,0.029930443361401556,0.00542447273414582,0.009148338395752943
1782952688620763600,9.361763671875,0.016759996142983437,-0.005751804992370307,-0.014164979247679002
1782952688630690600,9.371690673828125,0.029775545060634612,0.000002703413739800453,-0.009927812035381794
1782952688640618500,9.381618408203124,0.024534137275815007,0.0023838081303052604,0.006371608257992193
1782952688650545700,9.391545654296875,0.023635142609477043,0.010077358307596295,-0.0018251878668554126
1782952688660473600,9.4014736328125,0.012710428491234778,0.0008520502520725131,-0.0096623751653824
1782952688670400500,9.411400390625,0.022438626301288605,-0.011469123193249105,-0.0046608314178884025
1782952688680328700,9.42132861328125,0.02467968322634697,-0.0010533449778333305,-0.007680106173828243
1782952688690255400,9.43125537109375,0.015550620353221892,-0.011937434824742375,-0.017859445284865796
1782952688700182500,9.4411826171875,0.018840894070267677,-0.0007858348817564546,0.014255931767029687
1782952688710110500,9.4511103515625,0.020336101064085958,-0.006441486023273319,0.0026856406210921703
1782952688720037400,9.461037353515625,0.013003858479857444,0.010741649168916047,0.0064759225824149325
1782952688729965600,9.470965576171874,0.018688333857059477,0.018112342333700508,-0.006061610727058723
1782952688739892500,9.480892578125,0.03664367726445198,-0.0005621456610970199,0.0037790892804507163
1782952688749820400,9.4908203125,0.018984686455130576,0.00020770620023831724,-0.005792027404904365
1782952688759747600,9.50074755859375,0.009557517418265342,0.003945212228130549,-0.007177262085070833
1782952688769675500,9.510675537109375,0.026763503763079642,0.000561889932770282,0.0011922830910654739
1782952688779602400,9.5206025390625,0.012992168042063712,-0.00033624621704220767,0.0011094773455522953
1782952688789530600,9.530530517578125,0.01283843878507614,0.01579836630290374,-0.00033065215989481654
1782952688799457500,9.54045751953125,0.021065584382414817,0.014372936609666794,0.001103645826387219
1782952688809385500,9.550385498046875,0.014335399344563484,0.004376260589156299,-0.002073431573458947
1782952688819312600,9.560312744140624,0.014334814822673797,-0.0032224143789149817,-0.005170680636167526
1782952688829240600,9.570240478515625,0.026458383336663244,0.0014421068334020673,-0.0224761407335056
1782952688839167500,9.58016748046875,0.023917466682195663,-0.009611019437480717,-0.009133816680056042
1782952688849095700,9.590095703125,0.025265374159812927,-0.005460640026070177,0.003237246621865779
1782952688859022600,9.600022705078125,0.022868249890208244,-0.0082354019690305,-0.0017540953920222818
1782952688868949500,9.609949462890626,0.02765899129807949,0.010707600768841802,-0.012302678807405754
1782952688878877400,9.61987744140625,0.02751344534754753,-0.0016726459199562667,-0.004172878937586211
1782952688888804400,9.629804443359374,0.015690321084856986,-0.004174417874123901,-0.0006493307542055845
1782952688898732500,9.639732666015625,0.0219768540084362,-0.0032063582932576537,-0.018328259239858015
1782952688908659500,9.649659423828124,0.029608371800184247,0.0004398344556801021,-0.00646696295782458
1782952688918587400,9.65958740234375,0.03080897976160049,-0.0012748970403335988,-0.012262785188434645
1782952688928514600,9.6695146484375,0.0315583368241787,0.003934636035189032,-0.005394264825549907
1782952688938442500,9.6794423828125,0.025121581774950025,0.003708992319460958,0.003823759539239108
1782952688948371500,9.689371337890625,0.011206453669071198,-0.019359748578909784,0.007884213911183179
1782952688958299400,9.69929931640625,0.008213117071986197,-0.0022787037880159914,-0.005108876579487696
1782952688968226600,9.7092265625,0.02556581841111183,0.0009058810648508369,-0.003266933940653689
1782952688978154500,9.719154541015625,0.022720365852117536,0.0051715939516201615,-0.0005555104243336245
1782952688988081400,9.729081298828126,0.030048516783118245,0.007251633362378925,-0.011051683232467621
1782952688998008600,9.739008544921875,0.012095511463284492,0.002644267431087792,-0.0035727393536595627
1782952689007936500,9.7489365234375,0.018531681990623473,-0.004736234741657972,-0.006766530426288954
1782952689017863400,9.758863525390625,0.00910451295375824,0.002312185932509601,-0.003137156381411478
1782952689027791600,9.76879150390625,0.02062719296514988,0.0018963534069247542,-0.015504374625277704
1782952689037718500,9.778718505859375,0.025414427241683003,-0.007475888838618994,0.0028028052939334885
1782952689047646500,9.788646484375,0.025265958681702613,0.008506839321553706,0.0052688803136348725
1782952689057573600,9.79857373046875,0.023615853387117386,0.00833288926044479,0.005992481880448758
1782952689067501600,9.80850146484375,0.026605098330974578,0.0036920046520419417,-0.0047016155194258315
1782952689077428500,9.818428466796876,0.028549218136072158,-0.007048950397130101,-0.017981240467051976
1782952689087356700,9.828356689453125,0.025108137771487234,-0.006570884556602687,-0.00032476127522531895
1782952689097282800,9.83828271484375,0.016277765583992004,0.003366973948758095,0.0017858102711150422
1782952689107210800,9.848210693359375,0.01657762531340122,0.005156834773905575,-0.011598982950882054
1782952689117138000,9.858137939453124,0.02779927655160427,0.0006981017993763089,-0.01673080658111721
1782952689127065900,9.86806591796875,0.02211597021818161,0.0018085655256174504,-0.008445016998564824
1782952689136993000,9.877992919921875,0.023164017966389654,0.008215948349889368,-0.00006857629076112061
1782952689146921000,9.8879208984375,0.01777589518725872,-0.004575692151393741,-0.008729286433197557
1782952689156847900,9.897847900390625,0.034683190846443175,-0.002564717655163258,0.00027324115054216236
1782952689166775000,9.907775146484376,0.025258359897136685,0.004386964646261185,0.0024847340543987227
1782952689176703000,9.917702880859375,0.017477789023518563,0.005569050570297986,0.0020849621810484676
1782952689186630000,9.9276298828125,0.029451719933748243,-0.003932517143338919,-0.0005290653754025697
1782952689196558000,9.93755810546875,0.03483984271287918,-0.0027511801379732784,0.0006023498073220253
1782952689206485000,9.947485107421874,0.022416414469480513,0.0024559965836815534,0.0028613077152520416
1782952689216413000,9.957412841796875,0.030644729110598564,-0.0022568207497708497,-0.0037665220598224547
1782952689226340000,9.967340087890625,0.029750995141267774,0.0015310637584887445,-0.00583205802119337
1782952689236268000,9.97726806640625,0.01598375107347965,-0.004707008647173643,0.0015369957423536106
1782952689246195200,9.9871953125,0.029151860204339027,-0.00034594562714919446,-0.002950830895919353
1782952689256123100,9.997123046875,0.023164017966389654,0.007991181416995823,-0.0021335870957467705
1782952689266049800,10.0070498046875,0.026158523607254028,-0.003556103312689811,-0.015260245404788292
1782952689275977700,10.016977783203124,0.008499532797932625,-0.00004385740803554654,-0.009828297183662653
1782952689285905000,10.02690478515625,0.014489128601551056,0.010146350156888365,0.0006772736404789611
1782952689295832800,10.036832763671875,0.013895254361629486,0.008620053905062377,0.00435238195664715
1782952689305760000,10.046760009765626,0.027062194448709487,0.012697313281334936,-0.0037572245085146275
1782952689315688000,10.05668798828125,0.01703530595302582,0.013614665588270873,0.00076239464066457
1782952689325614800,10.06661474609375,0.00566284806728363,-0.006569587648659944,0.003213125960761681
1782952689335543000,10.07654296875,0.021676994279026984,-0.013677666088193654,-0.0011382011165376753
1782952689345470000,10.086469970703124,0.031104747837781905,-0.01248900429289788,0.00038620457230135796
1782952689355396900,10.09639697265625,0.024368717581033705,-0.005967767564300447,0.0006296579393558204
1782952689365325000,10.106324951171874,0.009852116450667381,-0.005605382259003817,-0.00654768634410575
1782952689375252000,10.116251953125,0.026314590951800346,-0.008253850941173731,0.00037671522474847733
1782952689385180000,10.126179931640625,0.028262802410125732,-0.008523224200773984,-0.0147422448460944
1782952689395107000,10.136107177734376,0.018535189121961594,-0.00026508067697286606,-0.0011855199901387094
1782952689405035000,10.146034912109375,0.025416765329241753,0.001316909551154822,0.009280065883486531
1782952689414962200,10.155962158203126,0.01703647499680519,0.001369242526590824,0.012422647358686662
1782952689424890000,10.16589013671875,0.011352584141492842,0.006683697281312197,-0.00010196710370946675
1782952689434817000,10.175817138671874,0.018389058649539946,-0.00032433658353984355,0.008713234914117492
1782952689444745000,10.185744873046875,0.018387305083870886,0.0022701186227612196,0.00464778927322477
1782952689454672000,10.195671875,0.023175708404183388,0.001966660430468619,-0.004952845767559483
1782952689464599800,10.205599853515626,0.020330255845189094,-0.0015348448844626544,0.008371700600604525
1782952689474527000,10.21552685546875,0.0192886378377676,0.018006288143340498,-0.003183096148679033
1782952689484455000,10.225454833984376,0.0025298107385635375,-0.012540734480135141,-0.0012458673086715862
1782952689494381800,10.2353818359375,0.028567922836542126,0.006141206168755888,0.004770438405359164
1782952689504310000,10.24531005859375,0.02961830867230892,-0.004852536331396549,-0.012423656572261825
1782952689514237000,10.25523681640625,0.011509820529818535,0.005999094284325838,-0.002988970949221402
1782952689524163800,10.265163818359374,0.014949147328734397,0.0032051161842420696,0.004236792752961628
1782952689534092000,10.275092041015625,0.01629237863123417,-0.004882894937042147,-0.000367362874513492
1782952689544019000,10.28501904296875,0.015994856989383698,-0.00912875234587118,-0.012008088908158241
1782952689553947000,10.29494677734375,0.01973988873660564,0.0046545660738833245,-0.013598422272945753
1782952689563874000,10.3048740234375,0.01375730719566345,0.00409731578361243,-0.019191739634820258
1782952689573802000,10.314802001953124,0.015707856741547583,0.004959796098154038,-0.013970675951708107
1782952689583729200,10.324729248046875,0.02034954506754875,0.0024931137236766515,0.010208300344040617
1782952689593657000,10.334656982421874,0.009581482815742491,-0.0002466682374477386,0.00017681787163019178
1782952689603584000,10.344583984375,0.023653262788057326,0.002557173669524491,-0.004427602617326192
1782952689613512000,10.354511962890625,0.020066051951050757,-0.0036986353222280737,0.004292221867782064
1782952689623439000,10.364439208984376,0.02500409287512302,0.0063079958367161446,-0.005471946871373802
1782952689633367000,10.374366943359375,0.021713234636187552,0.010179978431854397,0.0007254966963781043
1782952689643294000,10.3842939453125,0.025007015484571456,0.0009752017077058553,-0.004879597868258133
1782952689653222000,10.394221923828125,0.03324585151970386,-0.012343129548802971,-0.010238658949686215
1782952689663148800,10.404148681640624,0.029056583136320112,0.004536839712038636,-0.006998165491386316
1782952689673077000,10.414076904296875,0.022775310909748075,0.00041859073825180527,-0.0007121942568104714
1782952689683004000,10.42400390625,0.024272855991125105,0.011317531094420701,0.009954969470365903
1782952689692930800,10.433930908203125,0.01783902355134487,0.004427534118667245,0.0010510662557790054
1782952689702859000,10.44385888671875,0.026665304085612296,-0.005491875414550304,0.005062457321607507
1782952689712786000,10.453785888671876,0.029507834035158154,0.002870842728577554,-0.005386661474406719
1782952689722713900,10.4637138671875,0.023519407275319097,-0.0024283048591576513,-0.011559705819841474
1782952689732641000,10.47364111328125,0.03010638445019722,-0.003709375911951065,0.002819290637853555
1782952689742569000,10.48356884765625,0.02157645651400089,-0.009218165928684175,-0.0020491693484596908
1782952689752496000,10.49349609375,0.02636661339998245,-0.0019488507791422306,0.013026316906837745
1782952689762424000,10.503424072265625,0.017390110740065575,-0.0029187369909137485,0.019557211946346797
1782952689772351000,10.51335107421875,0.019635843840241432,0.001512833982054144,-0.004925670066266321
1782952689782279000,10.52327880859375,0.019932196438312528,0.004772292435728014,0.012067363081034272
1782952689792206000,10.5332060546875,0.018732757520675658,-0.007316697955224663,0.0007956347565632313
1782952689802134000,10.543134033203126,0.020232640689611434,0.00947425958160311,-0.0053037689639255405
1782952689812061200,10.553061279296875,0.02846680054962635,0.002769519512262195,-0.004505796119803562
1782952689821989000,10.562989013671874,0.02847030768096447,0.003738857734762132,-0.01588587105642073
1782952689831915800,10.572915771484375,0.005427870267629623,-0.01262821183418855,0.004085474648769014
1782952689841843000,10.582843017578124,0.018894085562229157,-0.002250244878511876,-0.008170730101829395
1782952689851771000,10.59277099609375,0.014556348618865012,0.001583360201306641,0.004155781672312878
1782952689861697800,10.60269775390625,0.032364392510056496,-0.015669442693609745,0.004411295369919389
1782952689871626000,10.6126259765625,0.023527006059885024,-0.008422595104202627,-0.004949589797970839
1782952689881553000,10.622552978515625,-0.0023696517407894133,0.01691679413989186,-0.002942117866501212
1782952689891480800,10.632480712890626,0.03818389244377613,-0.005466065119858831,0.01922562820469029
1782952689901408000,10.642407958984375,0.03863455882072449,0.005994783435389399,0.02521565326657146
1782952689911336000,10.6523359375,0.025168343526124952,-0.008813567183166742,-0.00047333029990550125
1782952689921263000,10.66226318359375,0.020680968979001044,-0.0033235183995217084,-0.0050287833808688445
1782952689931191000,10.67219091796875,0.013802315381169319,-0.01046171798268333,0.0014886493888683616
1782952689941118000,10.682117919921875,0.01754968521595001,-0.0000011142448522150516,-0.0034710736440494655
1782952689951046000,10.6920458984375,0.009772036951780319,0.0007650843546725809,0.009543831386207602
1782952689960973000,10.70197314453125,0.018902853390574455,0.004269548811670392,0.0060118441680446265
1782952689970901000,10.71190087890625,0.029376316609978675,0.011788710536435246,0.008856200748495757
1782952689980828200,10.721828125,0.0304208572268486,0.007109302282240241,0.00839529610532336
1782952689990756000,10.731756103515625,0.027724457749724388,-0.0038845680820755657,0.008064502381533384
