time,seconds_elapsed,z,y,x
1782952679328644000,0.06964404296875,-0.0009037890122272074,0.0005584270693361759,-0.0011580998543649912
1782952679338571000,0.079571044921875,0.0011154197854921222,-0.0006602355279028416,0.00019904709188267589
1782952679348499000,0.0894990234375,-0.00036308245034888387,0.0037772548384964466,-0.0011436903150752187
1782952679358426000,0.099426025390625,0.0004478501505218446,-0.000921094324439764,0.00024195242440328002
1782952679368354000,0.10935400390625,0.0003293537301942706,0.0002697720192372799,-0.00011697510490193963
1782952679378281200,0.11928125,-0.00048743782099336386,-0.00012144632637500763,0.0011863759718835354
1782952679388209200,0.129209228515625,-0.0010825921781361103,-0.0015936463605612516,0.0015414245426654816
1782952679398136000,0.139135986328125,-0.0017776773311197758,0.0002612452954053879,0.0010814967099577188
1782952679408064000,0.14906396484375,-0.0003095377469435334,0.0004809289239346981,-0.002433552872389555
1782952679417991200,0.1589912109375,0.0008675794815644622,0.0007134228944778442,-0.0009722764370962977
1782952679427919000,0.168919189453125,0.0006025549373589456,0.001790972426533699,-0.000385981984436512
1782952679437846300,0.17884619140625,-0.0008528626058250666,0.0004106559790670872,-0.00011300801998004317
1782952679447774200,0.188774169921875,-0.001651195459999144,0.000014277175068855286,-0.0017667508218437433
1782952679457700900,0.198700927734375,0.0020492668263614178,0.0011570397764444351,0.001022111508063972
1782952679467629300,0.20862939453125,-0.0008675812277942896,-0.0018547289073467255,-0.0013994225300848484
1782952679477556000,0.218555908203125,-0.004739817231893539,-0.0006355340592563152,-0.0006571995327249169
1782952679487484000,0.22848388671875,-0.0009428985067643225,-0.0005399934016168118,0.0006613805308006704
1782952679497411000,0.2384111328125,-0.002023609122261405,-0.0002470454201102257,-0.0015098947333171964
1782952679507339000,0.248339111328125,-0.0026208728086203337,-0.0023793738801032305,-0.001963098533451557
1782952679517266000,0.258265869140625,0.0003213874588254839,-0.00032794103026390076,-0.0012831934727728367
1782952679527194000,0.268194091796875,-0.003076263004913926,-0.00014211703091859818,-0.00010180269600823522
1782952679537121000,0.27812109375,-0.0009124446078203619,-0.0003716815263032913,0.0027973144315183163
1782952679547049000,0.288049072265625,-0.0011908786837011576,-0.00018303003162145615,-0.0007172044133767486
1782952679556976000,0.29797607421875,0.0006690730224363506,-0.00020726490765810013,0.000011436466593295336
1782952679566904000,0.307904052734375,0.0024294897448271513,-0.0025847358629107475,0.001472972333431244
1782952679576831000,0.3178310546875,-0.0005250212852843106,0.0003407467156648636,0.0004111699527129531
1782952679586759200,0.32775927734375,-0.0006336775841191411,0.0006834967061877251,-0.00030674663139507174
1782952679596686000,0.33768603515625,-0.00036656251177191734,0.0016864431090652943,0.00048714171862229705
1782952679606614000,0.347614013671875,0.0024234408047050238,0.0016006845980882645,0.0012658697087317705
1782952679616541200,0.357541259765625,-0.0018919454887509346,-0.0024595707654953003,-0.0013703934382647276
1782952679626469000,0.36746923828125,-0.001521881204098463,-0.0006379652768373489,-0.0018461223226040602
1782952679636396300,0.377396240234375,-0.002000717679038644,-0.0009133359417319298,0.0016833650879561901
1782952679646324200,0.38732421875,0.0005709683755412698,0.0005440050736069679,0.00040472717955708504
1782952679656251100,0.397251220703125,0.00019359844736754894,-0.0009156735613942146,0.0017855761107057333
1782952679666179000,0.407178955078125,-0.002341051585972309,0.0006725410930812359,0.0006381545681506395
1782952679676106000,0.41710595703125,0.0011298460885882378,0.00047653261572122574,0.00006983603816479445
1782952679686034200,0.4270341796875,-0.0006690064910799265,-0.0016181075479835272,-0.001143601257354021
1782952679695961000,0.436961181640625,-0.00018005009042099118,-0.00011741602793335915,0.00047293753596022725
1782952679705888000,0.446887939453125,0.0014081874396651983,-0.00029727956280112267,0.0014989215414971113
1782952679715816000,0.45681591796875,0.0020683850161731243,0.0014279158785939217,0.0008584311581216753
1782952679725743000,0.4667431640625,-0.0027848915196955204,-0.0013078844640403986,-0.0003390819765627384
1782952679735671000,0.476671142578125,0.0020191846415400505,-0.000011191237717866898,-0.0035061133094131947
1782952679745599000,0.486598876953125,-0.0015281736850738525,0.0005440777167677879,-0.0015254634199663997
1782952679755526100,0.496526123046875,0.001251101028174162,0.0022378480061888695,-0.0012125419452786446
1782952679765453000,0.506453125,-0.0008491355692967772,-0.0021099804434925318,0.0005190273514017463
1782952679775381000,0.516381103515625,0.00023343935026787221,0.0021569360978901386,0.0005504527362063527
1782952679785308200,0.52630810546875,0.0014673566911369562,-0.002199657028540969,0.0006485885242000222
1782952679795236000,0.536236083984375,-0.0007185658905655146,-0.0019485210068523884,-0.0019938000477850437
1782952679805163300,0.546163330078125,-0.00044112757313996553,-0.0002627810463309288,0.00006997183663770556
1782952679815091200,0.55609130859375,-0.00047761283349245787,0.0006189919076859951,-0.00027437490643933415
1782952679825018000,0.56601806640625,0.0014651946257799864,0.0027424506843090057,-0.004170355852693319
1782952679834946000,0.575946044921875,0.0008508033351972699,-0.0008253860287368298,0.000536514853592962
1782952679844873200,0.585873291015625,0.001425986411049962,-0.0029995481017977,-0.003007112769410014
1782952679854801200,0.59580126953125,-0.0010422313353046775,-0.0006445148028433323,0.0004696438554674387
1782952679864728000,0.60572802734375,-0.0011126059107482433,0.000668215099722147,-0.0009506231872364879
1782952679874656300,0.61565625,-0.00016638479428365827,0.0020962022244930267,-0.0029280201997607946
1782952679884583000,0.6255830078125,-0.0023531706538051367,0.0005051740445196629,0.00176658493001014
1782952679894511000,0.635510986328125,-0.0008703225175850093,-0.0003342544659972191,-0.00000841199653223157
1782952679904438000,0.64543798828125,-0.0007403378840535879,0.00008987495675683022,0.0005645083147101104
1782952679914366000,0.655365966796875,0.0013973815366625786,-0.0028004536870867014,0.0002811479498632252
1782952679924293000,0.665293212890625,-0.002889729803428054,-0.0007805055938661098,0.0011672318214550614
1782952679934221000,0.675220947265625,-0.0012167319655418396,-0.0003189798444509506,-0.0011643657926470041
1782952679944148000,0.68514794921875,0.0015660374192520976,-0.0005478686653077602,0.0007204973371699452
1782952679954076200,0.695076171875,-0.00005556136602535844,-0.00044933147728443146,-0.0004142756515648216
1782952679964003000,0.705003173828125,-0.0022698896937072277,-0.0006130868569016457,0.0017769315745681524
1782952679973931000,0.714930908203125,0.001003934070467949,0.00017733918502926826,0.000761734729167074
1782952679983858200,0.724858154296875,-0.0006243548123165965,-0.0005350811406970024,-0.0004942758241668344
1782952679993786000,0.7347861328125,-0.002547956071794033,0.0008641434833407402,-0.0006095907301642001
1782952680003713000,0.744713134765625,0.0007263115257956088,0.0002121785655617714,-0.002370185684412718
1782952680013641200,0.75464111328125,0.0003220436628907919,0.0014084703288972378,-0.0010697640245780349
1782952680023568100,0.764568115234375,0.002135357353836298,-0.0009776484221220016,-0.0011591308284550905
1782952680033496000,0.77449609375,-0.00040263525443151593,-0.00016272114589810371,0.0014968395698815584
1782952680043423200,0.78442333984375,-0.0005405909032560885,-0.0011108790058642626,-0.0002586486516520381
1782952680053351200,0.79435107421875,-0.00036721915239468217,0.00020152656361460686,0.00045960594434291124
1782952680063278000,0.804278076171875,0.002025523455813527,0.0015616933815181255,-0.00028965494129806757
1782952680073206300,0.814206298828125,-0.0041143945418298244,0.0008285250514745712,0.002913595177233219
1782952680083133000,0.8241328125,-0.0004012032877653837,-0.0016758961137384176,-0.003255861811339855
1782952680093061000,0.83406103515625,0.0012917681597173214,0.00041575031355023384,-0.0019506464013829827
1782952680102988300,0.84398828125,-0.0013633512426167727,-0.0015819126274436712,0.001481042942032218
1782952680112916200,0.853916259765625,-0.0004032817087136209,-0.0003704405389726162,-0.0001349631929770112
1782952680122843400,0.863843505859375,0.0006687145796604455,-0.0008493727073073387,-0.00023729819804430008
1782952680132771300,0.873771240234375,-0.0004596667131409049,-0.0018661676440387964,-0.0002844361588358879
1782952680142698200,0.8836982421875,0.0006449106731452048,-0.001419211272150278,-0.00159495510160923
1782952680152626200,0.893626220703125,0.0010430533438920975,0.0013627265579998493,0.0004535483312793076
1782952680162553300,0.90355322265625,0.0001416589366272092,-0.00001285085454583168,-0.00040045042987912893
1782952680172481300,0.913481201171875,0.0011757643660530448,-0.002148439409211278,0.0030113253742456436
1782952680182408400,0.923408447265625,0.0004797475703526288,0.0012289159931242466,0.002219769638031721
1782952680192336400,0.93333642578125,0.002236634958535433,-0.0003673830069601536,0.0004516972112469375
1782952680202263300,0.94326318359375,-0.001203723717480898,-0.0004959884099662304,0.0006605871021747589
1782952680212191200,0.953191162109375,0.001136662089265883,0.0039730616845190525,-0.0011343834921717644
1782952680222118100,0.9631181640625,0.000619229394942522,-0.0015259669162333012,0.0027278210036456585
1782952680232046300,0.97304638671875,0.0004391997354105115,0.0006969734095036983,0.0011011621681973338
1782952680241973200,0.98297314453125,-0.00007650064071640372,-0.0010681580752134323,-0.0008951574563980103
1782952680251901200,0.992901123046875,-0.0004898232291452587,0.0005760774947702885,-0.0030264854431152344
1782952680261828000,1.002828125,-0.001398991560563445,0.0019709737971425056,0.0008466484141536057
1782952680271756300,1.01275634765625,0.000016745005268603563,-0.0005278703756630421,0.0017910052556544542
1782952680281683200,1.02268310546875,0.00004019931657239795,0.0001815478317439556,0.0014101413544267416
1782952680291611100,1.032611083984375,0.00027455747476778924,0.002394900657236576,0.0006239762296900153
1782952680301538300,1.042538330078125,-0.002969969529658556,-0.0008182954043149948,0.0005756038008257747
1782952680311466200,1.05246630859375,-0.0012002987787127495,0.0004605548456311226,0.00021900655701756477
1782952680321393200,1.06239306640625,0.0009101268369704485,-0.0018659874331206083,-0.0003598457551561296
1782952680331321300,1.0723212890625,-0.0006278486689552665,0.0015079714357852936,0.0006558838649652898
1782952680341248300,1.082248291015625,-0.000839468848425895,0.0020649610087275505,-0.0010035588638857007
1782952680351176200,1.09217626953125,-0.0007449266850017011,-0.0016136635094881058,0.00018447724869474769
1782952680361103400,1.102103271484375,-0.0029612916987389326,0.0005195401608943939,-0.002217690460383892
1782952680371031300,1.11203125,0.0021293405443429947,-0.0011366799008101225,-0.0010038214968517423
1782952680380958200,1.121958251953125,0.0016495849704369903,-0.0005208873189985752,0.00006659107748419046
1782952680390885400,1.131885498046875,-0.000877222279086709,0.0005108215846121311,-0.00026523880660533905
1782952680400813300,1.141813232421875,0.001928054029121995,-0.0031834032852202654,0.0010187489679083228
1782952680410740200,1.151740234375,-0.0006016826373524964,0.0008635362610220909,0.00018491316586732864
1782952680420668400,1.16166845703125,-0.00041005387902259827,-0.0005408283323049545,0.0017553004436194897
1782952680430595000,1.171594970703125,-0.0006952784024178982,-0.00014694686979055405,-0.0008458091178908944
1782952680440523300,1.181523193359375,-0.0029708961956202984,-0.0007990030571818352,0.0018368805758655071
1782952680450450200,1.1914501953125,-0.0006275807972997427,-0.0005220347084105015,-0.00016075634630396962
1782952680460378000,1.201378173828125,-0.0003857152769342065,-0.0005594459362328053,0.0008528771577402949
1782952680470305300,1.21130517578125,-0.0007953094318509102,0.0009353864006698132,0.00018016272224485874
1782952680480233200,1.221233154296875,0.0009563302155584097,0.00010264478623867035,-0.0005452913464978337
1782952680490160000,1.23116015625,-0.0012186733074486256,-0.0008121510036289692,-0.0013088196283206344
1782952680500088300,1.24108837890625,-0.0011941452976316214,-0.0005118120461702347,0.001096759457141161
1782952680510015200,1.25101513671875,0.0029172427020967007,-0.0018756166100502014,0.00028822373133152723
1782952680519943200,1.260943115234375,0.00097663386259228,0.0018193204887211323,0.0018157553859055042
1782952680529870300,1.270870361328125,-0.0000034093973226845264,0.0002331417053937912,-0.00015418475959450006
1782952680539798300,1.28079833984375,-0.0017700761090964079,0.0022089392878115177,-0.003346695564687252
1782952680549725200,1.29072509765625,-0.0003157239989377558,-0.0005045556463301182,0.0003423151792958379
1782952680559653400,1.3006533203125,-0.0006955221761018038,-0.0009702318347990513,-0.0017205080948770046
1782952680569580300,1.310580322265625,-0.0006694231415167451,-0.0011308204848319292,-0.0012003928422927856
1782952680579508200,1.32050830078125,-0.00006597052561119199,0.0023379125632345676,-0.000763516582082957
1782952680589435400,1.330435302734375,-0.001396219595335424,-0.0018371248152107,0.0025372053496539593
1782952680599363300,1.34036328125,-0.002729362342506647,-0.0010918795596808195,-0.00023953471099957824
1782952680609290200,1.350290283203125,0.0005236889701336622,-0.001901746727526188,0.0012973754201084375
1782952680619218400,1.360218505859375,0.0018040583236142993,-0.00013173464685678482,0.0007142733666114509
1782952680629145000,1.37014501953125,-0.0015509920194745064,0.0027934815734624863,-0.0020120046101510525
1782952680639073300,1.3800732421875,0.0010499772615730762,0.0010781842283904552,0.0020418590866029263
1782952680649000200,1.390000244140625,-0.0007316775154322386,-0.0006203795783221722,0.001577137503772974
1782952680658928000,1.39992822265625,0.0029857992194592953,-0.0011128978803753853,-0.0004289759090170264
1782952680668855300,1.409855224609375,-0.0009570105466991663,-0.0022090550046414137,0.0008325634407810867
1782952680678783200,1.419783203125,0.00034319155383855104,0.002401267644017935,0.00046011811355128884
1782952680688710100,1.429710205078125,0.0005072422791272402,0.0014063105918467045,-0.0009513573022559285
1782952680698638000,1.43963818359375,0.0006155305891297758,-0.00026603881269693375,0.00021263450616970658
1782952680708565200,1.449565185546875,0.0007553465547971427,0.0003116009756922722,0.0025700645055621862
1782952680718493200,1.4594931640625,0.00032838305924087763,-0.0018102216999977827,0.0008227778016589582
1782952680728420400,1.46942041015625,-0.0005760263884440064,-0.0007641320116817951,-0.0021756752394139767
1782952680738348300,1.479348388671875,-0.002985703758895397,0.0006003170274198055,-0.0021330765448510647
1782952680748275200,1.489275146484375,-0.001443733461201191,-0.0020324839279055595,-0.001969824777916074
1782952680758203400,1.499203369140625,-0.0003834372037090361,-0.0007372037507593632,-0.0010959438513964415
1782952680768130300,1.50913037109375,0.0005992692313157022,-0.0014368162956088781,-0.0004187019949313253
1782952680778058200,1.519058349609375,-0.002221733331680298,-0.0012602314818650484,-0.000004427623935043812
1782952680787985400,1.5289853515625,-0.002306954935193062,-0.0011092300992459059,-0.0011250857496634126
1782952680797913300,1.538913330078125,-0.00004310137592256069,0.0009015947580337524,0.0010474761947989464
1782952680807840300,1.54884033203125,0.00009671453153714538,-0.0008688746020197868,0.0007468053954653442
1782952680817767200,1.55876708984375,-0.001771826297044754,-0.0016453985590487719,-0.0003940707247238606
1782952680827695400,1.5686953125,0.0010415371507406235,-0.00036708125844597816,-0.001724053407087922
1782952680837622300,1.578622314453125,-0.0009944301564246416,0.000014464836567640305,0.0018139216117560863
1782952680847550200,1.58855029296875,-0.0028394681867212057,0.0004885070957243443,0.0014836895279586315
1782952680857477000,1.59847705078125,0.0027444486040621996,-0.00442036846652627,-0.0014723265776410699
1782952680867405000,1.608405029296875,0.00046984292566776276,-0.0020741233602166176,-0.0017072174232453108
1782952680877332200,1.618332275390625,-0.0018248772248625755,0.001634351909160614,-0.0012823748402297497
1782952680887260200,1.62826025390625,-0.002644331892952323,-0.0011883324477821589,-0.0009878291748464108
1782952680897187300,1.638187255859375,0.000515218183863908,0.001540658064186573,-0.002068732865154743
1782952680907115300,1.648115234375,0.0006853941595181823,0.0018130997195839882,-0.0009419494308531284
1782952680917042200,1.658042236328125,0.0010156637290492654,0.002113858237862587,0.0003453395329415798
1782952680926970400,1.667970458984375,-0.0005050012841820717,-0.000024660024791955948,-0.0010749243665486574
1782952680936897300,1.677897216796875,-0.0017592732328921556,-0.00009760027751326561,0.002216033171862364
1782952680946825200,1.6878251953125,0.0021068379282951355,0.0004896265454590321,-0.0012508698273450136
1782952680956752400,1.69775244140625,0.0008717563468962908,-0.0009184125810861588,-0.0005904798163101077
1782952680966680300,1.707680419921875,0.0010728249326348305,-0.0004310542717576027,-0.0001465308596380055
1782952680976607200,1.717607177734375,-0.002241977723315358,-0.0008631022647023201,-0.0007037658360786736
1782952680986535400,1.727535400390625,-0.0012400965206325054,-0.0018167803063988686,-0.0011863305699080229
1782952680996462300,1.73746240234375,-0.0006397023680619895,-0.0010524047538638115,-0.0017784135416150093
1782952681006390300,1.747390380859375,-0.0013627505395561457,0.0004924950189888477,-0.0011781370267271996
1782952681016317400,1.7573173828125,-0.000433004111982882,-0.001252580899745226,-0.00032784498762339354
1782952681026245400,1.767245361328125,-0.0017235720297321677,0.003549364395439625,-0.0014620852889493108
1782952681036172000,1.777172119140625,0.001686579780653119,-0.002321381587535143,-0.0017341235652565956
1782952681046100200,1.787100341796875,-0.0012916331179440022,0.00032260455191135406,0.0015916319098323584
1782952681056027100,1.797027099609375,0.000116826529847458,0.0017338157631456852,-0.0003356110246386379
1782952681065955000,1.806955078125,0.0014755713054910302,-0.0006715515628457069,-0.0005507944151759148
1782952681075882200,1.81688232421875,-0.001913772546686232,0.0006611454300582409,0.0007974961190484464
1782952681085810200,1.82681005859375,0.0009794856887310743,0.0012425137683749199,-0.0022006905637681484
1782952681095737600,1.836737548828125,0.0010622958652675152,0.000679350458085537,-0.0019234709907323122
1782952681105665800,1.846665771484375,0.00005375675391405821,0.0010537905618548393,0.0017282553017139435
1782952681115592700,1.8565927734375,-0.0006198551855050027,-0.0006484738551080227,0.0025789858773350716
1782952681125520600,1.866520751953125,-0.0013322506565600634,0.0003808378241956234,-0.003150272648781538
1782952681135447800,1.87644775390625,0.0001942316594067961,-0.001520864199846983,-0.0014819495845586061
1782952681145375700,1.886375732421875,0.0010621558176353574,0.0005516074597835541,-0.0027863660361617804
1782952681155302400,1.896302490234375,0.00034463428892195225,0.0013847602531313896,0.000656894117128104
1782952681165230600,1.906230712890625,-0.0017842967063188553,-0.001143378671258688,0.00017033464973792434
1782952681175157500,1.916157470703125,0.0003913537657354027,0.0018530958332121372,-0.0010273451916873455
1782952681185084700,1.926084716796875,0.0031384043395519257,-0.0001642485149204731,0.0017335539450868964
1782952681195012600,1.9360126953125,-0.0012277737259864807,-0.0021318525541573763,-0.0015249941498041153
1782952681204939500,1.945939453125,0.0003070059756282717,-0.0021784580312669277,0.0028037079609930515
1782952681214867700,1.95586767578125,-0.0009057481656782329,-0.001187579007819295,0.0007920607458800077
1782952681224794600,1.965794677734375,0.0011747132521122694,0.0010494762100279331,-0.001158438390120864
1782952681234722600,1.97572265625,-0.0006868802011013031,-0.00066003343090415,-0.0006158406031318009
1782952681244649700,1.985649658203125,-0.0018642637878656387,-0.0009607044048607349,-0.0013719119597226381
1782952681254577700,1.99557763671875,-0.0005651460378430784,-0.0005197976715862751,-0.0007715598912909627
1782952681264504600,2.005504638671875,0.0008428671862930059,0.0019995528273284435,-0.0023774460423737764
1782952681274432800,2.015432861328125,0.0011750573758035898,-0.0016920592170208693,0.0001626493758521974
1782952681284359700,2.025359619140625,-0.0010553400497883558,-0.0009847236797213554,0.000554400437977165
1782952681294287600,2.03528759765625,-0.00247585610486567,-0.0007234080694615841,0.00027842988492920995
1782952681304214800,2.04521484375,0.0008514972869306803,-0.0019772243686020374,-0.001854762202128768
1782952681314142700,2.055142822265625,-0.0022681383416056633,-0.0007019853219389915,-0.000030014198273420334
1782952681324069600,2.065069580078125,-0.00039753399323672056,0.00026820413768291473,0.0007249920163303614
1782952681333997800,2.074997802734375,0.002398839220404625,0.0023008938878774643,0.0008684055064804852
1782952681343924500,2.084924560546875,-0.0027668941766023636,0.001887305174022913,-0.00005224929191172123
1782952681353852400,2.094852294921875,-0.0007142395479604602,0.0006429906934499741,-0.00019965780666097999
1782952681363779600,2.104779541015625,-0.001531563582830131,-0.0006915195845067501,0.0017604287713766098
1782952681373707500,2.11470751953125,0.0031150970607995987,-0.0017861768137663603,0.0009176160674542189
1782952681383634700,2.124634765625,0.0009584692306816578,0.0014879130758345127,-0.00010583671974018216
1782952681393562600,2.134562744140625,-0.0011716036824509501,-0.001664401264861226,0.0006429908680729568
1782952681403489500,2.144489501953125,-0.0018941191956400871,0.0008506877347826958,-0.001183405052870512
1782952681413417500,2.15441748046875,0.00034443242475390434,0.0018063322640955448,0.0012008395278826356
1782952681423344600,2.1643447265625,0.001980412285774946,-0.00028291763737797737,-0.0011051916517317295
1782952681433272600,2.1742724609375,-0.0023328952956944704,0.0011981837451457977,-0.00011212658137083054
1782952681443199700,2.18419970703125,0.0008935242658481002,0.00021973857656121254,0.0007541996892541647
1782952681453127700,2.194127685546875,0.00047669740160927176,-0.000013886485248804092,0.0008346924441866577
1782952681463054600,2.2040546875,-0.0009142716880887747,-0.0004333341494202614,0.00121951918117702
1782952681472982500,2.213982421875,0.0011798234190791845,-0.000060449354350566864,-0.0019510813290253282
1782952681482909700,2.22390966796875,0.001746277790516615,0.0018082908354699612,-0.0012796984519809484
1782952681492837600,2.233837646484375,-0.001485079643316567,-0.000022177118808031082,0.0004868195974268019
1782952681502764800,2.243764892578125,-0.000955909607000649,-0.00009647943079471588,-0.00040693729533813894
1782952681512691700,2.253691650390625,0.0015074510592967272,-0.0007246253080666065,-0.0006025660550221801
1782952681522619600,2.26361962890625,-0.000006023386958986521,0.000978998839855194,0.0018512705573812127
1782952681532546600,2.273546630859375,-0.0007080479408614337,0.0005118353292346001,-0.0008440137025900185
1782952681542474800,2.283474853515625,-0.00011176621774211526,0.0019811014644801617,0.001115273917093873
1782952681552401700,2.293401611328125,-0.0019977500196546316,-0.0005971519276499748,0.00013352185487747192
1782952681562329600,2.30332958984375,0.001282998127862811,-0.0011841128580272198,-0.001130947028286755
1782952681572256500,2.313256591796875,-0.0029073164332658052,-0.0015469454228878021,0.0010898213367909193
1782952681582184400,2.323184326171875,0.0004533265018835664,0.0006198026239871979,0.0013848994858562946
1782952681592111600,2.333111572265625,0.0016045882366597652,-0.0010879265610128641,0.0005701986374333501
1782952681602039600,2.34303955078125,0.0012139026075601578,0.00021782144904136658,-0.0012428814079612494
1782952681611966700,2.352966796875,0.0032142114359885454,-0.0024754328187555075,0.001694821985438466
1782952681621894700,2.362894775390625,0.0026823782827705145,-0.0007536993362009525,0.0017494168132543564
1782952681631821600,2.372821533203125,-0.0014848709106445312,-0.0009409640915691853,0.00023744342615827918
1782952681641749500,2.38274951171875,0.002757810987532139,-0.001987586496397853,0.0005024279817007482
1782952681651676700,2.3926767578125,0.00019188065198250115,-0.0022163998801261187,0.0001422559143975377
1782952681661604600,2.4026044921875,-0.0011458252556622028,-0.000926631037145853,-0.0002929045876953751
1782952681671531800,2.41253173828125,0.00011582835577428341,0.0025251777842640877,-0.0008337157778441906
1782952681681459700,2.422459716796875,-0.0007097515626810491,-0.000426669605076313,-0.0019136276096105576
1782952681691386600,2.43238671875,-0.00048208702355623245,-0.0006718244403600693,-0.0012797238305211067
1782952681701314600,2.442314453125,0.0014439111109822989,0.0004469696432352066,-0.00019235513173043728
1782952681711241700,2.45224169921875,0.0008887576404958963,-0.0018831517081707716,-0.0023544058203697205
1782952681721169700,2.462169677734375,-0.0005323051591403782,-0.0021710393484681845,0.00158654002007097
1782952681731096800,2.472096923828125,0.001017486909404397,-0.0015438264235854149,0.0006289009470492601
1782952681741024800,2.482024658203125,-0.0016280972631648183,0.0009917691349983215,-0.0002496758534107357
1782952681750951400,2.491951416015625,-0.003013692330569029,0.0019695782102644444,-0.0014827512204647064
1782952681760879600,2.501879638671875,0.0014255307614803314,-0.0016499243211001158,0.00009490532102063298
1782952681770806500,2.511806640625,-0.0030783461406826973,0.0007828036323189735,0.00020946096628904343
1782952681780734500,2.521734375,0.002967828419059515,-0.0014308157842606306,-0.0008968161419034004
1782952681790661600,2.53166162109375,-0.0014514396898448467,-0.001634344458580017,-0.0007230037590488791
1782952681800589600,2.541589599609375,0.0006391418282873929,-0.00006520980969071388,-0.00033098645508289337
1782952681810516500,2.5515166015625,0.0016017494490370154,0.0005608145147562027,-0.0005593670066446066
1782952681820444700,2.561444580078125,0.0006400819984264672,-0.0021854371298104525,0.0019104486564174294
1782952681830371600,2.57137158203125,0.0021175784058868885,-0.0010940628126263618,0.0021310816518962383
1782952681840298800,2.581298828125,0.00041208992479369044,0.0013829432427883148,-0.0019619306549429893
1782952681850226700,2.591226806640625,0.0003017305280081928,-0.0031843874603509903,-0.000508780765812844
1782952681860153600,2.601153564453125,0.0019243945134803653,0.00046760542318224907,0.0004600772517733276
1782952681870081500,2.61108154296875,-0.0020903064869344234,0.0009142733179032803,-0.0010141811799257994
1782952681880008700,2.6210087890625,-0.002443974371999502,-0.00015525240451097488,0.00012591801350936294
1782952681889936600,2.6309365234375,-0.0029695858247578144,0.0005857464857399464,-0.0003529015521053225
1782952681899863800,2.64086376953125,-0.003066524863243103,0.0007774941623210907,0.0005909227184019983
1782952681909791700,2.650791748046875,0.0020840156357735395,-0.0011220688465982676,0.0024315027985721827
1782952681919718700,2.66071875,0.00017213236424140632,-0.0010965026449412107,0.000430137210059911
1782952681929646800,2.670646728515625,0.0008412986062467098,-0.0004180031828582287,-0.0012056634295731783
1782952681939573500,2.680573486328125,-0.0004625850706361234,-0.00025368621572852135,0.000761613657232374
1782952681949501400,2.69050146484375,0.0013855625875294209,-0.002362818457186222,-0.0011087965685874224
1782952681959428600,2.7004287109375,-0.0005995576502755284,-0.0019380443263798952,0.0013122832169756293
1782952681969356500,2.7103564453125,-0.002626652829349041,0.000978314783424139,-0.001261262223124504
1782952681979283500,2.720283447265625,0.0006817922694608569,0.0009005502797663212,0.0000809709308668971
1782952681989211600,2.730211669921875,-0.0003021485754288733,-0.0023075034841895103,-0.00039685488445684314
1782952681999138600,2.740138671875,-0.0013026981614530087,-0.001077122986316681,0.0016702907159924507
1782952682009066500,2.75006640625,0.00044904107926413417,0.0022160583175718784,0.000589297735132277
1782952682018993700,2.75999365234375,-0.0006567034288309515,-0.0010788042563945055,0.00014215294504538178
1782952682028921600,2.769921630859375,-0.0005913525237701833,0.00023125996813178062,0.00007663993164896965
1782952682038848500,2.7798486328125,0.002039584331214428,-0.000635332427918911,-0.0006565283401869237
1782952682048776700,2.789776611328125,0.002837968524545431,0.00015816232189536095,0.0021591861732304096
1782952682058703600,2.79970361328125,-0.0005373219610191882,0.0002953154034912586,-0.0006214203895069659
1782952682068631600,2.809631591796875,0.0003327157464809716,-0.0004835030995309353,0.0005117757245898247
1782952682078558700,2.819558837890625,-0.0020271113608032465,-0.0019264037255197763,-0.00032232634839601815
1782952682088486100,2.829486083984375,0.001575870905071497,-0.001975345192477107,0.0010727057233452797
1782952682098413300,2.839413330078125,-0.0006004643510095775,0.002974672708660364,0.0007387452642433345
1782952682108341200,2.84934130859375,0.0023200102150440216,0.0004788581281900406,-0.0012194291921332479
1782952682118268200,2.85926806640625,-0.0009639337076805532,0.001976619940251112,0.00015662616351619363
1782952682128196400,2.8691962890625,-0.001574910944327712,-0.0010981077793985605,-0.0025842878967523575
1782952682138123300,2.879123291015625,0.0005055505316704512,0.0009059207513928413,0.0020610641222447157
1782952682148050400,2.889050537109375,-0.0009647050173953176,0.00038033677265048027,0.00047560897655785084
1782952682157978400,2.898978271484375,0.0015133663546293974,-0.0009443194139748812,0.0001419148757122457
1782952682167905300,2.9089052734375,-0.00019666255684569478,0.000021657906472682953,0.00029727298533543944
1782952682177833200,2.918833251953125,-0.00006590131670236588,-0.0010353506077080965,0.00019793707178905606
1782952682187760000,2.928760009765625,-0.002043756190687418,-0.000371493399143219,-0.0008636314305476844
1782952682197688000,2.93868798828125,-0.0006072470569051802,0.001472479198127985,-0.002367784734815359
1782952682207615200,2.948615234375,-0.0030749847646802664,0.0010760882869362831,0.0003068177029490471
1782952682217543200,2.958543212890625,-0.001984420232474804,-0.0013449913822114468,0.0008186772465705872
1782952682227470000,2.968469970703125,-0.0004930631257593632,-0.0010199418757110834,0.0023290682584047318
1782952682237398300,2.978398193359375,0.0019301470601931214,-0.0002870396710932255,-0.00038762245094403625
1782952682247325200,2.9883251953125,0.001848969841375947,-0.0014819069765508175,0.000714212073944509
1782952682257253000,2.998253173828125,0.0009339076932519674,0.0014411788433790207,0.000532584497705102
1782952682267180300,3.00818017578125,-0.0008126020547933877,-0.001127319410443306,0.001272986875846982
1782952682277108200,3.018108154296875,0.0005762364016845822,-0.0036179078742861748,0.0013166626449674368
1782952682287035100,3.02803515625,0.0027827532030642033,0.0016932045109570026,0.0012960368767380714
1782952682296963300,3.03796337890625,0.001832803594879806,-0.002130828332155943,0.0010470312554389238
1782952682306890200,3.04789013671875,-0.0018449211493134499,0.00017984583973884583,-0.0026472839526832104
1782952682316818200,3.057818115234375,0.00012848101323470473,0.0031151818111538887,-0.0001769356313161552
1782952682326745300,3.067745361328125,-0.001572056207805872,0.0017963778227567673,-0.0005428211879916489
1782952682336673300,3.07767333984375,0.00021172917331568897,0.0015633516013622284,-0.002450177213177085
1782952682346600200,3.08760009765625,-0.0009202061919495463,-0.0009020683355629444,0.0002688855747692287
1782952682356528400,3.0975283203125,0.0008169737993739545,0.00037837959825992584,0.0018582602497190237
1782952682366455300,3.107455322265625,-0.0008432001923210919,0.0005137906409800053,-0.00001631304621696472
1782952682376383200,3.11738330078125,0.0027262347284704447,0.0008421582169830799,0.0015999595634639263
1782952682386310100,3.12731005859375,-0.0005965560558252037,-0.0004422832280397415,-0.0013618275988847017
1782952682396238300,3.13723828125,0.0006561949267052114,-0.000024166889488697052,-0.0033938195556402206
1782952682406165200,3.147165283203125,-0.0017297472804784775,0.0012138974852859974,-0.0009223600500263274
1782952682416093200,3.15709326171875,-0.0012959183659404516,-0.00007161032408475876,-0.0005180921871215105
1782952682426020000,3.16702001953125,-0.0008947539026848972,0.0003760070540010929,0.0025395159609615803
1782952682435948000,3.176947998046875,-0.0006843641749583185,0.0030884365551173687,-0.0018259375356137753
1782952682445875200,3.186875244140625,0.0011265682987868786,-0.000019393395632505417,0.0004130380693823099
1782952682455802000,3.196802001953125,0.0006570530240423977,-0.0007131467573344707,-0.000794705469161272
1782952682465730300,3.206730224609375,-0.00053813261911273,-0.0003199232742190361,0.0015542953042313457
1782952682475657200,3.2166572265625,-0.0005466548027470708,0.0016646641306579113,-0.0004976702621206641
1782952682485585200,3.226585205078125,-0.00046083435881882906,0.0020184842869639397,-0.0012876178370788693
1782952682495512300,3.23651220703125,-0.0017793654697015882,-0.0005173776298761368,0.00025408610235899687
1782952682505440300,3.246440185546875,0.00023284382768906653,-0.00008179573342204094,-0.002733440138399601
1782952682515367200,3.2563671875,-0.00022255670046433806,-0.0017902138642966747,-0.0005049067549407482
1782952682525295400,3.26629541015625,0.0009425426833331585,0.001977429259568453,-0.0005694301798939705
1782952682535222300,3.27622216796875,0.0016602645628154278,-0.0011632365640252829,-0.002121520461514592
1782952682545150200,3.286150146484375,-0.0028589542489498854,0.0007136301137506962,0.002228355500847101
1782952682555077400,3.296077392578125,-0.0017918255180120468,0.0006433222442865372,-0.0019211159087717533
1782952682565005300,3.30600537109375,-0.00045369984582066536,0.00024179043248295784,0.0009247320122085512
1782952682574932200,3.31593212890625,0.0015577857848256826,-0.0015651644207537174,0.0018994489219039679
1782952682584860400,3.3258603515625,-0.0009094749111682177,0.0012817075476050377,-0.0022540062200278044
1782952682594787000,3.335787109375,-0.0005081364652141929,-0.0020680164452642202,0.00025309360353276134
1782952682604715000,3.345715087890625,0.002208840800449252,-0.0007214220240712166,-0.0013639627723023295
1782952682614642200,3.35564208984375,-0.0010854894062504172,0.0002242662012577057,-0.0011740793706849217
1782952682624570000,3.365570068359375,-0.000016301812138408422,0.0003212420269846916,0.0013593158219009638
1782952682634497300,3.375497314453125,-0.0017838417552411556,0.001004076562821865,0.0013848822563886642
1782952682644425200,3.38542529296875,-0.00014913675840944052,0.0012082867324352264,-0.0015622181817889214
1782952682654352100,3.39535205078125,0.000587227288633585,-0.0018974917475134134,0.00011770386481657624
1782952682664280000,3.405280029296875,0.00001159484963864088,0.0010941452346742153,0.0013165910495445132
1782952682674207200,3.415207275390625,0.0012084194459021091,-0.002750393934547901,0.002455891575664282
1782952682684135200,3.42513525390625,-0.0005245939828455448,0.0010941284708678722,0.0009059571893885732
1782952682694062300,3.435062255859375,-0.000944308121688664,-0.0010364002082496881,0.00035734602715820074
1782952682703990300,3.444990234375,0.0009990243706852198,-0.00017093028873205185,0.000719638483133167
1782952682713917200,3.454917236328125,-0.0009826337918639183,-0.0012263411190360785,-0.0008897097432054579
1782952682723845000,3.46484521484375,0.0009871138026937842,0.0011384645476937294,-0.0002952770155388862
1782952682733772300,3.474772216796875,-0.00011996226385235786,-0.0020056632347404957,0.0004325649351812899
1782952682743699200,3.48469921875,0.00013561430387198925,-0.0009237751364707947,-0.0014794447924941778
1782952682753627400,3.49462744140625,0.0008927510352805257,-0.0004976694472134113,0.00036852265475317836
1782952682763554000,3.504553955078125,0.00043695609201677144,0.00026258034631609917,-0.0013301295693963766
1782952682773482200,3.514482177734375,-0.0003771721967495978,-0.000496953260153532,0.0016390286618843675
1782952682783409200,3.5244091796875,0.0023587269242852926,0.0006164298392832279,-0.0006859978893771768
1782952682793337000,3.534337158203125,-0.00021468556951731443,-0.0020203660242259502,-0.00014351197751238942
1782952682803264300,3.54426416015625,-0.0026145032607018948,0.003070802427828312,0.001450885203666985
1782952682813192200,3.554192138671875,0.0010771708330139518,-0.0010645538568496704,0.00040026812348514795
1782952682823119000,3.564119140625,-0.00039820384699851274,0.000610272865742445,0.00036280316999182105
1782952682833047000,3.574047119140625,0.0011536201927810907,-0.0012709840666502714,0.0007665383745916188
1782952682842974200,3.58397412109375,-0.00112767587415874,-0.0011898938100785017,0.000018883496522903442
1782952682852902100,3.593902099609375,-0.0016035826411098242,0.00015420373529195786,-0.0012786085717380047
1782952682862829300,3.603829345703125,0.0004923370433971286,0.0014682733453810215,-0.0004369430826045573
1782952682872757200,3.61375732421875,0.0006441372679546475,0.00046585919335484505,-0.001851880457252264
1782952682882684200,3.62368408203125,-0.00040286139119416475,0.0018272078596055508,0.00045387132558971643
1782952682892612000,3.633612060546875,-0.0007988734869286418,-0.0010820291936397552,0.00003415718674659729
1782952682902539300,3.643539306640625,0.0006049204966984689,0.002011941745877266,-0.0009524758206680417
1782952682912467200,3.65346728515625,-0.0007516937330365181,0.0014963536523282528,-0.00017323490465059876
1782952682922394400,3.663394287109375,-0.00158647820353508,-0.00029481761157512665,-0.002018346916884184
1782952682932322300,3.673322265625,-0.00021841231500729918,0.0016394364647567272,-0.0018188761314377189
1782952682942249200,3.683249267578125,0.0015717076603323221,0.0002986709587275982,-0.0008770929998718202
1782952682952177400,3.693177490234375,0.0019528059056028724,0.0009199865162372589,0.0014164212625473738
1782952682962104300,3.703104248046875,-0.0020573255605995655,0.0009274296462535858,-0.0004073918389622122
1782952682972032300,3.7130322265625,-0.0007158913649618626,-0.0014744752552360296,-0.0004073918389622122
1782952682981959200,3.722959228515625,-0.00007611600449308753,0.00022111227735877037,-0.002669082721695304
1782952682991887400,3.732887451171875,-0.0011312604183331132,0.0004988801665604115,-0.000902075320482254
1782952683001814000,3.74281396484375,-0.0006435709074139595,0.0005280370824038982,0.0003324691206216812
1782952683011741200,3.7527412109375,0.0017724487697705626,-0.0012821133714169264,0.00012048153439536691
1782952683021669000,3.762669189453125,0.0011157940607517958,0.0006268271245062351,0.0006671465816907585
1782952683031596300,3.77259619140625,0.0007994105690158904,0.0009551947005093098,-0.001606926554813981
1782952683041524200,3.782524169921875,-0.002822590759024024,0.0002378528006374836,-0.0009592167916707695
1782952683051451100,3.792451171875,-0.0026494853664189577,0.0012165647931396961,0.0012655879836529493
1782952683061379000,3.802379150390625,0.0008470960310660303,0.002754169050604105,0.00008689647074788809
1782952683071306200,3.81230615234375,0.0014758682809770107,0.00026730913668870926,0.0010818534065037966
1782952683081234200,3.822234130859375,-0.0013444478390738368,-0.0016140707302838564,0.0011349549749866128
1782952683091161300,3.832161376953125,-0.0026736315339803696,0.0009446945041418076,0.0007224313449114561
1782952683101089300,3.84208935546875,-0.000012964301276952028,-0.0014309952966868877,-0.001070877886377275
1782952683111016200,3.85201611328125,0.0005186026101000607,-0.0005622720345854759,-0.002071427647024393
1782952683120944400,3.8619443359375,-0.0012116539292037487,-0.00024713948369026184,0.0007733026286587119
1782952683130871300,3.871871337890625,-0.0006702332175336778,0.0008753826841711998,-0.0011582880979403853
1782952683140799200,3.88179931640625,0.0006872666999697685,0.0006433720700442791,0.0007440291810780764
1782952683150726400,3.891726318359375,-0.002155125141143799,0.0008987691253423691,0.00028889498207718134
1782952683160654300,3.901654296875,0.00036626786459237337,0.00031758518889546394,0.001015665358863771
1782952683170581200,3.911581298828125,0.0031703102868050337,0.0002856273204088211,-8.632778190076351e-7
1782952683180509400,3.921509521484375,-0.0006397223914973438,0.0013837730512022972,0.0002629391383379698
1782952683190436400,3.931436279296875,-0.0007614287897013128,-0.0007552779279649258,-0.0004449290281627327
1782952683200364300,3.9413642578125,0.0008618861902505159,-0.0020477534271776676,0.0020978052634745836
1782952683210291200,3.951291259765625,0.0017742852214723825,0.0010207407176494598,0.00024850614136084914
1782952683220219100,3.96121923828125,0.0034950352273881435,-0.002120653400197625,0.0018335904460400343
1782952683230146000,3.97114599609375,0.0015599823091179132,-0.003050629049539566,-0.0025483747012913227
1782952683240074200,3.98107421875,0.002328090602532029,0.001012666616588831,0.0022870718967169523
1782952683250001200,3.991001220703125,-0.00005756912287324667,0.0029698237776756287,-0.00018727104179561138
1782952683259929000,4.00092919921875,-0.0005753739387728274,-0.0009257812052965164,-0.0015715674962848425
1782952683269856300,4.010856201171875,0.00048083579167723656,-0.0015665378887206316,0.001562973135150969
1782952683279783200,4.020783203125,-0.000012083968613296747,0.0008438643999397755,0.0018637834582477808
1782952683289711400,4.03071142578125,-0.0005415204213932157,0.0008265539072453976,-0.0013338739518076181
1782952683299638300,4.04063818359375,0.0006957058212719858,0.0006994795985519886,-0.0006770071922801435
1782952683309566200,4.050566162109375,-0.0005597082781605422,-0.0005058674141764641,-0.003183308057487011
1782952683319493400,4.060493408203125,0.0019598931539803743,-0.0003528003580868244,-0.00018141797045245767
1782952683329421300,4.07042138671875,-0.001700888155028224,0.00047997012734413147,-0.005043551325798035
1782952683339348200,4.08034814453125,0.002182021737098694,-0.0005772733129560947,0.0017373497830703855
1782952683349276400,4.0902763671875,-0.00026435795007273555,0.0019897473976016045,-0.002378832083195448
1782952683359203300,4.100203369140625,0.0022622421383857727,-0.00032106833532452583,-0.0023029122967272997
1782952683369131300,4.11013134765625,-0.000657913857139647,0.0014358190819621086,-0.0022192890755832195
1782952683379058400,4.120058349609375,-0.0006638646591454744,-0.0013469718396663666,-0.0029277028515934944
1782952683388986400,4.129986328125,0.0035188961774110794,-0.0022553761955350637,-0.001950056292116642
1782952683398913000,4.1399130859375,0.0010197419906035066,0.0013187001459300518,-0.0017410204745829105
1782952683408841500,4.149841552734375,-0.0020412954036146402,0.0022846288047730923,0.002002851339057088
1782952683418768100,4.15976806640625,-0.0010992058087140322,-0.000043486710637807846,-0.0005312517751008272
1782952683428696000,4.169696044921875,0.0011226695496588945,0.00039540231227874756,-0.0004950327565893531
1782952683438623200,4.179623291015625,0.00035499149817042053,-0.000017648562788963318,-0.0005712310085073113
1782952683448551200,4.18955126953125,-0.0011571513023227453,-0.0018720075022429228,-0.0004018539621029049
1782952683458478300,4.199478271484375,0.0008928049355745316,-0.001070579281076789,0.002181801712140441
1782952683468406300,4.20940625,-0.0004020240157842636,-0.001413061749190092,0.0016797957941889763
1782952683478333200,4.219333251953125,0.0010493934387341142,0.00010115047916769981,-0.001956612803041935
1782952683488261000,4.22926123046875,-0.0018704964313656092,-0.0020032792817801237,0.0018623603973537683
1782952683498188300,4.239188232421875,0.0010453717550262809,0.0009057037532329559,0.0025346979964524508
1782952683508116200,4.2491162109375,0.003080293070524931,0.00007186830043792725,-0.0005508403992280364
1782952683518043400,4.25904345703125,-0.004436911549419165,0.0011994550004601479,0.0016892338171601295
1782952683527971300,4.268971435546875,-0.0035583351273089647,0.0017616478726267815,0.0009909530635923147
1782952683537898200,4.278898193359375,0.001643870142288506,-0.0007680179551243782,-0.0015464697498828173
1782952683547826200,4.288826171875,0.002145875943824649,-0.0006564315408468246,0.0010498459450900555
1782952683557753300,4.29875341796875,0.0019240459660068154,-0.0006777774542570114,0.002269965363666415
1782952683567680300,4.30868017578125,-0.0014805392129346728,0.00027190567925572395,-0.0011268965899944305
1782952683577608400,4.3186083984375,-0.0016366257332265377,0.0001719566062092781,0.0022394750267267227
1782952683587535000,4.32853515625,-0.0029200029093772173,-0.0007849172689020634,-0.0006908011273480952
1782952683597463300,4.33846337890625,0.0003239289508201182,0.0003731297329068184,-0.0010119597427546978
1782952683607390200,4.34839013671875,-0.00073867233004421,-0.0007744263857603073,0.0004442567005753517
1782952683617318100,4.358318115234375,0.0002454896457493305,0.001655661966651678,0.001462660264223814
1782952683627245300,4.368245361328125,-0.001479173544794321,-0.000913755502551794,0.0008850207086652517
1782952683637173200,4.37817333984375,-0.00000402017030864954,0.000900528859347105,-0.0015949178487062454
1782952683647100200,4.38810009765625,-0.00022852461552247405,-0.003111523110419512,0.0016448174137622118
1782952683657028000,4.398028076171875,0.003335072658956051,-0.00034789880737662315,0.0018967210780829191
1782952683666955300,4.407955322265625,-0.0032677024137228727,-0.0011029047891497612,0.0018133639823645353
1782952683676883200,4.41788330078125,-0.0021161611657589674,0.0017916522920131683,0.0007618028903380036
1782952683686810400,4.427810302734375,-0.0012005663011223078,-0.0000619078055024147,0.002193784574046731
1782952683696738300,4.43773828125,-0.001254594186320901,-0.00014221575111150742,-0.0009672166779637337
1782952683706665200,4.447665283203125,-0.0025092093273997307,-0.00006525032222270966,0.0002644952619448304
1782952683716593200,4.45759326171875,0.002338023856282234,-0.0012963686604052782,0.0015079282457008958
1782952683726520300,4.467520263671875,-0.0011187593918293715,0.0018115402199327946,0.0007214967627078295
1782952683736448300,4.4774482421875,-0.0011963602155447006,0.0009021628648042679,0.002710586879402399
1782952683746375400,4.48737548828125,-0.0017966367304325104,0.0003626067191362381,0.00013531011063605547
1782952683756303400,4.497303466796875,0.002116212621331215,-0.00003874814137816429,0.001444786787033081
1782952683766230300,4.507230224609375,0.00029434397583827376,0.001501091755926609,0.0009558303281664848
1782952683776158200,4.517158203125,-0.0017217554850503802,0.00138454744592309,0.0012550947722047567
1782952683786085400,4.52708544921875,0.0006007872289046645,-0.0019225659780204296,-0.0010882205097004771
1782952683796013300,4.537013427734375,-0.0015275669284164906,0.00041927071288228035,0.0005336738540790975
1782952683805940200,4.546940185546875,0.001251974143087864,0.002693876624107361,0.0015917476266622543
1782952683815867100,4.5568671875,0.001063039293512702,-0.00045312056317925453,-0.0022926400415599346
1782952683825795000,4.566795166015625,0.002154669025912881,0.0004382394254207611,0.0020166209433227777
1782952683835722200,4.57672216796875,-0.00033349537989124656,0.0011089993640780449,-0.0006997701129876077
1782952683845650200,4.586650146484375,0.0012590750120580196,-0.00036053312942385674,0.0003511132672429085
1782952683855577300,4.596577392578125,0.002826584503054619,0.0017767837271094322,0.001853647641837597
1782952683865505300,4.60650537109375,0.0009389360202476382,0.0008670478127896786,-0.0006116405129432678
1782952683875432200,4.61643212890625,0.0005016356590203941,0.00034166639670729637,-0.002327234484255314
1782952683885360000,4.626360107421875,0.0017695666756480932,-0.001670884434133768,-0.0010957889026030898
1782952683895287300,4.636287353515625,-0.00031707953894510865,-0.00133259198628366,0.00017502909759059548
1782952683905215200,4.64621533203125,-0.002115245908498764,-0.0017778724431991577,-0.0004995495546609163
1782952683915142400,4.656142333984375,-0.001923863892443478,0.00017309654504060745,-0.0004950105212628841
1782952683925070300,4.6660703125,-0.0021853861398994923,0.000006915535777807236,-0.001310204155743122
1782952683934997200,4.675997314453125,0.0011693122796714306,-0.0000834600068628788,0.001892005791887641
1782952683944925200,4.68592529296875,-0.0018206185195595026,-0.000548181589692831,0.0016696318052709103
1782952683954852400,4.695852294921875,0.0007144361734390259,0.0002925149165093899,-0.000604298897087574
1782952683964780300,4.7057802734375,0.0014313592109829187,-0.0020955416839569807,0.0017661808524280787
1782952683974707500,4.71570751953125,0.0010259979171678424,-0.0010093548335134983,0.00040803535375744104
1782952683984635400,4.725635498046875,-0.00025578157510608435,0.0006793555803596973,-0.0005815952317789197
1782952683994562000,4.73556201171875,0.000599073595367372,-0.0014591743238270283,0.00020664185285568237
1782952684004490200,4.745490234375,-0.00042358023347333074,0.0018918812274932861,0.0011107849422842264
1782952684014417200,4.755417236328125,-0.0006987093365751207,-0.0016618098597973585,-0.0013482957147061825
1782952684024345000,4.765344970703125,0.0014853490283712745,0.001498030498623848,0.0006797015084885061
1782952684034272300,4.775272216796875,0.0007966769626364112,0.00020649703219532967,0.00028546102112159133
1782952684044199200,4.78519921875,0.0012360985856503248,-0.00201804144307971,-0.000168075377587229
1782952684054127000,4.795127197265625,-0.0013741246657446027,0.00028095487505197525,-0.00036918220575898886
1782952684064054300,4.80505419921875,-0.0012055464321747422,0.001984312664717436,-0.0021740065421909094
1782952684073982200,4.814982177734375,0.001243480946868658,0.0029438361525535583,-0.001035240013152361
1782952684083909400,4.824909423828125,0.000502589566167444,0.0005898680537939072,0.0019682729616761208
1782952684093838000,4.834838134765625,-0.001516141346655786,-0.00027864333242177963,0.0008169307257048786
1782952684103764700,4.8447646484375,-0.0010223911376670003,0.0019272533245384693,-0.00014846515841782093
1782952684113692700,4.854692626953125,-0.001417059451341629,-0.0015784844290465117,-0.00010958255734294653
1782952684123619800,4.864619873046875,-0.000497469853144139,-0.00041628070175647736,-0.0002070542541332543
1782952684133547800,4.8745478515625,0.0003095350111834705,0.001972995698451996,-0.0010557969799265265
1782952684143475000,4.884474853515625,0.00040168038685806096,0.0002667084336280823,-0.002449695486575365
1782952684153403000,4.89440283203125,-0.0019138448406010866,0.0020266277715563774,0.00020706659415736794
1782952684163329800,4.904329833984375,0.002663329942151904,-0.00003306102007627487,0.0004432889982126653
1782952684173257700,4.9142578125,-0.0011470356257632375,0.0002056206576526165,0.00016098900232464075
1782952684183185000,4.924184814453125,-0.0013379843439906836,-0.00003699306398630142,0.000396945106331259
1782952684193112800,4.93411279296875,-0.00004969147266820073,-0.0006322702392935753,0.0008384660468436778
1782952684203040000,4.9440400390625,0.00011142977746203542,-0.003086639568209648,0.000019277678802609444
1782952684212968000,4.953968017578125,-0.0018540341407060623,0.0028094169683754444,-0.001293129869736731
1782952684222894800,4.963894775390625,0.00019180623348802328,0.0006645070388913155,-0.0019413433037698269
1782952684232822800,4.97382275390625,-0.0008001503883861005,0.001669568009674549,-0.00002827279968187213
1782952684242750000,4.98375,0.0009495463455095887,-0.0001592244952917099,0.00020129169570282102
1782952684252678000,4.993677978515625,0.0002496249508112669,0.0012286724522709846,0.0014761199709028006
1782952684262605000,5.00360498046875,0.0012120914179831743,0.000057680532336235046,-0.0021151527762413025
1782952684272533000,5.013532958984375,0.0020798014011234045,0.0013626855798065662,0.0022560707293450832
1782952684282460000,5.0234599609375,-0.0019540886860340834,-0.0002589127980172634,-0.0025533316656947136
1782952684292386800,5.03338671875,0.0013686965685337782,-0.00015621911734342575,0.0009245264227502048
1782952684302315000,5.04331494140625,-0.0002409180742688477,-0.0019144380930811167,0.0005458249361254275
1782952684312242000,5.053241943359375,-0.0006054625264368951,-0.0003632809966802597,0.0005489012692123652
1782952684322169900,5.063169921875,-0.0007735079270787537,-0.0005955086089670658,0.0008234732085838914
1782952684332096800,5.0730966796875,-0.002972414018586278,0.0008744243532419205,-0.0017088967142626643
1782952684342024700,5.083024658203125,-0.0002714360598474741,0.00005283905193209648,-0.00012271798914298415
1782952684351952000,5.092951904296875,0.001713661476969719,-0.0010345722548663616,-0.0005751215503551066
1782952684361879800,5.1028798828125,-0.0008040910470299423,-0.0009336385410279036,0.0018656656611710787
1782952684371807000,5.112806884765625,-0.00043069414095953107,0.001999068073928356,-0.0006015778053551912
1782952684381735000,5.12273486328125,-0.0002394791808910668,-0.001045191427692771,-0.0014681704342365265
1782952684391661800,5.132661865234375,0.0021084859035909176,-0.000296667218208313,0.0012123711640015244
1782952684401589800,5.14258984375,-0.002079601166769862,0.0020154891535639763,-0.0007602322148159146
1782952684411517000,5.152516845703125,-0.0008142754668369889,-0.0010074868332594633,-0.0001523126265965402
1782952684421444900,5.16244482421875,-0.0005594110116362572,0.00017788633704185486,-0.0021408949978649616
1782952684431372000,5.1723720703125,-0.000527487660292536,-0.0012806898448616266,-0.0007366539211943746
1782952684441300000,5.182300048828125,-0.0005533203366212547,-0.00009851250797510147,-0.0009539677994325757
1782952684451227000,5.192226806640625,-0.0015746535500511527,0.0024965587072074413,-0.00041870458517223597
1782952684461154800,5.20215478515625,-0.00037889438681304455,-0.000019329600036144257,0.0003378994297236204
1782952684471082000,5.21208203125,-0.000229608325753361,0.0002115117385983467,0.0006836652173660696
1782952684481010000,5.222010009765625,-0.00027781148673966527,0.0013478826731443405,-0.0002915843215305358
1782952684490937000,5.23193701171875,0.0018077900167554617,0.0009509171359241009,-0.0007505054818466306
1782952684500863700,5.24186376953125,0.0005047054146416485,0.0014547868631780148,-0.0005736715975217521
1782952684510791700,5.251791748046875,0.001734518213197589,0.0005420399829745293,-0.0009124488569796085
1782952684520718800,5.26171875,0.00044581451220437884,0.003042215947061777,-0.0006264253752306104
1782952684530646800,5.271646728515625,-0.00004246598109602928,0.0009702271781861782,-0.0014292584965005517
1782952684540574000,5.281573974609375,-0.0018952270038425922,0.0006487835198640823,0.0026251378003507853
1782952684550502000,5.291501953125,0.002237229375168681,0.00109917763620615,-0.00016663235146552324
1782952684560428800,5.3014287109375,0.001844146754592657,0.0017383364029228687,0.0011324577499181032
1782952684570356700,5.311356689453125,0.0010908404365181923,-0.0002758796326816082,0.0013048340333625674
1782952684580281900,5.32128173828125,0.0012247973354533315,0.00026314426213502884,0.0003263886319473386
1782952684590208800,5.331208740234375,0.001137281535193324,0.001681228168308735,0.003299409057945013
1782952684600135700,5.3411357421875,0.0012661785585805774,-0.0019832816906273365,0.0026229661889374256
1782952684610064000,5.35106396484375,0.0017310651019215584,-0.0012685763649642467,-0.003181842155754566
1782952684619990800,5.36099072265625,0.0010855149012058973,0.002815913874655962,-0.003303015837445855
1782952684629918700,5.370918701171875,-0.00046733987983316183,-0.0007375623099505901,0.0006050628726370633
1782952684639846000,5.380845947265625,-0.0008822603849694133,0.0008957544341683388,0.0007712441147305071
1782952684649773800,5.39077392578125,-0.0009309501620009542,0.002155591268092394,0.0002450020401738584
1782952684659701000,5.400700927734375,0.0011449838057160378,-0.0007560425437986851,0.0004284937749616802
1782952684669629000,5.41062890625,-0.0012570030521601439,0.002253403887152672,-0.000044111511670053005
1782952684679555800,5.420555908203125,-0.00013874174328520894,0.0013183681294322014,0.0004445785307325423
1782952684689483800,5.43048388671875,0.0003337804810144007,-0.0007921503856778145,0.0002878025406971574
1782952684699411000,5.440410888671875,0.0023716313298791647,-0.0005380851216614246,0.0008286905940622091
1782952684709339000,5.4503388671875,-0.0006177793256938457,0.001670860219746828,0.00022930186241865158
1782952684719266000,5.46026611328125,0.00006558781024068594,0.0006681801751255989,0.00018322916002944112
1782952684729194000,5.470194091796875,-0.0004602744011208415,-0.0019023746717721224,0.0019316761754453182
1782952684739121000,5.480120849609375,0.0012646550312638283,-0.0006807828322052956,0.0008485685684718192
1782952684749048800,5.490048828125,0.0005487713497132063,-0.00029521435499191284,0.0016147890128195286
1782952684758976000,5.49997607421875,-0.0014169077621772885,0.0006691161543130875,0.0006568499957211316
1782952684768904000,5.509904052734375,0.00006674521137028933,-0.0016612312756478786,0.0003133713616989553
1782952684778830800,5.519830810546875,0.0009330714819952846,-0.0023280868772417307,0.0013485420495271683
1782952684788759000,5.529759033203125,0.00253086956217885,-0.0000896574929356575,-0.0004631999181583524
1782952684798685700,5.539685791015625,-0.0006092635449022055,0.0008664173074066639,0.0013064704835414886
1782952684808614000,5.54961376953125,0.0002247542142868042,0.0012336079962551594,-0.000428240979090333
1782952684818540800,5.559540771484375,-0.0005550193600356579,-0.0007656272500753403,0.00009054283145815134
1782952684828468000,5.569468017578125,0.002327313181012869,0.0005789832212030888,0.0002272260026074946
1782952684838396000,5.57939599609375,0.0008410029695369303,0.00023756595328450203,0.0003033924149349332
1782952684848322800,5.58932275390625,-0.0014075819635763764,-0.0005696769803762436,0.0003233360475860536
1782952684858250800,5.599250732421875,0.0018108482472598553,0.0010013217106461525,-0.0014037239598110318
1782952684868178000,5.609177978515625,-0.00041994114872068167,-0.0016261916607618332,0.00006084208143875003
1782952684878105900,5.61910595703125,-0.00002153229434043169,-0.0018560225144028664,-0.0007239914848469198
1782952684888033000,5.629032958984375,-0.0034842542372643948,0.0023109540343284607,0.001649130485020578
1782952684897961000,5.6389609375,-0.0014786275569349527,0.0008845650590956211,-0.0017184366006404161
1782952684907887900,5.648887939453125,0.0007048568222671747,0.0004512662999331951,0.000552314450033009
1782952684917815800,5.65881591796875,0.001863065524958074,0.00047603389248251915,-0.0011883275583386421
1782952684927743000,5.668742919921875,0.0010524092940613627,-0.0003581531345844269,0.002912224968895316
1782952684937671000,5.6786708984375,0.00045452965423464775,-0.0007331264205276966,-0.00009048922220245004
1782952684947600000,5.688599853515625,0.0007335145492106676,0.0017250515520572662,0.00174927175976336
1782952684957527800,5.69852783203125,-0.00045825005508959293,0.0011005401611328125,-0.0008017701911740005
1782952684967455000,5.708455078125,-0.00022535247262567282,-0.0004819273017346859,-0.00025267121964134276
1782952684977383000,5.7183828125,0.0014694832498207688,0.001608387567102909,-0.0012204640079289675
1782952684987309800,5.728309814453125,-0.0010272834915667772,0.00002284115180373192,0.00006404961459338665
1782952684997237000,5.738237060546875,0.00026168650947511196,0.0009059454314410686,0.0003476763376966119
1782952685007165000,5.7481650390625,0.0007029561093077064,0.0007416419684886932,-0.0010215240763500333
1782952685017092000,5.758092041015625,-0.0012451461516320705,-0.00015610922127962112,-0.00014401250518858433
1782952685027020000,5.76802001953125,0.000029405520763248205,0.001350595150142908,-0.0008775058668106794
1782952685036946700,5.77794677734375,-0.0015314731281250715,0.0019881557673215866,-0.00017096922965720296
1782952685046875000,5.787875,-0.0004893721779808402,0.001819778699427843,0.0007881018100306392
1782952685056801800,5.7978017578125,0.004237472545355558,-0.0015557780861854553,0.0012054190738126636
1782952685066729700,5.807729736328125,-0.0009689289727248251,-0.000893840566277504,0.000016456644516438246
1782952685076657000,5.817656982421875,-0.001721005653962493,0.0029959725216031075,-0.0008152485243044794
1782952685086584800,5.827584716796875,0.0011857803910970688,0.0011942451819777489,-0.0008537760004401207
1782952685096511500,5.837511474609375,-0.0005993364029563963,-0.0003045815974473953,-0.001292398665100336
1782952685106440000,5.84743994140625,0.00037718459498137236,0.0009103552438318729,-0.0009626048267818987
1782952685116366600,5.85736669921875,-0.00032509095035493374,-0.00018446985632181168,-0.0016164109110832214
1782952685126294500,5.86729443359375,0.0012468685163185,-0.00039853667840361595,0.00044970744056627154
1782952685136221700,5.8772216796875,0.003135848790407181,-0.0005210423842072487,-0.0005849307053722441
1782952685146149600,5.887149658203125,-0.000844120339024812,0.0012227566912770271,0.00176364672370255
1782952685156076500,5.89707666015625,0.0009793461067602038,-0.0010619692038744688,0.001177751342765987
1782952685166004700,5.907004638671875,0.0012348052114248276,-0.0024387037847191095,0.0004514927859418094
1782952685175931600,5.916931640625,0.0018526585772633553,-0.0004937970079481602,-0.0020209860522300005
1782952685185859600,5.926859619140625,0.0012919408036395907,0.0003618593327701092,-0.002426878549158573
1782952685195786800,5.936786865234375,-0.0016572438180446625,0.0010465579107403755,-0.0002332329167984426
1782952685205714700,5.946714599609375,-0.0010449436958879232,-0.0006404789164662361,0.0003801878774538636
1782952685215641900,5.956641845703125,-0.0006681064260192215,-0.0018266509287059307,0.0005913765635341406
1782952685225568800,5.96656884765625,0.0018360123503953218,0.0004644175060093403,0.0006742688710801303
1782952685235496700,5.97649658203125,0.00165198789909482,-0.001589145977050066,-0.0007377390866167843
1782952685245423900,5.986423828125,0.0017148260958492756,0.0027504311874508858,-0.0006323853740468621
1782952685255351800,5.996351806640625,0.0012828614562749863,0.0002326788380742073,0.0014400865184143186
1782952685265278700,6.00627880859375,0.002085351385176182,-0.002625787165015936,0.0004242401337251067
1782952685275207000,6.01620703125,-0.0007122993702068925,0.0019425991922616959,-0.00018375949002802372
1782952685285133600,6.026133544921875,0.0034913013223558664,-0.00010947883129119873,-0.0009317487711086869
1782952685295061800,6.036061767578125,0.0015458621783182025,-0.0010266716126352549,-0.000371153379091993
1782952685304988700,6.04598876953125,-0.0002359567442908883,-0.0004218565300107002,-0.001966448500752449
1782952685314916600,6.05591650390625,-0.0003712453180924058,-0.0025087096728384495,-0.0005208845250308514
1782952685324843500,6.065843505859375,-0.0004217773675918579,-0.00011464906856417656,-0.0018981744069606066
1782952685334771700,6.075771728515625,-0.001356813358142972,-0.0005407552234828472,-0.0019687481690198183
1782952685344698600,6.08569873046875,-0.000711181026417762,-0.0002739317715167999,0.0010690373601391912
1782952685354626600,6.09562646484375,-0.0004453976289369166,-0.0014601040165871382,0.00019125943072140217
1782952685364553700,6.1055537109375,0.0011061216937378049,-0.0010918066836893559,0.002900325693190098
1782952685374481700,6.115481689453125,-0.0015642299549654126,-0.00016609206795692444,0.000355142867192626
1782952685384408800,6.125408935546875,-0.00007411564001813531,0.0006431057117879391,-0.0016066214302554727
1782952685394336800,6.135336669921875,0.0003836817923001945,-0.0027066185139119625,-0.0005331011489033699
1782952685404263700,6.145263671875,0.0009963936172425747,-0.00013504642993211746,0.000756126653868705
1782952685414191600,6.155191650390625,0.00243396800942719,-0.0009571642149239779,-0.00035813997965306044
1782952685424118800,6.165118896484375,0.00018976419232785702,-0.0016992895398288965,-0.0018034169916063547
1782952685434046700,6.175046630859375,0.0033205763902515173,-0.0009469464421272278,-0.0002939373953267932
1782952685443974000,6.184973876953125,-0.0003870097571052611,0.00012514367699623108,0.00013412628322839737
1782952685453900800,6.19490087890625,0.0015541682951152325,0.0005057090893387794,0.0008049766183830798
1782952685463828700,6.204828857421875,0.00008993735536932945,0.0006601978093385696,0.000588306225836277
1782952685473755600,6.214755615234375,0.0010470774723216891,0.0024655545130372047,0.0006801852723583579
1782952685483683800,6.224683837890625,0.0023245015181601048,0.0005946280434727669,-0.0010142754763364792
1782952685493610500,6.234610595703125,0.0005279331235215068,-0.0015366999432444572,0.00025045970687642694
1782952685503538700,6.24453857421875,-0.0007309232605621219,-0.0004752860404551029,-0.0012993733398616314
1782952685513465600,6.254465576171875,0.00019159575458616018,-0.00002068420872092247,0.0006540553877130151
1782952685523393500,6.2643935546875,-0.00041587447049096227,0.00123496912419796,-0.0007843115599825978
1782952685533320700,6.27432080078125,-0.0006939084851182997,0.0006410842761397362,0.000717711285687983
1782952685543248600,6.28424853515625,0.0028922928031533957,-0.00006078649312257767,-0.0010612296173349023
1782952685553175800,6.29417578125,-0.0006899251602590084,0.0012593427672982216,-0.001087062293663621
1782952685563103700,6.304103759765625,-0.0007393668638542295,0.0005711815319955349,0.001785107422620058
1782952685573030700,6.31403076171875,0.00019646791042760015,0.00012643355876207352,-0.002465830184519291
1782952685582958600,6.32395849609375,0.002465438563376665,0.002093886025249958,-0.0019985211547464132
1782952685592885800,6.3338857421875,-0.0009889478096738458,0.002090956550091505,-0.0016248796600848436
1782952685602813700,6.343813720703125,0.0014941338449716568,0.0018995986320078373,-0.00043925491627305746
1782952685612740900,6.353740966796875,-0.0012710264418274164,0.0009030438959598541,0.0010065753012895584
1782952685622668800,6.363668701171875,0.0004401904297992587,-0.0018924807664006948,-0.001647075405344367
1782952685632595700,6.373595703125,0.0017699068412184715,0.0009067677892744541,-0.0001394598511978984
1782952685642523000,6.38352294921875,-0.0018347679870203137,0.0003863959573209286,-0.00208911276422441
1782952685652450800,6.393450927734375,0.0011924471473321319,0.002121445257216692,0.0009226562106050551
1782952685662377500,6.40337744140625,0.00015371519839391112,0.0018921587616205215,-0.00112754141446203
1782952685672306000,6.413305908203125,0.002981725847348571,0.0004428662359714508,-0.0002548235352151096
1782952685682232600,6.423232666015625,-0.00138787308242172,0.0003679487854242325,0.0030799272935837507
1782952685692160500,6.433160400390625,0.0013559818034991622,0.0010925950482487679,-0.0006884456379339099
1782952685702087700,6.443087646484375,-0.0006685105036012828,-0.0018864539451897144,-0.0010610297322273254
1782952685712015600,6.453015625,0.00016772211529314518,0.00025286339223384857,-0.002002723515033722
1782952685721942800,6.46294287109375,-0.002233627252280712,0.0002187914215028286,0.001149114454165101
1782952685731870700,6.47287060546875,-0.0013731595827266574,0.0018451837822794914,0.0003230019356124103
1782952685741797600,6.482797607421875,0.0014656726270914078,-0.0018222772050648928,-0.000726389407645911
1782952685751725600,6.4927255859375,-0.0004099917132407427,-0.001465679844841361,-0.0016712789656594396
1782952685761652700,6.50265283203125,-0.001696201739832759,-0.0003813309594988823,-0.0012561617186293006
1782952685771580700,6.51258056640625,-0.0017931407783180475,0.0011656996794044971,-0.00009502354077994823
1782952685781507800,6.5225078125,-0.0009354325011372566,-0.0012038515415042639,0.0008587889606133103
1782952685791435800,6.532435791015625,-0.0007303691236302257,-0.0003532380796968937,-0.000989444786682725
1782952685801362700,6.54236279296875,-0.00022212351905182004,0.0008706171065568924,0.001577840419486165
1782952685811290600,6.55229052734375,0.00011716323206201196,0.001214431133121252,-0.0007074180757626891
1782952685821217800,6.5622177734375,-0.000014917750377207994,0.0007557477802038193,-0.002187870442867279
1782952685831145700,6.572145751953125,0.002455430570989847,-0.0017241875175386667,-0.0005953002837486565
1782952685841073000,6.582072998046875,0.0006931065581738949,-0.0025501130148768425,0.000587446556892246
1782952685851000800,6.592000732421875,0.0005117452819831669,0.0011628661304712296,0.0029464748222380877
1782952685860927700,6.601927734375,0.001204193802550435,0.0015962030738592148,-0.002362615428864956
1782952685870854700,6.611854736328125,-0.0013622945407405496,0.0019677141681313515,-0.002293639350682497
1782952685880782600,6.621782470703125,0.00233291182667017,0.0001535629853606224,0.002509830519556999
1782952685890709800,6.631709716796875,-0.00009056489216163754,-0.0005873283371329308,-0.0007461502682417631
1782952685900637700,6.6416376953125,-0.0005566076142713428,0.0022508627735078335,0.0009846528992056847
1782952685910564600,6.651564697265625,-0.0004359664162620902,0.00201943377032876,-0.0014846299309283495
1782952685920492500,6.661492431640625,0.0013646469451487064,-0.00044944649562239647,-0.000471742358058691
1782952685930419700,6.671419677734375,-0.0016212891787290573,0.0012222197838127613,0.0001735415426082909
1782952685940347600,6.68134765625,-0.002587642055004835,0.003917919937521219,-0.0006166597013361752
1782952685950274800,6.69127490234375,0.000590041687246412,-0.0023647435009479523,-0.00017537391977384686
1782952685960202800,6.70120263671875,0.0009855886455625296,0.000757328700274229,0.0008364391978830099
1782952685970129700,6.711129638671875,-0.001068773795850575,0.0005674455314874649,-0.00023867894196882844
1782952685980057600,6.7210576171875,0.00016054167645052075,0.0008438164368271828,0.0023297015577554703
1782952685989984800,6.73098486328125,-0.0011236346326768398,-0.0008528835605829954,-0.002074634190648794
1782952685999912700,6.74091259765625,-0.00012580817565321922,-0.0002702344208955765,-0.00044973683543503284
1782952686009839900,6.75083984375,-0.0002933209761977196,0.0017777364701032639,0.00014441442908719182
1782952686019767800,6.760767822265625,0.0018781445687636733,0.00002908194437623024,0.0005078833200968802
1782952686029694700,6.77069482421875,0.001544184167869389,-0.0002510827034711838,0.0007246647146530449
1782952686039622700,6.78062255859375,0.0013134842738509178,0.0001769675873219967,0.00012220226926729083
1782952686049549800,6.7905498046875,0.0004335758276283741,-0.0023967113811522722,-0.0023002091329544783
1782952686059476700,6.800476806640625,-0.0012365353759378195,-0.0007976146880537271,0.0017251274548470974
1782952686069404700,6.81040478515625,0.0005227487999945879,0.000017578713595867157,0.0007506767869926989
1782952686079331600,6.82033154296875,0.0010950455907732248,0.000040384940803050995,0.0009966653306037188
1782952686089259500,6.830259521484375,-0.000525754236150533,0.000009758397936820984,0.0008067819871939719
1782952686099186200,6.840186279296875,-0.0011294328141957521,-0.000365610234439373,0.0007538751233369112
1782952686109114000,6.850114013671875,-0.000808255688752979,0.0009329472668468952,-0.001424324349500239
1782952686119041300,6.860041259765625,0.0014204734470695257,-0.0005134297534823418,-0.0012231350410729647
1782952686128969200,6.86996923828125,0.0018851951463147998,0.0005078925751149654,0.0011417518835514784
1782952686138896100,6.879896240234375,0.0005625064950436354,0.0010584448464214802,0.0023694466799497604
1782952686148824300,6.88982421875,-0.0028769660275429487,0.0018155816942453384,-0.0022364903707057238
1782952686158751200,6.899751220703125,-0.0027758791111409664,0.0011487430892884731,-0.0011948945466428995
1782952686168679200,6.90967919921875,-0.00017210643272846937,-0.0005612722598016262,-0.0006215159082785249
1782952686178606300,6.9196064453125,0.00198049726895988,0.0002839602530002594,0.00035309966187924147
1782952686188534300,6.9295341796875,-0.00024164427304640412,-0.001725927460938692,-0.001704458612948656
1782952686198461200,6.939461181640625,0.0006162672070786357,0.004251204896718264,-0.0007856932934373617
1782952686208389400,6.949389404296875,-0.0016104017850011587,0.002535330131649971,-0.0024898501578718424
1782952686218316300,6.95931640625,0.00022051442647352815,0.0002558482810854912,0.002504694974049926
1782952686228244200,6.969244140625,-0.0009534069104120135,-0.0014645536430180073,-0.0012985651846975088
1782952686238171400,6.97917138671875,0.0012515925336629152,0.0022735977545380592,0.00045735028106719255
1782952686248098000,6.98909814453125,0.0009794174693524837,-0.0012958368752151728,0.002139402786269784
1782952686258026200,6.999026123046875,-0.0004439079202711582,0.0007733642123639584,-0.0002348819689359516
1782952686267953200,7.008953125,0.0032685385085642338,-0.0016631619073450565,0.000702550751157105
1782952686277881000,7.018881103515625,-0.0006131039699539542,0.0005966462194919586,0.0026951730251312256
1782952686287808300,7.028808349609375,-0.002498089335858822,0.0029104002751410007,0.001468521193601191
1782952686297736200,7.038736083984375,-0.002638455480337143,0.0010957675985991955,-0.0019939951598644257
1782952686307663000,7.0486630859375,0.0012116765137761831,-0.000326360110193491,0.0027107452042400837
1782952686317591300,7.05859130859375,-0.0016113121528178453,0.0011969218030571938,0.0002453100751154125
1782952686327518200,7.068518310546875,0.00031947967363521457,0.0006320653483271599,-0.001526757376268506
1782952686337446100,7.078446044921875,0.0011347101535648108,0.0011333427391946316,0.005132214166224003
1782952686347373300,7.088373291015625,0.001272395602427423,-0.0016227627638727427,0.00003625574754551053
1782952686357301200,7.09830126953125,0.0011822007363662124,0.0004805321805179119,0.0005784221575595438
1782952686367228200,7.108228271484375,0.0025563919916749,0.0021109189838171005,-0.000694302492775023
1782952686377156400,7.11815625,-0.0013189029414206743,-0.00063736317679286,-0.0007278523407876492
1782952686387083300,7.128083251953125,0.00038205808959901333,-0.0005433536134660244,-0.00012997270096093416
1782952686397011200,7.13801123046875,-0.0015151918632909656,0.0006808657199144363,0.0005334700690582395
1782952686406938400,7.1479384765625,-0.001671519479714334,-0.001221430255100131,0.0022552036680281162
1782952686416866300,7.1578662109375,-0.00047964672558009624,0.0014495179057121277,-0.0007941390504129231
1782952686426793200,7.167793212890625,-0.001142241177149117,-0.0004338696599006653,0.00019229581812396646
1782952686436721400,7.177721435546875,0.00031568645499646664,0.002153279259800911,0.0016379542648792267
1782952686446648300,7.1876484375,0.0008517807582393289,0.0006089122034609318,0.0018906882032752037
1782952686456575200,7.1975751953125,0.0011851987801492214,0.00141611834987998,0.000013405922800302505
1782952686466503200,7.207503173828125,0.00037719577085226774,-0.0020846067927777767,0.0008696122094988823
1782952686476430000,7.21743017578125,-0.0034294005017727613,0.00031368527561426163,-0.0017497288063168526
1782952686486358300,7.227358154296875,-0.00029752322006970644,0.0004822630435228348,0.000138452451210469
1782952686496285200,7.23728515625,0.0014293789863586426,0.0005677845329046249,0.0010914859594777226
1782952686506213000,7.247213134765625,-0.001505424501374364,0.0020591546781361103,-0.0006126707885414362
1782952686516140300,7.257140380859375,0.0010357493301853538,-0.0016593786422163248,-0.0011479632230475545
1782952686526068200,7.267068115234375,0.0013257676037028432,0.00149087468162179,0.00034420593874529004
1782952686535995100,7.2769951171875,-0.0011644340120255947,-0.0006146184168756008,-0.0006479158764705062
1782952686545923300,7.28692333984375,0.0003985751827713102,0.0020256396383047104,0.0008037732332013547
1782952686555850200,7.296850341796875,-0.002025819383561611,0.0008207247592508793,0.0005344692035578191
1782952686565778200,7.306778076171875,0.00033027917379513383,0.0010260548442602158,-0.0008964472217485309
1782952686575705300,7.316705322265625,0.0012301253154873848,0.0000024028122425079346,-0.0006937288562767208
1782952686585633300,7.32663330078125,0.0010466334642842412,0.0018868553452193737,-0.00193209876306355
1782952686595560200,7.336560302734375,0.0006232053274288774,0.0002304576337337494,0.00013355596456676722
1782952686605488400,7.34648828125,-0.0008583111921325326,0.002187348436564207,0.0013634038623422384
1782952686615415300,7.356415283203125,-0.0000456341658718884,0.001991603523492813,-0.0045101880095899105
1782952686625343200,7.36634326171875,0.0000289343879558146,0.0006464407779276371,0.0007109391153790057
1782952686635270400,7.3762705078125,-0.002376938471570611,-0.0010176196228712797,0.00033052352955564857
1782952686645197000,7.386197021484375,-0.0007966187549754977,0.0008199615404009819,-0.0001576339127495885
1782952686655125200,7.396125244140625,0.0011276915902271867,0.0010920604690909386,0.00038657948607578874
1782952686665052200,7.40605224609375,-0.001471287221647799,0.0005642217583954334,0.0010443802457302809
1782952686674980000,7.41597998046875,-0.0008783595985732973,0.0017569409683346748,-0.0004719608405139297
1782952686684907300,7.4259072265625,0.0011826608097180724,-0.00022418424487113953,0.0014851962914690375
1782952686694835200,7.435835205078125,0.000600903935264796,-0.0017841299995779991,0.001725843409076333
1782952686704762000,7.44576220703125,0.0003170109703205526,-0.001000627875328064,-0.00039642961928620934
1782952686714690300,7.455690185546875,0.0012335614301264286,-0.002067605499178171,0.00003575702430680394
1782952686724617200,7.4656171875,0.002177918329834938,0.0014962367713451385,-0.00043668775469996035
1782952686734545200,7.475545166015625,-0.002169080078601837,-0.0014861254021525383,0.0002466491423547268
1782952686744472300,7.485472412109375,-0.0015035562682896852,0.0006425390020012856,0.000520688365213573
1782952686754400300,7.495400146484375,0.001018073409795761,0.0010178452357649803,-0.0003476749698165804
1782952686764327200,7.5053271484375,0.001119007240049541,0.001930510625243187,0.00020572991343215108
1782952686774255400,7.51525537109375,0.0016716548707336187,0.0008754590526223183,0.0014281491748988628
1782952686784182300,7.525182373046875,-0.00008017243817448616,-0.00012642191722989082,-0.0007923946832306683
1782952686794110200,7.535110107421875,0.000051731010898947716,0.00022807996720075607,-0.0017257134895771742
1782952686804037400,7.545037353515625,-0.0007285752217285335,0.00032635079696774483,-0.0017507472075521946
1782952686813965300,7.55496533203125,0.0026818858459591866,-0.0011631548404693604,0.00027297443011775613
1782952686823892500,7.564892578125,-0.0001836755545809865,0.000013962388038635254,0.0006601979839615524
1782952686833820400,7.5748203125,-0.0008768729167059064,0.0014758124016225338,0.0006261461530812085
1782952686843747000,7.5847470703125,-0.0005639515584334731,-0.001628367928788066,0.0004538396024145186
1782952686853674200,7.59467431640625,-0.0026262495666742325,0.002899651415646076,-0.001991686411201954
1782952686863602200,7.604602294921875,-0.0028792498633265495,-0.0015827147290110588,-0.001489680609665811
1782952686873529000,7.614529052734375,0.0006494369590654969,-0.0007086675614118576,-0.001246118452399969
1782952686883457300,7.624457275390625,0.00014530058251693845,0.000751277431845665,0.0008601756417192519
1782952686893384200,7.63438427734375,0.00278567080385983,0.0020938292145729065,-0.0006267947610467672
1782952686903312100,7.64431201171875,0.0030360077507793903,-0.0006913044489920139,-0.0017517139203846455
1782952686913239300,7.6542392578125,0.0022189468145370483,0.0014124284498393536,0.0007987478165887296
1782952686923167200,7.664167236328125,0.00014061585534363985,-0.0013649824541062117,-0.0011940955882892013
1782952686933094100,7.67409423828125,-0.00028246641159057617,0.0007739388383924961,0.000529157230630517
1782952686943022300,7.684022216796875,0.0015433968510478735,0.00023251818493008614,0.0012628580443561077
1782952686952949200,7.69394921875,0.00018073146929964423,-0.002085731830447912,-0.0008088538888841867
1782952686962877200,7.703877197265625,-0.00011168362107127905,0.0020544184371829033,0.0009557565790601075
1782952686972804400,7.713804443359375,0.0014330780832096934,-0.00012784544378519058,0.0018194301519542933
1782952686982732300,7.723732177734375,0.0008610311197116971,0.0019171959720551968,0.000024725799448788166
1782952686992659500,7.733659423828125,0.002224735915660858,0.000948027241975069,0.0015505109913647175
1782952687002587400,7.74358740234375,0.001480648759752512,-0.0016269830521196127,-0.0013094577006995678
1782952687012514300,7.753514404296875,0.00220514927059412,-0.00045214174315333366,-0.0006137324380688369
1782952687022442200,7.763442138671875,0.0020227227360010147,0.0004493384622037411,0.0017785851377993822
1782952687032369200,7.773369140625,0.0006968682864680886,-0.000810729805380106,0.0018920567817986012
1782952687042296000,7.783296142578125,0.0027435075026005507,-0.0017771909479051828,-0.00006163824582472444
1782952687052224300,7.793224365234375,-0.00016584014520049095,-0.0008249352686107159,-0.0000938840676099062
1782952687062151200,7.803151123046875,0.0008280515321530402,-0.0003407727926969528,0.0013958881609141827
1782952687072079000,7.8130791015625,-0.0018249007407575846,0.0005165757611393929,-0.0013713380321860313
1782952687082006300,7.82300634765625,-0.0013559181243181229,-0.0005454928614199162,-0.00016812188550829887
1782952687091934200,7.832934326171875,-0.00032984022982418537,0.0005688145756721497,-0.001912812003865838
1782952687101861000,7.842861083984375,-0.0020132241770625114,0.00042313942685723305,-0.0020741994958370924
1782952687111789000,7.8527890625,0.0016659494722262025,-0.002586081624031067,0.0026218732818961143
1782952687121716000,7.862716064453125,-0.0016640671528875828,0.0005497904494404793,-0.0014242671895772219
1782952687131644000,7.872643798828125,-0.000005203241016715765,0.000035307370126247406,0.0007795048877596855
1782952687141571000,7.882571044921875,-0.0010150739690288901,0.000731457956135273,-0.0012546174693852663
1782952687151499000,7.8924990234375,0.0006264637922868133,0.0023749140091240406,0.0023251869715750217
1782952687161426200,7.90242626953125,-0.00031576264882460237,0.0008734236471354961,-0.0019981886725872755
1782952687171354000,7.91235400390625,0.0003929900412913412,-0.002994646318256855,0.0014493931084871292
1782952687181280800,7.92228076171875,-0.0008240746101364493,0.0005074106156826019,-0.0011386667611077428
1782952687191209000,7.932208984375,-0.0006929481169208884,-0.00036990176886320114,0.0016200223471969366
1782952687201135900,7.942135986328125,-0.0007115902844816446,0.0019108294509351254,-0.0002228849334642291
1782952687211062800,7.952062744140625,0.0020135443191975355,-0.0004228414036333561,-0.0005921751726418734
1782952687220991000,7.961990966796875,0.000008983013685792685,0.000029097311198711395,0.0015354242641478777
1782952687230918000,7.97191796875,0.0005724782822653651,0.0015672012232244015,-0.0008377215708605945
1782952687240845800,7.981845703125,0.0029946232680231333,0.00019327644258737564,0.0006784159922972322
1782952687250773000,7.99177294921875,0.00025317358085885644,-0.00035400595515966415,0.0003816689131781459
1782952687260701000,8.001700927734374,0.0020508072338998318,-0.0011444322299212217,-0.0006479091825895011
1782952687270628000,8.011628173828125,0.0019122932571917772,0.001036668661981821,-0.0010542372474446893
1782952687280556000,8.02155615234375,-0.0022627441212534904,-0.00041848234832286835,0.001567911240272224
1782952687290483000,8.03148291015625,-0.0006224530516192317,0.0015959073789417744,-0.0014807883417233825
1782952687300411000,8.041410888671875,-0.0004669243935495615,-0.0007663164287805557,0.0008063343702815473
1782952687310338000,8.051338134765626,-0.0010737907141447067,0.0022877189330756664,-0.0011389106512069702
1782952687320266000,8.061265869140625,-0.0012128076050430536,0.0008192518725991249,-0.0008749913540668786
1782952687330193200,8.071193115234376,0.0009508483344689012,0.001986169256269932,0.0000700299278832972
1782952687340121000,8.08112109375,0.0006704174447804689,0.0009185080416500568,0.0015659276396036148
1782952687350048000,8.091048095703124,0.002182435244321823,0.00022052088752388954,0.00011345563689246774
1782952687359976000,8.100975830078125,0.0025837738066911697,0.0015302635729312897,0.0011009557638317347
1782952687369902800,8.11090283203125,-0.00012243760284036398,-0.002014727098867297,0.0005785410758107901
1782952687379831000,8.1208310546875,0.0004887578543275595,0.0008218055590987206,-0.0012001842260360718
1782952687389758000,8.130758056640625,-0.000052407849580049515,-0.0016205997671931982,0.0007199083920568228
1782952687399684900,8.140684814453126,0.0009582617785781622,-0.0017851830925792456,0.0007606546860188246
1782952687409612800,8.15061279296875,0.0009589516557753086,-0.001585202058777213,-0.0010136443888768554
1782952687419540000,8.1605400390625,-0.001392353093251586,0.0006137699820101261,0.0007192745106294751
1782952687429468000,8.170468017578125,-0.0007166845025494695,-0.001633343519642949,-0.0018714710604399443
1782952687439395000,8.18039501953125,-0.0017723615746945143,0.00006415555253624916,-0.0003894218825735152
1782952687449323000,8.190322998046875,0.00010952615411952138,-0.0005262531340122223,-0.0013119112700223923
1782952687459250000,8.20025,0.00014308199752122164,-0.000882584135979414,0.0004196760128252208
1782952687469177900,8.210177734375,0.00015817699022591114,-0.0013146584387868643,0.0015389646869152784
1782952687479105000,8.22010498046875,-0.0027406737208366394,0.002491531427949667,0.00035971711622551084
1782952687489033000,8.230032958984374,0.004723310470581055,-0.001839242409914732,-0.0012205579550936818
1782952687498960100,8.239960205078125,-0.0006554761785082519,-0.00024028029292821884,0.0010900006163865328
1782952687508888000,8.24988818359375,0.00002528401091694832,0.001194110605865717,-0.0005751923308707774
1782952687518815000,8.25981494140625,0.0005826835986226797,-0.000716441310942173,0.00039313308661803603
1782952687528743000,8.269742919921875,-0.0005811159498989582,0.0017880662344396114,-0.0010982947424054146
1782952687538670000,8.279670166015626,-0.0011528966715559363,0.002125754952430725,0.000016770733054727316
1782952687548598000,8.289597900390625,0.0015761458780616522,-0.0010274855885654688,-0.000487465993501246
1782952687558525000,8.29952490234375,0.000495435087941587,-0.001908459234982729,0.00042706349631771445
1782952687568453000,8.309453125,0.0014139198465272784,-0.0004046540707349777,0.0030243350192904472
1782952687578379800,8.3193798828125,0.001201399601995945,-0.0023391740396618843,-0.0003320467076264322
1782952687588307000,8.329306884765625,0.00035159115213900805,0.0012643178924918175,-0.0006047752103768289
1782952687598235000,8.33923486328125,0.0001329455990344286,0.0007508601993322372,0.00013744778698310256
1782952687608162000,8.349162109375,-0.001612483523786068,0.002106589265167713,-0.0011594791430979967
1782952687618090000,8.359090087890625,-0.0005778454360552132,-0.0018207745160907507,-0.0013195350766181946
1782952687628017000,8.369016845703126,0.0019698506221175194,-0.002534105908125639,0.00146913668140769
1782952687637944800,8.37894482421875,-0.001160961459390819,0.001283802092075348,0.002328006085008383
1782952687647872000,8.3888720703125,0.0008206191705539823,0.00001815473660826683,-0.0002257253509014845
1782952687657800000,8.398800048828125,-0.0003873906680382788,0.001069837249815464,-0.003121380228549242
1782952687667727000,8.40872705078125,0.0012519042938947678,0.00041429558768868446,0.0007695512031204998
1782952687677655000,8.418655029296875,0.00041886745020747185,0.0009937994182109833,-0.002347146160900593
1782952687687582000,8.42858203125,0.0007772159297019243,-0.00006507476791739464,0.0016199713572859764
1782952687697510000,8.438510009765626,0.0005335366586223245,0.0007205577567219734,0.00091450015315786
1782952687707437000,8.44843701171875,-0.0003386508906260133,0.0007547326385974884,0.00033812655601650476
1782952687717365000,8.458364990234376,0.0001923833624459803,-0.0015094869304448366,-0.0006871904479339719
1782952687727292200,8.468292236328125,-0.0010746995685622096,0.0001294771209359169,0.0003874783869832754
1782952687737220000,8.47822021484375,-0.001629702397622168,0.001691421028226614,0.0016570072621107101
1782952687747146800,8.488146728515625,0.002551030833274126,0.0017254468984901905,0.00276627647690475
1782952687757075000,8.498074951171875,0.0007499349303543568,-0.0009046911727637053,0.001410727621987462
1782952687767001900,8.508001953125,-0.0024321661330759525,0.0023821727372705936,0.0008206793572753668
1782952687776929000,8.517928955078125,0.00019983580568805337,-0.0017206929624080658,0.0011623629834502935
1782952687786857000,8.52785693359375,-0.0016989752184599638,0.0005355365574359894,0.000630753580480814
1782952687796783900,8.537783935546875,0.002932528033852577,-0.001351845683529973,0.0006619126070290804
1782952687806711800,8.5477119140625,-0.001628838013857603,0.0008585941977798939,0.0026772057171911
1782952687816639000,8.557638916015625,-0.0008626464987173676,0.0004034601151943207,-0.00025546737015247345
1782952687826567000,8.56756689453125,0.0005639406736008823,-0.0002620900049805641,-0.00220682006329298
1782952687836494000,8.577494140625,-0.00011516537051647902,0.0025012060068547726,0.0009136059088632464
1782952687846422000,8.587422119140625,-0.002803887939080596,0.0015033204108476639,0.0006237261113710701
1782952687856349000,8.597348876953125,0.00045715286978520453,-0.00006581423804163933,-0.0017723198980093002
1782952687866276900,8.60727685546875,-0.00009260349906980991,0.0015194867737591267,-0.0004147308354731649
1782952687876204000,8.6172041015625,-0.0007322948658838868,0.0004648752510547638,0.0037081087939441204
1782952687886132000,8.627132080078125,0.0006917710416018963,-0.0023136353120207787,0.001165727968327701
1782952687896059100,8.63705908203125,-0.0030888523906469345,-0.0001279790885746479,-0.0008910312317311764
1782952687905987000,8.646987060546875,-0.0014502083649858832,0.002112460322678089,0.0008150145295076072
1782952687915914000,8.6569140625,-0.0011695112334564328,-0.000020465347915887833,0.001965499948710203
1782952687925842000,8.666842041015625,-0.00008053833153098822,0.0025244620628654957,0.0003245946718379855
1782952687935769000,8.67676904296875,0.0034846351481974125,-0.001395710976794362,0.0008652163669466972
1782952687945696000,8.686696044921876,-0.00020738760940730572,0.000212840735912323,0.0013806549832224846
1782952687955624000,8.6966240234375,-0.0025621545501053333,0.003498915582895279,-0.0007831634138710797
1782952687965550800,8.70655078125,0.0007439226028509438,0.0014353366568684578,-0.0028530717827379704
1782952687975478800,8.716478759765625,0.0009721555397845805,-0.0006350050680339336,0.0009368727914988995
1782952687985406000,8.726406005859374,0.0008798997732810676,-0.000711729284375906,0.0006733592599630356
1782952687995334000,8.736333984375,0.0015020142309367657,-0.0013950963038951159,0.002461671829223633
1782952688005261000,8.746260986328124,-0.0013921619392931461,0.0020039957016706467,0.00212375377304852
1782952688015189000,8.75618896484375,-0.0010605985298752785,-0.0003507714718580246,-0.001072039594873786
1782952688025116000,8.766115966796875,0.001813423470593989,-0.00011495081707835197,0.0023038722574710846
1782952688035043800,8.7760439453125,-0.0002555864048190415,0.002029692754149437,0.002254603896290064
1782952688044971000,8.785970947265625,-0.0019842544570565224,-0.0014165728352963924,0.0006745990831404924
1782952688054899000,8.79589892578125,-0.0003575957380235195,-0.00009804172441363335,0.00018457742407917976
1782952688064826000,8.805826171875,-0.0013456043088808656,0.0007532071322202682,-0.0011961051495745778
1782952688074754000,8.815754150390624,-0.0005080400733277202,0.0001529306173324585,0.0011440145317465067
1782952688084681000,8.825680908203125,-0.000350576126947999,0.0003931713290512562,0.00015319976955652237
1782952688094609000,8.83560888671875,-0.0017194409156218171,0.0027468730695545673,-0.00016611325554549694
1782952688104536600,8.84553662109375,0.0007013314170762897,0.0005014538764953613,0.002388210268691182
1782952688114464500,8.855464599609375,0.000004648463800549507,-0.0006181388162076473,-0.000494661508128047
1782952688124391700,8.8653916015625,-0.00023728678934276104,0.0010209595784544945,0.0010670456103980541
1782952688134318600,8.875318603515625,0.00106260203756392,0.000039851292967796326,-0.0010584233095869422
1782952688144246500,8.88524658203125,0.0010723400628194213,-0.0002040797844529152,-0.0023480472154915333
1782952688154173700,8.895173583984375,0.00099697255063802,-0.00014948518946766853,0.000023231259547173977
1782952688164101600,8.9051015625,0.00012866995530202985,0.00013197120279073715,0.00037288625026121736
1782952688174028300,8.9150283203125,-0.0008447153959423304,0.00008296873420476913,0.00010550487786531448
1782952688183956500,8.92495654296875,0.0012769034365192056,-0.0009665633551776409,0.001475783996284008
1782952688193883400,8.93488330078125,-0.00012764777056872845,0.0018665073439478874,-0.0008677977602928877
1782952688203811300,8.944811279296875,0.0009182602516375482,0.001955326646566391,-0.002198400441557169
1782952688213738500,8.954738525390624,0.002252770122140646,-0.0004721446894109249,0.000004832865670323372
1782952688223666400,8.96466650390625,-0.0016990633448585868,0.002595685888081789,-0.0012180894846096635
1782952688233593300,8.97459326171875,0.0005470466567203403,0.0007234835065901279,-0.0007959784707054496
1782952688243521500,8.984521484375,0.001068095793016255,0.0009402139112353325,-0.00130281294696033
1782952688253448400,8.994448486328125,-0.0008712181588634849,0.0014627263881266117,0.00014914240455254912
1782952688263376400,9.00437646484375,-0.0024000618141144514,0.0002716677263379097,0.0018407052848488092
1782952688273303600,9.014303466796875,0.0007003903156146407,0.001512700691819191,0.0016300491988658905
1782952688283231500,9.0242314453125,-0.0018141603795811534,-0.0020010245498269796,-0.00109182670712471
1782952688293158700,9.03415869140625,-0.00013690139167010784,0.0005891658365726471,-0.0012721226084977388
1782952688303085600,9.04408544921875,-0.0005041675176471472,-0.0025034849531948566,0.0014997113030403852
1782952688313013500,9.054013427734375,0.0011757544707506895,0.0000374368391931057,-0.0014161837752908468
1782952688322940700,9.063940673828125,-0.00002431892789900303,-0.0005442826077342033,0.00018426479073241353
1782952688332868600,9.07386865234375,0.00013919919729232788,-0.00039967289194464684,-0.002438682597130537
1782952688342795500,9.08379541015625,-0.002036668825894594,0.00007505901157855988,0.00048413436161354184
1782952688352723700,9.0937236328125,0.004692606627941132,-0.0007033827714622021,0.0009922655299305916
1782952688362650400,9.103650390625,-0.00007982377428561449,-0.001927184872329235,-0.00015842734137549996
1782952688372578600,9.11357861328125,-0.00040632730815559626,0.000017455313354730606,-0.0002929169568233192
1782952688382505500,9.12350537109375,-0.0015643509104847908,-0.00034557003527879715,0.00045753474114462733
1782952688392433400,9.133433349609374,0.0008058624225668609,-0.0015272144228219986,-0.0018338491208851337
1782952688402360300,9.1433603515625,-0.0005895997164770961,-0.002114085480570793,0.0009877118282020092
1782952688412288500,9.15328857421875,-0.001916386652737856,0.0006769071333110332,0.0005677313893102109
1782952688422215400,9.16321533203125,-0.001014222507365048,0.00010591698810458183,-0.004586279857903719
1782952688432143400,9.173143310546875,0.0009658378548920155,0.002688650507479906,0.0008705371292307973
1782952688442070500,9.183070556640626,0.003471244825050235,-0.0018357401713728905,0.004142091143876314
1782952688451998500,9.19299853515625,0.0006328477757051587,0.00017974013462662697,0.00213113846257329
1782952688461925600,9.202925537109374,0.00162355019710958,-0.00020205089822411537,-0.0010413328418508172
1782952688471852500,9.2128525390625,-0.0006494577974081039,-0.001938698347657919,-0.0036693401634693146
1782952688481780500,9.222780517578125,0.0008090913761407137,-0.0024370187893509865,0.0008996776887215674
1782952688491707600,9.232707763671876,-0.0011696373112499714,0.001392873004078865,0.0007116584456525743
1782952688501635600,9.242635498046875,-0.003674207255244255,-0.0012413132935762405,-0.001392468111589551
1782952688511562500,9.2525625,0.001002836273983121,-0.00043410900980234146,0.00007013999857008457
1782952688521490700,9.26249072265625,-0.00018755695782601833,0.002967315725982189,0.0004268531920388341
1782952688531417600,9.27241748046875,-0.0009159315377473831,-0.0003967895172536373,-0.0013958142371848226
1782952688541345500,9.282345458984375,-0.0003371201455593109,-0.0017845325637608767,0.0005024070851504803
1782952688551272400,9.2922724609375,0.00116490270011127,-0.001149635063484311,-0.0008656587451696396
1782952688561200600,9.30220068359375,-0.0011713076382875443,0.0005486253648996353,-0.0011238057631999254
1782952688571127300,9.312127197265625,-0.001057057874277234,-0.0009768332820385695,0.0011875517666339874
1782952688581053400,9.322053466796875,0.0014796913601458073,0.0010421304032206535,-0.0003340071125421673
1782952688590980600,9.331980712890624,0.0008269505342468619,-0.002186419675126672,-0.0010637132218107581
1782952688600908500,9.341908447265626,-0.000953922513872385,-0.0005129105411469936,-0.00007850053953006864
1782952688610835500,9.35183544921875,0.0015025772154331207,0.001751575618982315,-0.002247645054012537
1782952688620763600,9.361763671875,-0.0009594025323167443,-0.0009378967806696892,0.0003090060199610889
1782952688630690600,9.371690673828125,0.0029402640648186207,0.00015586335211992264,0.0005034166970290244
1782952688640618500,9.381618408203124,-0.0012803003191947937,-0.0007042298093438148,0.0029320567846298218
1782952688650545700,9.391545654296875,0.00058071652892977,-0.0019239573739469051,0.0004960634978488088
1782952688660473600,9.4014736328125,0.0008308384567499161,-0.0007288050837814808,-0.0012110269162803888
1782952688670400500,9.411400390625,-0.001522330567240715,0.0007761474698781967,0.0020177895203232765
1782952688680328700,9.42132861328125,0.0010082360822707415,0.00017104577273130417,0.0029551370535045862
1782952688690255400,9.43125537109375,0.0012343385023996234,0.00033456413075327873,-0.0005818072240799665
1782952688700182500,9.4411826171875,0.0011377905029803514,0.00022338656708598137,0.0009694130276329815
1782952688710110500,9.4511103515625,0.001758040627464652,0.0009115473367273808,0.0001744594774208963
1782952688720037400,9.461037353515625,-0.0016398727893829346,0.002107316628098488,-0.0008857680950313807
1782952688729965600,9.470965576171874,-0.0022758357226848602,-0.0010602474212646484,0.00023222685558721423
1782952688739892500,9.480892578125,0.0006816090899519622,0.0028983745723962784,-0.0010006292723119259
1782952688749820400,9.4908203125,-0.0013445238582789898,-0.0001581353135406971,-0.0014011687599122524
1782952688759747600,9.50074755859375,-0.0008076577796600759,0.00018535787239670753,0.00003880989970639348
1782952688769675500,9.510675537109375,0.0007649388862773776,0.0015978985466063023,-0.001279987394809723
1782952688779602400,9.5206025390625,-0.0012503501493483782,0.0010850336402654648,0.0018183088395744562
1782952688789530600,9.530530517578125,-0.00232120743021369,0.0001036589965224266,0.0024380264803767204
1782952688799457500,9.54045751953125,-0.00039923691656440496,0.001399375032633543,-0.00025154452305287123
1782952688809385500,9.550385498046875,0.0010410005925223231,0.00010028528049588203,-0.0012220004573464394
1782952688819312600,9.560312744140624,0.0008483643759973347,0.0018567838706076145,-0.00036514995736069977
1782952688829240600,9.570240478515625,0.0017841991502791643,0.0009707501158118248,-0.0026714473497122526
1782952688839167500,9.58016748046875,0.0003344999859109521,0.0005495613440871239,-0.00015494157560169697
1782952688849095700,9.590095703125,0.0007286478066816926,0.0013527707196772099,-0.0004393671697471291
1782952688859022600,9.600022705078125,0.002500663511455059,-0.0008675954304635525,0.0013002880150452256
1782952688868949500,9.609949462890626,-0.00044692307710647583,-0.0008153975941240788,-0.0017146766185760498
1782952688878877400,9.61987744140625,-0.0008761486387811601,0.0008999067358672619,0.0016621669055894017
1782952688888804400,9.629804443359374,0.0007161553367041051,0.0017521181143820286,-0.0021679913625121117
1782952688898732500,9.639732666015625,-0.00000954949064180255,-0.001782160485163331,0.0007269111229106784
1782952688908659500,9.649659423828124,-0.002569379983469844,-0.0014548581093549728,-0.0004304986505303532
1782952688918587400,9.65958740234375,0.00040457630529999733,-0.0020704420749098063,-0.0015342908445745707
1782952688928514600,9.6695146484375,-0.000634855474345386,-0.0005524400621652603,0.0007483044173568487
1782952688938442500,9.6794423828125,0.0016565041150897741,-0.0011232763063162565,0.00006495334673672915
1782952688948371500,9.689371337890625,0.0004620764229912311,0.001544678583741188,-0.0022250988986343145
1782952688958299400,9.69929931640625,0.0012295226333662868,0.001199871301651001,0.0016970268916338682
1782952688968226600,9.7092265625,0.002550716744735837,0.00012422027066349983,0.0008456142386421561
1782952688978154500,9.719154541015625,0.0006943630869500339,0.0014382200315594673,0.0014408729039132595
1782952688988081400,9.729081298828126,0.0010810540989041328,-0.001451842486858368,-0.000058486766647547483
1782952688998008600,9.739008544921875,-0.0023471368476748466,-0.00029186857864260674,-0.00115681323222816
1782952689007936500,9.7489365234375,0.0014241656754165888,-0.0008639153093099594,0.0005808994174003601
1782952689017863400,9.758863525390625,0.0018954483093693852,-0.0009898347780108452,0.00021546881180256605
1782952689027791600,9.76879150390625,0.0007018194883130491,0.0006544007919728756,0.0015347987646237016
1782952689037718500,9.778718505859375,0.00047695208922959864,-0.003046160563826561,0.0005653949920088053
1782952689047646500,9.788646484375,0.000419960415456444,0.001223685685545206,-0.0011949545005336404
1782952689057573600,9.79857373046875,0.002105643507093191,0.000853964127600193,0.0011790019925683737
1782952689067501600,9.80850146484375,0.0011295950971543789,-0.000021949410438537598,0.0025260290130972862
1782952689077428500,9.818428466796876,-0.00024383224081248045,0.0003213020972907543,-0.0008526319870725274
1782952689087356700,9.828356689453125,0.0013066601241007447,-0.0024627663660794497,-0.000622268533334136
1782952689097282800,9.83828271484375,-0.00010617170482873917,-0.000023057684302330017,0.0024214820004999638
1782952689107210800,9.848210693359375,0.000897041114512831,0.0016765720210969448,-0.0005791014991700649
1782952689117138000,9.858137939453124,0.0009738088701851666,0.0008950112387537956,-0.0014121446292847395
1782952689127065900,9.86806591796875,-0.0006105056963860989,-0.0008733277209103107,0.0003844238235615194
1782952689136993000,9.877992919921875,0.002097776858136058,-0.0005146018229424953,0.00018171832198277116
1782952689146921000,9.8879208984375,0.0001741755986586213,-0.0020464519038796425,0.001570556778460741
1782952689156847900,9.897847900390625,0.0023319628089666367,0.0019418876618146896,-0.0008177895215339959
1782952689166775000,9.907775146484376,0.001967109739780426,-0.00012978538870811462,-0.001648429548367858
1782952689176703000,9.917702880859375,0.0012800123076885939,-0.0020614806562662125,-7.557682693004608e-7
1782952689186630000,9.9276298828125,-0.0006864657625555992,-0.0011453533079475164,-0.0023635122925043106
1782952689196558000,9.93755810546875,-0.0004977136850357056,0.0012067006900906563,0.001374038984067738
1782952689206485000,9.947485107421874,-0.0011009196750819683,-0.0007432661950588226,0.0017564689042046666
1782952689216413000,9.957412841796875,0.0016982611268758774,-0.0024038697592914104,0.0016411386895924807
1782952689226340000,9.967340087890625,-0.00016941362991929054,0.0004811328835785389,-0.0013583796098828316
1782952689236268000,9.97726806640625,-0.0015332417096942663,-0.0002321554347872734,-0.000557009712792933
1782952689246195200,9.9871953125,0.001839119242504239,-0.0019395078998059034,0.0014696558937430382
1782952689256123100,9.997123046875,0.0023518032394349575,-0.0005574407987296581,-0.0000631793518550694
1782952689266049800,10.0070498046875,0.0012117038713768125,-0.002286098897457123,0.0021544350311160088
1782952689275977700,10.016977783203124,-0.0006075906567275524,0.00048223603516817093,0.0005714900908060372
1782952689285905000,10.02690478515625,0.00019268924370408058,-0.0014189945068210363,-0.003884777193889022
1782952689295832800,10.036832763671875,0.0008620645385235548,0.0007399865426123142,-0.001192488707602024
1782952689305760000,10.046760009765626,-0.0009880333673208952,-0.0012794886715710163,-0.0014830395812168717
1782952689315688000,10.05668798828125,0.0001549841254018247,0.001968545839190483,0.0014018076471984386
1782952689325614800,10.06661474609375,0.0007696417160332203,-0.001717268954962492,0.0015253783203661442
1782952689335543000,10.07654296875,-0.0007105299737304449,-0.00018075807020068169,-0.002355144126340747
1782952689345470000,10.086469970703124,0.0027126972563564777,-0.0030724182724952698,0.003264125669375062
1782952689355396900,10.09639697265625,0.0002753852168098092,-0.0008445638231933117,-0.001244318438693881
1782952689365325000,10.106324951171874,0.0008751291316002607,-0.0005340389907360077,0.0017181818839162588
1782952689375252000,10.116251953125,-0.0007514472235925496,0.0030761687085032463,-0.0024768495932221413
1782952689385180000,10.126179931640625,0.0005282016936689615,0.00048704352229833603,0.0007338575087487698
1782952689395107000,10.136107177734376,0.00048108454211615026,0.000727097038179636,0.0011663851328194141
1782952689405035000,10.146034912109375,0.00012235675239935517,-0.0018401904962956905,0.0027858533430844545
1782952689414962200,10.155962158203126,0.0010840417817234993,-0.0001335376873612404,0.0005359769565984607
1782952689424890000,10.16589013671875,0.00004567526048049331,-0.0008603143505752087,-0.002129314700141549
1782952689434817000,10.175817138671874,0.0020064052660018206,-0.00004390161484479904,-0.00001949467696249485
1782952689444745000,10.185744873046875,-0.0019377362914383411,0.0024749161675572395,0.0012039616703987122
1782952689454672000,10.195671875,-0.0017379468772560358,-0.0010555393528193235,0.002206218894571066
1782952689464599800,10.205599853515626,-0.0014457979705184698,-0.0003234362229704857,0.000591278076171875
1782952689474527000,10.21552685546875,0.0009881252190098166,0.00016217492520809174,-0.0036350199952721596
1782952689484455000,10.225454833984376,0.000295969657599926,-0.00178992236033082,0.002649507485330105
1782952689494381800,10.2353818359375,0.00039521517464891076,-0.003188406117260456,-0.0003666669363155961
1782952689504310000,10.24531005859375,0.00020506547298282385,-0.002075737342238426,-0.0005680019385181367
1782952689514237000,10.25523681640625,-0.0006756405928172171,0.0007813642732799053,0.0013699040282517672
1782952689524163800,10.265163818359374,0.0022437165025621653,-0.0016003004275262356,0.0007270167698152363
1782952689534092000,10.275092041015625,-0.0011113414075225592,0.00018376484513282776,0.0020019684452563524
1782952689544019000,10.28501904296875,0.0019411738030612469,0.00040241051465272903,-0.00011790776625275612
1782952689553947000,10.29494677734375,0.002418725285679102,0.0009413380175828934,-0.001195029355585575
1782952689563874000,10.3048740234375,-0.0007083585951477289,-0.00029383599758148193,-0.0016999647486954927
1782952689573802000,10.314802001953124,0.0014274042332544923,-0.0017559968400746584,-0.0013222652487456799
1782952689583729200,10.324729248046875,0.002967510372400284,0.0005588228814303875,-0.0007917636539787054
1782952689593657000,10.334656982421874,-0.003119869390502572,-0.0011246618814766407,-0.003982399590313435
1782952689603584000,10.344583984375,0.002312979195266962,-0.001012542750686407,-0.0010507918195798993
1782952689613512000,10.354511962890625,0.001296143396757543,0.00005473475903272629,0.0003564074286259711
1782952689623439000,10.364439208984376,0.0011792306322604418,0.000931181013584137,0.0005833088071085513
1782952689633367000,10.374366943359375,-0.0007787616341374815,-0.00022848648950457573,0.0009911037050187588
1782952689643294000,10.3842939453125,-0.0013276392128318548,0.00032039079815149307,-0.0038254891987890005
1782952689653222000,10.394221923828125,0.004426893778145313,0.00031232694163918495,-0.003275635652244091
1782952689663148800,10.404148681640624,0.0008563938899897039,-0.0002104518935084343,-0.0010649457108229399
1782952689673077000,10.414076904296875,-0.0013716928660869598,-0.00014353590086102486,-0.0019096075557172298
1782952689683004000,10.42400390625,-0.0002449094317853451,-0.00012542633339762688,0.0004909657291136682
1782952689692930800,10.433930908203125,0.0008856027270667255,-0.0009568482637405396,0.00009755068458616734
1782952689702859000,10.44385888671875,-0.0021935440599918365,0.0017856750637292862,0.0013913142029196024
1782952689712786000,10.453785888671876,-0.0007163198315538466,-0.0008365819230675697,0.002625036984682083
1782952689722713900,10.4637138671875,0.0005412248428910971,-0.0005263234488666058,-0.0007225567242130637
1782952689732641000,10.47364111328125,-0.00010830594692379236,-0.00022461730986833572,-0.002152280416339636
1782952689742569000,10.48356884765625,0.002393467351794243,-0.0009886780753731728,-0.001842554658651352
1782952689752496000,10.49349609375,-0.0006274774787016213,-0.0005157943814992905,-0.0003455893020145595
1782952689762424000,10.503424072265625,0.001566168386489153,0.001201678067445755,-0.0009274899493902922
1782952689772351000,10.51335107421875,0.0005195390549488366,-0.002751582767814398,0.0018503613537177444
1782952689782279000,10.52327880859375,0.002716646995395422,0.00032303668558597565,0.0015321135288104415
1782952689792206000,10.5332060546875,-0.0029859328642487526,-0.00023723114281892776,-0.001340236165560782
1782952689802134000,10.543134033203126,0.0012426343746483326,0.00046957144513726234,-0.0016725987661629915
1782952689812061200,10.553061279296875,-0.0014855489134788513,-0.0010293417144566774,-0.0013782544992864132
1782952689821989000,10.562989013671874,0.0017797528998926282,-0.0015657024923712015,-0.0003334963694214821
1782952689831915800,10.572915771484375,0.000091028050519526,-0.0011248032096773386,-0.0015029049245640635
1782952689841843000,10.582843017578124,-0.0004088472342118621,-0.0007759290747344494,0.0003147025126963854
1782952689851771000,10.59277099609375,-0.0017922990955412388,0.0017291754484176636,-0.00027086696354672313
1782952689861697800,10.60269775390625,-0.0002918741083703935,0.00035631610080599785,-0.0007313275127671659
1782952689871626000,10.6126259765625,-0.0013041853671893477,0.01442051399499178,0.006568656302988529
1782952689881553000,10.622552978515625,0.00031341874273493886,0.002723909914493561,0.0024226470850408077
1782952689891480800,10.632480712890626,-0.001810524147003889,-0.0008507245220243931,-0.00408827792853117
1782952689901408000,10.642407958984375,0.0004992354661226273,-0.0030630123801529408,-0.0005145817995071411
1782952689911336000,10.6523359375,-0.0015759491361677647,-0.0007550949230790138,-0.0023140148259699345
1782952689921263000,10.66226318359375,0.002171384869143367,-0.0032656569965183735,0.0017358543118461967
1782952689931191000,10.67219091796875,-0.0013875756412744522,-0.0016441475600004196,-0.0014367700787261128
1782952689941118000,10.682117919921875,-0.000021107611246407032,-0.006087631918489933,-0.002222935203462839
1782952689951046000,10.6920458984375,0.0012960240710526705,-0.0038026543334126472,-0.0004421737976372242
1782952689960973000,10.70197314453125,0.0005018694209866226,-0.0029597636312246323,-0.00034177262568846345
1782952689970901000,10.71190087890625,0.0021649061236530542,-0.00022133719176054,0.000279234373010695
1782952689980828200,10.721828125,-0.0009640417993068695,-0.00020828749984502792,0.0013881745981052518
1782952689990756000,10.731756103515625,0.0022770033683627844,0.00042534107342362404,0.00013928511179983616
