time,seconds_elapsed,z,y,x
1782952679327400000,0.06839990234375,-0.0001597896625753492,0.005030977539718151,0.0007890945998951793
1782952679337327000,0.0783271484375,-0.001374723738990724,0.004692223388701677,0.0009092031978070736
1782952679347255000,0.088255126953125,0.0002378202771069482,0.005695968866348267,0.0015427692560479045
1782952679357182000,0.098181884765625,-0.00239231763407588,0.005281048361212015,0.00034700988908298314
1782952679367110000,0.10810986328125,0.00013875069271307439,0.004689826630055904,0.0035382758360356092
1782952679377037000,0.118037109375,-0.0006458165589720011,0.00552366254851222,0.0044019389897584915
1782952679386965000,0.127965087890625,-0.0021406488958746195,0.003869839245453477,0.001169127761386335
1782952679396892200,0.13789208984375,-0.002124669961631298,0.0027976506389677525,0.0008783105295151472
1782952679406820000,0.147820068359375,-0.0003020024741999805,0.00666322885081172,0.0006197175825946033
1782952679416747000,0.1577470703125,0.0009949569357559085,0.005093561951071024,-0.0008420915110036731
1782952679426675200,0.16767529296875,-0.0010434264549985528,0.006430202629417181,0.00041012681322172284
1782952679436602000,0.17760205078125,-0.0021174794528633356,0.006342850625514984,0.0021430456545203924
1782952679446530000,0.187530029296875,0.0003712446487043053,0.004418184049427509,0.0008753810543566942
1782952679456457200,0.197457275390625,0.0002950782363768667,0.004479170776903629,-0.00021278657368384302
1782952679466385200,0.20738525390625,-0.0013917679898440838,0.003967843484133482,0.0005629922379739583
1782952679476312000,0.21731201171875,-0.0007590008899569511,0.0032229574862867594,0.0006641923682764173
1782952679486240300,0.227240234375,-0.00003382214708835818,0.004569718148559332,0.00038216362008824944
1782952679496167200,0.237167236328125,0.001460743835195899,0.004786499310284853,-0.0013363742036744952
1782952679506095000,0.24709521484375,-0.0019116170005872846,0.006076268386095762,-0.0010607370641082525
1782952679516022300,0.257022216796875,-0.0003616572648752481,0.005248824134469032,0.00247540813870728
1782952679525950200,0.2669501953125,-0.0006764429272152483,0.0049468218348920345,0.001856223214417696
1782952679535876900,0.276876953125,-0.0011052117915824056,0.005431517027318478,-0.0012040151050314307
1782952679545805000,0.28680517578125,-0.00013209278404247016,0.005526325665414333,-0.00018748654110822827
1782952679555732000,0.29673193359375,0.000025566347176209092,0.004069310147315264,0.002508697798475623
1782952679565660000,0.306659912109375,-0.001421861699782312,0.0028700886759907007,0.0028005801141262054
1782952679575587000,0.316587158203125,-0.0006719155353493989,0.004095941781997681,0.0010761833982542157
1782952679585515000,0.326514892578125,-0.0020690099336206913,0.006551642436534166,-0.00010333064710721374
1782952679595442200,0.336442138671875,-0.0017539578257128596,0.004833370912820101,-0.00023089606838766485
1782952679605370000,0.3463701171875,0.001433845958672464,0.005979862064123154,-0.00000958738019107841
1782952679615297000,0.356297119140625,-0.002674879040569067,0.004049070179462433,-0.00012756542128045112
1782952679625225000,0.366224853515625,-0.0005448827287182212,0.005126318894326687,-0.0012942962348461151
1782952679635152100,0.376152099609375,-0.0030210898257791996,0.005166532471776009,0.0008234494016505778
1782952679645080000,0.386080078125,-0.0010514160385355353,0.004506867378950119,0.0007408913807012141
1782952679655007200,0.39600732421875,0.0022509037517011166,0.002680737990885973,0.0010570086305961013
1782952679664935200,0.40593505859375,-0.003578755771741271,0.0030831415206193924,0.0005874933558516204
1782952679674862000,0.415862060546875,-0.0013582120882347226,0.003747866488993168,0.0013520868960767984
1782952679684790000,0.4257900390625,-0.001002680161036551,0.0038874163292348385,0.0005030711181461811
1782952679694717200,0.43571728515625,-0.0007568703731521964,0.0037377465050667524,-0.0008948221220634878
1782952679704645000,0.44564501953125,0.0009518137667328119,0.0024772724136710167,0.00350472005084157
1782952679714572300,0.455572265625,0.00003222424857085571,0.005329784471541643,0.0008096009842120111
1782952679724500200,0.465500244140625,-0.002700977958738804,0.004039482679218054,0.0008988168556243181
1782952679734427000,0.475427001953125,-0.0025861957110464573,0.003655987558886409,-0.0005845638806931674
1782952679744355300,0.485355224609375,-0.0015371765475720167,0.006012352649122477,-0.0015560849569737911
1782952679754282000,0.495281982421875,-0.0002716424351092428,0.003766508772969246,0.0031755531672388315
1782952679764210000,0.5052099609375,-0.0007326356135308743,0.004306064918637276,0.001213336130604148
1782952679774137000,0.51513720703125,-0.0011883024126291275,0.004876514431089163,0.002398176584392786
1782952679784065000,0.52506494140625,-0.0015954998089000583,0.005507949739694595,0.0018498316640034318
1782952679793992000,0.534991943359375,0.00044368262751959264,0.0054541537538170815,-0.00003488740912871435
1782952679803920100,0.544920166015625,-0.002650377806276083,0.0026703516487032175,0.0007864314829930663
1782952679813847000,0.554846923828125,-0.002189651131629944,0.0049428269267082214,0.0020730046089738607
1782952679823775000,0.56477490234375,0.00009560748003423214,0.005911685060709715,0.0003888215287588537
1782952679833702100,0.5747021484375,-0.0015867113834246993,0.003397128311917186,0.00046685212873853743
1782952679843630000,0.584630126953125,-0.000901480030734092,0.0043651871383190155,-0.00017789915727917105
1782952679853557000,0.594556884765625,0.0002719087351579219,0.006878945045173168,0.0004980111261829734
1782952679863485200,0.604485107421875,-0.001520665013231337,0.005490106530487537,0.0006482133758254349
1782952679873412000,0.614412109375,-0.0014386395923793316,0.0027888622134923935,-0.0012120045721530914
1782952679883340000,0.624340087890625,-0.00004793690095539205,0.004248540848493576,-0.0002996056282427162
1782952679893267200,0.63426708984375,-0.00261868629604578,0.0056922403164207935,0.00046099317842163146
1782952679903195100,0.644195068359375,-0.0018221348291262984,0.0065196845680475235,0.0026557042729109526
1782952679913122300,0.654122314453125,-0.0008106662426143885,0.0034112429711967707,0.00038642468280158937
1782952679923050200,0.66405029296875,0.0010277138790115714,0.005179049447178841,-0.0009627327090129256
1782952679932977200,0.67397705078125,-0.0005400890368036926,0.0033393376506865025,0.002606169320642948
1782952679942905000,0.683905029296875,-0.00061279337387532,0.0046426886692643166,0.0010729875648394227
1782952679952832000,0.69383203125,-0.001332645770162344,0.005426190793514252,0.001568069215863943
1782952679962760000,0.703760009765625,-0.00032676986302249134,0.004218713380396366,0.0025869945529848337
1782952679972687000,0.71368701171875,-0.0014919028617441654,0.005397694651037455,0.001151018193922937
1782952679982615000,0.723614990234375,-0.0011683288030326366,0.0062578958459198475,-0.0005390237784013152
1782952679992542000,0.7335419921875,-0.0008700547041371465,0.0065074339509010315,0.0013960290234535933
1782952680002470100,0.74347021484375,-0.001136370818130672,0.00535455159842968,0.00006178533658385277
1782952680012397000,0.75339697265625,-0.001814944320358336,0.005102883093059063,0.002918291836977005
1782952680022325000,0.763324951171875,-0.0010058758780360222,0.007442736066877842,-0.00019813918333966285
1782952680032252200,0.773252197265625,0.0015568839153274894,0.004550276789814234,-0.00015872440417297184
1782952680042180000,0.78318017578125,0.001686846255324781,0.003573163179680705,0.0007403587806038558
1782952680052107000,0.79310693359375,-0.00207699928432703,0.004165450111031532,0.0004346278728917241
1782952680062035200,0.80303515625,-0.0012724583502858877,0.005416336935013533,0.0003448793722782284
1782952680071962000,0.812962158203125,-0.0003075950953643769,0.004454403184354305,0.001526523963548243
1782952680081890000,0.82289013671875,-0.0006740460521541536,0.007026484236121178,-0.0012982910266146064
1782952680091817200,0.832817138671875,0.0003462109307292849,0.0019206717843189836,0.0007382282637991011
1782952680101745400,0.842745361328125,0.00012996226723771542,0.0041398839093744755,0.0023899206425994635
1782952680111672000,0.852672119140625,0.0006777744856663048,0.004572381265461445,0.002671416848897934
1782952680121600300,0.862600341796875,-0.0011803129455074668,0.004009921569377184,-0.0024402544368058443
1782952680131527200,0.872527099609375,-0.002659698948264122,0.006006493698805571,-0.0011400992516428232
1782952680141454300,0.882454345703125,-0.0025068335235118866,0.006700779777020216,0.0011741877533495426
1782952680151382300,0.89238232421875,-0.0014114753575995564,0.005330849438905716,-0.0012828446924686432
1782952680161309200,0.90230908203125,-0.0015185344964265823,0.006702643819153309,0.00029827404068782926
1782952680171237000,0.912237060546875,-0.0026405241806060076,0.004388090688735247,0.002299905987456441
1782952680181164300,0.922164306640625,0.002159024588763714,0.0029521139804273844,0.00036218989407643676
1782952680191092200,0.93209228515625,0.0012865731259807944,0.004766792058944702,0.005019259639084339
1782952680201019400,0.942019287109375,-0.00041758365114219487,0.005169728305190802,0.0013550163712352514
1782952680210947300,0.951947265625,-0.000319845654303208,0.004456799943000078,0.0007070692372508347
1782952680220874200,0.961874267578125,-0.00044528054422698915,0.0041249701753258705,0.003281813347712159
1782952680230802200,0.97180224609375,0.00020506340661086142,0.00509995361790061,0.004490355961024761
1782952680240729300,0.981729248046875,-0.000672181835398078,0.006204366218298674,0.0007155913626775146
1782952680250657300,0.9916572265625,0.0013616742799058557,0.004136155359447002,-0.0006498112925328314
1782952680260584400,1.00158447265625,-0.002549976808950305,0.005146825220435858,0.0004623247659765184
1782952680270512400,1.011512451171875,-0.00010199906682828441,0.004006992094218731,0.0004972121678292751
1782952680280439000,1.02143896484375,-0.0029795446898788214,0.004310326185077429,0.00199310970492661
1782952680290367500,1.031367431640625,-0.0007595335482619703,0.007656854577362537,-0.0019473034190014005
1782952680300294100,1.041294189453125,-0.0031696942169219255,0.003897536313161254,0.0014969628537073731
1782952680310222000,1.05122216796875,-0.0004370247188489884,0.005008607171475887,0.0011763182701542974
1782952680320149200,1.061149169921875,-0.0008343683439306915,0.004254666157066822,-0.0006609965930692852
1782952680330077200,1.0710771484375,-0.001118793967179954,0.006852846127003431,0.002427737694233656
1782952680340004000,1.081004150390625,0.00018349179299548268,0.00678227236494422,0.0007781756576150656
1782952680349932300,1.090932373046875,-0.001868207473307848,0.003991545643657446,-0.000251402409048751
1782952680359859200,1.100859130859375,-0.0001395496365148574,0.004653607495129108,-0.0005411543534137309
1782952680369787100,1.110787109375,-0.0014327806420624256,0.007095459848642349,0.00028309403569437563
1782952680379714300,1.12071435546875,-0.0000327568814100232,0.004879443906247616,-0.0008415589109063148
1782952680389642200,1.130642333984375,-0.0012844426091760397,0.002067944500595331,0.00040426786290481687
1782952680399569200,1.140569091796875,0.0010410296963527799,0.0026969832833856344,0.0015765913994982839
1782952680409497300,1.150497314453125,-0.0016666061710566282,0.004781173076480627,0.0016434367280453444
1782952680419424300,1.16042431640625,0.001526523963548243,0.0018232000293210149,0.0006538060260936618
1782952680429352200,1.170352294921875,0.00028069718973711133,0.004477306269109249,0.0013318468118086457
1782952680439279400,1.180279296875,-0.0002612560929264873,0.003090598387643695,0.0008825715631246567
1782952680449207300,1.190207275390625,0.0012338425731286407,0.0049124667420983315,-0.00005858954318682663
1782952680459134500,1.200134521484375,-0.0013201289111748338,0.0028152274899184704,0.0012298477813601494
1782952680469062400,1.2100625,-0.0012000204296782613,0.004376638680696487,0.0025720810517668724
1782952680478989300,1.2199892578125,-0.0009747169679030776,0.006427805405110121,0.0008665926288813353
1782952680488917200,1.229917236328125,-0.0007243797881528735,0.002785133896395564,0.0019358517602086067
1782952680498844200,1.23984423828125,0.0005954828229732811,0.0033870083279907703,0.0020532971248030663
1782952680508772000,1.249772216796875,-0.00004207794336252846,0.00307541829533875,-0.0012578109744936228
1782952680518699300,1.25969921875,-0.0009635316673666239,0.005245894659310579,0.0013403689954429865
1782952680528627200,1.269627197265625,-0.0001954760227818042,0.003882089862599969,-0.0015129417879506946
1782952680538554000,1.27955419921875,0.0002085255109705031,0.007221694104373455,-0.00041998049709945917
1782952680548482300,1.289482421875,-0.0008825715631246567,0.00487145408987999,0.001639441936276853
1782952680558409200,1.2994091796875,-0.002995523624122143,0.0057076867669820786,-0.003969707991927862
1782952680568337200,1.309337158203125,-0.0037353497464209795,0.005597698036581278,0.00224877311848104
1782952680578264300,1.319264404296875,-0.0036250948905944824,0.003737214021384716,-0.0005315669695846736
1782952680588192300,1.329192138671875,-0.002174737397581339,0.004013916477560997,0.003483148291707039
1782952680598119200,1.339119140625,-0.001377919572405517,0.005724198184907436,0.001377386855892837
1782952680608047400,1.34904736328125,0.0006064017652533948,0.0039113848470151424,0.0025981799699366093
1782952680617974300,1.358974365234375,-0.0014077469240874052,0.002301770029589534,0.0009528790251351893
1782952680627901400,1.3689013671875,-0.0006713828770443797,0.006322610657662153,-0.0016881778137758374
1782952680637829400,1.378829345703125,-0.0024202808272093534,0.0018642127979546785,0.0012689962750300765
1782952680647756300,1.38875634765625,-0.002216282533481717,0.003403519745916128,0.0023337281309068203
1782952680657684200,1.398684326171875,0.00006364954606397077,0.0046331011690199375,-0.001047421246767044
1782952680667611400,1.408611328125,-0.00046152580762282014,0.004706338047981262,0.0026373283471912146
1782952680677539300,1.418539306640625,-0.0014242585748434067,0.003578489413484931,0.005537777207791805
1782952680687466200,1.42846630859375,-0.0013880395563319325,0.0065532405860722065,0.0009012137306854129
1782952680697394400,1.43839453125,0.0014149374328553677,0.005827528890222311,0.001461010193452239
1782952680707321000,1.448321044921875,-0.0016218650853261352,0.005590774118900299,0.0013161342358216643
1782952680717249300,1.458249267578125,0.00037470675306394696,0.0029617014806717634,0.002132925670593977
1782952680727176200,1.46817626953125,-0.0001882854849100113,0.003739877138286829,-0.0019065570086240768
1782952680737104100,1.478104248046875,-0.0021728731226176023,0.004691424313932657,0.004195543937385082
1782952680747031300,1.48803125,0.00029348034877330065,0.00401471508666873,-0.0009305084822699428
1782952680756959200,1.497959228515625,0.0014990933705121279,0.003254915354773402,0.0019140138756483793
1782952680766886100,1.50788623046875,-0.0015638081822544336,0.0051838429644703865,0.00026312030968256295
1782952680776814300,1.517814453125,-0.002424009144306183,0.004984638653695583,-0.0011254518758505583
1782952680786741200,1.5277412109375,-0.0015478292480111122,0.007513309828937054,0.0012303803814575076
1782952680796669200,1.537669189453125,0.0009518137667328119,0.0032461269292980433,0.0012037487467750907
1782952680806596400,1.547596435546875,-0.0019504991360008717,0.0031092404387891293,0.0006053365068510175
1782952680816524300,1.557524169921875,-0.0006727144937030971,0.004285558592528105,-0.0014911039033904672
1782952680826451200,1.567451171875,-0.0007499461644329131,0.004857872147113085,-0.00022157499915920198
1782952680836379400,1.57737939453125,-0.0018628811230883002,0.004471980035305023,0.002163019496947527
1782952680846306300,1.587306396484375,-0.00210735946893692,0.007918110117316246,0.0024549018125981092
1782952680856234200,1.597234130859375,0.00022849922243040055,0.004758536349982023,-0.00011930961773032323
1782952680866161400,1.607161376953125,-0.0008596684201620519,0.0027017768006771803,0.00290391081944108
1782952680876089300,1.61708935546875,-0.0004796353168785572,0.006662163883447647,-0.0018975022248923779
1782952680886016300,1.627016357421875,0.00018801917030941695,0.005422462243586779,0.0004551342281047255
1782952680895944400,1.6369443359375,-0.0006061354652047157,0.0036828855518251657,-0.0029800771735608578
1782952680905871000,1.64687109375,0.00030173614504747093,0.003126551164314151,0.0038187066093087196
1782952680915799000,1.656799072265625,0.0013246563030406833,0.004091946873813868,0.0016450346447527409
1782952680925726200,1.666726318359375,0.0003182477375958115,0.005453355144709349,0.0008191883680410683
1782952680935654100,1.676654052734375,0.0008681904873810709,0.005154814571142197,0.0008410262526012957
1782952680945581300,1.686581298828125,0.0004058657505083829,0.0068054418079555035,-0.00014327807002700865
1782952680955509200,1.69650927734375,-0.0019265307346358895,0.004017644561827183,-0.0002383529208600521
1782952680965436200,1.706436279296875,-0.0018080200534313917,0.005597165785729885,0.0014168017078191042
1782952680975364000,1.716364013671875,-0.0016029566759243608,0.004458664450794458,0.0010351707460358739
1782952680985291300,1.726291259765625,-0.0023499734234064817,0.004805940669029951,-0.0006495449924841523
1782952680995218200,1.73621826171875,-0.0004620584368240088,0.001996571896597743,-0.0011789813870564103
1782952681005146400,1.746146484375,-0.001514273346401751,0.003994475118815899,0.0002777676854748279
1782952681015073300,1.7560732421875,0.0003294330381322652,0.0032415995374321938,0.0015994944842532277
1782952681025001200,1.766001220703125,-0.0017243968322873116,0.00621129060164094,-0.0016202671686187387
1782952681034928400,1.775928466796875,-0.0012386362068355083,0.003355849301442504,0.00022397184511646628
1782952681044856300,1.785856201171875,0.0005014732014387846,0.005652825813740492,0.0035691685043275356
1782952681054783200,1.795783203125,-0.0009632653673179448,0.003852528752759099,0.0007677893154323101
1782952681064711400,1.80571142578125,0.001014398061670363,0.0035955337807536125,0.0008452873444184661
1782952681074638300,1.815638427734375,-0.001600826159119606,0.007178550586104393,0.00025007082149386406
1782952681084566300,1.825566162109375,0.0002170476218452677,0.005391303449869156,0.0025182850658893585
1782952681094493700,1.83549365234375,0.0009922938188537955,0.004217382054775953,-0.0006013417732901871
1782952681104421600,1.845421630859375,-0.001336107961833477,0.005789445713162422,0.00001704423084447626
1782952681114348500,1.8553486328125,-0.0013456953456625342,0.004836034029722214,-0.0003406183095648885
1782952681124276700,1.86527685546875,-0.0006197175825946033,0.0057132793590426445,0.0002359560749027878
1782952681134203600,1.87520361328125,-0.002659698948264122,0.003879426745697856,0.0008175904513336718
1782952681144131600,1.885131591796875,-0.0023723437916487455,0.004958007019013166,0.0007534082396887243
1782952681154058800,1.895058837890625,-0.00031851406674832106,0.004786232952028513,-0.0003483414766378701
1782952681163986700,1.904986572265625,0.000056459015468135476,0.005697567015886307,0.0018703379901126027
1782952681173913600,1.91491357421875,-0.0002359560749027878,0.0037920749746263027,0.001776062068529427
1782952681183841800,1.924841796875,-0.000702009245287627,0.006689327768981457,0.001347825862467289
1782952681193768700,1.934768798828125,-0.0016295883106067777,0.006132461130619049,-0.0009712548344396055
1782952681203696600,1.944696533203125,-0.0010974886827170849,0.005812349263578653,0.000990429543890059
1782952681213623600,1.95462353515625,-0.0018956380663439631,0.004882107023149729,0.0031760858837515116
1782952681223551500,1.964551513671875,-0.0004985437262803316,0.0057257963344454765,0.0015385081060230732
1782952681233478700,1.974478759765625,-0.0012538161827251315,0.004087153356522322,0.002222141483798623
1782952681243406600,1.984406494140625,-0.00017177389236167073,0.006494651082903147,-0.0009108011145144701
1782952681253333500,1.99433349609375,-0.00047857005847617984,0.004972121678292751,0.0015006912872195244
1782952681263261400,2.004261474609375,-0.0010839065071195364,0.007195861078798771,0.0004844290087930858
1782952681273188600,2.014188720703125,-0.0012370382901281118,0.003026416292414069,0.0014793860027566552
1782952681283116500,2.024116455078125,-0.0019683423452079296,0.005247758701443672,-0.00008335694292327389
1782952681293043700,2.034043701171875,-0.0019542276859283447,0.008215585723519325,0.002049568807706237
1782952681302971600,2.0439716796875,-0.0020037624053657055,0.004530303180217743,-0.0026495789643377066
1782952681312898600,2.053898681640625,-0.004781173076480627,0.0059510995633900166,0.001499359728768468
1782952681322826500,2.063826416015625,-0.0014801849611103535,0.003885552054271102,0.0017382452497258782
1782952681332753700,2.073753662109375,-0.0024711471050977707,0.00475347600877285,0.0009707222343422472
1782952681342680600,2.0836806640625,-0.0036722328513860703,0.006700779777020216,0.0006950850365683436
1782952681352608800,2.09360888671875,-0.0011049455497413874,0.004098072182387114,0.0038277613930404186
1782952681362536700,2.10353662109375,-0.0035689021460711956,0.002769687445834279,0.0013813816476613283
1782952681372463600,2.113463623046875,0.0024716798216104507,0.006125270389020443,0.0018548916559666395
1782952681382390800,2.123390869140625,-0.0011659319279715419,0.006568686570972204,0.004431233741343021
1782952681392318700,2.133318603515625,0.0009952232940122485,0.0027337349019944668,0.004570783115923405
1782952681402245600,2.14324560546875,-0.0032775523141026497,0.006661631166934967,-0.00015233281010296196
1782952681412173600,2.153173583984375,0.0006775081856176257,0.003567037871107459,-0.0000857537888805382
1782952681422100500,2.1631005859375,0.00033209618413820863,0.006538859568536282,0.0024807346053421497
1782952681432028400,2.1730283203125,-0.0016325177857652307,0.007246194873005152,-0.0022474415600299835
1782952681441955600,2.18295556640625,0.00025033715064637363,0.005185174755752087,0.0006386260502040386
1782952681451883500,2.192883544921875,0.000696150294970721,0.005660815164446831,-0.00029880666988901794
1782952681461810700,2.202810791015625,-0.00019973708549514413,0.003760383464396,0.0034075146540999413
1782952681471738600,2.212738525390625,0.0013568805297836661,0.0031076427549123764,0.0013515542959794402
1782952681481665500,2.22266552734375,0.00041278995922766626,0.004566788673400879,0.004226969089359045
1782952681491593500,2.232593505859375,-0.0007398261222988367,0.0046821036376059055,0.0011776498286053538
1782952681501520600,2.242520751953125,-0.000016245283404714428,0.0057526943273842335,-0.003778226673603058
1782952681511448600,2.252448486328125,-0.001588841900229454,0.0038666436448693275,0.002154231071472168
1782952681521375700,2.262375732421875,-0.0025814019609242678,0.0056861150078475475,0.0014929680619388819
1782952681531303700,2.2723037109375,-0.0037473340053111315,0.004096474498510361,-0.0002743055811151862
1782952681541230600,2.282230712890625,-0.0004673847579397261,0.0044440170750021935,-0.0010311759542673826
1782952681551158800,2.29215869140625,0.0010439591715112329,0.003352120751515031,0.002127599436789751
1782952681561085700,2.302085693359375,-0.0030221552588045597,0.004053330980241299,-0.0004748416249640286
1782952681571013600,2.312013671875,-0.0016522251535207033,0.0037736992817372084,0.0016823188634589314
1782952681580940800,2.32194091796875,-0.00006498113361885771,0.0043308325111866,0.003441869281232357
1782952681590868700,2.33186865234375,0.0009675264009274542,0.004875715356320143,0.0012937636347487569
1782952681600795600,2.341795654296875,0.00045380264054983854,0.0044264402240514755,-0.001187503570690751
1782952681610723800,2.351723876953125,-0.0007057376787997782,0.0016138756182044744,0.0009555422002449632
1782952681620650500,2.361650390625,0.0002942793071269989,0.005204349290579557,0.0035955337807536125
1782952681630578400,2.371578369140625,-0.003490072675049305,0.0041068606078624725,0.0009864348685368896
1782952681640505600,2.381505615234375,-0.0003075950953643769,0.00424374733120203,0.0036735644098371267
1782952681650433500,2.39143359375,0.00019707392493728548,0.005002215504646301,0.0026823359075933695
1782952681660360400,2.4013603515625,-0.000431432097684592,0.007786550559103489,0.002168079372495413
1782952681670287600,2.41128759765625,0.000815193576272577,0.004487426485866308,-0.0013728595804423094
1782952681680215600,2.421215576171875,0.00011424961121520028,0.004120975267142057,0.00035899411886930466
1782952681690142700,2.431142822265625,-0.0012508867075666785,0.002945189829915762,0.0006823018775321543
1782952681700070700,2.441070556640625,-0.0015779229579493403,0.005594502668827772,0.0021465078461915255
1782952681709997600,2.45099755859375,-0.0015954998089000583,0.005792375188320875,-0.0020397149492055178
1782952681719925800,2.46092578125,-0.000434361572843045,0.004604871850460768,0.0003632551815826446
1782952681729852700,2.470852783203125,-0.00006684534309897572,0.005137504078447819,0.0003049319493584335
1782952681739780600,2.480780517578125,-0.0006609965930692852,0.0022181468084454536,0.0007358313887380064
1782952681749707800,2.490707763671875,-0.003195793367922306,0.0064962487667799,0.002846919232979417
1782952681759635700,2.5006357421875,-0.0024807346053421497,0.00180855265352875,0.0014293185668066144
1782952681769562600,2.510562744140625,0.00004500742215896025,0.005507150664925575,0.0005550027708522975
1782952681779490800,2.52049072265625,0.0010801780736073852,0.006618221756070852,-0.001383245806209743
1782952681789417700,2.530417724609375,-0.0022684806026518345,0.004899683874100447,0.0019590212032198906
1782952681799345700,2.540345703125,-0.0017036241479218006,0.005438175052404404,0.0002282329078298062
1782952681809272600,2.5502724609375,0.0011299792677164078,0.004714061506092548,0.00016777914424892515
1782952681819200500,2.560200439453125,0.00040799626731313765,0.003275688039138913,-0.00012516857532318681
1782952681829127400,2.57012744140625,-0.0016506272368133068,0.004328169394284487,0.002671416848897934
1782952681839055600,2.5800556640625,-0.0015941682504490018,0.004740693140774965,0.0014719291357323527
1782952681848982500,2.589982421875,0.000702009245287627,0.003915379289537668,0.00007217166421469301
1782952681858910500,2.599910400390625,0.001449025934562087,0.004500742070376873,0.0014532869681715965
1782952681868837600,2.609837646484375,-0.0023670175578445196,0.0034378746058791876,0.001184041379019618
1782952681878765600,2.619765625,-0.0024746092967689037,0.004662129562348127,0.0007795072160661221
1782952681888692700,2.629692626953125,-0.0007835020078346133,0.0020596887916326523,-0.00007882956560933962
1782952681898620700,2.63962060546875,0.0005502090789377689,0.004287955816835165,-0.00015472965606022626
1782952681908547600,2.649547607421875,-0.0008269115351140499,0.003055178327485919,0.004071440547704697
1782952681918475500,2.6594755859375,-0.0012815131340175867,0.005054946057498455,0.002606702037155628
1782952681928402700,2.669402587890625,-0.0004223773430567235,0.004844556096941233,0.0008767126128077507
1782952681938330600,2.67933056640625,-0.0016761935548856854,0.0016218650853261352,0.001386175281368196
1782952681948257800,2.6892578125,0.002629871480166912,0.002252235310152173,-0.00242214510217309
1782952681958185700,2.699185791015625,-0.0005749764968641102,0.0038195056840777397,0.004817924462258816
1782952681968112600,2.709112548828125,-0.0007379619055427611,0.0076003954745829105,-0.0024138891603797674
1782952681978040600,2.71904052734375,-0.0015038870042189956,0.00501206936314702,-0.0001411475386703387
1782952681987967700,2.7289677734375,0.0014990933705121279,0.00517691858112812,0.000027430558475316502
1782952681997894400,2.738894287109375,0.0008117315010167658,0.002235191175714135,0.0009733853512443602
1782952682007822600,2.748822509765625,-0.001612544059753418,0.005557218100875616,-0.0004993426846340299
1782952682017749500,2.75874951171875,-0.0016756609547883272,0.004196343012154102,0.00424294825643301
1782952682027677400,2.768677490234375,-0.0011121360585093498,0.004142280668020248,-0.0007358313887380064
1782952682037604600,2.7786044921875,-0.0015867113834246993,0.005619536153972149,0.0017036241479218006
1782952682047532500,2.788532470703125,0.002299905987456441,0.005079979542642832,0.0034115093294531107
1782952682057459700,2.798459716796875,-0.003254915354773402,0.006061621010303497,-0.002519882982596755
1782952682067387600,2.8083876953125,0.002433063928037882,0.006386792752891779,-0.0010269149206578732
1782952682077314600,2.818314453125,-0.0005912217311561108,0.003611246356740594,-0.0026048377621918917
1782952682087242500,2.828242431640625,-0.0014413028256967664,0.004495149478316307,-0.0012282498646527529
1782952682097169200,2.838169189453125,-0.00010759170982055366,0.0046578687615692616,0.000544350128620863
1782952682107097000,2.84809716796875,0.0007456850726157427,0.005858155433088541,0.0026375947054475546
1782952682117024300,2.858024169921875,-0.003468234557658434,0.003926298581063747,0.0008647284121252596
1782952682126952200,2.8679521484375,0.0004487426485866308,0.003795803524553776,0.000642620783764869
1782952682136879000,2.877879150390625,-0.0008559399866499007,0.004460794851183891,0.0015475628897547722
1782952682146807300,2.887807373046875,-0.0032354744616895914,0.004524444229900837,0.0018362496048212051
1782952682156734200,2.897734130859375,-0.002145176287740469,0.003912449814379215,0.0026764769572764635
1782952682166662100,2.907662109375,-0.0035167040769010782,0.003988616168498993,0.0009701895760372281
1782952682176589300,2.91758935546875,-0.0002820287481881678,0.00427144393324852,0.0012125372886657715
1782952682186517200,2.927517333984375,-0.0014921691035851836,0.004697549622505903,0.0024045680183917284
1782952682196444200,2.937444091796875,0.0008269115351140499,0.004221909213811159,0.0008554073283448815
1782952682206372400,2.947372314453125,-0.004091946873813868,0.0049675945192575455,0.0006157228490337729
1782952682216299300,2.95729931640625,-0.0032144354190677404,0.004652276169508696,0.000046871635277057067
1782952682226227200,2.967227294921875,-0.00023435817274730653,0.0027268105186522007,0.00007350324449362233
1782952682236154400,2.977154296875,0.0006820355774834752,0.004521781112998724,0.0013483584625646472
1782952682246082300,2.987082275390625,-0.0006609965930692852,0.0041792988777160645,0.001975799212232232
1782952682256009200,2.99700927734375,-0.002495914464816451,0.004535629414021969,0.0006785734440200031
1782952682265937400,3.0069375,-0.0005275722360238433,0.004662662278860807,-0.000143544384627603
1782952682275864000,3.016864013671875,-0.0008535431115888059,0.006872553378343582,0.0017718010349199176
1782952682285792000,3.0267919921875,-0.0013989584986120462,0.005213137716054916,0.00004261057620169595
1782952682295719200,3.03671923828125,-0.0006532734259963036,0.00532499048858881,0.002523345174267888
1782952682305646000,3.04664599609375,-0.0004194478678982705,0.004780640359967947,-0.00045566685730591416
1782952682315574300,3.05657421875,-0.002310824813321233,0.006602242588996887,0.0006101301987655461
1782952682325501200,3.066501220703125,-0.003922836389392614,0.006301305256783962,-0.00020772656716872007
1782952682335429000,3.07642919921875,-0.002674079965800047,0.005256281234323978,0.00098217383492738
1782952682345356300,3.086356201171875,-0.00044341632747091353,0.003486344125121832,-0.001231711939908564
1782952682355284200,3.0962841796875,-0.0017385114915668964,0.006305300164967775,0.0008133294177241623
1782952682365211100,3.106211181640625,-0.0009600695921108127,0.004677043296396732,0.0012010856298729777
1782952682375139300,3.116139404296875,-0.00025060345069505274,0.004845355171710253,0.00037683729897253215
1782952682385066200,3.126066162109375,-0.0002300971100339666,0.005514341406524181,-0.0007888282998465002
1782952682394994200,3.135994140625,-0.0013022858183830976,0.004674113821238279,0.00008628641808172688
1782952682404921300,3.14592138671875,-0.0010327738709747791,0.006551376078277826,0.0020876519847661257
1782952682414849300,3.155849365234375,-0.0013108078856021166,0.004707669839262962,0.0011467571603134274
1782952682424776200,3.165776123046875,-0.0015957661671563983,0.005311674904078245,0.00039521310827694833
1782952682434704400,3.175704345703125,-0.0023872575256973505,0.004448810592293739,0.00024714134633541107
1782952682444631000,3.185631103515625,0.001282312092371285,0.004531634971499443,-0.002326537622138858
1782952682454559200,3.195559326171875,0.00034354778472334146,0.003882356220856309,0.0023339942563325167
1782952682464486100,3.205486083984375,-0.0015952334506437182,0.006278135813772678,0.0002306297537870705
1782952682474414000,3.2154140625,0.000678307143971324,0.0051718587055802345,0.001234907773323357
1782952682484341200,3.22534130859375,-0.0012338425731286407,0.00415346585214138,0.0021137509029358625
1782952682494269200,3.235269287109375,-0.001546763931401074,0.00583685003221035,0.0010804444318637252
1782952682504196000,3.245196044921875,-0.0012034825049340725,0.005873868241906166,-0.0004830974212381989
1782952682514124000,3.2551240234375,-0.00045566685730591416,0.00503870053216815,0.0013765880139544606
1782952682524051200,3.26505126953125,-0.0017595505341887474,0.006913566030561924,0.000007723167072981596
1782952682533979100,3.274979248046875,-0.0003510046226438135,0.0018615495646372437,-0.0007166566210798919
1782952682543906300,3.28490625,-0.0013337110867723823,0.004564658273011446,0.0007076018955558538
1782952682553834200,3.294834228515625,-0.002103897277265787,0.003186738584190607,-0.0015576828736811876
1782952682563761200,3.30476123046875,-0.0035923379473388195,0.0057676080614328384,0.0008034756756387651
1782952682573689300,3.314689453125,-0.00344586418941617,0.006363356951624155,0.0025715483352541924
1782952682583616300,3.3246162109375,-0.0010748518398031592,0.004051200579851866,0.00475320965051651
1782952682593543200,3.334543212890625,-0.001998702296987176,0.005386775825172663,0.00019281286222394556
1782952682603471400,3.344471435546875,-0.002645317930728197,0.005788647104054689,-0.000474575295811519
1782952682613398300,3.354398193359375,0.0005083974683657289,0.0053553506731987,0.0026082999538630247
1782952682623326200,3.364326171875,-0.0011688614031299949,0.006509564816951752,0.002466353354975581
1782952682633253000,3.374253173828125,-0.0026458504144102335,0.008577775210142136,0.0027574370615184307
1782952682643181300,3.384181396484375,-0.0013670006301254034,0.007931958884000778,-0.0007717840489931405
1782952682653108200,3.394108154296875,-0.0020666129421442747,0.004510063212364912,0.002019474981352687
1782952682663036200,3.4040361328125,-0.0011757856700569391,0.007418235298246145,-0.00041518680518493056
1782952682672963000,3.413963134765625,-0.0003709783486556262,0.0021310613956302404,0.0026671558152884245
1782952682682891000,3.42389111328125,0.0024197481106966734,0.00449781259521842,-0.000467118457891047
1782952682692818200,3.433818115234375,-0.0011012171162292361,0.006137787364423275,0.0004857605672441423
1782952682702746000,3.44374609375,0.00101146858651191,0.004388356581330299,-0.0004005394293926656
1782952682712673300,3.45367333984375,-0.0006170544074848294,0.005456816870719194,0.0014080132823437452
1782952682722601200,3.463601318359375,-0.001520132296718657,0.00765845226123929,0.0009334379574283957
1782952682732528000,3.473528076171875,-0.0011803129455074668,0.004198473412543535,-0.00013395700079854578
1782952682742456300,3.483456298828125,-0.00221974472515285,0.0065471152774989605,0.002469815546646714
1782952682752383200,3.49338330078125,-0.0007632619817741215,0.003835750976577401,0.0008322378271259367
1782952682762311200,3.503311279296875,-0.003573429537937045,0.006043245084583759,0.00037390782381407917
1782952682772238300,3.51323828125,-0.0032530513126403093,0.003468500915914774,0.003640541108325124
1782952682782166300,3.523166259765625,-0.0010940266074612737,0.00501153664663434,0.0001155811914941296
1782952682792093200,3.53309326171875,-0.002569684060290456,0.00464721629396081,0.002630137838423252
1782952682802021400,3.543021484375,-0.0026341325137764215,0.00899748969823122,0.0006410228670574725
1782952682811948300,3.5529482421875,-0.0002442118711769581,0.0035089810844510794,0.00443842401728034
1782952682821876200,3.562876220703125,0.0002985403698403388,0.005631520412862301,0.0013989584986120462
1782952682831803400,3.572803466796875,-0.0002892192860599607,0.0036418726667761803,0.000824248360004276
1782952682841731300,3.5827314453125,-0.0026429209392517805,0.004487692844122648,0.0007776430575177073
1782952682851658000,3.592657958984375,0.0003557983145583421,0.0038248319178819656,0.0016740630380809307
1782952682861585200,3.602585205078125,0.0004894890007562935,0.004078364931046963,0.0014588796766474843
1782952682871513000,3.61251318359375,-0.0015630092239007354,0.0011435613268986344,0.000910268456209451
1782952682881440300,3.622440185546875,-0.001597896683961153,0.006615025922656059,0.0011382350930944085
1782952682891368200,3.6323681640625,-0.0014152037911117077,0.004610997159034014,-0.00007962851668708026
1782952682901295000,3.642295166015625,0.00043782367720268667,0.006368949543684721,0.0011611381778493524
1782952682911223300,3.652223388671875,-0.0018141453620046377,0.004257595632225275,0.001389371114782989
1782952682921150200,3.662150146484375,-0.0003608583356253803,0.00401498144492507,0.001264202524907887
1782952682931078100,3.672078125,-0.0034469293896108866,0.006942860782146454,0.001133441342972219
1782952682941005300,3.68200537109375,-0.0008929579053074121,0.004973985720425844,0.00014993596414569765
1782952682950933200,3.691933349609375,-0.001279116258956492,0.003781156148761511,-0.0021046961192041636
1782952682960860200,3.701860107421875,-0.0011893677292391658,0.004652808886021376,0.0004719121498055756
1782952682970788400,3.711788330078125,-0.002228533150628209,0.004471980035305023,0.001383245806209743
1782952682980715300,3.72171533203125,-0.0025619608350098133,0.004816593136638403,-0.0014615427935495973
1782952682990643200,3.731643310546875,-0.0011864382540807128,0.005622731987386942,7.989483492565341e-7
1782952683000570400,3.7415703125,0.0021608888637274504,0.004097007215023041,0.005420065484941006
1782952683010498300,3.751498291015625,-0.0006093312404118478,0.00506826164200902,0.00047058056225068867
1782952683020425200,3.76142529296875,0.001020523370243609,0.00336170825175941,0.002481267089024186
1782952683030353400,3.771353515625,-0.00013448962999973446,0.006120210513472557,0.001677791471593082
1782952683040280000,3.781280029296875,-0.0019361181184649467,0.005478388629853725,0.0006476807757280767
1782952683050208300,3.791208251953125,0.0002921487612184137,0.0026232136879116297,0.001038632821291685
1782952683060135200,3.80113525390625,0.0002324939559912309,0.0060267336666584015,0.003239202778786421
1782952683070063000,3.81106298828125,-0.001389371114782989,0.006951649207621813,0.0021608888637274504
1782952683079990300,3.820990234375,-0.003710848744958639,0.0051928977482020855,0.0006926882197149098
1782952683089918200,3.830918212890625,-0.0015044197207316756,0.00455773388966918,0.0010098706698045135
1782952683099845000,3.84084521484375,-0.0030535804107785225,0.005868807900696993,0.002031991956755519
1782952683109773000,3.85077294921875,-0.0023968450259417295,0.005268265027552843,-0.00001917476038215682
1782952683119700200,3.8607001953125,-0.003020024625584483,0.005273858085274696,-0.0018836538074538112
1782952683129628200,3.870628173828125,-0.0006737797521054745,0.0049010151997208595,0.0010194580536335707
1782952683139555300,3.880555419921875,0.0004165183927398175,0.003981425892561674,0.001189900329336524
1782952683149482200,3.890482177734375,-0.0017041567480191588,0.004877845756709576,0.00029774141148664057
1782952683159410200,3.90041015625,-0.0014927018200978637,0.004320180043578148,0.00018269284919369966
1782952683169337300,3.91033740234375,-0.0003009371866937727,0.005231513641774654,0.0013366405619308352
1782952683179265300,3.920265380859375,0.001487375469878316,0.0029909962322562933,0.0005736448802053928
1782952683189192200,3.930192138671875,-0.0011883024126291275,0.0035459990613162518,0.0007121292874217033
1782952683199120400,3.940120361328125,-0.0008530105114914477,0.005569735076278448,0.000651675509288907
1782952683209047300,3.95004736328125,0.0008828379213809967,0.004834436345845461,0.00166580721270293
1782952683218975200,3.959975341796875,-0.0003062635369133204,0.0049401638098061085,0.0022602248936891556
1782952683228902400,3.96990234375,0.00017470336752012372,0.002508165081962943,-0.0001310275256400928
1782952683238830300,3.979830322265625,-0.0023257385473698378,0.004053863696753979,0.0005619269795715809
1782952683248757200,3.98975732421875,-0.0018977685831487179,0.007833954878151417,0.004534564446657896
1782952683258685400,3.999685546875,0.0013195963110774755,0.0033302828669548035,0.000645550258923322
1782952683268612000,4.009612060546875,0.00021438446128740907,0.004269846249371767,0.0014085458824411035
1782952683278540000,4.0195400390625,-0.0011283813510090113,0.0037939392495900393,0.0006143912323750556
1782952683288467200,4.02946728515625,-0.00267780851572752,0.0054754591546952724,0.0007725830073468387
1782952683298395100,4.03939501953125,-0.0009004147723317146,0.004478638060390949,-0.0016229304019361734
1782952683308322300,4.049322265625,-0.001713744131848216,0.0033420007675886154,-0.00014061490946915
1782952683318250200,4.059250244140625,-0.0014626081101596355,0.002566754585132003,0.00253426400013268
1782952683328177200,4.06917724609375,-0.001689509372226894,0.006334062200039625,-0.001904160133562982
1782952683338105000,4.07910498046875,-0.0005249090609140694,0.005526325665414333,0.0010122675448656082
1782952683348032300,4.0890322265625,-0.00027031084755435586,0.0062975771725177765,0.0002764361270237714
1782952683357960200,4.098960205078125,0.000696150294970721,0.002698048483580351,0.0014144048327580094
1782952683367887400,4.108887451171875,-0.003826962551102042,0.006186789367347956,0.0012434299569576979
1782952683377815300,4.118815185546875,-0.0008362325606867671,0.0034533210564404726,0.0011440940434113145
1782952683387742200,4.1287421875,0.0006077333819121122,0.0034439999144524336,0.00006764429417671636
1782952683397670100,4.138670166015625,0.0014703312190249562,0.005100485868752003,0.002161954063922167
1782952683407597300,4.148597412109375,0.000022636868379777297,0.0051777176558971405,0.0018157431622967124
1782952683417525200,4.158525146484375,-0.002139317337423563,0.007245662156492472,0.0002085255109705031
1782952683427452400,4.168452392578125,-0.0005102616851218045,0.004488491453230381,-0.0012663330417126417
1782952683437379300,4.17837939453125,-0.0009946906939148903,0.003891411004588008,0.0015225291717797518
1782952683447307300,4.188307373046875,-0.0022748722694814205,0.005348159931600094,-0.0013688647886738181
1782952683457234200,4.198234130859375,0.0007720504072494805,0.0047058057971298695,0.0015414375811815262
1782952683467162400,4.208162353515625,-0.0025561018846929073,0.004050934221595526,0.000018908443962573074
1782952683477089300,4.21808935546875,-0.0011760519118979573,0.0031342741567641497,0.0021752698812633753
1782952683487017200,4.228017333984375,-0.004256530199199915,0.005248824134469032,0.0024413196370005608
1782952683496944000,4.237944091796875,-0.0015736619243398309,0.00455826660618186,-0.00013928332191426307
1782952683506872000,4.2478720703125,-0.0015100123127922416,0.003918575122952461,0.0006838997360318899
1782952683516799200,4.25779931640625,-0.003320961957797408,0.003154514357447624,0.003441869281232357
1782952683526727200,4.26772705078125,-0.002266616327688098,0.0037534593138843775,0.0018785938154906034
1782952683536654300,4.277654296875,-0.00027084347675554454,0.004917527083307505,0.002255697501823306
1782952683546582300,4.287582275390625,-0.000051399008953012526,0.004107659682631493,-0.0002665824140422046
1782952683556509200,4.29750927734375,-0.0010498181218281388,0.00401657959446311,0.001603222917765379
1782952683566437000,4.30743701171875,-0.0026559706311672926,0.004768123384565115,0.0008492820779792964
1782952683576364300,4.3173642578125,-0.0015254586469382048,0.003823766717687249,-0.00009134642459684983
1782952683586292200,4.327292236328125,0.00021198761533014476,0.003613909473642707,0.0003784351865760982
1782952683596219400,4.337219482421875,0.000368847802747041,0.0026437200140208006,-0.000883636821527034
1782952683606147300,4.347147216796875,-0.003453587181866169,0.006955644115805626,0.0010109359864145517
1782952683616074200,4.35707421875,-0.0005600627628155053,0.006161489523947239,0.002584597794339061
1782952683626002400,4.36700244140625,0.00010679275874281302,0.006482134107500315,0.00047643951256759465
1782952683635929300,4.376929443359375,0.0003414172388147563,0.004303401801735163,-0.0011624698527157307
1782952683645857300,4.386857177734375,0.00056219327962026,0.002320412313565612,-0.0003478088474366814
1782952683655784400,4.396784423828125,-0.0008138620178215206,0.002651443239301443,0.0024746092967689037
1782952683665712400,4.40671240234375,-0.0027624969370663166,0.005751628894358873,0.0013171994360163808
1782952683675639000,4.41663916015625,0.0001978728687390685,0.003430151380598545,-0.0004540689697023481
1782952683685566200,4.426566162109375,-0.0011121360585093498,0.004317250568419695,0.0012258529895916581
1782952683695494100,4.436494140625,-0.003733219113200903,0.0025350630749017,-0.001228516222909093
1782952683705421300,4.44642138671875,-0.003293264890089631,0.004460794851183891,-0.0002540655550546944
1782952683715349200,4.456349365234375,0.0001507349224993959,0.003448260948061943,0.0013057478936389089
1782952683725276200,4.466276123046875,0.00034354778472334146,0.005975867155939341,-0.0007400924805551767
1782952683735204000,4.4762041015625,-0.00021891183860134333,0.005364938173443079,0.002755306428298354
1782952683745131300,4.48613134765625,-0.001449025934562087,0.006864830385893583,0.0013374395202845335
1782952683755059200,4.49605908203125,0.001320927869528532,0.00526666734367609,0.0020671456586569548
1782952683764986400,4.505986328125,-0.0010285128373652697,0.005625128746032715,0.002775280037894845
1782952683774914300,4.515914306640625,-0.003593669505789876,0.006272543221712112,0.001395230065099895
1782952683784841200,4.52584130859375,-0.0013763216556981206,0.004772118292748928,-0.00028336033574305475
1782952683794769400,4.535769287109375,-0.0021022993605583906,0.005795837379992008,-0.0017542241839691997
1782952683804696300,4.5456962890625,-0.001787779969163239,0.006427805405110121,0.0006713828770443797
1782952683814624300,4.555624267578125,-0.0010375675046816468,0.0028762139845639467,0.0023062974214553833
1782952683824551400,4.565551513671875,-0.0009267800487577915,0.006897853687405586,0.0033457293175160885
1782952683834479400,4.575479248046875,-0.0003563309437595308,0.004486094694584608,-0.0007411577389575541
1782952683844406300,4.58540625,-0.0026589001063257456,0.005763346794992685,0.0011297129094600677
1782952683854334500,4.59533447265625,-0.00004660531703848392,0.0062698801048099995,-0.002718554809689522
1782952683864261000,4.60526123046875,-0.001050350721925497,0.0037326866295188665,0.002490854589268565
1782952683874189000,4.61518896484375,-0.0005816344055347145,0.006244313903152943,-0.0006119944155216217
1782952683884116200,4.6251162109375,-0.0012365056900307536,0.004009122494608164,0.0021441110875457525
1782952683894044200,4.635044189453125,-0.002715891692787409,0.0036495958920568228,-0.0011371697764843702
1782952683903971000,4.64497119140625,0.0004881574132014066,0.003921504598110914,-0.0001179780374513939
1782952683913899300,4.654899169921875,-0.002365952357649803,0.00267780851572752,-0.0023995081428438425
1782952683923826200,4.664826171875,-0.0007728493656031787,0.0030280142091214657,0.0013451626291498542
1782952683933753300,4.67475341796875,0.0013590110465884209,0.004393416922539473,0.0032498554792255163
1782952683943681300,4.684681396484375,-0.0012261193478479981,0.003831756068393588,0.001291100517846644
1782952683953608200,4.694608154296875,0.0001174454009742476,0.0038402783684432507,0.000603738590143621
1782952683963536400,4.704536376953125,0.0009123989730142057,0.0017837852938100696,-0.0004093278548680246
1782952683973463300,4.71446337890625,-0.0035744947381317616,0.006811034400016069,0.0011004181578755379
1782952683983391200,4.72439111328125,-0.0012271846644580364,0.005357214715331793,0.002858637133613229
1782952683993318400,4.734318359375,-0.0017417073249816895,0.0014764565275982022,0.002043443499132991
1782952684003246300,4.744246337890625,-0.0008111988427117467,0.007765777874737978,-0.00245090713724494
1782952684013173200,4.75417333984375,-0.0010008158860728145,0.004192880820482969,-0.0016671388875693083
1782952684023101400,4.764101318359375,0.00019361180602572858,0.006313555873930454,0.002115881536155939
1782952684033028400,4.7740283203125,-0.0003552656853571534,0.007369499187916517,0.0020692760590463877
1782952684042956300,4.783956298828125,-0.00046392265358008444,0.0055090151727199554,-0.0013970943400636315
1782952684052883200,4.79388330078125,-0.002573412610217929,0.004223507363349199,0.000046072687837295234
1782952684062811100,4.80381103515625,-0.0007486145477741957,0.005847236607223749,0.0014687333023175597
1782952684072738000,4.813738037109375,-0.001136370818130672,0.0031044469214975834,-0.0010466222884133458
1782952684082666200,4.823666259765625,-0.0024077638518065214,0.006720487028360367,0.0022272015921771526
1782952684092593200,4.83359326171875,-0.000550475378986448,0.005399559158831835,0.002685531508177519
1782952684102521900,4.84352197265625,-0.0020216056145727634,0.0018367822049185634,0.00441019469872117
1782952684112449000,4.853448974609375,-0.000678307143971324,0.0037052559200674295,0.00039734362508170307
1782952684122377000,4.863376953125,-0.0010487528052181005,0.005013134330511093,0.0012942962348461151
1782952684132304000,4.873303955078125,-0.0024517059791833162,0.005840844940394163,-0.0003677825443446636
1782952684142232000,4.883232177734375,0.002764094853773713,0.006491455249488354,0.0013369068037718534
1782952684152159000,4.893158935546875,-0.003650394966825843,0.005530586466193199,0.0006079996819607913
1782952684162087000,4.9030869140625,-0.0011867046123370528,0.004111920483410358,0.0015030881622806191
1782952684172013800,4.913013916015625,-0.003570233704522252,0.004529770463705063,-0.0006918892613612115
1782952684181940700,4.922940673828125,-0.0023499734234064817,0.0037787591572850943,0.0011978897964581847
1782952684191868700,4.93286865234375,-0.0015227955300360918,0.004517786670476198,-0.0005363606614992023
1782952684201795800,4.9427958984375,-0.001014131703414023,0.005811816547065973,0.0009150621481239796
1782952684211723800,4.952723876953125,-0.0011851066956296563,0.007616906892508268,0.00009081379539566115
1782952684221651000,4.96265087890625,-0.000016777914424892515,0.00589703768491745,0.0004386226355563849
1782952684231579000,4.972578857421875,-0.0007004113867878914,0.007841943763196468,0.001677525113336742
1782952684241505800,4.982505859375,-0.0011584750609472394,0.0036786242853850126,0.0008649947121739388
1782952684251433700,4.992433837890625,-0.0005251753609627485,0.006142048165202141,0.0012157330056652427
1782952684261361000,5.00236083984375,-0.0005014732014387846,0.0043737092055380344,-0.0010197244118899107
1782952684271288800,5.012288818359375,-0.00026312030968256295,0.004455734975636005,-0.00047084689140319824
1782952684281216000,5.022216064453125,-0.00166633992921561,0.004311125259846449,0.0014197311829775572
1782952684291144000,5.03214404296875,0.0015539544401690364,0.006332997232675552,0.0008812400046736002
1782952684301070800,5.04207080078125,-0.0004953479510731995,0.003064499469473958,0.001982190879061818
1782952684310999000,5.0519990234375,0.0015073491958901286,0.0049766493029892445,0.0034639735240489244
1782952684320926000,5.061926025390625,0.00039547940832562745,0.004029628820717335,0.0017614146927371621
1782952684330854000,5.07185400390625,-0.0014652712270617485,0.0031068436801433563,-0.00020399813365656883
1782952684340781000,5.081781005859375,0.0020969731267541647,0.005788380745798349,-0.0022421153262257576
1782952684350709000,5.091708984375,0.0015720640076324344,0.002252501668408513,-0.0005171858938410878
1782952684360636000,5.101635986328125,-0.0015787219163030386,0.003933222498744726,0.0016724651213735342
1782952684370564000,5.111564208984375,-0.0007379619055427611,0.005800630897283554,0.0005701828049495816
1782952684380490800,5.12149072265625,-0.00236275652423501,0.003967843484133482,-0.0012961605098098516
1782952684390418700,5.131418701171875,-0.00072597770486027,0.004756139125674963,-0.0015824503498151898
1782952684400345900,5.141345947265625,0.000254331884207204,0.005483981221914291,0.0011065434664487839
1782952684410273800,5.151273681640625,-0.0024461133871227503,0.004084756597876549,0.0007829693495295942
1782952684420200700,5.16120068359375,0.0013816480059176683,0.0028330706991255283,0.002243979601189494
1782952684430127900,5.1711279296875,0.0005986785981804132,0.0062975771725177765,0.000606934423558414
1782952684440055800,5.181055908203125,0.0016916398890316486,0.00455826660618186,0.0014117417158558965
1782952684449983000,5.19098291015625,-0.0023606258910149336,0.0059777311980724335,0.0002133192028850317
1782952684459911000,5.200910888671875,-0.00004713794987765141,0.004854676313698292,-0.0003057308786083013
1782952684469837800,5.210837890625,-0.001315068919211626,0.003838680451735854,0.0013547500129789114
1782952684479766000,5.22076611328125,-0.0012953615514561534,0.006246710661798716,-0.00023861923546064645
1782952684489693000,5.23069287109375,-0.001359543763101101,0.004748948849737644,0.0014974954538047314
1782952684499620900,5.240620849609375,-0.0032708945218473673,0.005431517027318478,0.0005510080372914672
1782952684509548000,5.250548095703125,-0.0004713795206043869,0.00595589354634285,-0.0017619474092498422
1782952684519476000,5.26047607421875,-0.0019049590919166803,0.0049462891183793545,-0.0007254450465552509
1782952684529403000,5.27040283203125,0.0006729807937517762,0.0046362970024347305,0.00011078749957960099
1782952684539331000,5.2803310546875,-0.0013701963471248746,0.004608334042131901,-0.0015765913994982839
1782952684549258000,5.290258056640625,-0.0008831042214296758,0.004319380968809128,-0.0009632653673179448
1782952684559186000,5.30018603515625,0.0012434299569576979,0.004811266902834177,0.001303351018577814
1782952684569112800,5.31011279296875,-0.0016951019642874599,0.005163869354873896,-0.00011478224041638896
1782952684579040800,5.320040771484375,-0.00028522455249913037,0.0050099384970963,-0.001008539111353457
1782952684588967700,5.3299677734375,0.0014855111949145794,0.006993993651121855,0.0024764735717326403
1782952684598895900,5.339895751953125,-0.0009278453071601689,0.00455826660618186,0.0016682040877640247
1782952684608822800,5.34982275390625,-0.00004500742215896025,0.004288488067686558,0.0015704660909250379
1782952684618750700,5.359750732421875,-0.00010199906682828441,0.004698082339018583,0.0029981867410242558
1782952684628678000,5.369677978515625,0.0006993460701778531,0.00618306128308177,0.00043223105603829026
1782952684638604800,5.379604736328125,-0.0017976337112486362,0.0038088529836386442,0.0020969731267541647
1782952684648533000,5.389532958984375,0.00042504051816649735,0.00421205535531044,0.0010668623726814985
1782952684658460000,5.3994599609375,-0.0016889767721295357,0.006661897525191307,0.00023169501218944788
1782952684668387800,5.409387939453125,-0.0026943201664835215,0.006019809283316135,0.0013494236627593637
1782952684678315000,5.41931494140625,-0.0019744676537811756,0.006191316992044449,-0.002186188939958811
1782952684688243000,5.429242919921875,0.0003611246356740594,0.003114833263680339,0.002005626680329442
1782952684698169900,5.439169921875,-0.001353418454527855,0.003662645351141691,0.0003480751474853605
1782952684708098000,5.44909814453125,0.00011877698125317693,0.006649646908044815,-0.003643736941739917
1782952684718025000,5.45902490234375,-0.002537726191803813,0.004819522611796856,-0.00008921589324017987
1782952684727953000,5.468952880859375,-0.0016381103778257966,0.005145759787410498,0.002232261700555682
1782952684737880000,5.478880126953125,0.0012815131340175867,0.005583050660789013,0.0005427522119134665
1782952684747808000,5.48880810546875,-0.0005544701125472784,0.003947337158024311,0.001540904981084168
1782952684757734700,5.498734619140625,-0.0014479606179520488,0.002659432590007782,0.000574177538510412
1782952684767662800,5.508662841796875,0.00019467707898002118,0.00618226220831275,0.001121989800594747
1782952684777589800,5.51858984375,-0.0004913532175123692,0.0049705239944159985,0.0005544701125472784
1782952684787517700,5.528517578125,0.0013997574569657445,0.0037531929556280375,0.0000045273736759554595
1782952684797444900,5.53844482421875,-0.0008197209681384265,0.005346029531210661,-0.00024447820032946765
1782952684807372800,5.548372802734375,-0.0014735270524397492,0.0038096518255770206,0.0002460760879330337
1782952684817300000,5.558300048828125,-0.0001054611784638837,0.006828611250966787,-0.000054328484111465514
1782952684827228000,5.568227783203125,-0.0005251753609627485,0.0036043222062289715,-0.00013768543431069702
1782952684837154800,5.57815478515625,-0.0010396981379017234,0.006727410946041346,-0.0011864382540807128
1782952684847082000,5.58808203125,-0.0026463831309229136,0.0046757119707763195,0.0018040252616629004
1782952684857010000,5.598010009765625,-0.0026940538082271814,0.004200337454676628,-0.0009840379934757948
1782952684866936800,5.607936767578125,0.00005805691034765914,0.006155097857117653,-0.0008386294357478619
1782952684876865000,5.617864990234375,-0.0011920308461412787,0.004251470323652029,-0.0010367685463279486
1782952684886792000,5.6277919921875,-0.0031902005430310965,0.004246676806360483,0.0016479641199111938
1782952684896720000,5.637719970703125,0.001160339335910976,0.005834985990077257,-0.000336090917699039
1782952684906647000,5.64764697265625,-0.0013206616276875138,0.005534048657864332,-0.000007190534688561456
1782952684916575000,5.657574951171875,-0.0029635655228048563,0.007542338687926531,-0.00041784998029470444
1782952684926502000,5.667501953125,-0.0014034858904778957,0.003232811111956835,0.0017499631503596902
1782952684936430000,5.67743017578125,-0.0034884747583419085,0.004327903036028147,0.0012085424968972802
1782952684946359800,5.68735986328125,-0.0014927018200978637,0.0054882424883544445,0.00264851376414299
1782952684956287700,5.697287841796875,-0.0005640574963763356,0.004447478801012039,0.0005834985640831292
1782952684966215000,5.70721484375,-0.00019920444174204022,0.004879443906247616,0.000568318588193506
1782952684976142800,5.717142822265625,-0.001614940818399191,0.0041031320579349995,-0.0014588796766474843
1782952684986070000,5.727070068359375,-0.0022445120848715305,0.004041879437863827,-0.0011984225129708648
1782952684995997000,5.736996826171875,0.00015393071225844324,0.0036107138730585575,0.0009835053933784366
1782952685005924900,5.7469248046875,-0.0012855078093707561,0.003454119898378849,0.0007768440991640091
1782952685015852000,5.75685205078125,-0.0017291904659941792,0.003992344718426466,-0.0009214537567459047
1782952685025780000,5.766780029296875,0.0016892430139705539,0.007247793022543192,-0.0008442220860160887
1782952685035707000,5.776706787109375,-0.0001781654718797654,0.005787581671029329,0.0029414615128189325
1782952685045635000,5.786635009765625,-0.0013193299528211355,0.004070907831192017,0.0001555285998620093
1782952685055561700,5.796561767578125,-0.0002162486780434847,0.0051537491381168365,0.0004063983797095716
1782952685065489700,5.80648974609375,-0.0035185683518648148,0.0036906085442751646,0.0006271744496189058
1782952685075416800,5.816416748046875,0.0015643407823517919,0.005575061310082674,0.0001459412305848673
1782952685085344800,5.8263447265625,-0.001517202821560204,0.003906857222318649,0.0007177218794822693
1782952685095272000,5.83627197265625,0.00015446334145963192,0.005252819042652845,-0.0004599279200192541
1782952685105199900,5.846199951171875,-0.0036573191173374653,0.004707936197519302,0.00007856325100874528
1782952685115126500,5.85612646484375,0.0011675298446789384,0.004786765668541193,0.0017419736832380295
1782952685125054700,5.8660546875,-0.0003328951424919069,0.002156095113605261,0.0010801780736073852
1782952685134981600,5.875981689453125,-0.0025417208671569824,0.006527940277010202,-0.0014397049089893699
1782952685144909600,5.88590966796875,-0.0010724549647420645,0.0029374666046351194,0.0021523667965084314
1782952685154836700,5.895836669921875,-0.0006676545017398894,0.00501180300489068,-0.0012058793799951673
1782952685164764700,5.9057646484375,-0.0013662016717717052,0.0031638352666050196,0.00038216362008824944
1782952685174691600,5.915691650390625,-0.0017797905020415783,0.005291967187076807,0.002284459536895156
1782952685184619800,5.925619873046875,0.00042796999332495034,0.0056890444830060005,0.001005609636195004
1782952685194546700,5.935546630859375,-0.0014772554859519005,0.004027232062071562,-0.0005374259199015796
1782952685204474600,5.945474609375,0.0008913599886000156,0.0037846181076020002,0.0011803129455074668
1782952685214401800,5.95540185546875,-0.002344646956771612,0.005726595409214497,0.0017563547007739544
1782952685224328700,5.96532861328125,-0.00018216021999251097,0.0021254688035696745,0.0023899206425994635
1782952685234256600,5.975256591796875,-0.000005326322025211994,0.004007791168987751,0.00020266656065359712
1782952685244183800,5.985183837890625,0.0001901497016660869,0.005872270092368126,0.0003640541108325124
1782952685254111700,5.99511181640625,-0.001118527608923614,0.0049281795509159565,0.002579005202278495
1782952685264039000,6.005038818359375,0.00030360036180354655,0.0050099384970963,-0.00032091091270558536
1782952685273966800,6.014966796875,-0.0019185412675142288,0.006603041663765907,-0.0005494101205840707
1782952685283893800,6.024893798828125,0.0001131843455368653,0.00526720006018877,0.0010109359864145517
1782952685293821700,6.03482177734375,-0.0018093516118824482,0.004806206561625004,-0.00016192019393201917
1782952685303748600,6.04474853515625,0.0005105279851704836,0.004748682491481304,-0.000026365294615970924
1782952685313676500,6.054676513671875,-0.0013763216556981206,0.005790511146187782,-0.0015486282063648105
1782952685323603700,6.064603759765625,-0.0035981968976557255,0.004178766161203384,-0.0012282498646527529
1782952685333531600,6.07453173828125,-0.0035113778430968523,0.004956675227731466,-0.000008255799002654385
1782952685343458600,6.08445849609375,0.0007323693134821951,0.006837399676442146,0.00210735946893692
1782952685353386800,6.09438671875,0.000054328484111465514,0.005183043889701366,0.0022056300658732653
1782952685363313700,6.104313720703125,0.0008466189028695226,0.003108707955107093,0.0014628743520006537
1782952685373241600,6.11424169921875,-0.002572879893705249,0.005375856999307871,0.0004644552827812731
1782952685383168800,6.124168701171875,0.0004346278728917241,0.005437109619379044,0.0007206514128483832
1782952685393096700,6.1340966796875,0.0009094694978557527,0.0049257827922701836,0.0009475527331233025
1782952685403023600,6.144023681640625,-0.000857005245052278,0.00375985074788332,-0.0004269047058187425
1782952685412951800,6.153951904296875,-0.00023089606838766485,0.005280249286442995,0.0012780509423464537
1782952685422878700,6.163878662109375,-0.002642654813826084,0.0051801144145429134,0.0014809839194640517
1782952685432806700,6.173806640625,-0.0010580739472061396,0.004241084214299917,0.0022658174857497215
1782952685442733800,6.18373388671875,-0.00145195540972054,0.004554005339741707,-0.000015180017726379447
1782952685452660700,6.19366064453125,-0.00013395700079854578,0.0073018549010157585,-0.0014884406700730324
1782952685462588700,6.203588623046875,-0.0006242449744604528,0.004599811974912882,0.0010018812026828527
1782952685472515800,6.213515869140625,0.0008146609761752188,0.00395772373303771,0.0003211772127542645
1782952685482443800,6.22344384765625,-0.0012442287988960743,0.003907389938831329,0.0006719155353493989
1782952685492370700,6.23337060546875,0.0022090920247137547,0.005065065808594227,0.0009345032158307731
1782952685502298600,6.243298583984375,-0.0026463831309229136,0.00637827068567276,-0.001038366463035345
1782952685512225500,6.2532255859375,-0.00009507485083304346,0.005238703917711973,0.0026027073618024588
1782952685522153700,6.26315380859375,0.00035712990211322904,0.005681321490556002,-0.00044661210267804563
1782952685532080600,6.27308056640625,-0.0002146507758880034,0.004003796260803938,-0.00009853696246864274
1782952685542008600,6.283008544921875,-0.003516437951475382,0.0070461914874613285,-0.002679672557860613
1782952685551935700,6.292935791015625,-0.0008870989549905062,0.004003529902547598,0.0005896238726563752
1782952685561863700,6.30286376953125,-0.0008998821140266955,0.00691889226436615,0.001103880233131349
1782952685571790600,6.31279052734375,-0.001059405505657196,0.004198739770799875,0.002083124592900276
1782952685581718800,6.32271875,0.00017710021347738802,0.0062184808775782585,0.0009832390351220965
1782952685591645700,6.332645751953125,-0.0009062737226486206,0.005705290008336306,0.0002556634717620909
1782952685601573600,6.34257373046875,-0.0026144252624362707,0.006403038278222084,-0.0011504855938255787
1782952685611500800,6.352500732421875,-0.00199390877969563,0.005750829819589853,0.001317998394370079
1782952685621428700,6.3624287109375,0.00019734023953787982,0.005340969655662775,-0.0023821976501494646
1782952685631355600,6.372355712890625,0.0010346380295231938,0.005194495897740126,0.002576075727120042
1782952685641282800,6.38228271484375,0.0012373046483844519,0.00452950457111001,0.002198972040787339
1782952685651210800,6.392210693359375,-0.00242187874391675,0.007121026515960693,0.0009808422764763236
1782952685661138000,6.402137939453125,-0.0022738068364560604,0.008325573988258839,-0.0011968245962634683
1782952685671065900,6.41206591796875,0.0003145193331874907,0.006391320377588272,0.0012740562669932842
1782952685680992500,6.421992431640625,-0.00032676986302249134,0.005193963181227446,0.0022501046769320965
1782952685690920700,6.431920654296875,-0.0006679208017885685,0.002826412906870246,-0.0007030745036900043
1782952685700847600,6.44184765625,0.0008165251929312944,0.00401604687795043,0.001136104459874332
1782952685710775600,6.451775634765625,0.002668221015483141,0.001531850197352469,-0.0005145227187313139
1782952685720702700,6.46170263671875,-0.005498894955962896,0.00344559783115983,-0.0005020058597438037
1782952685730630700,6.471630615234375,-0.0021736719645559788,0.005122057627886534,0.000984836951829493
1782952685740557600,6.4815576171875,-0.0015105449128895998,0.002722283359616995,0.001657551503740251
1782952685750485800,6.49148583984375,-0.0016881778137758374,0.002703907433897257,-0.00015233281010296196
1782952685760412700,6.50141259765625,-0.0012599414912983775,0.005542304366827011,-0.0003787015157286078
1782952685770340600,6.511340576171875,-0.0026969832833856344,0.005637645721435547,0.00025726135936565697
1782952685780267800,6.521267822265625,0.001582716591656208,0.002543318783864379,0.0032802154310047626
1782952685790195700,6.53119580078125,-0.0012924320762977004,0.004057858604937792,0.0015355786308646202
1782952685800122600,6.54112255859375,-0.00004420847471919842,0.004343349486589432,-0.00045566685730591416
1782952685810050800,6.55105078125,0.0000673779723001644,0.005527124274522066,-0.001234641415067017
1782952685819977700,6.560977783203125,-0.0015182681381702423,0.004845355171710253,0.002472745021805167
1782952685829905700,6.57090576171875,-0.00022770027862861753,0.0035782232880592346,0.001386707997880876
1782952685839832800,6.580832763671875,0.00020453077740967274,0.006602508947253227,-0.0000066579027588886674
1782952685849760800,6.5907607421875,-0.0022652847692370415,0.0030722226947546005,-0.0009278453071601689
1782952685859687700,6.600687744140625,-0.00038935415796004236,0.005671467632055283,-0.0006905576447024941
1782952685869614600,6.610614501953125,0.0005083974683657289,0.002891660202294588,0.00028522455249913037
1782952685879542800,6.620542724609375,-0.0013100089272484183,0.0052208611741662025,0.0031577101908624172
1782952685889469700,6.6304697265625,0.000040480048483004794,0.0046964846551418304,-0.0014365090755745769
1782952685899397600,6.640397705078125,-0.0011478224769234657,0.004777977243065834,-0.0003456783015280962
1782952685909324500,6.650324462890625,-0.002373941708356142,0.005073321983218193,0.00003914846820407547
1782952685919252700,6.660252685546875,-0.003965979442000389,0.0049153962172567844,-0.0006538060260936618
1782952685929179600,6.6701796875,-0.0021672805305570364,0.0062970444560050964,-0.00013156015484128147
1782952685939107600,6.680107666015625,-0.004520982038229704,0.004597681108862162,0.0007744472241029143
1782952685949034800,6.69003466796875,0.000969656917732209,0.004941495135426521,0.0009989517275243998
1782952685958962700,6.699962646484375,-0.0014514228096231818,0.004610198084264994,0.0016844493802636862
1782952685968889600,6.7098896484375,0.00019254654762335122,0.004668787587434053,0.0010314423125237226
1782952685978817800,6.71981787109375,-0.002208026824519038,0.00663499953225255,0.0024085629265755415
1782952685988744700,6.72974462890625,-0.0032200280111283064,0.0054299188777804375,-0.0018413095967844129
1782952685998672600,6.739672607421875,0.0022027005907148123,0.0049255164340138435,-0.0005195827106945217
1782952686008599800,6.749599853515625,0.0010745854815468192,0.004453870467841625,0.0024557008873671293
1782952686018527700,6.75952783203125,-0.00046046054922044277,0.004849882796406746,-0.0016207997687160969
1782952686028454700,6.76945458984375,-0.00025992453447543085,0.004824848845601082,-0.0011574097443372011
1782952686038382800,6.7793828125,0.0014375743921846151,0.0028655612841248512,0.0018967032665386796
1782952686048309800,6.789309814453125,-0.003022421384230256,0.0051508196629583836,-0.00148125016130507
1782952686058236700,6.799236572265625,-0.0003483414766378701,0.0049734534695744514,0.0030567762441933155
1782952686068164900,6.809164794921875,-0.002974484581500292,0.006086920853704214,-0.0004146541759837419
1782952686078091500,6.819091552734375,-0.0007203850545920432,0.004221642855554819,0.0025859293527901173
1782952686088019700,6.829019775390625,-0.0016700683627277613,0.006872819736599922,-0.0007659250986762345
1782952686097946000,6.838946044921875,-0.004797418136149645,0.005857356358319521,0.0037015276029706
1782952686107874000,6.8488740234375,-0.0006503439508378506,0.004024302586913109,0.000045273736759554595
1782952686117801200,6.85880126953125,0.0011859056539833546,0.004584631882607937,0.0010165285784751177
1782952686127729200,6.868729248046875,0.0006908240029588342,0.005348426289856434,0.0005944175645709038
1782952686137656300,6.87865625,-0.0020455741323530674,0.005075186025351286,0.003207511268556118
1782952686147584300,6.888584228515625,-0.00021491710504051298,0.004261590540409088,0.0017654094845056534
1782952686157511200,6.89851123046875,-0.004050934221595526,0.0065567027777433395,-0.000502804818097502
1782952686167439000,6.908439208984375,-0.002413090318441391,0.005081311333924532,0.0012767193838953972
1782952686177366300,6.9183662109375,0.0025449167005717754,0.0027739484794437885,0.0044229780323803425
1782952686187294200,6.928294189453125,-0.002665291540324688,0.0027355989441275597,0.0006527407676912844
1782952686197221400,6.938221435546875,0.0000351537273672875,0.0059966398403048515,-0.0012178635224699974
1782952686207149300,6.9481494140625,-0.001306280493736267,0.004787032026797533,-0.0005310343112796545
1782952686217076200,6.958076171875,-0.002880208659917116,0.004446147475391626,0.0005691175465472043
1782952686227004400,6.96800439453125,-0.002409361768513918,0.004741758108139038,-0.00119629199616611
1782952686236931300,6.977931396484375,-0.002213619416579604,0.0046120621263980865,-0.00009214537567459047
1782952686246858200,6.987858154296875,-0.0013622068800032139,0.0033910030033439398,0.0024972460232675076
1782952686256786400,6.997786376953125,0.000358461489668116,0.005153216887265444,0.0007233145297504961
1782952686266713000,7.007713134765625,0.00041199102997779846,0.005342034623026848,0.0010266485624015331
1782952686276641300,7.017641357421875,-0.001418932224623859,0.006637929007411003,0.0012716593919321895
1782952686286568200,7.027568115234375,-0.002513757674023509,0.005596100352704525,0.0005387574783526361
1782952686296496000,7.03749609375,-0.0033481260761618614,0.004674646537750959,-0.0015188007382676005
1782952686306423300,7.04742333984375,0.00037976677413098514,0.003044259501621127,0.0029824741650372744
1782952686316351200,7.057351318359375,-0.0011566109023988247,0.004820321686565876,0.0006687197601422668
1782952686326278100,7.067278076171875,-0.00018216021999251097,0.006244313903152943,0.0011502192355692387
1782952686336206000,7.0772060546875,0.0017957695527002215,0.008795089088380337,0.0029089709278196096
1782952686346133200,7.08713330078125,-0.00011664645717246458,0.0032538501545786858,0.0008490157779306173
1782952686356061200,7.097061279296875,-0.004310592543333769,0.006493319291621447,0.001603222917765379
1782952686365988400,7.10698828125,-0.0014527543680742383,0.0037611823063343763,0.0032868734560906887
1782952686375916300,7.116916259765625,-0.0013116068439558148,0.004777444526553154,-0.0015275891637429595
1782952686385843200,7.12684326171875,0.0015017564874142408,0.005154548212885857,-0.0007898935582488775
1782952686395771400,7.136771484375,-0.0014801849611103535,0.005649896338582039,0.0007358313887380064
1782952686405698300,7.1466982421875,-0.0021915151737630367,0.006885603070259094,0.0007009439868852496
1782952686415626200,7.156626220703125,-0.0026589001063257456,0.005567871034145355,0.00010679275874281302
1782952686425553400,7.166553466796875,0.00035979304811917245,0.004382497631013393,0.0018487664638087153
1782952686435481300,7.1764814453125,0.0001131843455368653,0.006192381959408522,0.002740659052506089
1782952686445408300,7.186408203125,0.0001483380765421316,0.004562527406960726,0.0018647453980520368
1782952686455335200,7.196335205078125,0.0005661880713887513,0.005250155925750732,0.0025837989524006844
1782952686465263400,7.206263427734375,0.0025872609112411737,0.004856806714087725,-0.000009054747351910919
1782952686475190300,7.216190185546875,-0.002888730727136135,0.0083071980625391,-0.0006340986583381891
1782952686485118200,7.2261181640625,0.00043276368523947895,0.004597148858010769,0.001347825862467289
1782952686495045000,7.236045166015625,0.0011414308100938797,0.006395314820110798,0.0017041567480191588
1782952686504973000,7.24597314453125,-0.0023411849979311228,0.005540706682950258,-0.0011430287268012762
1782952686514900200,7.255900146484375,-0.0008279767935164273,0.0027089675422757864,0.0015299860388040543
1782952686524828200,7.265828125,-0.0021758025977760553,0.005192098673433065,-0.0005408879951573908
1782952686534755300,7.27575537109375,0.0011078750248998404,0.004043477587401867,-0.0007773766992613673
1782952686544683300,7.285683349609375,-0.0026098978705704212,0.0056951697915792465,-0.00048070057528093457
1782952686554610200,7.295610107421875,-0.0036874127108603716,0.004795820452272892,0.0008306399104185402
1782952686564538400,7.305538330078125,-0.0012500877492129803,0.005434712860733271,0.0005627259379252791
1782952686574465300,7.31546533203125,-0.00044288369826972485,0.006521282717585564,0.0009749832679517567
1782952686584393200,7.325393310546875,-0.0011856392957270145,0.005344431847333908,-0.001592037733644247
1782952686594320400,7.3353203125,0.0005408879951573908,0.0041518681682646275,0.004803277086466551
1782952686604248300,7.345248291015625,0.0000953411654336378,0.004376106429845095,0.002049302449449897
1782952686614175200,7.35517529296875,-0.0005006743012927473,0.003772101365029812,-0.003712712787091732
1782952686624103400,7.365103515625,-0.0023302659392356873,0.005736715160310268,0.00044554684427566826
1782952686634030300,7.3750302734375,-0.001157143502496183,0.004717523697763681,0.0016442356863990426
1782952686643957200,7.384957275390625,-0.0003430151555221528,0.003997404593974352,0.0009350358741357923
1782952686653885400,7.394885498046875,0.0007249124464578927,0.0029409287963062525,0.002112419344484806
1782952686663812000,7.40481201171875,-0.0010439591715112329,0.003323358716443181,0.002499643014743924
1782952686673740000,7.414739990234375,0.00004953479583491571,0.004947354551404715,-0.0004980111261829734
1782952686683667200,7.424667236328125,-0.003490072675049305,0.003786748740822077,0.002526274649426341
1782952686693595100,7.43459521484375,0.0012926984345540404,0.004328968469053507,0.0032463932875543833
1782952686703522300,7.444522216796875,-0.0003222425002604723,0.0038578552193939686,0.000547279603779316
1782952686713450200,7.4544501953125,-0.0020695424173027277,0.006322610657662153,0.0025214808993041515
1782952686723377200,7.464377197265625,0.00008894957863958552,0.0036069853231310844,0.00032330775866284966
1782952686733305000,7.47430517578125,-0.003906857222318649,0.005536179058253765,0.0010197244118899107
1782952686743232300,7.484232177734375,-0.0015052186790853739,0.005327120888978243,0.0031281490810215473
1782952686753160200,7.49416015625,0.001276453142054379,0.004279699642211199,-0.00112438655924052
1782952686763087400,7.50408740234375,-0.001201884588226676,0.0044227116741240025,-0.000028762138754245825
1782952686773015300,7.514015380859375,0.0001597896625753492,0.006786799523979425,0.0003920173039659858
1782952686782942200,7.523942138671875,-0.0007677893154323101,0.003911118488758802,0.0019624833948910236
1782952686792870400,7.533870361328125,-0.0007262440049089491,0.003939081449061632,-0.001344896387308836
1782952686802797300,7.54379736328125,-0.0029108349699527025,0.006457899231463671,-0.00012623383372556418
1782952686812725200,7.553725341796875,0.0014258564915508032,0.003924167715013027,-0.0010788465151563287
1782952686822652400,7.56365234375,-0.0008223841432482004,0.00564137427136302,0.0005379585199989378
1782952686832580400,7.573580322265625,-0.002919357270002365,0.005382248666137457,0.0013909690314903855
1782952686842507300,7.58350732421875,0.0023529028985649347,0.0043960800394415855,0.0027316042687743902
1782952686852434200,7.59343408203125,-0.0024517059791833162,0.005545233841985464,-0.0000031957933970261365
1782952686862362000,7.603362060546875,-0.0006641923682764173,0.005855758674442768,0.0013321131700649858
1782952686872289300,7.613289306640625,-0.0003733751946128905,0.002935868687927723,0.0005760417552664876
1782952686882217200,7.62321728515625,0.00040559942135587335,0.00458569684997201,0.0022740731947124004
1782952686892144000,7.63314404296875,0.00019387812062632293,0.005160407163202763,-0.0012343751732259989
1782952686902072000,7.643072021484375,-0.002609365154057741,0.004187288228422403,0.0006317017832770944
1782952686911999200,7.652999267578125,0.0007360977469943464,0.0057135457172989845,0.0013757890556007624
1782952686921927200,7.66292724609375,-0.0019385149935260415,0.0038597192615270615,0.0014567491598427296
1782952686931854300,7.672854248046875,-0.001261539408005774,0.005630987696349621,0.002810966456308961
1782952686941782300,7.6827822265625,0.00038163099088706076,0.005453887395560741,0.0005992112564854324
1782952686951709200,7.692709228515625,-0.0009896307019516826,0.003947337158024311,0.0025241440162062645
1782952686961637400,7.702637451171875,0.0005456816870719194,0.005634982604533434,0.0015843145083636045
1782952686971564300,7.712564208984375,-0.0025331987999379635,0.008254467509686947,0.0024053670931607485
1782952686981492200,7.7224921875,-0.00045859633246436715,0.005119927227497101,-0.0004396878939587623
1782952686991419400,7.73241943359375,0.003498861100524664,0.004070109222084284,0.002570749493315816
1782952687001347300,7.742347412109375,-0.0015459649730473757,0.005173456855118275,0.0011560781858861446
1782952687011274200,7.752274169921875,-0.00042557314736768603,0.004033890087157488,0.0013406352372840047
1782952687021202400,7.762202392578125,-0.0005315669695846736,0.007820638827979565,0.0003121224872302264
1782952687031129300,7.77212939453125,-0.0013936321483924985,0.006049903109669685,0.001460743835195899
1782952687041056300,7.78205615234375,-0.0008476841612718999,0.0043563987128436565,0.0010399643797427416
1782952687050984200,7.791984130859375,-0.002547047333791852,0.00455879932269454,-0.0014927018200978637
1782952687060911000,7.8019111328125,-0.0014974954538047314,0.00478516798466444,0.0020785972010344267
1782952687070839000,7.811839111328125,0.0026106967125087976,0.002936934120953083,-0.00007323692989302799
1782952687080766200,7.82176611328125,-0.00013875069271307439,0.0031156321056187153,0.001589108258485794
1782952687090694100,7.831694091796875,-0.0025473134592175484,0.004757470916956663,0.0015361113473773003
1782952687100621000,7.84162109375,0.00009853696246864274,0.0054914383217692375,0.002998719457536936
1782952687110549000,7.851549072265625,-0.00008149272616719827,0.0037800907157361507,0.002275937469676137
1782952687120476000,7.861475830078125,-0.0040794298984110355,0.005800098646432161,0.002499110298231244
1782952687130404000,7.871404052734375,-0.000550475378986448,0.005182511638849974,0.0025278725661337376
1782952687140331000,7.8813310546875,-0.000553404854144901,0.005016063805669546,-0.0020157466642558575
1782952687150259000,7.891259033203125,-0.002633067313581705,0.0065678879618644714,0.004375840071588755
1782952687160186000,7.90118603515625,-0.0008269115351140499,0.004196343012154102,0.00001997370782191865
1782952687170114000,7.911114013671875,-0.0007696535321883857,0.0010197244118899107,0.0020032296888530254
1782952687180041000,7.921041015625,-0.0011456918437033892,0.004461327567696571,0.0011803129455074668
1782952687189969200,7.93096923828125,-0.002254632068797946,0.00478330347687006,0.0015696671325713396
1782952687199895800,7.940895751953125,-0.0015560849569737911,0.006807572208344936,0.0011797803454101086
1782952687209823000,7.950822998046875,-0.0009478190331719816,0.005404352676123381,0.000999484327621758
1782952687219751000,7.9607509765625,-0.0019504991360008717,0.003940146882086992,0.002439721953123808
1782952687229677800,7.970677734375,-0.0018160095205530524,0.006172674708068371,0.000925182132050395
1782952687239606000,7.98060595703125,-0.0008029430755414069,0.00561181316152215,0.0005411543534137309
1782952687249533000,7.990532958984375,0.0003539340978022665,0.004574778024107218,0.0017856494523584843
1782952687259460900,8.0004609375,-0.0008705873624421656,0.00421232171356678,0.0006511429091915488
1782952687269388000,8.010387939453125,-0.002204564632847905,0.005252819042652845,0.00003968110104324296
1782952687279316000,8.02031591796875,-0.000972852751147002,0.003781422507017851,0.0037534593138843775
1782952687289243000,8.030242919921875,-0.0007363640470430255,0.005501025356352329,-0.0014860439114272594
1782952687299171000,8.040171142578124,-0.003433879930526018,0.004511128645390272,0.001157143502496183
1782952687309098000,8.050097900390625,-0.0010974886827170849,0.006771353539079428,-0.0003834952076431364
1782952687319026000,8.06002587890625,-0.0020546286832541227,0.004293282050639391,0.0004913532175123692
1782952687328953000,8.069953125,-0.0013377057621255517,0.004228833597153425,0.00045540055725723505
1782952687338881000,8.079881103515625,-0.00034354778472334146,0.007790811359882355,0.0006343649583868682
1782952687348808000,8.089807861328126,-0.002356897573918104,0.0068120998330414295,0.0010775149567052722
1782952687358736100,8.099736083984375,-0.0002287655370309949,0.004900216590613127,-0.0004207794554531574
1782952687368663000,8.1096630859375,-0.00034887410583905876,0.0024740765802562237,0.002528405049815774
1782952687378591000,8.119591064453125,-0.0002996056282427162,0.004315386060625315,0.0012090750969946384
1782952687388518000,8.129517822265624,-0.0004673847579397261,0.0027534421533346176,0.0013342436868697405
1782952687398444800,8.13944482421875,-0.0009890979854390025,0.0049348375760018826,0.002628007438033819
1782952687408373000,8.149373046875,0.0010327738709747791,0.00515801040455699,0.0023238742724061012
1782952687418300000,8.1592998046875,-0.001113201375119388,0.006443518213927746,-0.000336090917699039
1782952687428227800,8.169227783203125,-0.0025936525780707598,0.004501807503402233,-0.0013108078856021166
1782952687438155000,8.179155029296876,-0.0008021441171877086,0.006859237793833017,0.0016319850692525506
1782952687448083000,8.1890830078125,0.000833036785479635,0.0032205607276409864,-0.00038242992013692856
1782952687458009900,8.199009765625,-0.0019776634871959686,0.005634982604533434,0.0015185344964265823
1782952687467938000,8.20893798828125,-0.0012937636347487569,0.0037617150228470564,0.0025569009594619274
1782952687477865000,8.218864990234374,-0.0026732811238616705,0.005620068870484829,0.0029497172217816114
1782952687487793000,8.22879296875,0.0008652610122226179,0.004948685877025127,-0.0005448827287182212
1782952687497720000,8.238719970703125,-0.002484462922438979,0.0034224283881485462,0.0011728560784831643
1782952687507648000,8.24864794921875,-0.002142246812582016,0.0037558560725301504,0.0005547364708036184
1782952687517575000,8.258574951171875,-0.00032890037982724607,0.006858971435576677,0.002743055811151862
1782952687527503000,8.268503173828124,-0.001457814360037446,0.003629355924203992,-0.0010892328573390841
1782952687537430000,8.278429931640625,-0.0034642398823052645,0.00484322477132082,0.0016650082543492317
1782952687547358000,8.28835791015625,-0.00009267800487577915,0.006268814671784639,0.0017054883064702153
1782952687557285000,8.29828515625,-0.00004394215648062527,0.0035390746779739857,0.0010556770721450448
1782952687567213000,8.308213134765625,-0.0024924525059759617,0.003861317178234458,0.0032447953708469868
1782952687577140000,8.318139892578126,-0.00022210762836039066,0.0040943436324596405,0.0030399984680116177
1782952687587067000,8.32806689453125,0.002365952357649803,0.002511094557121396,0.00009827064059209079
1782952687596994800,8.337994873046876,-0.0006897587445564568,0.00583711639046669,-0.0023821976501494646
1782952687606922000,8.347921875,-0.001686846255324781,0.004309527110308409,-0.001514806062914431
1782952687616850000,8.357849853515624,0.00007084008393576369,0.001770203118212521,0.0013680658303201199
1782952687626776800,8.36777685546875,-0.0012381036067381501,0.004976915195584297,-0.00029294771957211196
1782952687636705000,8.377705078125,-0.00014807176194153726,0.006893592420965433,0.0007310376968234777
1782952687646632000,8.3876318359375,-0.0037912761326879263,0.006040581967681646,0.0012056130217388272
1782952687656559900,8.397559814453125,0.0011760519118979573,0.00515801040455699,0.0013438310706987977
1782952687666487000,8.407487060546876,-0.000215716048842296,0.005817941855639219,0.0008293083519674838
1782952687676415000,8.4174150390625,-0.0004889564006589353,0.005525792948901653,-0.0018271948210895061
1782952687686342000,8.427341796875,-0.0006117281154729426,0.004703941289335489,-0.0006524744676426053
1782952687696270000,8.43727001953125,0.00020932445477228612,0.004817658569663763,0.001734516816213727
1782952687706197000,8.447197021484374,-0.001945439144037664,0.004777444526553154,-0.0005273058777675033
1782952687716125000,8.457125,-0.001017061178572476,0.004197674337774515,0.001335575245320797
1782952687726052000,8.467052001953125,0.0005776396137662232,0.005620867945253849,0.0033720945939421654
1782952687735980000,8.47697998046875,-0.0012535499408841133,0.005395031534135342,-0.0021020330023020506
1782952687745907000,8.486906982421875,-0.0027869981713593006,0.007539142854511738,-0.0002055960358120501
1782952687755835100,8.496835205078124,-0.00041971419705078006,0.003930559381842613,0.00008096009696600959
1782952687765761800,8.50676171875,-0.0011494202772155404,0.006514891050755978,0.001820270554162562
1782952687775689000,8.51668896484375,-0.0010492854053154588,0.004085821565240622,0.0014985607704147696
1782952687785617000,8.526616943359375,-0.0024887239560484886,0.004454403184354305,0.00043835630640387535
1782952687795543800,8.536543701171874,-0.0004918858758173883,0.00436012726277113,0.0026770094409585
1782952687805472000,8.546471923828125,-0.0008679241873323917,0.00464588450267911,0.0007520766812376678
1782952687815399000,8.55639892578125,-0.0010668623726814985,0.0038370825350284576,0.003154514357447624
1782952687825326800,8.566326904296876,-0.000024234765078290366,0.004838697146624327,0.0014793860027566552
1782952687835254000,8.57625390625,0.00098217383492738,0.003984621725976467,0.0035923379473388195
1782952687845182000,8.586181884765624,-0.003493002150207758,0.00452950457111001,-0.0005153216770850122
1782952687855108900,8.59610888671875,0.0007131945458240807,0.005540706682950258,-0.00046578687033616006
1782952687865037000,8.606037109375,-0.0033627734519541264,0.0058067562058568,0.003029079409316182
1782952687874964000,8.6159638671875,-0.004188087303191423,0.00475480780005455,-0.0009784454014152288
1782952687884892000,8.625891845703125,0.00040719733806326985,0.0046514770947396755,-0.0005824333056807518
1782952687894819000,8.635819091796876,-0.0003757720405701548,0.004535363521426916,0.0011147991754114628
1782952687904747000,8.6457470703125,-0.003879693103954196,0.006277869455516338,0.0021941782906651497
1782952687914674000,8.655673828125,-0.0021616879384964705,0.004335892386734486,0.0035031221341341734
1782952687924602000,8.66560205078125,-0.0019326560432091355,0.007275755982846022,0.0002657834847923368
1782952687934529000,8.675529052734374,-0.0025302693247795105,0.004324973560869694,0.0022503710351884365
1782952687944456000,8.6854560546875,-0.0003283677506260574,0.005692773032933474,-0.0002311623829882592
1782952687954384000,8.6953837890625,-0.0025505092926323414,0.007989749312400818,-0.00022423815971706063
1782952687964310800,8.705310791015625,-0.0020727382507175207,0.0073591130785644054,-0.0005121259018778801
1782952687974239000,8.715239013671875,0.0012652678415179253,0.005387841258198023,0.001740642124786973
1782952687984166000,8.725165771484376,-0.0002836266648955643,0.006167348474264145,0.0002873550693038851
1782952687994093800,8.73509375,0.0005044027348048985,0.005142830312252045,0.0014508900931105018
1782952688004021000,8.74502099609375,0.000010652644050423987,0.004170776344835758,0.003364371368661523
1782952688013949000,8.754948974609375,-0.0035451999865472317,0.004726844374090433,0.001580053474754095
1782952688023875800,8.764875732421874,-0.0014567491598427296,0.005660282447934151,0.003425091505050659
1782952688033804000,8.774803955078125,0.000580036488827318,0.006103698629885912,0.0005512743373401463
1782952688043731000,8.78473095703125,-0.0013273194199427962,0.004756139125674963,0.001139033935032785
1782952688053659000,8.794658935546876,-0.00033209618413820863,0.005570534151047468,0.0005677859298884869
1782952688063586000,8.8045859375,0.0005579322460107505,0.003918841481208801,-0.00032384038786403835
1782952688073514000,8.814513916015626,-0.0025414545089006424,0.004315386060625315,0.0015614113071933389
1782952688083441000,8.82444091796875,-0.0017387778498232365,0.005845638457685709,-0.0009355684742331505
1782952688093369000,8.834369140625,-0.0012743226252496243,0.0059569585137069225,0.0005779059720225632
1782952688103296500,8.844296630859375,0.0006607302348129451,0.004187820944935083,0.0014836470363661647
1782952688113224400,8.854224365234375,-0.000031158982892520726,0.005534048657864332,0.00021678130724467337
1782952688123151600,8.864151611328126,-0.001407480682246387,0.004546548705548048,0.0002764361270237714
1782952688133078500,8.87407861328125,-0.0016442356863990426,0.005318865180015564,-0.0008351673022843897
1782952688143006500,8.88400634765625,0.0014024205738678575,0.0051718587055802345,-0.0013574132462963462
1782952688152933600,8.89393359375,0.00011957593233091757,0.004248008131980896,0.0012359730899333954
1782952688162861600,8.903861572265624,-0.0019262643763795495,0.002316950121894479,0.0010487528052181005
1782952688172788700,8.913788818359375,-0.0010556770721450448,0.0024256070610135794,0.0014205301413312554
1782952688182716700,8.923716552734374,0.001270594191737473,0.0033830134198069572,-0.00004314320904086344
1782952688192643300,8.933643310546875,0.0013424995122477412,0.00660597113892436,-0.0005568669876083732
1782952688202571500,8.943571533203125,-0.002223206916823983,0.005812615156173706,0.0013677994720637798
1782952688212498400,8.95349853515625,0.0014263890916481614,0.0048887645825743675,0.003743072971701622
1782952688222426400,8.96342626953125,-0.0005512743373401463,0.008260326460003853,0.00170761882327497
1782952688232353500,8.973353515625,-0.00038695731200277805,0.004609399009495974,0.0009539442835375667
1782952688242281500,8.983281494140625,-0.0003632551815826446,0.004714594222605228,0.00145195540972054
1782952688252208400,8.99320849609375,-0.0024956483393907547,0.005514607764780521,0.000050333743274677545
1782952688262136600,9.003136474609375,-0.0013707289472222328,0.005844573490321636,0.001930525409989059
1782952688272063500,9.0130634765625,-0.001458080718293786,0.007706122938543558,0.003734018187969923
1782952688281991400,9.022991455078126,-0.0002777676854748279,0.002323341788724065,0.0020367854740470648
1782952688291918600,9.032918701171875,0.00011211907985853031,0.005188902840018272,-0.0006356965750455856
1782952688301845500,9.042845458984376,0.0009369000908918679,0.004209924954921007,0.002139050979167223
1782952688311773400,9.0527734375,-0.001597896683961153,0.00564164062961936,-0.0014322480419650674
1782952688321700600,9.06270068359375,0.0002937466779258102,0.005030977539718151,0.0005584649043157697
1782952688331628500,9.072628662109375,0.00010466222738614306,0.0037228327710181475,-0.00037950044497847557
1782952688341555700,9.0825556640625,-0.002171541564166546,0.005284510552883148,0.000404534162953496
1782952688351483600,9.092483642578125,-0.0014223942998796701,0.008418518118560314,-0.0012157330056652427
1782952688361410600,9.10241064453125,-0.001398159540258348,0.005666407756507397,0.000024234765078290366
1782952688371338500,9.11233837890625,-0.0003736414946615696,0.0033430662006139755,0.0010287790792062879
1782952688381265400,9.122265380859375,-0.001826395862735808,0.006730873137712479,0.0005944175645709038
1782952688391193300,9.132193359375,-0.0012141350889578462,0.006281331647187471,0.0004348942020442337
1782952688401120500,9.14212060546875,-0.001437041675671935,0.005903162993490696,-0.0004796353168785572
1782952688411048400,9.15204833984375,0.0014759238110855222,0.005536978133022785,0.0010290454374626279
1782952688420975400,9.161975341796875,-0.00008788431296125054,0.005884254351258278,-0.0011171960504725575
1782952688430903600,9.171903564453125,0.001243962557055056,0.005549495108425617,0.0008812400046736002
1782952688440830500,9.18183056640625,0.00024501082953065634,0.0067753479816019535,0.0036309538409113884
1782952688450758400,9.19175830078125,-0.001933454885147512,0.006665625609457493,0.00013502225920092314
1782952688460685600,9.201685546875,0.00038509309524670243,0.003014432033523917,0.00041199102997779846
1782952688470612500,9.211612548828125,0.0014524880098178983,0.0034442662727087736,-0.0009025452891364694
1782952688480540400,9.22154052734375,-0.00009454221435589716,0.0035127094015479088,0.0010689928894862533
1782952688490467600,9.231467529296875,-0.002886333968490362,0.006107160821557045,0.0011978897964581847
1782952688500395500,9.2413955078125,-0.0028754149097949266,0.006112487055361271,-0.001142496126703918
1782952688510322700,9.25132275390625,-0.0008165251929312944,0.004936435259878635,0.002141980454325676
1782952688520250600,9.261250732421875,0.00019094864546786994,0.004049070179462433,0.002243446884676814
1782952688530177500,9.271177490234376,-0.0017022925894707441,0.004181429278105497,-0.0007531419396400452
1782952688540105500,9.28110546875,-0.001047687605023384,0.004582501482218504,0.0025680861435830593
1782952688550032600,9.29103271484375,0.00007829693640815094,0.002810966456308961,0.00011771172285079956
1782952688559960600,9.300960693359375,-0.0014804512029513717,0.0031017838045954704,0.001127848750911653
1782952688569887500,9.310887451171874,-0.0020040287636220455,0.005281314719468355,0.003349457634612918
1782952688579812600,9.3208125,0.001044225413352251,0.005393966566771269,-0.0004319647268857807
1782952688589739500,9.330739501953126,0.00008175904804375023,0.00344533147290349,0.0014029532903805375
1782952688599667500,9.34066748046875,0.000734766130335629,0.004827511962503195,0.0022208099253475666
1782952688609594600,9.3505947265625,-0.000075101139373146,0.0030868700705468655,0.0010727213229984045
1782952688619522600,9.3605224609375,-0.002945456188172102,0.004339620936661959,-0.0025063008069992065
1782952688629449700,9.37044970703125,-0.0011291803093627095,0.004502872936427593,-0.0009387642494402826
1782952688639377700,9.380377685546875,-0.002930276095867157,0.007752728182822466,0.0012442287988960743
1782952688649304300,9.39030419921875,-0.0023606258910149336,0.006578540429472923,0.0005973470397293568
1782952688659232500,9.400232421875,0.0007374293054454029,0.005079713650047779,-0.0005142564186826348
1782952688669159400,9.410159423828125,-0.0007747135823592544,0.0029204224701970816,0.0006415555253624916
1782952688679087400,9.42008740234375,-0.00253426400013268,0.0036940707359462976,0.004328435752540827
1782952688689014500,9.4300146484375,-0.002020540414378047,0.004670385736972094,-0.00020879182557109743
1782952688698942500,9.4399423828125,0.0003323625132907182,0.005572398193180561,-0.00039974047103896737
1782952688708869400,9.449869384765625,0.0007448861724697053,0.0038272286765277386,-0.0008934905636124313
1782952688718796500,9.459796630859374,0.00007936220208648592,0.004378236830234528,0.0008466189028695226
1782952688728724500,9.469724365234375,-0.0012745888670906425,0.0054453653283417225,0.0014096111990511417
1782952688738651400,9.4796513671875,-0.0018330537714064121,0.004351871553808451,0.0005888249143026769
1782952688748579600,9.48957958984375,-0.0008056062506511807,0.005826730281114578,0.00014327807002700865
1782952688758506500,9.499506591796875,-0.0007246461464092135,0.002746784361079335,0.0006825681775808334
1782952688768434400,9.509434326171874,-0.0013622068800032139,0.006080262828618288,0.0017339842161163688
1782952688778361600,9.519361572265625,0.00010626012954162434,0.003763312939554453,-0.00005246427463134751
1782952688788289500,9.52928955078125,0.00015819176041986793,0.005389172583818436,0.001955292886123061
1782952688798216700,9.539216796875,-0.000990429543890059,0.004128698725253344,0.003409911412745714
1782952688808144600,9.54914453125,0.0002889529860112816,0.004820853937417269,-0.00014567491598427296
1782952688818071600,9.559071533203126,-0.0011379687348380685,0.003864246653392911,-0.0018200043123215437
1782952688827999500,9.56899951171875,-0.0016378440195694566,0.005228317808359861,-0.0029816750902682543
1782952688837926400,9.578926513671876,0.0003992078418377787,0.0044080642983317375,0.0025893915444612503
1782952688847854600,9.5888544921875,-0.003442668356001377,0.0054152715019881725,-0.0005075985100120306
1782952688857781500,9.598781494140624,-0.0012450277572497725,0.0046120621263980865,0.0015488944482058287
1782952688867709400,9.60870947265625,0.000006125270374468528,0.002784867538139224,0.0003270361921750009
1782952688877636400,9.61863623046875,-0.0003810983616858721,0.005835252348333597,0.0014977618120610714
1782952688887563500,9.6285634765625,0.0018367822049185634,0.006431533955037594,0.0017843178939074278
1782952688897491500,9.638491455078125,-0.0005659217131324112,0.003948935307562351,-0.001356347929686308
1782952688907418400,9.64841845703125,-0.00001917476038215682,0.00202240445651114,0.0023318638559430838
1782952688917346600,9.6583466796875,-0.0010524812387302518,0.005142563953995705,-0.001784850494004786
1782952688927273500,9.6682734375,-0.0014937670202925801,0.0017443705582991242,0.0022034994326531887
1782952688937201400,9.678201416015625,-0.00101120222825557,0.005608350969851017,0.0005424859118647873
1782952688947131400,9.68813134765625,-0.0010010822443291545,0.005577990785241127,0.0006926882197149098
1782952688957059600,9.6980595703125,0.00002210423735959921,0.004098871257156134,0.0024439829867333174
1782952688966986500,9.707986572265625,0.000006125270374468528,0.004297010600566864,0.0013709953054785728
1782952688976914400,9.71791455078125,-0.00019494339358061552,0.0067905280739068985,-0.001463406952098012
1782952688986841300,9.72784130859375,-0.0021521004382520914,0.004782504867762327,0.0014674017438665032
1782952688996768500,9.7377685546875,-0.000002663161012605997,0.0030184267088770866,0.0007712514488957822
1782952689006696400,9.747696533203126,-0.003441869281232357,0.005367068573832512,-0.0005984122981317341
1782952689016623600,9.75762353515625,-0.001201884588226676,0.003427488263696432,0.0018186726374551654
1782952689026551600,9.767551513671876,-0.0013675332302227616,0.005072789266705513,0.0007073355955071747
1782952689036478500,9.777478515625,-0.0015667376574128866,0.003751861397176981,-0.0003105245705228299
1782952689046406400,9.787406494140624,0.0005038700764998794,0.00427171029150486,0.0019230686593800783
1782952689056333600,9.79733349609375,0.001454884884878993,0.00506852800026536,0.0005986785981804132
1782952689066261500,9.807261474609374,0.0015883093001320958,0.0028125643730163574,0.002626675646752119
1782952689076188700,9.817188720703125,-0.0016761935548856854,0.003359045134857297,0.0008133294177241623
1782952689086116600,9.82711669921875,0.0014210627414286137,0.0036764938849955797,0.0010109359864145517
1782952689096042800,9.837042724609375,-0.0007491472060792148,0.006171609275043011,-0.0004980111261829734
1782952689105971000,9.846970947265625,0.000502804818097502,0.004260525107383728,-0.00020240024605300277
1782952689115897900,9.85689794921875,-0.00148151651956141,0.0037617150228470564,-0.0005773733137175441
1782952689125825800,9.86682568359375,-0.0006562029011547565,0.005469067487865686,-0.0008759136544540524
1782952689135753000,9.8767529296875,-0.0011965582380071282,0.007845406420528889,0.00072597770486027
1782952689145681000,9.886680908203125,0.0003259709046687931,0.003955593332648277,-0.00035473305615596473
1782952689155608000,9.896608154296874,-0.0007978830835781991,0.005153216887265444,0.002073537092655897
1782952689165535000,9.906534912109375,0.0014378406340256333,0.005016862880438566,-0.0014514228096231818
1782952689175463000,9.916462890625,-0.0012607404496520758,0.005693305749446154,-0.0008737831376492977
1782952689185390000,9.92639013671875,-0.0010996191995218396,0.002088450826704502,-0.00039840888348408043
1782952689195318000,9.936318115234375,-0.0029888655990362167,0.0059929112903773785,0.0003765709698200226
1782952689205245000,9.946244873046876,-0.0009353021741844714,0.0038221688009798527,0.0034320156555622816
1782952689215173000,9.956173095703125,0.0014948323369026184,0.004857605788856745,0.0024919197894632816
1782952689225100000,9.96610009765625,-0.0011062771081924438,0.004484763368964195,0.001127848750911653
1782952689235028000,9.976028076171875,-0.0014293185668066144,0.0031792817171663046,0.00013741910515818745
1782952689244955100,9.985955078125,-0.0013760552974417806,0.003294330323114991,0.0023347933311015368
1782952689254883000,9.995883056640626,0.0024796691723167896,0.004363855812698603,-0.0000250337143370416
1782952689264809700,10.005809814453125,-0.0031047132797539234,0.002776345470920205,0.0005723133217543364
1782952689274738200,10.01573828125,-0.0009872338268905878,0.005286640953272581,-0.0008402272942475975
1782952689284664800,10.025664794921875,-0.0013829795643687248,0.005166266113519669,-0.0003616572648752481
1782952689294592800,10.0355927734375,-0.0016290555940940976,0.003944407682865858,0.0015472965314984322
1782952689304520000,10.04552001953125,-0.0004013383586425334,0.003567037871107459,0.000018109494703821838
1782952689314448000,10.05544775390625,-0.0004892227007076144,0.0035028557758778334,0.002356897573918104
1782952689324375000,10.065375,0.0010101370280608535,0.004315386060625315,0.00003488740912871435
1782952689334303000,10.075302978515625,0.0021654162555933,0.0027832696214318275,-0.0004676510870922357
1782952689344230000,10.08522998046875,0.0003432814555708319,0.0023840616922825575,0.002296177437528968
1782952689354157000,10.095156982421875,-0.0003475425182841718,0.004006992094218731,0.0006245112745091319
1782952689364085000,10.1050849609375,-0.00011345066013745964,0.005826996639370918,-0.0015675366157665849
1782952689374012000,10.115011962890625,0.0003789678157772869,0.005554821342229843,0.00038775624125264585
1782952689383940000,10.124940185546874,-0.0013377057621255517,0.005607551895081997,0.002132392954081297
1782952689393867000,10.134866943359375,0.0016088156262412667,0.004450141917914152,0.000978978001512587
1782952689403795000,10.144794921875,-0.0013427657540887594,0.004108458757400513,0.00012756542128045112
1782952689413722000,10.15472216796875,0.0006215817993506789,0.003471164032816887,0.002156095113605261
1782952689423650000,10.164650146484375,0.00019334549142513424,0.00421285443007946,0.0022596921771764755
1782952689433577000,10.174576904296876,0.0010554107138887048,0.005351355765014887,0.0007483482477255166
1782952689443505200,10.184505126953125,-0.0004293015517760068,0.004759068600833416,0.0014740596525371075
1782952689453431800,10.194431884765624,-0.0013427657540887594,0.0035712989047169685,-0.0016247945604845881
1782952689463360000,10.204360107421875,0.0006074670236557722,0.004890895448625088,-0.001107076066546142
1782952689473287000,10.214286865234374,-0.00031372037483379245,0.004348143003880978,0.00253453035838902
1782952689483214800,10.22421484375,-0.0026011094450950623,0.0034439999144524336,0.001972603378817439
1782952689493142000,10.23414208984375,0.0006713828770443797,0.006684800609946251,0.0027289411518722773
1782952689503070000,10.244070068359376,-0.0006199838826432824,0.004165982827544212,0.0017667410429567099
1782952689512996900,10.253996826171875,0.0000876179983606562,0.004839762579649687,0.0021318604703992605
1782952689522924000,10.263924072265626,0.002046905690804124,0.005195294506847858,0.002578738844022155
1782952689532852000,10.27385205078125,-0.0005776396137662232,0.004868524614721537,0.0011398328933864832
1782952689542779000,10.28377880859375,0.0015909724170342088,0.0037502634804695845,0.002775280037894845
1782952689552707000,10.29370703125,-0.0034993935842067003,0.0018751317402347922,0.0010434264549985528
1782952689562634000,10.303634033203124,-0.0000876179983606562,0.004683434963226318,0.0005792375304736197
1782952689572562000,10.31356201171875,-0.0013600763631984591,0.005049619823694229,0.0005419532535597682
1782952689582489000,10.323489013671875,-0.0007800398743711412,0.004987301770597696,0.0018748653819784522
1782952689592417000,10.3334169921875,-0.0020514330826699734,0.005904494319111109,-0.0012796488590538502
1782952689602344000,10.343343994140625,-0.0011616708943620324,0.006457632873207331,0.00006657902849838138
1782952689612272000,10.353272216796874,-0.002114816103130579,0.007862716913223267,0.001416269107721746
1782952689622199000,10.363198974609375,-0.0009076052810996771,0.00538437906652689,-0.00044528054422698915
1782952689632127000,10.373126953125,0.0008101335843093693,0.00558012118563056,0.0013081447687000036
1782952689642054100,10.38305419921875,0.002061819192022085,0.004411792848259211,-0.0024114924017339945
1782952689651982000,10.392982177734375,0.00042743736412376165,0.003911118488758802,0.000871652620844543
1782952689661909000,10.402908935546876,-0.00048123320448212326,0.004257595632225275,0.0005691175465472043
1782952689671837000,10.4128369140625,-0.0026434536557644606,0.004181695636361837,0.0003211772127542645
1782952689681763800,10.422763916015626,-0.001213602488860488,0.005417668726295233,0.001583249308168888
1782952689691691000,10.43269091796875,0.00010412959818495438,0.004799016285687685,0.0006125270738266408
1782952689701619000,10.442618896484374,-0.0001549959706608206,0.006836600601673126,0.0016138756182044744
1782952689711545900,10.4525458984375,-0.003236006945371628,0.0054485611617565155,0.0010988202411681414
1782952689721474000,10.46247412109375,0.002114816103130579,0.002749447477981448,0.002356364857405424
1782952689731401000,10.47240087890625,0.002287921728566289,0.003753991797566414,0.0016492956783622503
1782952689741329000,10.482328857421875,-0.0008167914929799736,0.004270378965884447,0.0005912217311561108
1782952689751256000,10.492256103515626,-0.0022394522093236446,0.00267674308270216,0.0008010788587853312
1782952689761184000,10.50218408203125,0.0038922098465263844,0.004988367203623056,0.0016873788554221392
1782952689771111000,10.51211083984375,-0.0019470370607450604,0.002764094853773713,0.0037768951151520014
1782952689781039000,10.5220390625,-0.00037151097785681486,0.005598230753093958,0.001163268811069429
1782952689790966000,10.531966064453124,-0.0016849819803610444,0.003915379289537668,0.0026431872975081205
1782952689800894000,10.54189404296875,-0.000681236619129777,0.005619802512228489,-0.00035446672700345516
1782952689810821000,10.551821044921875,0.001404284848831594,0.003564108395949006,-0.0003454120014794171
1782952689820749000,10.5617490234375,0.0006050702068023384,0.005774531979113817,0.0004857605672441423
1782952689830676000,10.571676025390625,-0.0016713999211788177,0.0044232443906366825,0.00018642126815393567
1782952689840603000,10.581602783203126,0.00010333064710721374,0.004668521229177713,0.0011651329696178436
1782952689850530800,10.59153076171875,0.00028043086058460176,0.0035273567773401737,0.0006436860421672463
1782952689860458000,10.6014580078125,0.00029640982393175364,0.004308994393795729,0.0033364081755280495
1782952689870386000,10.611385986328125,-0.0010596717474982142,0.01998942159116268,0.006607835181057453
1782952689880312800,10.621312744140624,-0.0014226606581360102,0.0070698936469852924,0.001264735241420567
1782952689890241000,10.631240966796875,0.00004820321555598639,0.001788312685675919,0.00040187101694755256
1782952689900168000,10.64116796875,-0.0002545981842558831,0.0028069717809557915,-0.002683933824300766
1782952689910096000,10.651095947265626,0.0016237293602898717,0.0018868496408686042,0.0018612833227962255
1782952689920023000,10.66102294921875,-0.00043809000635519624,0.003491936717182398,0.0021065603941679
1782952689929951000,10.670950927734374,-0.004743089899420738,0.0009768474847078323,0.00043995422311127186
1782952689939878000,10.6808779296875,0.0001358212175546214,0.0005070658517070115,-0.0017688715597614646
1782952689949806000,10.69080615234375,-0.0029707562644034624,0.003522030543535948,0.0032730249222368
1782952689959733000,10.70073291015625,-0.0007749798824079335,0.0031073763966560364,-0.0024746092967689037
1782952689969661000,10.710660888671875,-0.0008695221040397882,0.005583849735558033,0.0017353157745674253
1782952689979588000,10.720588134765626,-0.001181644620373845,0.005230181850492954,0.002123870886862278
1782952689989516000,10.73051611328125,-0.00023435817274730653,0.0034115093294531107,-0.0004117247008252889
