time,seconds_elapsed,z,y,x
1782969361645249000,0.0722490234375,-14.927739799046515,-2.240113506728411,0.4807663316577673
1782969361655175200,0.082175048828125,-12.0897527536273,-1.9736291004374622,1.01638638940081
1782969361665101300,0.092101318359375,-9.191936385667324,-2.1000823740951717,0.8794371484309434
1782969361675027200,0.102027099609375,-6.728543115863204,-1.788268733650446,0.542186649717018
1782969361684953000,0.111953125,-4.739182485547661,-1.4730379782386123,0.0654708355590701
1782969361694880300,0.12188037109375,-3.4312580587506294,-0.9171424635775387,-0.12677614893652497
1782969361704806100,0.13180615234375,-2.6698060692310333,-0.26408888945654035,-0.13564393052496015
1782969361714732300,0.141732177734375,-1.601788130661845,0.3413029159098863,-0.030763094793260094
1782969361724658200,0.151658203125,-0.18050562023222447,0.7453568870261311,0.059925695587322116
1782969361734584000,0.161583984375,1.1498784756541252,0.9945701327815651,-0.10142148905806243
1782969361744510200,0.17151025390625,2.1298738473773002,0.972443933430314,-0.602615180259943
1782969361754437000,0.18143701171875,2.9419080231428145,1.0278003483407199,-1.476422798371315
1782969361764363300,0.19136328125,4.1770641508489845,1.1716587841771542,-2.0699638608157636
1782969361774288600,0.20128857421875,6.08303396577239,1.5351253088392316,-2.264174035143107
1782969361784214500,0.211214599609375,7.983491154754161,2.2702711829744278,-2.376806288719177
1782969361794140700,0.221140625,9.64314286084175,2.822363944351673,-2.2159613545075056
1782969361804067600,0.231067626953125,11.44518877543211,3.2300045417830345,-1.8877986368082462
1782969361813993500,0.240993408203125,13.410240309399365,3.567532615329325,-1.4656712488628922
1782969361823919600,0.250919677734375,15.029976184684037,3.8655803268805142,-0.9515677341401576
1782969361833845500,0.260845458984375,16.36430521880388,4.13343076082766,-0.3799900086354464
1782969361843771400,0.270771484375,17.268624879556892,4.185581219303607,-0.08067717251926661
1782969361853698600,0.280698486328125,17.598200532794,4.1615430488511915,-0.08825937127657234
1782969361863624400,0.29062451171875,17.594574158990383,4.221577830836177,-0.14441588705610484
1782969361873550600,0.300550537109375,17.40723956952095,4.183947480621934,-0.2139902124112472
1782969361883476500,0.3104765625,17.04869033525586,4.151235882109403,-0.26064192734044045
1782969361893402600,0.320402587890625,16.37124466267824,4.112810289864242,-0.20752678855080156
1782969361903329500,0.33032958984375,15.393289272350072,4.111257799725235,-0.054448634149413554
1782969361913255400,0.34025537109375,14.282304883235692,4.112099803507328,0.19728950870744882
1782969361923181600,0.350181640625,13.258296182262896,4.039499262198806,0.5168185458350927
1782969361933107700,0.360107666015625,12.19165713083148,3.810958802115917,0.5662246009737253
1782969361943033300,0.370033447265625,11.298360383874178,3.3964459808275103,0.48651736946515733
1782969361952960500,0.37996044921875,10.142522123032808,3.03254661770612,0.5089068228624761
1782969361962886700,0.38988671875,9.108392425540089,2.4244901231750844,0.47714733744300897
1782969361972812500,0.3998125,8.545143040984868,1.3268947924658656,0.37571773814372716
1782969361982738400,0.409738525390625,7.200255203449726,0.19538857045695185,-0.1345369921963662
1782969361992664600,0.41966455078125,4.625897467151284,-0.7626524513505398,-0.8879849773500114
1782969362002590700,0.4295908203125,0.5443856941312551,-1.218667641980946,-1.3912946377925575
1782969362012517400,0.439517333984375,-5.730937853169441,-0.6580382306657732,-2.6406366733700035
1782969362022443500,0.449443603515625,-14.459303956651686,0.14067527575567365,-5.217265861731767
1782969362032369700,0.45936962890625,-24.680665223121643,0.7226848903603852,-9.405043714296816
1782969362042295600,0.469295654296875,-35.249947946858406,1.0677058769453316,-14.740166724646091
1782969362052221400,0.479221435546875,-45.087189484477044,1.097345082275197,-19.228591073083876
1782969362062148600,0.489148681640625,-50.43864637451171,0.871248215952143,-21.960746923244
1782969362072074800,0.49907470703125,-48.85118312180042,-0.27810587050169705,-23.26395484291315
1782969362082000400,0.50900048828125,-40.628348957920075,-1.1810153721958399,-23.872278463947772
1782969362091926500,0.518926513671875,-27.721507083225248,-3.2794220681637523,-19.55356069383025
1782969362101852700,0.528852783203125,-15.362895303130149,-3.4479794764488934,-14.185080188280343
1782969362111779300,0.538779296875,-7.066828145256638,-3.0969945399582386,-9.560648117506503
1782969362121705500,0.54870556640625,-2.8242852678030728,-3.0949130575090646,-5.904279573121666
1782969362131631600,0.558631591796875,-0.17228315081000328,-2.9715163949429986,-3.0391847405463457
1782969362141557500,0.5685576171875,1.951014240786433,-2.3560784118585287,-0.4874649525135755
1782969362151483600,0.578483642578125,3.4830507898300884,-1.3817965954765676,1.9278154437676072
1782969362161410600,0.58841064453125,4.311937316197157,-0.2628479494847357,3.7585298189595338
1782969362171336700,0.598336669921875,5.117888372656703,0.6656444678857922,5.053790286755562
1782969362181262600,0.6082626953125,5.85999853284657,1.4370555413618682,6.011547523185611
1782969362191188500,0.6181884765625,6.661225483393669,2.0706334306403993,6.535862489190698
1782969362201114600,0.628114501953125,7.700271594500541,2.35434603510797,6.462344248515367
1782969362211041500,0.63804150390625,9.868424611389637,2.6926602905958887,6.230708745026588
1782969362220967400,0.647967529296875,12.867823869514465,2.9686466847255826,5.7772132821321485
1782969362230893600,0.6578935546875,15.69130308163166,2.98094151815325,5.032888953024148
1782969362240819500,0.6678193359375,18.18456717356443,3.0981387415573,4.739145660668611
1782969362250745600,0.67774560546875,18.626273998987674,3.581322363489866,3.4057758269697427
1782969362260671500,0.68767138671875,17.349795096290112,3.6567671883136033,2.758645505417883
1782969362270598700,0.6975986328125,16.743489244818687,3.1000828613623974,2.9852859770983455
1782969362280524500,0.707524658203125,17.054157953011988,2.835068235363066,3.3563772975504396
1782969362290450700,0.71745068359375,17.10925031015873,3.1205490185469387,3.9740301802054043
1782969362300376600,0.72737646484375,16.05863534181118,3.993059290324151,4.244233607019484
1782969362310302500,0.737302490234375,15.12691446391344,4.569683412498235,4.701935581693053
1782969362320229600,0.747229736328125,14.705298824882506,4.7505537743896245,4.933672207468748
1782969362330155500,0.757155517578125,14.508843355846404,4.815013094818592,4.850001406091451
1782969362340081400,0.767081298828125,14.559136788278817,4.511338775557279,4.897787824138999
1782969362350007600,0.777007568359375,14.645646027952433,4.049927717232704,4.94879378875494
1782969362359933700,0.78693359375,14.54426772044897,3.600578852623701,4.883718966776132
1782969362369860600,0.796860595703125,13.920412183761595,2.793804789343476,4.462031431552767
1782969362379786500,0.806786376953125,12.647961805927753,1.8449081741087137,3.821475519955158
1782969362389712600,0.816712646484375,11.295957998907566,0.907155760961771,3.4445851578354834
1782969362399638500,0.826638427734375,9.651042674180864,0.3485539099514484,3.960663041371107
1782969362409564400,0.836564453125,7.136915826961398,0.5902168864578008,4.987123227149248
1782969362419490600,0.846490478515625,3.3090900611966845,1.1879364036306739,5.565392486181855
1782969362429417700,0.856417724609375,-1.6899018829226493,1.2620239686265586,5.288707296133041
1782969362439343400,0.86634326171875,-7.638440284487604,0.5879805787730962,3.1351492063075304
1782969362449269500,0.87626953125,-14.174284068977832,-0.9472143612362444,-0.45464784779995676
1782969362459195600,0.886195556640625,-21.200234844923017,-2.3921390285380184,-4.912299749094248
1782969362469121500,0.89612158203125,-29.977371116793154,-2.489590371856093,-9.266719531711935
1782969362479048400,0.90604833984375,-39.05309987461567,-1.2219405261717735,-13.709232608324289
1782969362488974600,0.915974609375,-44.39520909059048,-0.18375318731870502,-17.591625830578803
1782969362498900700,0.925900634765625,-44.36810130343437,0.012751893012784421,-19.989072756266594
1782969362508826400,0.935826416015625,-38.83007905473709,-0.07377338448017835,-21.22076792986393
1782969362518752500,0.94575244140625,-29.207724130380154,-1.3988412537798285,-19.568095415139197
1782969362528679700,0.9556796875,-19.902399850463866,-2.3897817978873848,-16.32366925703287
1782969362538605600,0.96560546875,-13.64827983471155,-2.3417355598598717,-12.922621627628802
1782969362548531500,0.975531494140625,-10.329944390785693,-1.648044562663138,-9.064268621653317
1782969362558457600,0.98545751953125,-8.381794891780615,0.038554552387073636,-5.283830630007386
1782969362568383500,0.995383544921875,-6.978954046970605,1.6604541085116564,-2.055917215284705
1782969362578310400,1.005310302734375,-5.781624668833613,2.7214883256733415,0.010363280843198298
1782969362588236500,1.015236572265625,-4.300261491450667,3.2745480323866007,0.7941627112492918
1782969362598162700,1.02516259765625,-2.216462582027912,3.16607158331573,1.0087874587044119
1782969362608088600,1.035088623046875,0.2608475694477558,2.7297446973651645,0.7128492866531014
1782969362618014500,1.045014404296875,2.6925807956188916,2.319508384352177,0.1327723936766386
1782969362627940600,1.054940673828125,4.992595521080494,1.8867299846634267,-0.18110913908332585
1782969362637867500,1.064867431640625,7.542833546122909,1.7378746173225341,-0.1767436373502016
1782969362647793400,1.07479345703125,9.993386039054393,1.8965122507482766,0.016280395932495594
1782969362657719600,1.084719482421875,11.830138525366783,2.431337212590873,0.3283700768396258
1782969362667645400,1.0946455078125,14.040702112483977,3.3349913951724766,0.8533411686658858
1782969362677571600,1.104571533203125,16.12327177237272,4.371432876738906,1.4918188126847147
1782969362687498500,1.11449853515625,17.55201745828986,4.917250649499893,2.0803648433208464
1782969362697424600,1.124424560546875,18.078166653984784,5.17803976675868,2.2392244489341975
1782969362707350500,1.1343505859375,18.215805192393063,5.4192637673258774,1.8281617680996656
1782969362717276700,1.144276611328125,18.686435329961775,5.226716996166109,0.8567211664929986
1782969362727202600,1.15420263671875,19.413338568669555,4.502605726264417,-0.19779110155403612
1782969362737129500,1.16412939453125,20.91296337893009,3.903998612602055,0.04627214102707803
1782969362747055600,1.1740556640625,22.830737613415717,3.822096866723895,0.0022355039671063423
1782969362756981500,1.1839814453125,23.77498362636566,3.6093171626135705,-0.08674604410417378
1782969362766907400,1.193907470703125,23.493003252518175,3.2188895657896994,0.3428203712681308
1782969362776834000,1.203833984375,21.184635124731063,3.182483496673405,1.2577382541313766
1782969362786760200,1.21376025390625,20.631878492617606,3.464319493614137,1.35217112641111
1782969362796686800,1.223686767578125,17.97811638021469,3.523635898196697,2.1139345199674366
1782969362806613000,1.233613037109375,14.88977744039893,3.7107562603935595,2.708203312164545
1782969362816539100,1.2435390625,11.611571762287616,4.0199508043810726,3.0026714116632935
1782969362826464800,1.25346484375,8.391494448018074,3.645236909517646,3.2885622369527816
1782969362836391000,1.263390869140625,5.8006467646896835,2.9993069036662576,3.1437758726164695
1782969362846318000,1.273318115234375,3.5742923187226054,2.012735076162219,2.4237602014653383
1782969362856244000,1.283243896484375,1.5508300968408584,0.5966428278520703,1.0121296087391674
1782969362866169900,1.293169921875,-0.8310276300489902,-0.6220579857461154,0.2064205443419516
1782969362876096000,1.303095947265625,-4.772284544682503,-1.0644592962395398,-0.04195420476272702
1782969362886022100,1.313022216796875,-10.481084215801953,-1.2699658675417302,-1.2876428323991596
1782969362895948800,1.32294873046875,-17.828648287802935,-1.355813866827637,-3.8732027845829724
1782969362905875000,1.332875,-26.085357833278177,-1.0372615657776594,-7.502402167013287
1782969362915801000,1.342801025390625,-35.17354859778881,-0.466549882517755,-11.630768630188703
1782969362925727000,1.35272705078125,-43.698103608775135,0.1910184656139463,-15.775905610901116
1782969362935652900,1.36265283203125,-47.69441430211067,0.05209368678741157,-19.508572382068632
1782969362945579000,1.3725791015625,-46.00378059778213,-0.3777561851687729,-22.703793487501144
1782969362955506200,1.382506103515625,-38.432613522100446,-1.53391593304947,-23.038114289438724
1782969362965431800,1.392431884765625,-26.928051351201532,-2.8755560208350417,-19.961597889363766
1782969362975358000,1.40235791015625,-16.138784983325003,-2.71426451189965,-16.179253771835565
1782969362985284000,1.4122841796875,-8.402900223651528,-2.3559289203852414,-12.113262224030494
1782969362995210000,1.4222099609375,-3.3063305333554744,-1.454658125808835,-8.166660441237688
1782969363005137000,1.432136962890625,0.3709633101582527,-0.5081095350049436,-4.5990275804042815
1782969363015063000,1.44206298828125,2.990645458304882,0.47768772793002423,-1.842389323155582
1782969363024989000,1.451989013671875,4.82051812197566,1.0531989204261452,0.3549272443756461
1782969363034915000,1.4619150390625,6.141224288934469,1.135848854323104,2.354787641395628
1782969363044841000,1.471841064453125,6.982912429207563,1.8091456635929644,2.7363524250671265
1782969363054766800,1.481766845703125,7.400022573512792,2.266545878840983,2.9292890723273155
1782969363064694000,1.491694091796875,7.62414346358776,2.6366157472908496,3.130867875726521
1782969363074620000,1.501619873046875,7.948575908717513,2.7956840272188184,2.8064930060029027
1782969363084546000,1.511546142578125,8.563476570054888,2.701341317440569,2.280143757691234
1782969363094472000,1.521471923828125,9.418637939885258,2.6825919010460377,1.9290698277428746
1782969363104398000,1.531398193359375,10.736159047067165,2.796048768877983,2.16082881148085
1782969363114325000,1.541324951171875,12.582563158822058,3.014071926599741,2.7224001798212525
1782969363124251000,1.5512509765625,14.561868843591212,3.4571585159435867,3.520040504053235
1782969363134177000,1.561177001953125,15.825796892273425,4.20668888926208,3.643869128295779
1782969363144103200,1.571103271484375,16.62408545128107,4.3171307931870215,4.856012921465933
1782969363154028800,1.58102880859375,16.745349193471668,4.639598075723648,5.590980516424775
1782969363163956000,1.5909560546875,16.162089871066808,5.323683916968107,5.457041417056322
1782969363173882000,1.600882080078125,15.441927338790892,5.568055567911267,5.23516567555964
1782969363183808000,1.61080810546875,15.066958884644507,5.521766110423207,5.177185195755958
1782969363193734000,1.62073388671875,14.980938305270671,5.134356107854843,4.969820210170745
1782969363203660000,1.630659912109375,15.153650495147705,4.486223039001226,4.523274712544679
1782969363213587000,1.6405869140625,15.523779108047485,3.7698607757911082,3.886562324632704
1782969363223512800,1.650512939453125,15.777197404277324,2.8862136084496974,3.374817794126272
1782969363233439000,1.66043896484375,16.05785675865412,2.1590439738906917,3.1579899836689234
1782969363243365000,1.670365234375,16.077538779723643,1.84247670917809,2.844199344062805
1782969363253291000,1.680291015625,15.537468610703945,1.1255128268130123,2.524145552408695
1782969363263217000,1.690216796875,14.747819285225868,0.2954370906613767,2.2915343357555567
1782969363273144000,1.70014404296875,13.69033501563072,0.23419980101883411,1.8935291432842611
1782969363283070200,1.7100703125,11.465332568794489,0.19421806537285446,1.8652206020362674
1782969363292995800,1.719995849609375,8.0463991540879,0.0899826148726046,1.9702023408591747
1782969363302922000,1.729921875,3.3745331319659946,-0.3638318508431315,1.7809094569288193
1782969363312848100,1.73984814453125,-2.8150895694345235,-0.84899729424268,1.5300434755302965
1782969363322774800,1.74977490234375,-10.615759228229521,-1.4910399372667074,0.22317074974328277
1782969363332701000,1.759700927734375,-20.306512566030023,-2.0373698973335324,-2.2399609465152026
1782969363342627000,1.769626953125,-30.715171012568472,-2.5189026833191512,-6.876993555665016
1782969363352553000,1.779552978515625,-38.69136499605179,-3.1013693940415976,-13.150334989237784
1782969363362478800,1.789478759765625,-42.67452160878181,-2.8862995331674814,-20.91912190155983
1782969363372405000,1.799405029296875,-41.46667492828369,-4.000069753608107,-25.937408328735827
1782969363382332200,1.809332275390625,-37.11292909940481,-4.629894427832961,-25.33526894929409
1782969363392258000,1.819258056640625,-29.95891659169197,-3.5739635251596567,-21.199608237457273
1782969363402184000,1.829183837890625,-20.937461860370636,-1.821669629601389,-15.014321519434452
1782969363412110000,1.839110107421875,-13.406639654558896,-0.2929080105751753,-9.07562237483859
1782969363422036000,1.849035888671875,-8.71707430961728,0.8142742828425019,-4.689625258435309
1782969363431963000,1.858962890625,-5.7285874906510115,1.7706559200704097,-1.8765125420317053
1782969363441889000,1.868888916015625,-3.5238732140839097,2.687615282166004,0.29872458789944645
1782969363451815000,1.87881494140625,-1.920215782418847,3.388336031869054,1.8892814227119088
1782969363461741000,1.888740966796875,-0.8916098167836666,3.9491789398044346,2.649423206415772
1782969363471667000,1.8986669921875,-0.4033417311936617,4.345711867766082,2.475073770725727
1782969363481594000,1.908593994140625,-0.04192541705965996,4.52566073089838,1.7072718276575207
1782969363491520000,1.91852001953125,0.8781412634015083,4.430668032778799,0.9594266309469938
1782969363501446000,1.92844580078125,2.3644559257119893,4.112368683576584,0.11415303340256214
1782969363511372000,1.9383720703125,4.284342037785053,3.6714755126237866,-0.2328893029421568
1782969363521298000,1.9482978515625,6.7974559085696935,3.6017058108270166,-0.4843602644965052
1782969363531224000,1.95822412109375,9.318107189121841,3.545435642072558,-0.610261603359878
1782969363541151000,1.96815087890625,11.315509087073803,3.539346093025803,-0.41109965184405445
1782969363551076900,1.978076904296875,13.28128425914049,3.784781573808193,0.6085488080926239
1782969363561003000,1.9880029296875,15.53941623764038,4.409991155453026,0.7771480096928775
1782969363570929200,1.99792919921875,18.02671586821079,4.862644906826317,0.8716312969855964
1782969363580854800,2.007854736328125,19.53673932288885,4.857546999165415,1.534675957636535
1782969363590782000,2.017781982421875,20.16683287718296,4.835769467121362,2.125278190150112
1782969363600708000,2.0277080078125,20.32662713329792,5.084495221620798,2.3815423773303626
1782969363610634000,2.037634033203125,20.104698200309276,5.271807014736533,2.244103745408356
1782969363620560000,2.047559814453125,19.446610723674297,5.398635989838838,1.7621762610167264
1782969363630486000,2.057486083984375,18.498925383925435,5.4689884599596255,1.426320066205412
1782969363640412200,2.067412109375,17.410699939107893,5.448967416194081,1.3871033235825598
1782969363650338800,2.0773388671875,16.39739617202282,5.318943444442748,1.3618797427378595
1782969363660265000,2.087264892578125,16.010266155439613,4.65246281799376,1.8312769775107502
1782969363670191000,2.097191162109375,15.588248365348576,4.2725773657113315,1.2294412571907043
1782969363680117000,2.107116943359375,14.99662219661474,3.3596681557893753,0.416023225851357
1782969363690043000,2.11704296875,14.146442122328281,2.2369528507404026,-0.5335743772596121
1782969363699970000,2.126969970703125,13.289632400768994,1.2351850615397095,-1.7431132486283778
1782969363709896200,2.136896240234375,10.766467676091194,0.24236045725122093,-2.5400331496313213
1782969363719821800,2.14682177734375,8.355084579509496,-0.5795154597014188,-2.082769420244545
1782969363729748000,2.156748046875,5.380768909236789,-0.9540998829662799,-1.8745507404394446
1782969363739674000,2.166674072265625,-0.3505342701137066,-1.4594441910415887,-1.7511070238612592
1782969363749600800,2.176600830078125,-6.962756360885501,-1.878616820834577,-2.140993791806698
1782969363759527000,2.18652685546875,-14.488193366527556,-2.5970202344834803,-3.694438747321069
1782969363769453000,2.196453125,-25.0123743812561,-2.4372969977781174,-6.484986872956156
1782969363779379000,2.20637890625,-37.9034388411045,-1.3301947107940912,-10.44369468860626
1782969363789304800,2.216304931640625,-45.89824867773056,0.35702717579696325,-16.68747801926136
1782969363799230700,2.226230712890625,-46.52841003656387,-0.5110991087423638,-21.90621103093624
1782969363809158000,2.236157958984375,-40.72924211225509,-3.136426971158385,-25.074195754396914
1782969363819084000,2.246083984375,-31.698322802495955,-5.331024342858791,-25.541499962413308
1782969363829009700,2.256009765625,-22.3063279548645,-5.734723216927051,-23.196657668709754
1782969363838935800,2.265935791015625,-14.15662683173418,-4.306777449215948,-19.123858778977393
1782969363848861700,2.27586181640625,-8.422566462630034,-2.5626909716412425,-14.233037871241569
1782969363858788600,2.28578857421875,-5.405609920504689,-0.6994648313578218,-9.855085821866988
1782969363868714800,2.29571484375,-3.93661756439507,0.9432117014661431,-6.060395432984828
1782969363878641000,2.305640869140625,-2.7634441378712653,2.001006352184713,-3.008090514102578
1782969363888566800,2.31556689453125,-1.1948176875770091,2.7295138112187383,-0.5552101627454161
1782969363898493000,2.325492919921875,0.686273706677556,3.190601628938317,1.2704799545437098
1782969363908419800,2.335419921875,2.6398908234387632,3.4944837457314133,2.4773083979099986
1782969363918346000,2.345345947265625,4.243897799193859,3.5688813995897766,3.00091580016762
1782969363928272000,2.35527197265625,5.785626305690408,2.8907205644801257,3.6405224482163785
1782969363938197800,2.36519775390625,7.049326975357532,2.5904683286219834,3.5915567572563885
1782969363948124000,2.3751240234375,8.336408520612121,2.699523162102699,3.344871568673849
1782969363958049800,2.3850498046875,9.766281164732575,2.990699234318733,2.865760603007674
1782969363967976700,2.394976806640625,11.331404575341939,3.2456863873004913,2.3543173935353754
1782969363977902800,2.40490283203125,13.190100013393163,3.491675410312414,2.153157546200603
1782969363987828700,2.414828857421875,15.107431180286406,3.940332493264973,1.7615446851149201
1782969363997755000,2.4247548828125,16.734076104307174,4.44044912981987,1.635107485809177
1782969364007680800,2.4346806640625,18.319872300589083,4.1892336043313145,2.342355299193412
1782969364017608000,2.44460791015625,20.087674584794044,3.842308172364533,2.8229709703341124
1782969364027533800,2.454533935546875,21.905341262364388,3.8187399575114247,2.630375976118445
1782969364037460000,2.4644599609375,22.96316221656799,3.849210206837952,2.429460605064034
1782969364047385900,2.4743857421875,22.514024948883055,4.300606359365582,1.740893526752293
1782969364057311700,2.484311767578125,20.874310115408896,4.6087648383036255,1.3681588230073451
1782969364067239000,2.494239013671875,19.327024559307098,4.216466771432757,1.891626816794276
1782969364077164800,2.504164794921875,18.2152136562407,4.020380427969992,2.4720161367207765
1782969364087090700,2.514090576171875,17.67738337510228,3.3879783044725653,2.3980922378540037
1782969364097016800,2.524016845703125,17.087075887751578,2.602358672901988,1.8334968455173075
1782969364106943000,2.53394287109375,16.31039242683053,2.05758602527976,1.7618994899019598
1782969364116868600,2.54386865234375,14.919063156116009,1.646001950919628,1.5837316649675368
1782969364126795800,2.553795654296875,10.840949793362617,1.2606015346080064,2.2123995703727006
1782969364136722000,2.563721923828125,9.823623346632719,0.6965832115069032,1.6413643542468548
1782969364146647800,2.573647705078125,6.387399774429202,0.027366438092291355,1.5805135797038674
1782969364156573700,2.58357373046875,1.16145084002614,-0.4097722026325762,1.8915011445879935
1782969364166499800,2.593499755859375,-5.594192464208603,0.05988222177177667,2.3579453747741876
1782969364176427000,2.603427001953125,-14.526708682882784,0.4096379817936569,1.251783583510667
1782969364186352600,2.6133525390625,-24.452979918563365,-0.046477600471302866,-0.9223214736506342
1782969364196278800,2.62327880859375,-32.56863848683834,-1.1284385780666022,-4.294840635445714
1782969364206205000,2.633204833984375,-36.17852877316475,-2.2099270427793263,-9.684585462820529
1782969364216130800,2.643130859375,-35.803812832474705,-3.6491836013168095,-15.431760165041684
1782969364226056700,2.653056640625,-32.83706964328289,-5.704021789193153,-20.175628762578963
1782969364235984000,2.66298388671875,-27.429709079718588,-7.1780661679953335,-21.931399248206613
1782969364245910000,2.672909912109375,-20.735670875525475,-7.328551328495144,-20.373933658874034
1782969364255835600,2.682835693359375,-14.71674376348257,-6.037133215340972,-16.64008732253313
1782969364265761800,2.69276171875,-10.834773735076189,-3.9363735265061255,-12.408597754013538
1782969364275687700,2.702687744140625,-8.959650309315323,-1.8868213162086902,-8.553060389980674
1782969364285614800,2.71261474609375,-8.234460304266214,0.11366481149420142,-5.100298355430365
1782969364295540700,2.722540771484375,-7.966048437044024,1.9344427529528736,-2.364875904689729
1782969364305467000,2.732466796875,-7.1322682934165,2.674265386727452,-0.8500909346982837
1782969364315392800,2.742392822265625,-5.398263064873218,2.8875036482602354,0.038758185200393196
1782969364325319000,2.75231884765625,-3.5918659693360326,3.979539006754756,-0.7021537051156163
1782969364335245800,2.762245849609375,-1.7265999207228422,3.7840626118838783,-0.9982526206865906
1782969364345172000,2.772171875,0.3377180431604385,3.6938767295241353,-0.3237970698356628
1782969364355097900,2.782097900390625,2.2331588652849197,3.6710298146829006,-0.32276509643942114
1782969364365023700,2.792023681640625,2.868815314403176,2.8322043703645465,0.11553893480300903
1782969364374950000,2.801949951171875,2.2527380105018615,3.0020433428928253,1.1099556305885314
1782969364384875800,2.811875732421875,1.8602450055807829,4.310817372256517,2.1090631145387886
1782969364394802700,2.821802734375,1.6200632075428962,4.783339022660255,3.72827818081975
1782969364404728800,2.831728759765625,1.7017781986773013,4.3924087370112535,6.578876870530843
1782969364414654700,2.84165478515625,2.2658155187398195,5.814563061839341,8.324365031597019
1782969364424580900,2.851580810546875,3.774046244782209,8.209557918199897,9.245939778533577
1782969364434507000,2.861507080078125,4.752489710888266,9.006240795576572,10.61777699779272
1782969364444434000,2.871433837890625,5.262060112226009,9.256814808291196,10.050091676616669
1782969364454359800,2.88135986328125,5.707544702622294,8.718762408834696,9.217997294119
1782969364464286000,2.891285888671875,5.831894720390439,7.243429159265756,8.300833349362016
1782969364474211800,2.9012119140625,5.8232502261638635,5.868160796514153,7.55935388829112
1782969364484137700,2.9111376953125,4.66357867076993,4.944741298493742,7.115162260314822
1782969364494065000,2.92106494140625,3.0672458829045293,4.838298693338036,6.770151137536764
1782969364503990800,2.93099072265625,2.8053616638854146,5.398901947298645,7.183083703896403
1782969364513916700,2.940916748046875,3.834756734071672,6.487890777704119,8.118937736076116
1782969364523842800,2.9508427734375,5.28065316901505,7.701429532364011,9.222560071989893
1782969364533769000,2.96076904296875,7.0016983782202,8.541599084767698,10.057070867979526
1782969364543694800,2.97069482421875,9.0582223272264,9.281236717364191,10.841150868892669
1782969364553621800,2.980621826171875,10.849245328021048,9.498520454895496,11.486940004968643
1782969364563548000,2.9905478515625,11.264200924640893,9.128747231304645,11.81462765250206
1782969364573474000,3.00047412109375,10.560210944008826,8.89527457551658,11.803460946321486
1782969364583399700,3.010399658203125,9.967274277198314,8.57169903947711,11.37269403258562
1782969364593325800,3.020325927734375,9.743584179756045,8.315898816546797,10.663683008921145
1782969364603253000,3.0302529296875,10.143516979289055,8.463793376031518,9.665968440634012
1782969364613178600,3.0401787109375,10.526145008277892,8.835413688793778,8.417786242616176
1782969364623104800,3.050104736328125,9.891996041113138,8.847392295879125,6.632226183402538
1782969364633031000,3.060031005859375,7.391015091192722,7.7471572643160815,2.4166911398619413
1782969364642956800,3.069956787109375,-0.06223053846359253,4.939517426365613,-6.167488026481866
1782969364652882700,3.079882568359375,-13.157198445266484,0.28464053296744823,-17.423767510473727
1782969364662809900,3.089809814453125,-25.04124976260662,-4.365248635146021,-26.61894682358503
1782969364672736000,3.099736083984375,-30.751535288369652,-7.1583420613497495,-33.63369816012382
1782969364682662000,3.109661865234375,-29.58867107441425,-9.62393430250287,-38.59205005081892
1782969364692587800,3.119587890625,-23.17691953353882,-12.285641236430406,-39.26737157084941
1782969364702513700,3.129513671875,-15.102684862542151,-14.16865512318015,-37.649557603538035
1782969364712440800,3.13944091796875,-6.924816214069724,-13.1851841843009,-32.480312553131576
1782969364722366700,3.14936669921875,-2.3175243709281084,-11.251814905798435,-24.099690212261674
1782969364732292900,3.15929296875,-1.3268912853345274,-6.930379108893871,-15.675516314435004
1782969364742218800,3.16921875,-2.1905162398666143,-2.447329439231753,-8.637487562683225
1782969364752145000,3.179144775390625,-3.5801579958856102,0.5759744260936975,-3.5006355463594194
1782969364762071800,3.18907177734375,-4.330470167231559,2.1696932320684192,0.46134266926348205
1782969364771998000,3.198998046875,-3.5591485256046056,1.2385238505735994,4.790926116788387
1782969364781923800,3.208923828125,-2.472480831623077,2.4643434101358053,5.727089361047744
1782969364791849700,3.218849609375,0.054746904709935186,0.8193447910398244,7.8862161909163
1782969364801775900,3.22877587890625,4.187654518446326,-0.001244154842197895,9.763560799857974
1782969364811701800,3.23870166015625,7.97155697133243,1.3605217522576452,10.840302143108843
1782969364821629000,3.24862890625,10.392181943511963,0.7255375033125281,11.651555397629737
1782969364831554800,3.258554931640625,11.273670179253816,0.3543766247555613,11.421371846514939
1782969364841480700,3.268480712890625,10.841387015736103,0.8965750379756092,11.336986759388447
1782969364851406800,3.27840673828125,10.052149193668365,1.3497469680041074,12.308190921890734
1782969364861333000,3.2883330078125,9.84288568098545,1.7529376002892851,13.327468502688408
1782969364871260000,3.298260009765625,10.152277793371677,2.559349259997904,14.296989242148399
1782969364881185800,3.308185791015625,10.37698905055523,3.2486358847558496,15.463561662971973
1782969364891112000,3.31811181640625,9.965617742162943,3.6848721698135134,16.40112892881036
1782969364901037800,3.328037841796875,9.49198316208124,4.1787960892081255,16.136414162540436
1782969364910963700,3.337963623046875,9.015527679359913,4.222200638909638,15.786362707507609
1782969364920891000,3.347890869140625,8.708650180143117,3.837453133548796,14.860531472170353
1782969364930816800,3.357816650390625,8.530487323644756,3.1865611213758585,13.1939461674273
1782969364940742700,3.36774267578125,8.377910743823646,2.2583155183732506,11.26536178511381
1782969364950668800,3.377668701171875,8.184065749546885,1.3392062847673891,9.590741642475127
1782969364960595000,3.387594970703125,7.49473207077682,0.6756178726285695,8.172704397577046
1782969364970520800,3.397520751953125,5.8670227323949335,0.17307985414564608,6.924847778251767
1782969364980447700,3.40744775390625,3.825177297082543,-0.17268296378254888,5.580782947537303
1782969364990374000,3.417373779296875,1.9349217686414717,-0.14238456389158963,4.789672317335009
1782969365000300000,3.427300048828125,-1.4209353044271469,0.1752948998466134,3.764208741378784
1782969365010225700,3.4372255859375,-7.052946919420361,0.6377168887794017,1.8049346217691897
1782969365020151800,3.44715185546875,-13.442397196638584,0.14286036470979452,-3.272742152008414
1782969365030079000,3.457078857421875,-18.95125881730318,-2.0218150391966105,-11.009257026278972
1782969365040004600,3.467004638671875,-23.657595264303684,-5.408823621854186,-19.687113424229622
1782969365049930800,3.4769306640625,-26.84769128180742,-8.179044706514476,-27.7607635733366
1782969365059857000,3.48685693359375,-26.53773101414442,-10.25617422117591,-33.35983796436786
1782969365069782800,3.49678271484375,-22.580515482878685,-10.679317800426482,-34.675344224596024
1782969365079709000,3.506708984375,-17.014941210389136,-8.755372768351435,-30.937565224981306
1782969365089635800,3.5166357421875,-11.722556102526188,-5.1398003447353835,-23.63941195735931
1782969365099562000,3.52656201171875,-7.211634675598144,-1.552488969963789,-15.42354412536025
1782969365109487900,3.53648779296875,-4.303004068157077,1.3599427833259106,-9.126623663279414
1782969365119413800,3.546413818359375,-3.5116911933809516,3.1042920034900305,-4.608928796693682
1782969365129339600,3.556339599609375,-4.081891127726435,4.11822237804085,-1.5931062270343304
1782969365139266800,3.566266845703125,-4.454451351687312,4.648250460995733,-0.18629297146201132
1782969365149192700,3.576192626953125,-4.248193450561166,4.803483985066413,0.38267771334946155
1782969365159118800,3.586118896484375,-3.4428584801733493,4.423116594485938,0.7589999201923608
1782969365169044700,3.596044677734375,-2.4219576820880175,3.699828623665869,0.46854105633497234
1782969365178971000,3.605970947265625,-1.4512339965790508,2.8516806397289036,-0.11916413956284522
1782969365188897800,3.615897705078125,-0.28927520703077314,2.216828200469911,-0.3742576755285263
1782969365198824000,3.625823974609375,0.902246946132183,1.8752847538024187,-0.2357026067972183
1782969365208749800,3.635749755859375,2.1273224093288183,1.8565712855041026,0.33234862508177754
1782969365218676000,3.645676025390625,3.3710312613248825,2.287547165815532,1.4412854340165853
1782969365228601900,3.655601806640625,4.041939641088247,2.6716610494479536,2.903961446586251
1782969365238527700,3.66552783203125,4.337458710944652,3.264567905642092,4.350506993088126
1782969365248455000,3.675454833984375,4.650940722993016,4.167427430714667,5.824087846031785
1782969365258380800,3.685380859375,5.357805966800451,5.0942906394481655,7.317980834642052
1782969365268306700,3.695306640625,6.292591492965817,5.4217035616934295,8.608073252150415
1782969365278232800,3.70523291015625,7.738857638004422,5.639879864150285,9.238545576629042
1782969365288159000,3.715158935546875,9.520224337181448,5.517555799251794,8.937829522651434
1782969365298086000,3.7250859375,11.249591384530067,4.881561788742244,9.090259387478232
1782969365308011800,3.73501171875,12.587081513029336,5.056593653738498,8.831842844569682
1782969365317938000,3.74493798828125,13.317601773190498,5.270761305075884,8.847432043367624
1782969365327863800,3.75486376953125,13.33531629357934,5.846715857425331,9.18345672661364
1782969365337789700,3.764789794921875,13.094960892540216,6.87390961817503,10.000355878067015
1782969365347715800,3.7747158203125,12.650664635145663,7.830206718924641,11.63284368289709
1782969365357643000,3.78464306640625,12.569476882755756,7.828886283975839,13.163245908737181
1782969365367568600,3.794568603515625,13.070659979498386,6.895068141537904,14.063418971204756
1782969365377494800,3.804494873046875,13.462217164874076,5.692237243375182,14.197199665141104
1782969365387421000,3.8144208984375,13.39400813652277,4.71118359477073,13.87870070171356
1782969365397346800,3.824346923828125,12.625247285294533,3.630419279614091,13.03827512872219
1782969365407273700,3.834273681640625,11.031197639930248,2.402533142910898,11.187229913163184
1782969365417199900,3.844199951171875,8.955282177233695,1.015531380006671,8.45283826677501
1782969365427126000,3.8541259765625,6.519875230985879,-0.32631752822399135,5.201905795514583
1782969365437051600,3.8640517578125,2.9227205075919627,-1.6816434654042123,1.5978817708730697
1782969365446977800,3.873977783203125,-1.4087912776470184,-2.900741023235023,-2.059701409998536
1782969365456905000,3.883905029296875,-4.223742315393686,-4.14103948226571,-5.340665446907281
1782969365466830800,3.893830810546875,-6.1849091168820856,-4.094413632430136,-8.432558279812335
1782969365476756700,3.9037568359375,-9.305012729749082,-4.064691278861463,-10.331711984980105
1782969365486683000,3.913682861328125,-13.531751888871192,-4.823653205130994,-14.111148690629005
1782969365496608800,3.92360888671875,-18.429555495101212,-5.91550063983798,-18.65376640154719
1782969365506535000,3.933534912109375,-22.32093398784399,-7.425489607724547,-23.751235671031473
1782969365516461800,3.9434619140625,-23.621799143779278,-8.27723035545647,-30.3084349627614
1782969365526388000,3.953387939453125,-22.607796288514137,-9.297844737815856,-34.38360467327833
1782969365536313900,3.96331396484375,-18.197448866969346,-8.437280047637223,-32.90381502882242
1782969365546239700,3.97323974609375,-11.286385868442057,-6.055224752348661,-27.533204525506495
1782969365556165600,3.98316552734375,-5.403582214069366,-3.4462896236658094,-20.92395472854376
1782969365566092800,3.9930927734375,-3.0695155814021824,-0.9443278460144996,-15.121346308392285
1782969365576018700,4.003018798828125,-3.5224756222456692,1.8556535861372947,-10.15885483367443
1782969365587182800,4.014182861328125,-3.228674462223053,1.7609952345386146,-10.359813459348677
1782969365597109800,4.02410986328125,-3.5324580870777367,3.629167525987327,-6.298361893060803
1782969365607036000,4.034035888671875,-3.077647449931502,4.733260109761357,-2.132454511520266
1782969365616961800,4.0439619140625,-2.223448787653446,4.411787098959088,0.9285258812487125
1782969365626887700,4.0538876953125,-0.6620400136530399,3.792398186291754,3.296399506449699
1782969365636813800,4.063813720703125,0.7304349199652671,2.5901953568994998,4.418484550771117
1782969365646741000,4.073740966796875,1.7866566222786902,1.0850465225204824,4.785856558439136
1782969365656667000,4.0836669921875,2.8779548986703154,-0.23306465950906274,4.965032975894212
1782969365666592800,4.0935927734375,3.896087401086092,-0.547684005024284,5.336242954289913
1782969365676519000,4.103518798828125,4.6847138132572175,-0.6521947653345763,6.2215112930923695
1782969365686444800,4.11344482421875,5.431850277176499,-0.6965265128836036,7.30229986590743
1782969365696371000,4.123370849609375,5.754688731113076,-0.4150513120792806,8.087735373082756
1782969365706297900,4.1332978515625,6.0769660440355535,0.0750840286873281,8.6485180752635
1782969365716223700,4.1432236328125,6.020871231848001,-0.08052505069747566,9.251554111284017
1782969365726150000,4.15314990234375,6.078785660678148,-0.5285467583559453,9.735922851347922
1782969365736075800,4.16307568359375,7.007716031074524,0.15417597784176468,10.137884526360034
1782969365746001700,4.173001708984375,8.01191645424962,0.9780635268777609,10.625770919156073
1782969365755928800,4.1829287109375,9.05740341205895,1.0539983271755278,11.099266383028029
1782969365765854700,4.192854736328125,10.277497579711675,1.0605569550387561,11.207889254832267
1782969365775780900,4.20278076171875,11.221613828802107,1.3406518074005842,11.085531287664175
1782969365785706500,4.21270654296875,11.81063653703928,1.272995882887393,10.905684423601627
1782969365795632400,4.22263232421875,12.069158878409862,0.9613356794387101,10.624979476517439
1782969365805559300,4.232559326171875,12.033601242816447,0.6103787999987602,10.008342785167693
1782969365815485400,4.2424853515625,11.662598185169696,0.5319438534483313,9.281288155290484
1782969365825411600,4.25241162109375,10.876327396214007,0.6531164102241397,8.317666410741209
1782969365835337500,4.26233740234375,9.829927999734878,0.39107729290425775,7.652415033826231
1782969365845263400,4.272263427734375,8.699316534608602,0.5190025388106704,7.159237548884749
1782969365855189500,4.282189453125,7.412586287009716,0.663134530891478,7.033021737244725
1782969365865116700,4.29211669921875,6.403326826879382,0.49819882023483514,7.269906247302889
1782969365875042600,4.30204248046875,5.388664046400785,0.4354071407571435,7.091064176368713
1782969365884968400,4.311968505859375,4.265516341283917,0.3972371307082474,6.43277854681313
1782969365894894300,4.321894287109375,3.5260482200354337,-0.5857365261733531,5.38283577863872
1782969365904820500,4.331820556640625,2.4504993014395238,-1.739568269497901,3.3278952994316815
1782969365914747400,4.341747314453125,0.6769435682743787,-2.883757739730179,0.7888970458060502
1782969365924673500,4.351673583984375,-0.9274661430627107,-4.618330539028347,-1.5403075337827206
1782969365934599400,4.361599365234375,-4.780302431443333,-5.075139364254475,-4.464838305667042
1782969365944525600,4.371525634765625,-14.722126041042804,-3.4947125860512256,-8.49866361388266
1782969365954451500,4.381451416015625,-27.926702323555944,-2.059532921563834,-14.623991830027103
1782969365964377300,4.39137744140625,-39.253174703192705,-1.7269117631509898,-20.969521716976164
1782969365974304500,4.401304443359375,-44.00557147510052,-1.094114064464718,-26.59272984778881
1782969365984230400,4.41123046875,-40.33304849925041,-0.6799436268731951,-28.841278005385398
1782969365994156500,4.421156494140625,-30.362026267695427,-0.713527039784193,-25.274791976499557
1782969366004082400,4.43108251953125,-19.9858929571867,0.6141648213434964,-19.81686091712713
1782969366014008600,4.441008544921875,-11.974704817211627,2.2923938751943407,-14.248544067931174
1782969366023935500,4.450935546875,-7.39513947764635,3.2107693876981735,-9.301202231550215
1782969366033861400,4.460861328125,-5.063160172647238,4.3363124635189765,-5.517787854442
1782969366043787500,4.47078759765625,-3.7517227692931887,5.410577772045135,-2.512023152938485
1782969366053713700,4.480713623046875,-2.560807934373617,5.772576854503154,-0.26899755815565585
1782969366063639300,4.490639404296875,-1.4085843568980694,5.786076972067356,1.0289487877234815
1782969366073566500,4.50056640625,-0.6619698710262775,5.536745652890205,1.70497933280617
1782969366083492600,4.51049267578125,0.30648470050692556,5.057563960075378,2.135779272028804
1782969366093418500,4.52041845703125,1.7596575561940668,4.3108597500935195,2.1549872458457946
1782969366103344400,4.530344482421875,3.1862428492069244,3.4068536853343248,1.7575486012160777
1782969366113270500,4.5402705078125,4.56745463053286,2.63734230799973,1.4644254865854978
1782969366123197400,4.550197509765625,6.037887833100557,1.924320879650116,1.4258034949854015
1782969366133123300,4.560123291015625,7.420722831714153,1.6833048227451741,1.8114789288461208
1782969366143049500,4.570049560546875,8.804428767943381,2.077904006165266,3.070903236368298
1782969366152975600,4.5799755859375,9.783646725553274,1.9773736937932669,4.151189704880118
1782969366162901500,4.589901611328125,10.699093344998358,1.9812007047355173,5.072970788043737
1782969366172827400,4.599827392578125,11.704576209199427,2.1513985737040637,6.0289668600201605
1782969366182754600,4.609754638671875,12.66111588653326,2.3044423326455057,6.898820187547803
1782969366192680700,4.6196806640625,13.54964059678316,2.305734856674075,7.568648955380916
1782969366202606300,4.6296064453125,14.415948799049854,2.139341786815971,7.947166626441478
1782969366212532500,4.639532470703125,15.534560029780863,1.9268112351611255,7.977340815430879
1782969366222458400,4.649458251953125,16.69135573747754,1.7245498563252388,7.693672342365979
1782969366232385300,4.65938525390625,17.543716078412533,1.605119320911169,7.3263260536611075
1782969366242311400,4.6693115234375,17.687669791316985,1.6066462382175026,6.92599694828689
1782969366252237600,4.679237548828125,17.12144811295271,1.841480976139009,6.605394290578365
1782969366262163500,4.68916357421875,15.78313380858898,2.2878467332839962,6.394207700878382
1782969366272089600,4.699089599609375,13.865027565670013,2.8261598295032977,6.219369604888558
1782969366282015500,4.709015380859375,12.033155837136507,3.1603187188774347,5.789603977149724
1782969366291942700,4.718942626953125,10.298408265793324,3.121271779863536,5.294844775974751
1782969366301868500,4.72886865234375,8.857216355279087,2.7818717749655244,4.23952236058861
1782969366311794400,4.73879443359375,7.547360668158531,2.0822458347618578,2.676564019058645
1782969366321720300,4.74872021484375,6.6114072672575706,1.1823539273232222,1.3915677556455135
1782969366331646500,4.758646484375,6.015867724472284,0.47355829997509713,-0.12679770318120717
1782969366341573400,4.768573486328125,4.800597031453251,-0.37158801792785523,-1.9857947545275092
1782969366351499500,4.77849951171875,2.284236726093292,-1.1031927123248577,-3.6192055194213983
1782969366361425400,4.78842529296875,-0.8856675672531127,-1.5094474083557725,-4.750891043519974
1782969366371351600,4.7983515625,-5.946879528442025,-1.7470206313304601,-6.104807406163215
1782969366381277400,4.80827734375,-13.122897531735896,-1.6593585683599112,-8.055873084875941
1782969366391204600,4.81820458984375,-20.404045888543127,-1.6179361323863266,-10.225434214997291
1782969366401130500,4.828130615234375,-25.5282780772686,-2.15695416200459,-12.75158818461895
1782969366411056600,4.838056640625,-28.210111268901823,-2.9172786087989806,-15.334261913841962
1782969366420982500,4.847982421875,-28.421343451309202,-3.736274732531607,-18.025348086988924
1782969366430908400,4.857908447265625,-27.095418672919273,-4.476397810557485,-20.592341431999206
1782969366440834600,4.86783447265625,-23.825755197703838,-4.394858175989985,-21.266313875508306
1782969366450761500,4.877761474609375,-18.467452387297154,-3.5732550846293565,-19.500736281615495
1782969366460687400,4.887687255859375,-12.5645435180068,-2.407034545983374,-16.249267803782224
1782969366470613500,4.897613525390625,-7.94598939935565,-1.2386916083559394,-12.435820107460021
1782969366480539600,4.90753955078125,-5.0011383084982635,-0.17797186397090553,-8.925857345306873
1782969366490465300,4.91746533203125,-3.069158438527584,0.7829233782239258,-5.774153894561529
1782969366500392400,4.927392333984375,-1.3700935904622078,1.6035041407994925,-2.7934754112586377
1782969366510318600,4.937318603515625,-0.12318155851066112,2.173923709245026,-0.39713615455180407
1782969366520244500,4.947244384765625,0.5760936685591935,2.3927497077822686,1.1345739390164613
1782969366530170400,4.95717041015625,1.2434171755731105,2.3562707195602357,2.0373039924904703
1782969366540096500,4.967096435546875,2.1160633486896754,2.1489738307751716,2.630622644355893
1782969366550023700,4.977023681640625,3.309404533973336,1.787355272067338,2.9528371211752296
1782969366559949300,4.98694921875,4.557266998517513,1.5111905987612901,3.2403651922777295
1782969366569875500,4.99687548828125,5.754241571867466,1.346412124492973,3.5838469135314224
1782969366579801600,5.006801513671875,7.017987249720096,1.304482469649613,3.741562609806657
1782969366589727500,5.0167275390625,8.242862221908569,1.3322985512055456,3.9829838865116236
1782969366599654400,5.026654296875,9.307200595182179,1.4658970204427837,4.524136297810077
1782969366609580500,5.03658056640625,10.14855789606571,1.8560063450977204,5.1320577677845955
1782969366619506700,5.046506591796875,10.82904658960104,2.184639602918178,5.631311942291259
1782969366629432300,5.056432373046875,11.477627402222156,2.406122691835463,5.994883388632536
1782969366639358500,5.0663583984375,12.205172445964813,2.663579157540202,6.186046596479415
1782969366649284400,5.076284423828125,12.978989411538839,2.8245649615272876,6.252279940843581
1782969366659211500,5.08621142578125,13.767793518364428,2.7094536044865847,6.216422445520759
1782969366669137400,5.096137451171875,14.436082071018218,2.4504535626016555,5.9494555164098735
1782969366679063600,5.1060634765625,15.053374595928192,2.05570693353489,5.5953860579073424
1782969366688989400,5.115989501953125,15.391064582037925,1.633113973904401,5.275505869254469
1782969366698915600,5.12591552734375,15.478874967437982,1.2969121805258095,5.155772989892959
1782969366708842500,5.135842529296875,15.25586116182208,1.1790120695494115,5.110426950734854
1782969366718768600,5.1457685546875,14.757365696728229,1.2451387386687098,5.205087348160148
1782969366728694500,5.155694580078125,14.033152427756786,1.2421522702038288,5.412957945179939
1782969366738620400,5.165620361328125,13.236550798922776,1.1203338167399168,5.448759326401353
1782969366748546300,5.17554638671875,12.354571564793586,1.0572655122779309,5.311198529404401
1782969366758473500,5.185473388671875,11.352657791250943,1.06147260857895,5.094920754045248
1782969366768399400,5.1953994140625,10.199488457357884,1.0555914415858685,5.030870014417171
1782969366778325500,5.205325439453125,8.551766843038797,1.146234566193819,5.045168588882684
1782969366788251600,5.215251708984375,6.7134367321461434,1.2547909486331046,5.1874149133473635
1782969366798177800,5.225177734375,4.864423314675689,1.0856428809784353,5.210538014781474
1782969366808103700,5.235103759765625,2.344515545967221,0.7961975780777633,4.566251392222941
1782969366818030800,5.24503076171875,-1.5035346771806477,0.45489020518846807,2.345311372520029
1782969366827956700,5.254956787109375,-5.96408434574306,-0.22248590928427875,-1.2399851552978158
1782969366837883000,5.2648828125,-11.143656144374608,-1.15837603569068,-5.635270324528217
1782969366847808800,5.274808837890625,-20.211894838702676,-1.1371377981550992,-10.664822826606034
1782969366857734700,5.284734619140625,-33.62976315876245,0.04304075789041817,-17.70573034866452
1782969366867661800,5.294661865234375,-43.791075322461126,0.06392166988831013,-25.338416015148162
1782969366877587700,5.304587646484375,-45.399085688638685,-1.3860291184797882,-29.72861029098034
1782969366887513600,5.314513671875,-38.770558359754084,-2.696274389439821,-28.85053683211803
1782969366897439700,5.324439697265625,-28.34060694981813,-2.8436516470521687,-24.736966371536255
1782969366907366000,5.334365966796875,-19.24570119783878,-1.6533233798488973,-19.403746564459798
1782969366917292800,5.344292724609375,-13.515619084715842,-0.47772396828718483,-13.946018918704986
1782969366927218700,5.35421875,-10.873497141224146,0.7606677803393453,-9.264324745529889
1782969366937144800,5.364144775390625,-9.542849425965548,1.9663006572455166,-5.550354491525888
1782969366947070700,5.37407080078125,-8.92426043150425,2.7329209893137216,-3.0564070935040712
1782969366956996600,5.38399658203125,-8.284120699492096,3.0129496445715427,-1.4766390714704989
1782969366966922800,5.3939228515625,-7.3312962432891124,2.9313112258046865,-0.38431905081570145
1782969366976850000,5.403849853515625,-6.154907361850142,2.7143244253933427,0.41993338503241534
1782969366986775600,5.413775634765625,-4.639432071506977,2.4647867699891326,0.5443222735062241
1782969366996701700,5.42370166015625,-2.593715932241082,2.1145468066468833,0.4308221510544419
1782969367006627800,5.4336279296875,-0.2077092689782381,1.8648809948183596,0.4715393613681197
1782969367016553700,5.4435537109375,2.4499720626950263,1.8351168479345739,0.7924526924610138
1782969367026480600,5.453480712890625,5.020399473807215,2.2187524465307593,1.7737778514832256
1782969367036406800,5.46340673828125,7.191732289776206,2.933351791721582,3.047898792877793
1782969367046333000,5.4733330078125,9.553992166748642,3.6205943434312937,4.419391436482965
1782969367056258600,5.483258544921875,12.25636954923868,4.07601639047414,5.933091241586208
1782969367066184700,5.493184814453125,14.832953729414939,4.454451643948257,7.109594689315557
1782969367076112000,5.50311181640625,16.914237441146373,4.869993808284401,7.987220988932251
1782969367086037800,5.513037841796875,18.58028966192603,5.026571440440416,8.470584935867786
1782969367095963600,5.522963623046875,19.91727242542505,5.07622891305685,8.654645033711194
1782969367105889800,5.532889892578125,20.70546512235403,4.948969145321846,8.542103527158499
1782969367115815700,5.542815673828125,21.184363906574248,4.870628599056602,8.238415179371833
1782969367125741800,5.552741943359375,21.394225969672203,4.693075106628239,7.915739807042479
1782969367135668700,5.562668701171875,21.294162836420536,4.17076943461895,7.359778241407871
1782969367145595000,5.572594970703125,20.78221284646988,3.659070496819913,6.801896521365642
1782969367155520800,5.582520751953125,20.038792188203335,3.327252617613971,6.270378492113948
1782969367165446700,5.59244677734375,18.64353376134634,2.9389611560359596,5.884476556020974
1782969367175372800,5.602372802734375,16.93520190324187,2.742518838742375,5.582357064986229
1782969367185299700,5.6122998046875,15.265032310271263,2.822546899703145,5.428666386443377
1782969367195225600,5.6222255859375,13.736215307796,2.7657711195141075,5.328756397926807
1782969367205151700,5.63215185546875,12.231913153374194,2.580355515408516,5.310630374127626
1782969367215077600,5.64207763671875,10.90662901097536,2.4942507648825645,5.211855527120829
1782969367225003800,5.652003662109375,9.516241405025124,2.2837490887068213,4.721189732739329
1782969367234930000,5.661929931640625,7.823218175211548,1.7642254486314952,3.7037867136418816
1782969367244856800,5.67185693359375,5.840833813649415,1.1326266043409705,2.1449717555269596
1782969367254782700,5.68178271484375,3.5857851881176233,0.5250445954538882,0.15273936916738748
1782969367264708900,5.691708984375,1.0541899042248726,0.1565180109232664,-1.7160688820973038
1782969367274634800,5.701634765625,-1.690200573608279,0.2332695344313979,-2.894677485412359
1782969367284560600,5.711560546875,-4.2776825798958535,0.1818710633665323,-4.7587730289414525
1782969367294487800,5.72148779296875,-7.690554502606392,-0.6596366057731211,-8.076024477022886
1782969367304413700,5.73141357421875,-13.086435056257248,-1.9799517275877296,-12.666154465222357
1782969367314339600,5.741339599609375,-19.894433986151217,-2.999733020123839,-17.977209202241898
1782969367324265700,5.751265625,-27.50620896655321,-2.682207285642624,-22.138630962800978
1782969367334191900,5.76119189453125,-34.77322358406782,-0.9426845357868819,-23.66494854967594
1782969367344118800,5.771118896484375,-38.7955571919322,0.8623514274649322,-23.801911380779742
1782969367354044700,5.781044677734375,-38.69254806835651,1.9197567866049705,-23.637747239017486
1782969367363970800,5.790970703125,-34.79654600746631,3.5848832708418366,-23.58712296719551
1782969367373897000,5.80089697265625,-26.51691969678402,3.4502231637224554,-20.470798288345335
1782969367383822600,5.810822509765625,-15.947790117782354,2.7603829967349767,-15.944368326640127
1782969367393749800,5.820749755859375,-7.304853057521581,2.2951870130442082,-12.666917850810288
1782969367403676000,5.830676025390625,-2.8384488177120684,1.2093257400747388,-9.85433763384819
1782969367413601500,5.8406015625,-0.9563935468614101,0.38038646060712633,-7.218232758688926
1782969367423527700,5.850527587890625,0.3427145362734794,0.1429763192396611,-4.504089827342331
1782969367433453800,5.860453857421875,1.4800491721749305,0.3573408083233982,-1.6857447632431983
1782969367443379700,5.870379638671875,2.3196733656555413,0.7492507526595145,0.7460764334723353
1782969367453306600,5.880306640625,2.8223645288735626,1.0239352704104034,2.4384642879918217
1782969367463232800,5.890232666015625,3.5326650078266857,0.769483393349126,4.0370957081884145
1782969367473159000,5.900158935546875,4.130269081926346,0.7163653319500386,4.733524605916441
1782969367483084800,5.910084716796875,4.756200255843996,0.6824942612040787,4.993299869957566
1782969367493010700,5.9200107421875,5.6199669569343325,0.5600272076383233,5.013056125307083
1782969367502937900,5.929937744140625,6.5119438534647225,0.4573091759636998,4.888839670790731
1782969367512863700,5.93986376953125,7.503485286074876,0.4873397186987102,4.74891156014055
1782969367522789600,5.94978955078125,8.697165494054556,0.49927375598996876,5.266998153150081
1782969367532715800,5.9597158203125,10.240359396928548,0.6839613380819559,5.995854864013195
1782969367542641700,5.9696416015625,11.943327682173251,1.0730046409405767,6.3030678787946695
1782969367552568600,5.979568603515625,13.59216573330164,1.2935782137975096,6.975655005425215
1782969367562494700,5.98949462890625,15.116626878654955,1.4334488951720297,7.37378572397232
1782969367572420900,5.9994208984375,16.355724437463284,1.692297253626585,7.282964466318488
1782969367582346800,6.0093466796875,17.44768731524348,1.8285333778910338,6.9685635858595365
1782969367592272600,6.019272705078125,18.108691556107996,1.7349669131822882,6.91989863141179
1782969367602199800,6.02919970703125,18.286788361632823,1.678574433222413,7.033252038869262
1782969367612125700,6.039125732421875,17.701579074203966,1.724834810746461,6.933202349621057
1782969367622051800,6.0490517578125,16.66525917319059,1.836106735754758,6.6912395133852955
1782969367631977700,6.058977783203125,15.621061086148023,1.7732544121310114,6.465706418424844
1782969367641903600,6.068903564453125,14.644868613839149,1.6263355658106504,6.302125044986605
1782969367651829800,6.078829833984375,13.902676620584726,1.5428481581762432,5.962023906081915
1782969367661756700,6.088756591796875,13.396360252606868,1.408951582775265,5.665197260758281
1782969367671682800,6.098682861328125,12.910248468267916,1.1415879094317554,5.420315906727314
1782969367681608700,6.108608642578125,12.415087116032838,0.853892226677388,5.30269607399702
1782969367691534800,6.118534912109375,11.704078196549414,0.671096303550899,4.98749147593975
1782969367701460700,6.128460693359375,10.318036510848998,0.5381891775786877,4.085422516722977
1782969367711387600,6.1383876953125,8.127049730861186,0.18580416503176092,2.5612255752637982
1782969367721313800,6.148313720703125,5.613049140369892,-0.41719628821872173,1.0525731166779995
1782969367731239700,6.15823974609375,2.9033494521677494,-1.1953276829257606,0.40728287003487346
1782969367741165600,6.16816552734375,-1.1674182239979505,-1.614807771232724,0.5861512444540858
1782969367751091700,6.178091796875,-7.436349439913034,-1.631406439334154,0.621878683656454
1782969367761017900,6.188017822265625,-15.667847387242317,0.09203194861784576,-2.7007588413774966
1782969367770944800,6.19794482421875,-24.646066203427313,0.5123789559524506,-6.846755653789639
1782969367780870700,6.20787060546875,-33.09112623741627,0.041847712180949743,-12.092504682683945
1782969367790797300,6.21779736328125,-38.06843066586256,0.19720657966434954,-16.530471932560204
1782969367800723200,6.22772314453125,-39.11785087146759,0.43096367841698224,-19.799082099330423
1782969367810649000,6.237649169921875,-37.14153092451095,0.4240213849984109,-22.238448596858976
1782969367820576300,6.247576171875,-31.750763768351074,-0.1409746240284294,-22.147857056307792
1782969367830502100,6.257502197265625,-23.887431609416005,-0.702649891134724,-19.62368110876083
1782969367840428000,6.267427978515625,-16.39474711881876,-0.44665480321943757,-15.728364107525348
1782969367850354200,6.277354248046875,-11.407655455851554,0.0027924071975052355,-11.811814933168888
1782969367860280300,6.2872802734375,-9.177216955441237,0.4856311612151563,-8.945594895955919
1782969367870207200,6.297207275390625,-8.235712934675812,1.1793410092428327,-6.7907450127542015
1782969367880133000,6.307133056640625,-7.469918532037735,2.17993054844439,-4.512173765076697
1782969367890059300,6.317059326171875,-6.410183268645405,3.2277836508631705,-2.400335340605676
1782969367899985400,6.3269853515625,-5.006185655015707,3.943817705032229,-0.6014899756222963
1782969367909911000,6.3369111328125,-3.5568414177060124,4.240752486905455,0.7700009144172072
1782969367919838200,6.346838134765625,-2.049897224342823,4.411353091455996,1.6750915595427154
1782969367929764400,6.356764404296875,-0.42993455456495283,4.3397862771093845,2.2454051833957434
1782969367939690200,6.366690185546875,1.1272253298193216,4.013932274743914,2.608650758783519
1782969367949616000,6.3766162109375,3.040099517303705,3.5902845453634855,2.7627643389135597
1782969367959542300,6.386542236328125,5.175172102367878,3.262117005358636,3.173619222216308
1782969367969468200,6.39646826171875,7.078150918781757,3.057878042839467,3.8013022082373498
1782969367979395000,6.40639501953125,8.95081526095271,3.0979984563037752,4.3577892590507865
1782969367989321200,6.4163212890625,11.044145968830584,3.390786055369675,4.752055411124229
1782969367999247400,6.426247314453125,13.564667485523223,4.037253821359575,5.439134004443884
1782969368009173200,6.43617333984375,16.18157666182518,4.653765425024926,6.730788848963379
1782969368019099100,6.44609912109375,18.0486377771616,5.0600037544429295,8.245054178994893
1782969368029026300,6.4560263671875,19.249591775536537,5.325165095436573,9.055393241280317
1782969368038952200,6.4659521484375,19.93566382216215,5.066168122291565,8.931105767354369
1782969368048878000,6.475878173828125,20.41884832087755,4.432747177140414,8.231924648308754
1782969368058804200,6.48580419921875,20.803681166434288,3.9138457606166597,7.3503873127281665
1782969368068730000,6.495730224609375,21.06940247939825,3.3344697093859312,6.582638268890976
1782969368078657000,6.505656982421875,21.270550490164755,2.843070340032875,5.817541785389184
1782969368088583200,6.515583251953125,21.04634893606901,2.511926122304797,5.254676431715488
1782969368098509300,6.52550927734375,20.117192940223216,2.4569673284098505,4.502611863744258
1782969368108435200,6.535435302734375,18.26845541708469,2.649397195191681,3.8293706571191546
1782969368118361300,6.545361328125,15.709620828610658,2.4509099280670283,3.342859352068603
1782969368128287200,6.555287353515625,13.277557347571848,2.320052428101003,3.0217393924877047
1782969368138214100,6.565214111328125,11.275885517215729,2.027042126195133,2.6107576679348945
1782969368148140300,6.575140380859375,9.481698499432206,1.5748375798940657,2.033824625942111
1782969368158066200,6.585066162109375,7.700378562006354,1.0974790108531713,1.4749524335578084
1782969368167992000,6.594991943359375,5.774234558582306,0.5530161598324775,1.1005687935620545
1782969368177918200,6.604918212890625,3.468465215116739,-0.049261751297116275,0.8733876391336322
1782969368187845000,6.61484521484375,0.6142734693497419,-0.20917393470332024,0.08956833498328924
1782969368197771300,6.624771240234375,-3.4189445206224915,-0.3125288029767573,-1.6017524748265741
1782969368207697200,6.634697265625,-8.398431553804874,-1.1520210406407714,-4.018858332969248
1782969368217623300,6.644623291015625,-13.789101679331063,-2.3837445635497567,-6.819489461201429
1782969368227549400,6.654549560546875,-19.203737202334402,-3.2334450376257298,-10.188808073389529
1782969368237476400,6.664476318359375,-25.2752315369606,-3.9495486498996613,-13.596977517497539
1782969368247402200,6.67440234375,-31.68677264995575,-4.315898328782618,-17.364737813878058
1782969368257328400,6.684328369140625,-36.67907123391628,-4.468853386527299,-21.148249806141852
1782969368267254000,6.69425390625,-38.54921394865513,-4.572958196385205,-24.098551563620568
1782969368277180200,6.70418017578125,-36.20482524393797,-3.8130782784879207,-25.173821665275096
1782969368287106300,6.714106201171875,-29.988261928641794,-2.609156370218098,-23.1847474506855
1782969368297033200,6.724033203125,-21.905336586189268,-1.0156807253494857,-19.340774852240084
1782969368306959000,6.733958984375,-14.177765481352806,0.2612311619378626,-15.016824442166088
1782969368316885200,6.74388525390625,-8.378405833864212,0.7338314305357635,-11.507192519402503
1782969368326811400,6.753811279296875,-5.110839038667082,0.8312650920666754,-9.109693571266531
1782969368336737300,6.7637373046875,-3.163104550203681,1.2939831413365899,-6.960029566270112
1782969368346664200,6.773664306640625,-1.4492162270158528,2.168783423747122,-4.67347258053571
1782969368356590300,6.78359033203125,0.33183483034074307,3.0920427627697586,-2.4079504917845127
1782969368366516200,6.79351611328125,2.090723740249872,3.793617791214585,-0.5861302016660571
1782969368376442000,6.803442138671875,3.5956840663194654,4.212435323959589,0.7000874202355742
1782969368386368300,6.8133681640625,4.794640753397346,4.343827661454677,1.6985270879268646
1782969368396295400,6.82329541015625,5.873243798866867,4.353335202251374,2.399397767494619
1782969368406221000,6.833220947265625,7.0335004606723786,4.361267748816311,2.786778251707554
1782969368416147200,6.843147216796875,8.163434464928507,4.369763189961016,3.146524294541776
1782969368426073300,6.8530732421875,9.346949837246537,4.459151492202282,3.693334585471451
1782969368435999200,6.862999267578125,10.724816984319686,4.592849476291239,4.006818351085484
1782969368445926100,6.872926025390625,11.69483573642969,4.904852940219641,4.2238185955002905
1782969368455852300,6.882852294921875,12.65801792051792,5.270661936354637,4.352888335266709
1782969368465778200,6.892778076171875,14.008672651016711,5.7209419443339105,4.645102518358827
1782969368475704300,6.902704345703125,15.550388882553577,6.217152513360976,5.2810073892802
1782969368485630200,6.912630126953125,16.98723721090555,6.408920116841792,5.995654373005032
1782969368495556000,6.92255615234375,18.035572543883323,6.243729554641247,6.202147251930833
1782969368505483300,6.932483154296875,18.53986062090397,6.060341656970977,6.085668990451097
1782969368515409200,6.9424091796875,18.463197067940236,5.8483390747129915,5.801989995992184
1782969368525335300,6.952335205078125,17.903730124533176,5.3464288327395915,5.493462976002693
1782969368535261200,6.96226123046875,17.17806957936287,4.718379059232771,4.965313546401262
1782969368545187300,6.972187255859375,16.503765127420426,4.125120905382931,4.4668505222722885
1782969368555114200,6.9821142578125,15.941284389150141,3.414383788578212,4.1492309720277785
1782969368565040000,6.9920400390625,15.287149449533223,2.6890955838516355,3.7305592774942515
1782969368574966300,7.00196630859375,14.165425055217742,2.104651435576379,3.2728049881115555
1782969368584892200,7.01189208984375,12.743271607172488,1.7137907080322503,2.842873356156051
1782969368594818000,7.021818115234375,11.513647979152202,1.4400278351709246,2.6992782474309203
1782969368604745200,7.0317451171875,10.370956784653663,1.0498740868523717,2.6124066041857
1782969368614671000,7.041671142578125,9.099983493635058,0.5150181453496218,2.531995973648131
1782969368624597200,7.05159716796875,7.485096811947226,-0.24451807367652653,2.6028429492875933
1782969368634523100,7.061523193359375,5.055712194728851,-1.0689601878553627,2.8806334702298044
1782969368644449300,7.07144921875,0.8296487429112196,-1.4025295869037508,2.560244747532904
1782969368654375400,7.08137548828125,-5.516603613093495,-1.5530745147667824,1.7085121831074357
1782969368664302300,7.09130224609375,-12.180080090284347,-1.8955536348491906,0.6610714608818292
1782969368674228200,7.101228271484375,-18.30725598012209,-2.2885225867189467,-0.9282479410901665
1782969368684154400,7.111154296875,-24.15335633599758,-2.633315536701679,-4.396887343730032
1782969368694080000,7.121080078125,-29.242685553646087,-3.4842946524113416,-10.28201827200651
1782969368704006100,7.131006103515625,-33.9325969355464,-4.952022687673568,-17.037207987254856
1782969368713933300,7.140933349609375,-37.08774555830955,-5.671579655271768,-20.519322957539558
1782969368723859200,7.150859130859375,-35.983186233806606,-4.9706817954361435,-19.838754769027233
1782969368733785000,7.16078515625,-30.806267580032348,-3.6624721219569443,-16.640172662729025
1782969368743711200,7.170711181640625,-23.974572132730483,-2.2490170902825892,-12.87430271013975
1782969368753637400,7.180637451171875,-16.35649483731389,-0.7822329117417335,-8.89367123197317
1782969368763564300,7.190564208984375,-9.985401470041275,0.262365280534327,-5.334416907906532
1782969368773490200,7.200490234375,-5.9161108806908125,0.6843252029582858,-2.961497397492826
1782969368783415800,7.210415771484375,-3.5959751582205293,0.9557964577510952,-1.468307880976796
1782969368793342000,7.220342041015625,-2.426641455990076,1.5107495769955217,-0.47790801961719986
1782969368803267800,7.230267822265625,-1.9927473501443862,2.078284968306869,0.006618249095976352
1782969368813193700,7.24019384765625,-1.5805243933588264,2.596713360491395,0.1505818988725543
1782969368823121000,7.250120849609375,-0.8172013492703437,2.8751778351724147,0.059170274110138414
1782969368833047000,7.260047119140625,0.17215046434104442,2.8969667653933167,-0.26179449490904805
1782969368842972700,7.26997265625,1.3071464281618594,2.918127919104695,-0.5419780484676361
1782969368852898800,7.27989892578125,2.573974874460697,3.044200815142691,-0.5135901583731174
1782969368862825000,7.289824951171875,3.8497295545369385,3.210909965212643,-0.264819687949121
1782969368872751600,7.299751708984375,5.079273687580227,3.3299875955358145,0.019231062431633472
1782969368882677800,7.309677734375,6.32979221959114,3.612984452949464,0.5263137386068701
1782969368892604000,7.31960400390625,7.618401705065369,4.108886102157831,1.161133736900985
1782969368902529800,7.32952978515625,9.098847183081507,4.501177739287913,1.8970982339426874
1782969368912455700,7.33945556640625,10.618359181594847,4.815762159620225,2.6591528655305505
1782969368922382800,7.3493828125,11.816797397756575,4.893257779493927,3.092133655923605
1782969368932309000,7.35930908203125,13.093577913749217,4.810433658073842,3.277573809948563
1782969368942235000,7.36923486328125,14.572100314748287,4.733689441089332,3.4257767047300933
1782969368952160800,7.379160888671875,15.962103889816998,4.390806562511623,3.5665339596807955
1782969368962087000,7.3890869140625,16.769819617861508,3.9582387368336316,3.516862750799954
1782969368972012800,7.3990126953125,17.00143407856226,3.527137768837809,3.22289821690917
1782969368981939700,7.408939697265625,17.170374933207032,3.180307029417157,2.975492312836647
1782969368991865900,7.418865966796875,17.024938872790337,2.8892776721954343,2.781807185296714
1782969369001791700,7.428791748046875,16.68751075248718,2.7122324215501545,2.9236253474771976
1782969369011718000,7.4387177734375,16.21087757511139,2.320173424132168,2.929174213775992
1782969369021643800,7.448643798828125,15.493037932825088,2.0183920790106056,2.7345994439199566
1782969369031571000,7.458571044921875,14.43020411889553,1.8232213890880344,2.6751164505988356
1782969369041496800,7.468496826171875,12.682161012649535,1.6680400335960088,2.7445962295383213
1782969369051422700,7.478422607421875,10.77904541811347,1.6931978557281195,2.8924241535276174
1782969369061348900,7.488348876953125,8.800525330764055,1.6213370268709957,2.9421146516308188
1782969369071274800,7.498274658203125,6.549038197106123,1.2306573549821973,2.3645621625654396
1782969369081201700,7.50820166015625,4.053278781226277,0.5853891740404069,1.2283933555729687
1782969369091127800,7.5181279296875,1.3030091822266578,-0.11839593166932463,0.11793956620395182
1782969369101053700,7.5280537109375,-1.184724748107791,-0.5715414120823145,-0.3633171793192625
1782969369110979800,7.537979736328125,-4.531929143643379,-0.8025606833688914,-0.9593766543254255
1782969369120906000,7.547906005859375,-9.960846874499321,-0.5601384129278362,-2.4934093456223607
1782969369130833000,7.5578330078125,-17.015570155942438,-0.02071267929151654,-5.136343482279777
1782969369140758800,7.5677587890625,-24.76993340611458,-0.11541070531345904,-9.455160621118544
1782969369150685000,7.577684814453125,-30.955961297893523,-1.0690428977027535,-14.038871389925479
1782969369160610800,7.58761083984375,-33.961535445261,-1.9363287128299473,-17.406187430119513
1782969369170536700,7.59753662109375,-33.32383843022585,-2.72663854804337,-19.312070151281354
1782969369180462800,7.607462890625,-29.57254294643402,-3.2050849123209715,-19.34043115336895
1782969369190389800,7.6173896484375,-23.44976499929428,-3.2075232453837987,-17.499560125821827
1782969369200315600,7.627315673828125,-16.38933678420782,-2.7760157424136995,-14.660931275367735
1782969369210241800,7.63724169921875,-10.205429537844656,-2.072770150408149,-11.308310115480422
1782969369220168000,7.64716796875,-5.618141495072841,-1.681979857751727,-8.100230697518587
1782969369230093800,7.65709375,-2.761484820497036,-1.5600582361742854,-5.543762253654003
1782969369240020700,7.667020751953125,-1.5647317809432744,-1.1529496997930109,-3.5533714035078883
1782969369249947000,7.67694677734375,-1.1715846960276364,-0.6810976922791451,-1.8182804255545137
1782969369259873000,7.686873046875,-0.7521464010357857,-0.24781002789400516,-0.4629050962746143
1782969369269798700,7.696798583984375,-0.22021219219863414,0.07252294602766633,0.348433498442173
1782969369279724800,7.706724853515625,0.3562450489759445,0.26056846024543046,0.8260993798665702
1782969369289652000,7.71665185546875,1.1519196260929108,0.4661616138525307,1.2038469433374703
1782969369299577600,7.72657763671875,2.217805228808522,0.6886389745041728,1.474792859081924
1782969369309503700,7.736503662109375,3.4766122812151905,0.8353577682077884,1.4660365750439464
1782969369319430000,7.746429931640625,4.843468789452314,1.0898334645360708,1.185885462450236
1782969369329355800,7.756355712890625,6.080995737943053,1.191531797774136,0.910218071141839
1782969369339282000,7.766281982421875,7.450038942569494,1.3796962621964513,0.7861269965708255
1782969369349208800,7.776208740234375,9.469924475008249,1.8079906483389436,1.1391883009441197
1782969369359135000,7.786135009765625,11.834683767580986,2.403714023258537,1.854132221788913
1782969369369060900,7.796060791015625,13.767517624032497,2.9417218529209492,2.460203826113045
1782969369378986800,7.80598681640625,14.945159720402955,3.2976281714618203,2.6574609669208527
1782969369388913000,7.815912841796875,15.673281102728843,3.4776959847986695,2.4991224625721573
1782969369398839800,7.82583984375,16.308887867486476,3.6762785289913413,2.310907437006384
1782969369408765700,7.835765625,16.904453713756798,3.755961429776251,2.1646590372934935
1782969369418691800,7.84569189453125,17.26652527692914,3.6261525620803234,1.699937831507623
1782969369428617700,7.85561767578125,17.209163805806636,3.5559199189469215,1.1805329224411398
1782969369438544000,7.8655439453125,16.814922495913503,3.340501390765607,0.8618577256638557
1782969369448470800,7.875470703125,16.16602136529684,2.9005045841306445,0.5899542169336229
1782969369458397000,7.88539697265625,15.509177751243113,2.4494058071143923,0.39302769631966944
1782969369468322800,7.89532275390625,14.851684148848056,2.009065009347349,0.47277986294850705
1782969369478249000,7.9052490234375,13.992974731147289,1.5897490255609155,0.6233676070399582
1782969369488174800,7.9151748046875,12.660801413756609,1.443747001824528,1.1202159625139088
1782969369498101800,7.925101806640625,10.82061427682042,1.5943876451469956,1.7761587552703917
1782969369508028000,7.93502783203125,8.725103886815905,1.5661894324056804,2.319441748856753
1782969369517953800,7.944953857421875,6.4010349165499205,1.136395747616142,2.486486268360913
1782969369527879700,7.954879638671875,3.5086709687769413,0.27896526381000875,2.011544843464345
1782969369537805800,7.964805908203125,-0.742509388640523,-0.857144506471604,1.0581490171141923
1782969369547732000,7.97473193359375,-7.003978013589978,-1.7869633501403033,-0.2677498961821198
1782969369557659000,7.984658935546875,-15.890236923480034,-1.8181708277001976,-2.866562859301269
1782969369567584800,7.994584716796875,-25.811600513374803,-1.5169735660769044,-6.344373118129372
1782969369577511000,8.004510986328125,-33.67540964217186,-1.1243622685384005,-9.353041139858961
1782969369587436800,8.014436767578125,-36.500280016386505,-1.0041573877509682,-10.99208377315998
1782969369597362700,8.02436279296875,-34.342377175354954,-1.4348112695664166,-11.182169122642279
1782969369607289900,8.034289794921875,-28.269003018331524,-2.376169452120364,-10.521495721167325
1782969369617215700,8.0442158203125,-22.252947077810763,-2.9356416562244294,-9.227817846387625
1782969369627141600,8.0541416015625,-17.112731722533702,-2.6425743634343144,-6.826569190329313
1782969369637067800,8.06406787109375,-12.56531157976985,-1.8432808651678263,-4.042928067603707
1782969369646994000,8.073993896484374,-8.965185731610655,-1.056326331731677,-1.7018236452542244
1782969369656920800,8.0839208984375,-6.305000892683863,-0.2591260063521564,0.12708558021187782
1782969369666846700,8.0938466796875,-4.6986973304241895,0.4608635074444115,1.292783702418953
1782969369676772900,8.10377294921875,-3.833860954275727,1.0023483655676244,1.8291319283060727
1782969369686699000,8.113698974609376,-3.0155069278389215,1.4504165427163243,1.9293581431649625
1782969369696624600,8.123624755859375,-1.7688041547238826,1.650984561637789,1.8281332726575432
1782969369706550800,8.13355078125,-0.3265133430570364,1.578776088386774,1.572223451872915
1782969369716478000,8.14347802734375,1.1317372542858124,1.4380341771356762,1.2056420100606977
1782969369726403800,8.15340380859375,2.5342536894470453,1.3299521342098712,0.8643224352769553
1782969369736329700,8.163329833984376,3.84491484773159,1.3926369923122226,0.748999335181713
1782969369746256000,8.173255859375,4.884555417600274,1.5319010860957205,0.633453824507445
1782969369756181800,8.183181640625,5.906043660184741,1.736514288754761,0.5767293361142277
1782969369766108700,8.193108642578125,7.324024206459522,2.0700617682322857,0.7364939277432858
1782969369776034800,8.203034912109375,9.187053289800883,2.343088581904024,1.1833905768945812
1782969369785961200,8.212961181640624,10.99381746508479,2.596173846787214,1.7163471145167946
1782969369795887000,8.22288720703125,12.414834602576493,2.9368992550700903,2.1841810454957185
1782969369805813000,8.23281298828125,13.30980425118208,3.2205569144800306,2.4170060510300098
1782969369815740200,8.242740234375,13.972535169708728,3.496722172307968,2.4020642102248964
1782969369825666300,8.252666259765626,14.583106861931086,3.7212338152661917,2.212746191853285
1782969369835592000,8.262592041015624,15.279046807098387,3.8189156063392757,1.8794485954836009
1782969369845518000,8.27251806640625,16.087629965627194,3.7312767781138416,1.2833560949906706
1782969369855444200,8.2824443359375,16.659570606160162,3.355418097129464,0.5799751131024211
1782969369865371000,8.292370849609375,16.967606627762315,3.0333535501748323,0.06444923742637038
1782969369875297000,8.302297119140626,17.104539063727856,2.9289418663248417,-0.13179412322901188
1782969369885223200,8.31222314453125,16.90286381421685,2.815966936790943,0.07130348723530769
1782969369895149000,8.322149169921875,16.427492035079002,2.7139167213752864,0.42450441927500066
1782969369905075200,8.3320751953125,15.712549283277987,2.8119559475839138,0.8944318154018371
1782969369915001000,8.3420009765625,14.891113657438755,3.02571092646718,1.522299875666201
1782969369924928300,8.35192822265625,14.482539870810507,3.352518284034729,2.386520311873406
1782969369934854100,8.361854248046875,14.468393272036312,3.476291378697753,2.994665799862146
1782969369944780000,8.371780029296875,13.956357941889761,3.469989063683152,2.751547656111419
1782969369954706200,8.3817060546875,12.517532760506867,3.4890134976267815,1.8405860731258987
1782969369964632000,8.391632080078125,9.948810399746895,3.3210973098546264,0.3680173198342323
1782969369974559000,8.40155908203125,5.798810196912289,2.471474284929037,-2.351393322782218
1782969369984485000,8.411485107421875,-1.1198089160829783,1.015306192948669,-5.816168158948421
1782969369994411000,8.421410888671875,-10.730419042110443,-0.017257058944925664,-9.029548021405935
1782969370004337200,8.431337158203124,-22.458593569040296,0.07225939972065389,-13.188104455661772
1782969370014263000,8.441262939453125,-34.765627137589455,0.2765419091206044,-19.18318541269302
1782969370024190200,8.451190185546874,-44.833838992786404,-0.6269700154460967,-25.502082144260406
1782969370034116000,8.4611162109375,-48.71862290956974,-2.3654084041312338,-30.53337535252571
1782969370044042000,8.4710419921875,-44.8555972356081,-3.8485800922408697,-31.884427557909486
1782969370053968100,8.480968017578125,-34.82458201538324,-3.9798786139726636,-28.06395273942947
1782969370063894000,8.49089404296875,-22.896012341880798,-2.5873048961549996,-21.592636079907415
1782969370073821200,8.5008212890625,-12.619398559266328,-1.1138343717180192,-14.751840795826912
1782969370083747000,8.5107470703125,-5.899739007082581,-0.16587927511706949,-9.069904581713676
1782969370093673000,8.5206728515625,-2.7897926310926673,0.2902553041093051,-5.3891801792293785
1782969370103599000,8.53059912109375,-1.319420803323388,0.5024151227556168,-2.815166434063017
1782969370113525200,8.540525146484375,-0.3885580035597086,0.8268024135693908,-0.7796811814323067
1782969370123452200,8.5504521484375,0.4698761043310165,1.2915925929382444,0.7083113509625196
1782969370133378000,8.5603779296875,1.1941232755720614,1.6246980277366936,1.493170519554615
1782969370143304200,8.57030419921875,2.1571692660599946,1.7986448739752172,1.9736001666039227
1782969370153230000,8.58022998046875,3.0554011313319203,1.8390499495998023,2.352861934030056
1782969370163156000,8.590156005859376,3.9941555611282586,1.8878169031172989,2.638394155140221
1782969370173082000,8.60008203125,4.9718508392155165,2.1123231392480433,3.127176912254095
1782969370183009000,8.610009033203125,5.849876367282867,2.350915330006927,3.66101637019068
1782969370192935000,8.619934814453124,6.54540597808361,2.6480557174548505,4.023513757559657
1782969370202861000,8.629861083984375,7.042116313326359,2.8776380878061056,4.387300600217283
1782969370212787200,8.639787109375,8.031385124829411,3.1152628948375582,4.938185885500908
1782969370222713000,8.649713134765625,9.752387663936615,3.5637995662808417,5.58996286381483
1782969370232640000,8.659639892578125,11.728450421261787,3.901146730302274,6.2915305857360355
1782969370242566100,8.669566162109374,13.24268126450181,3.974872183987498,6.8470011529833075
1782969370252492300,8.6794921875,14.407641573953628,3.9960760077968236,7.037240231722593
1782969370262418000,8.68941796875,15.399965681374072,3.8919995472505686,6.903569427901506
1782969370272344000,8.699343994140625,16.163358283567426,3.5877564881905912,6.668009444445371
1782969370282271200,8.709271240234376,16.621909860807655,3.1902906632930037,6.548450168085098
1782969370292196900,8.71919677734375,16.657089895260334,2.8042852668255565,6.548205837935209
1782969370302123000,8.729123046875,16.408897224724292,2.4543089228555557,6.63438599178493
1782969370312049200,8.739049072265624,15.97230379679203,2.203767643366754,6.786416043639183
1782969370321975000,8.74897509765625,15.210174930924177,2.022363905251026,6.961070015233755
1782969370331901200,8.758901123046876,14.175492860245704,2.052664643229544,7.077530741056799
1782969370341828000,8.768828125,13.069879058253765,2.201607250462472,7.139054592555761
1782969370351754200,8.778754150390625,12.05135200356245,2.321137300728261,7.276516605353355
1782969370361680100,8.78868017578125,11.146008260458707,2.273224041430652,7.19998632338047
1782969370371606000,8.79860595703125,10.088499440944194,1.8623114365912974,6.448783340674638
1782969370381532200,8.8085322265625,8.900878971394896,1.2305610550008714,5.436210225951672
1782969370391459000,8.818458984375,7.619620433205366,0.524636306913942,4.267048373156785
1782969370401385000,8.828385009765626,6.036992930087447,-0.23036884455382822,2.956028318431973
1782969370411311000,8.83831103515625,3.334166050264239,-0.5559045747503638,1.474676831486821
1782969370421237000,8.848237060546875,-2.2332781077504156,0.3852952023714781,-0.5808049149900675
1782969370431163100,8.8581630859375,-10.939888306498528,1.8710496004506945,-4.278133246272802
1782969370441090000,8.868090087890625,-20.464127724540234,2.1230279270052907,-9.770911162620783
1782969370451016200,8.87801611328125,-28.552884257364273,-0.1547756973005831,-16.72328232309222
1782969370460942000,8.887942138671875,-34.20801429761648,-3.04458513828516,-23.93492752008438
1782969370470868200,8.8978681640625,-36.205348975551125,-4.751199963338673,-28.851614690482613
1782969370480794000,8.907794189453124,-33.85308091576099,-5.830622800758481,-29.522477477538583
1782969370490721000,8.917720947265625,-28.007099802350996,-5.436863136902451,-26.086033540582655
1782969370500647200,8.927647216796874,-21.301518459880352,-3.1727994302660223,-20.224803420114515
1782969370510573000,8.937572998046875,-14.552043030625581,-0.9627603054143488,-13.608858509427309
1782969370520499000,8.9474990234375,-9.849774855977296,0.5768207407247274,-8.209609356126188
1782969370530425000,8.957425048828124,-7.291476858597993,1.3008461589738727,-4.916241764718293
1782969370540351200,8.967351318359375,-6.161159992504119,1.6634610352426766,-2.899031588968634
1782969370550278100,8.977278076171874,-5.5998722634106874,1.8066174602895975,-1.3449597337275743
1782969370560204000,8.9872041015625,-4.723126253759861,2.1557108839452264,-0.06996200949847697
1782969370570130200,8.997130126953126,-3.8919583384573455,2.3042624460339547,0.7013204691618681
1782969370580056000,9.00705615234375,-2.754865694618225,2.1262550723582505,1.0728571952939032
1782969370589982000,9.01698193359375,-1.3306623283058405,1.8769253606162963,1.1735405062705278
1782969370599909000,9.0269091796875,0.1249947454124689,1.7093363589718937,1.222358605453372
1782969370609835300,9.036835205078125,1.5452496663600206,1.6549568262696266,1.3431184897750614
1782969370619761000,9.046760986328126,3.103453506839275,1.7881768175832926,1.8460265106141567
1782969370629687000,9.05668701171875,4.5853433384448286,2.006289553284645,2.4965970357477665
1782969370639613200,9.06661328125,5.981027881759405,2.4026564770296215,3.226212163762748
1782969370649540000,9.0765400390625,7.624823847067356,2.87714475133121,4.054095358306169
1782969370659466000,9.086466064453125,9.763770058694481,3.3551965633332728,5.026345230469107
1782969370669392100,9.09639208984375,12.452301286661625,3.821299578866362,6.1612196137368676
1782969370679318300,9.106318359375,15.112793584102391,4.3494057538479565,7.246120298045874
1782969370689244000,9.116243896484375,17.27967234327197,4.5774914559006685,8.123209422045946
1782969370699171000,9.126171142578125,18.47387277573347,4.716986143569648,8.393986849355697
1782969370709097200,9.13609716796875,18.93706311869025,4.84156412487477,8.389117197492718
1782969370719023000,9.146023193359374,19.193126960992814,4.193433101847767,8.543170864129065
1782969370728949000,9.155948974609375,18.624394176590442,4.331702339375019,7.40991151484251
1782969370738875100,9.165875244140626,18.245303674077988,4.062999380251765,6.561921059554815
1782969370748801000,9.175801025390625,17.83965249689817,3.529908110333979,6.004028233596682
1782969370758728000,9.18572802734375,17.44396040367484,3.019095892241597,5.33716299174428
1782969370768654000,9.195654052734374,16.80562392169237,2.524046768209338,4.471588948971033
1782969370778580200,9.205580322265625,15.75447119320631,1.73857253645882,3.561595918756723
1782969370788505900,9.215505859375,14.754960973674057,0.9112649498462676,2.74903684233427
1782969370798431700,9.225431640625,14.375439094007014,0.5540265059188008,2.285031675863266
1782969370808358700,9.235358642578126,14.22425367628336,0.3595611877866089,2.2245412590652704
1782969370818284800,9.245284912109375,13.788431817245483,-0.17251242952123283,2.086795899281651
1782969370828210700,9.255210693359375,12.644538845741748,-0.6972387528061866,1.68187625124678
1782969370838136600,9.265136474609376,10.199225422507524,-0.8562594672653824,1.4017591870531438
1782969370848062700,9.275062744140625,5.194839510390162,-0.6395806368246674,0.7714087353885173
1782969370857990000,9.284989990234376,-3.3872616806358096,0.23351983766434714,-1.0616855206772684
1782969370867915500,9.29491552734375,-14.235743038547039,0.873936943579465,-4.067203846204281
1782969370877841700,9.304841552734375,-23.751808502483367,0.5036640633707866,-7.7540797570556395
1782969370887767800,9.314767822265624,-31.871900084769724,0.07433649825565516,-12.525841154646873
1782969370897693700,9.324693603515625,-38.779693267846106,-0.6620293461285531,-18.214442087346313
1782969370907620600,9.33462060546875,-42.392454725694655,-1.3369205119177698,-23.919849193418024
1782969370917546800,9.344546630859375,-41.39501722078323,-1.5280992095947266,-27.003592622137067
1782969370927472600,9.35447265625,-36.021420979654785,-1.2976499932810663,-26.04533211236
1782969370937398800,9.364398681640624,-27.153204506933687,-0.6410941101275384,-22.262399965810776
1782969370947324700,9.37432470703125,-17.071415377283095,0.13401749836690724,-17.70914629458785
1782969370957250600,9.38425048828125,-8.649854876825213,0.7163294569190591,-13.34632050267458
1782969370967177700,9.394177734375,-3.7263141872704026,1.1496679747086018,-9.80998761999011
1782969370977103600,9.404103515625,-0.847143483069539,1.4355159107044337,-6.894428674590587
1782969370987029800,9.41402978515625,1.0730623624771833,1.7877505549952386,-4.614415119150281
1782969370996955600,9.42395556640625,1.5677718792915343,2.147043301104009,-2.974425268127024
1782969371006881800,9.4338818359375,1.5603484512925148,2.351308274847269,-1.749653464052081
1782969371016808700,9.44380859375,2.0536931094944477,2.5973721166610715,-0.9843962370306253
1782969371026734600,9.453734619140626,2.8313129744827745,2.7302944402024147,-0.3501990468099713
1782969371036660700,9.46366064453125,3.5449575031667946,2.849126863592863,0.33066023360341784
1782969371046586600,9.473586669921875,4.199872194984555,3.015103023213148,0.9741077749893069
1782969371056512500,9.483512451171874,4.88226818344593,3.119373837287724,1.4737024334967135
1782969371066438700,9.493438720703125,5.73957416408956,3.2985113840371367,1.8694579473450779
1782969371076365800,9.50336572265625,6.7162675716578955,3.436241692382097,2.3837241052836178
1782969371086291700,9.513291748046875,8.022728355643153,3.6554850395485756,2.963500261747837
1782969371096217600,9.523217529296875,9.460939789041877,3.8597669644266364,3.345184580145776
1782969371106143700,9.533143798828124,10.888485451519488,4.063345709471404,3.740082892642915
1782969371116070000,9.54306982421875,12.706170833790301,4.323496821087598,4.480878463102877
1782969371125996500,9.55299658203125,14.786161583101748,4.516109350959956,5.3952773270606995
1782969371135922700,9.562922607421875,16.655446219706533,4.5761581614702935,5.894382448485493
1782969371145848800,9.572848876953126,18.024457275629043,4.3670954320564865,5.707654008215665
1782969371155774700,9.582774658203125,18.88442224634886,3.949933265303075,5.304786908796429
1782969371165700600,9.59270068359375,19.061055409061908,3.0911852691575885,4.8214644629150625
1782969371175627800,9.602627685546874,19.101022677791118,2.4890716086789966,4.315201578690111
1782969371185553700,9.6125537109375,18.92915453752279,2.0118875194221735,4.1174288895756
1782969371195479600,9.6224794921875,18.492869737148283,1.5655278997570274,4.155181112603843
1782969371205405700,9.63240576171875,17.489909669423103,1.334975223068893,4.492097191731632
1782969371215331800,9.642331787109375,16.10111605466604,1.1689917569249868,4.686516186504066
1782969371225258500,9.652258544921875,14.557549226826428,1.0543117770388721,4.753646479707956
1782969371235184600,9.6621845703125,12.975700891387461,0.8574382287211716,4.681980004379153
1782969371245110800,9.67211083984375,11.50580018826127,0.6403511828057468,4.723145542982221
1782969371255036700,9.68203662109375,9.77087667582929,0.32730142469480633,4.798498597869277
1782969371264962600,9.691962646484376,7.190843816503882,-0.09588862404599785,4.6586105269685385
1782969371274889700,9.7018896484375,3.304115195393562,-0.7924192285828292,3.963799001309275
1782969371284816000,9.71181591796875,-2.6703818232923746,-1.4106412894278764,2.0235805875644086
1782969371294741500,9.721741455078124,-10.260843382030725,-2.2315049605980515,-0.7673959926158189
1782969371304667600,9.731667724609375,-17.55502190080285,-2.8363913006603716,-3.6344407902151343
1782969371314593800,9.74159375,-24.631570060563085,-3.373820307521522,-6.993808501753211
1782969371324519700,9.751519775390625,-33.09719123654365,-3.547540213136375,-10.665123270857334
1782969371334446600,9.761446533203125,-40.849125213742255,-2.8559458959579467,-14.97519596222639
1782969371344372700,9.771372802734374,-43.046525367903705,-2.089786167138815,-18.263681042289733
1782969371354298600,9.781298583984375,-38.738613069438934,-1.8664689946621655,-18.361886564975975
1782969371364224800,9.791224853515626,-30.19599165588617,-1.98978411642462,-15.404206972205637
1782969371374150700,9.801150634765625,-21.251532485961913,-1.317747901675105,-11.781902609986066
1782969371384077800,9.811077880859376,-14.05985104959011,-0.2787812855452299,-8.272749410650134
1782969371394003700,9.821003662109375,-9.24511443362534,0.510120144174993,-5.343392241522669
1782969371403929600,9.8309296875,-6.439853599765897,1.2736815270639956,-3.5509690185412763
1782969371413855700,9.840855712890624,-4.994349086749553,2.119317235919088,-2.39631792165786
1782969371423781600,9.85078173828125,-4.063604360407591,2.8951091548278924,-1.5458113918960092
1782969371433707800,9.860707763671876,-2.9325416443824768,3.4706115794956682,-0.9681623105883598
1782969371443634700,9.870634765625,-1.4812562098771334,3.5818995788559316,-0.7527522579744458
1782969371453560600,9.880560546875,-0.061737201988697046,3.41286783105731,-0.8285673774152994
1782969371463486700,9.89048681640625,0.8819336414217949,3.2704119554951787,-0.9285381562083959
1782969371473412900,9.900412841796875,1.4968997692108152,3.270728181837499,-0.982882325336337
1782969371483338500,9.91033837890625,2.1642858200669286,3.3821856925457716,-1.0518722749322653
1782969371493265700,9.920265625,3.065422759130597,3.512013264942169,-0.9922245925687253
1782969371503191800,9.93019189453125,4.424940595042705,3.793382813414931,-0.6582409136310219
1782969371513117700,9.94011767578125,6.263758781713247,4.130418135008216,-0.4128438651628792
1782969371523043600,9.950043701171875,8.190282139843703,4.29203200776577,-0.20862207297421992
1782969371532969700,9.9599697265625,10.172517448323964,4.24456824580133,0.19350830966830251
1782969371542896600,9.969896728515625,12.093409522569178,3.980895974321663,0.4288615915711969
1782969371552822500,9.979822509765626,13.949822987163065,3.6134836346432566,0.39480866145230825
1782969371562748700,9.989748779296875,15.432890630376338,3.433665996675193,0.2247094305526465
1782969371572674800,9.9996748046875,16.461975319439173,3.444085976141691,0.1775308056725189
1782969371582600700,10.0096005859375,17.06158138101101,3.3427585220426317,-0.06373579192738979
1782969371592527600,10.019527587890625,17.24800645442009,3.1584666612699626,-0.584906432024762
1782969371602453800,10.029453857421874,17.259201217651366,3.1148782794341443,-1.0521980728205294
1782969371612380000,10.0393798828125,16.96937188386917,2.9890920913830397,-1.42306500993222
1782969371622305500,10.049305419921875,16.465476605558393,2.44135767134577,-1.9685067889876662
1782969371632231700,10.059231689453124,16.28091966410875,2.0302780393764377,-1.9279289871446788
1782969371642158800,10.069158935546875,16.116586010998486,1.6214800886034964,-1.8646561000213027
1782969371652084500,10.07908447265625,16.054599802684784,1.3917889971807598,-1.2095067957300691
1782969371662010600,10.0890107421875,15.73708751220703,1.2651651892617344,-0.45056233205199236
1782969371671936800,10.098936767578126,15.193722977817057,1.1180836997255683,0.4004844785990193
1782969371681862700,10.108862548828125,13.749460573816298,0.931156522013247,0.8668819835666567
1782969371691788800,10.118788818359375,11.707879926919937,0.49679275282919405,0.885389042572677
1782969371701715700,10.1287158203125,9.03213277720213,-0.005545943689346313,0.21770718710776418
1782969371711641900,10.138641845703125,4.566892904996871,-0.42642873840108514,-1.543056686360389
1782969371721567700,10.148567626953126,-1.2428724011719225,-2.0503091661445794,-4.467306449346244
1782969371731493600,10.15849365234375,-6.857082986536621,-4.502559549035132,-6.84296912098825
1782969371741419800,10.168419677734375,-11.956577624368666,-5.258537198796868,-7.126181082457304
1782969371751346700,10.1783466796875,-22.47971351395845,-2.082644770951569,-7.54419139047265
1782969371761272600,10.1882724609375,-35.77267652045488,2.2796448682583867,-6.644795742118358
1782969371771198700,10.19819873046875,-41.75881429257392,3.8686946595087646,-5.649414585214853
1782969371781124600,10.20812451171875,-41.12183039424419,3.2550843302428722,-7.407336111396551
1782969371791050800,10.21805078125,-35.41152382569313,1.8741192171543835,-9.134974142995476
1782969371800977400,10.227977294921875,-27.35214302495718,0.5479073654513805,-10.657047516429424
1782969371810903600,10.237903564453125,-18.583250849819184,-0.4998997789338231,-10.216064329105615
1782969371820829700,10.24782958984375,-10.996696819913387,-0.514624177595973,-8.422806116604805
1782969371830755600,10.257755615234375,-5.858299327713251,-0.035324411359429354,-6.21563626357913
1782969371840681500,10.267681396484376,-2.3604309079796075,-0.1280678692474961,-4.348153123438358
1782969371850608600,10.277608642578125,0.2235468895792961,-0.16705197215825318,-2.6746695836141705
1782969371860534800,10.28753466796875,1.9660224248260258,0.09282105316892265,-0.8641843419805169
1782969371870460400,10.29746044921875,3.1050621110796928,0.3084662297129631,0.5740374666817486
1782969371880386600,10.307386474609375,3.719118138286471,0.48609804807454343,1.465506121429056
1782969371890312700,10.317312744140626,3.646894029074907,0.6083376495599746,1.8639744013674555
1782969371900238600,10.327238525390625,3.414400447452068,0.8748303852878511,1.7809487660259007
1782969371910165500,10.33716552734375,3.3283266765862702,1.1582486829839647,1.4217748239912091
1782969371920091600,10.347091552734375,3.7267753750413655,1.2619376055173575,1.1959915536619723
1782969371930017500,10.357017578125,4.690749586290121,1.308266372102499,0.8647450446031987
1782969371939943700,10.366943603515624,5.8079766691863535,1.5412462759375571,0.5073157542787492
1782969371949869600,10.37686962890625,6.719229928594827,1.598273108278215,0.3782214645929634
1782969371959796700,10.386796630859376,7.484978738525509,1.769127249198407,0.3338462432283908
1782969371969722600,10.39672265625,8.178336850506067,1.9891471336953341,0.03731595050282776
1782969371979648500,10.4066484375,8.883754818114637,2.0995102732956408,-0.233958904935047
1782969371989574700,10.41657470703125,9.787890354472399,2.289370435719937,-0.05831446099840104
1782969371999500500,10.42650048828125,11.070776786124705,2.6349355391189455,0.4581529333114624
1782969372009427500,10.436427490234376,12.383418889093399,2.862341734474897,0.9677532183308154
1782969372019353600,10.446353515625,13.303748604404925,3.137439655332267,1.3876375765897333
1782969372029279500,10.456279541015626,13.97618726247549,3.3549972413688898,1.8229282513603566
1782969372039205600,10.46620556640625,14.329769229722022,3.4253602328836914,2.0242345214284954
1782969372049131500,10.476131591796875,14.167562067246436,3.5609538214609024,2.0319792903363703
1782969372059057400,10.486057373046876,13.828805913209914,3.691016371656954,1.9149065700948238
1782969372068984600,10.495984619140625,13.361644328534602,3.5481808491274713,1.7016691853448747
1782969372078910500,10.505910400390626,12.980185343325138,3.13155994964391,1.4244139403231442
1782969372088836600,10.515836669921875,12.796371913719177,2.679655847594142,1.3559649657361208
1782969372098762500,10.525762451171875,12.690012310671806,2.1813418765470383,1.583574428579211
1782969372108688600,10.535688720703124,12.163949624216556,1.5718907127872108,2.1440707150340077
1782969372118615600,10.545615478515625,11.69226384011507,0.4180070931449532,3.0358199402883645
1782969372128541400,10.55554150390625,11.886044536983967,-1.005148517680168,3.8987233025476336
1782969372138467600,10.565467529296875,11.894945636320113,-2.0405716159842906,4.389468007384241
1782969372148393700,10.575393798828125,8.299322944799066,-2.163883084484935,3.9303205100774763
1782969372158319400,10.5853193359375,-2.1221353620797396,-1.214893091878295,1.852124535228312
1782969372168246500,10.59524658203125,-17.346265753120182,0.7700812861770391,-2.790475937181711
1782969372178172700,10.605172607421874,-31.307901927673814,-0.6521989300530403,-9.557370703271031
1782969372188098600,10.6150986328125,-35.614827553188796,-2.712736571680009,-10.19674938778281
1782969372198024400,10.6250244140625,-40.27678943641185,-0.9541728751372546,-8.87506005500555
1782969372207950600,10.63495068359375,-40.384612682271005,1.4097415641091764,-5.298419711852073
1782969372217877500,10.64487744140625,-35.04324697813988,2.018081990148127,-3.194012314164638
1782969372227803400,10.654803466796874,-26.16577167868614,1.3582470853239297,-2.765690455493331
1782969372237729500,10.6647294921875,-16.25049062357545,0.3200831638790667,-1.7767156585007904
1782969372247655700,10.67465576171875,-8.196269397559762,-0.37401992124989625,-0.5794063002385199
1782969372257581600,10.68458154296875,-2.9495155755370854,-0.8864809294626116,0.9591095278218388
1782969372267507500,10.694507568359375,-0.12787760737240314,-1.2924682067289948,1.3479603768482804
1782969372277434600,10.7044345703125,1.505372998523712,-1.638895479915291,1.35101494211331
1782969372287360800,10.71436083984375,2.245219305434823,-1.7119143927663563,1.3923565679356456
1782969372297286400,10.724286376953126,2.5126374854445457,-1.511449395827949,1.4082172771513461
1782969372307212500,10.734212646484375,2.7029204033255576,-1.1399205607414244,1.4047750277429818
1782969372317138700,10.744138671875,2.939184151136875,-0.8682575827687978,1.355425744292885
1782969372327065300,10.7540654296875,3.3509313071042297,-0.6805076904967426,1.2662053459644318
1782969372336991500,10.763991455078125,4.05655502641797,-0.6750241445191204,1.0772472469463943
1782969372346917600,10.773917724609374,4.744671146091819,-0.770804193624109,0.646391339752823
1782969372356843500,10.783843505859375,5.4260752009063955,-0.6253489901155233,0.5032055424809455
1782969372366769700,10.793769775390626,6.139044606807827,-0.15798735282346604,0.4420804810412228
1782969372376696600,10.803696533203125,6.650930299350619,0.29737682655230163,0.6410786202974618
1782969372386622700,10.813622802734375,6.816780786764621,0.721525198931247,0.6499271857287734
1782969372396548600,10.823548583984374,6.705501262971758,0.8963808305777609,0.5401887904306873
1782969372406474500,10.833474609375,6.84602617047131,0.9596030104272067,0.4495357654832303
1782969372416400600,10.843400634765626,7.24806558689475,1.0327395583085714,0.3792751018317416
1782969372426326500,10.853326416015625,7.608104182934761,1.0998488087244331,0.39057840347141026
1782969372436253400,10.86325341796875,7.895719347798824,0.9723695530198514,0.3176225093865767
1782969372446179600,10.8731796875,8.148355553740263,0.9855136967532336,0.3276629880161956
1782969372456105500,10.88310546875,8.348124677368999,1.0338748459488152,0.41521169027276333
1782969372466031600,10.893031494140626,8.259040034249425,1.1209019720166922,0.5662945974700152
1782969372475957800,10.902957763671875,7.899700526389479,1.1838989648081362,0.5052496155291796
1782969372485884700,10.912884765625,7.281725864434242,1.1340906855441628,0.17963767829127608
1782969372495810600,10.922810546875,6.6502937550127506,1.0483012845776976,-0.261279458058998
1782969372505736700,10.93273681640625,6.099743108510971,0.9613364100910723,-0.4406514711514115
1782969372515662600,10.94266259765625,5.518535457938909,0.8565056240461766,-0.4690870728451758
1782969372525588500,10.95258837890625,4.688276474174857,0.7120442538805306,-0.5780505017153919
1782969372535515600,10.962515625,3.316314751753211,0.47640053766369816,-0.6218360866237431
1782969372545441500,10.972441650390625,1.8835358647972344,0.44557022285312414,-0.3660439008694142
1782969372555367400,10.982367431640625,0.6019353813022374,0.5028963304013013,0.08591858030408621
1782969372565293600,10.99229345703125,-0.13310440210998056,0.5455493310831487,0.29176103249713775
1782969372575219700,11.0022197265625,-0.6600467940092086,0.16080109506994486,0.051253801897168154
1782969372585146600,11.012146728515624,-0.8705114991754292,-0.3379972984932363,-0.605296966689825
1782969372595072500,11.022072509765625,-1.4767419473230838,-0.4936686294592917,-1.365310009447485
1782969372604998700,11.03199853515625,-3.153756876143813,-0.7444993934139609,-2.1391025712326166
1782969372614924500,11.041924560546875,-5.890540970626473,-0.8999940526388585,-3.021163930687308
1782969372624850400,11.051850341796875,-9.488934295904636,-0.7691942742094398,-3.7343075241118666
1782969372634776600,11.061776611328124,-12.68560033944845,-0.5186223073214292,-4.310004302307963
