time,seconds_elapsed,z,y,x
1782969361645249000,0.0722490234375,0.17274227738380432,1.5778782367706299,0.17688509821891785
1782969361655175200,0.082175048828125,0.1807192862033844,1.2669299840927124,0.22580981254577637
1782969361665101300,0.092101318359375,0.12360567599534988,0.8578525185585022,0.24052883684635162
1782969361675027200,0.102027099609375,0.014620082452893257,0.52117520570755,0.15702764689922333
1782969361684953000,0.111953125,-0.09410746395587921,0.2802283465862274,0.03197810426354408
1782969361694880300,0.12188037109375,-0.17622657120227814,0.2620915472507477,-0.11121561378240585
1782969361704806100,0.13180615234375,-0.20548805594444275,0.42066332697868347,-0.22755208611488342
1782969361714732300,0.141732177734375,-0.18366727232933044,0.5503112077713013,-0.33544689416885376
1782969361724658200,0.151658203125,-0.1210867241024971,0.5754045844078064,-0.40006181597709656
1782969361734584000,0.161583984375,-0.059815697371959686,0.4648219347000122,-0.3502378463745117
1782969361744510200,0.17151025390625,-0.057987701147794724,0.248907208442688,-0.163531094789505
1782969361754437000,0.18143701171875,-0.10196343064308167,0.10199189186096191,0.08905845880508423
1782969361764363300,0.19136328125,-0.20437289774417877,0.055143166333436966,0.30041971802711487
1782969361774288600,0.20128857421875,-0.30565202236175537,0.10524000227451324,0.40131163597106934
1782969361784214500,0.211214599609375,-0.3815816640853882,0.29769548773765564,0.40309277176856995
1782969361794140700,0.221140625,-0.4463978111743927,0.5483654737472534,0.37848514318466187
1782969361804067600,0.231067626953125,-0.49964746832847595,0.7215782403945923,0.3278816342353821
1782969361813993500,0.240993408203125,-0.5448411107063293,0.7329807281494141,0.2662109434604645
1782969361823919600,0.250919677734375,-0.5496070981025696,0.610440194606781,0.21765834093093872
1782969361833845500,0.260845458984375,-0.5203189253807068,0.37610962986946106,0.16245265305042267
1782969361843771400,0.270771484375,-0.49555420875549316,0.10418836027383804,0.09528320282697678
1782969361853698600,0.280698486328125,-0.48718488216400146,-0.11984063684940338,0.017792273312807083
1782969361863624400,0.29062451171875,-0.48685064911842346,-0.2767713665962219,-0.052489083260297775
1782969361873550600,0.300550537109375,-0.5031207799911499,-0.3956468403339386,-0.1302904486656189
1782969361883476500,0.3104765625,-0.519415020942688,-0.45530909299850464,-0.2402835339307785
1782969361893402600,0.320402587890625,-0.5280497074127197,-0.4672512412071228,-0.3558734655380249
1782969361903329500,0.33032958984375,-0.5126577019691467,-0.419189453125,-0.4570309817790985
1782969361913255400,0.34025537109375,-0.4606703519821167,-0.3562035858631134,-0.5227310657501221
1782969361923181600,0.350181640625,-0.3689529597759247,-0.3422430455684662,-0.5446019768714905
1782969361933107700,0.360107666015625,-0.2886878550052643,-0.39626914262771606,-0.5033158659934998
1782969361943033300,0.370033447265625,-0.2071130871772766,-0.5435739159584045,-0.46036094427108765
1782969361952960500,0.37996044921875,-0.10443712025880814,-0.8101615905761719,-0.4330593943595886
1782969361962886700,0.38988671875,0.02587401308119297,-1.2399348020553589,-0.5100697875022888
1782969361972812500,0.3998125,0.09879331290721893,-1.8641353845596313,-0.7540353536605835
1782969361982738400,0.409738525390625,0.06979601085186005,-2.600759267807007,-1.0768485069274902
1782969361992664600,0.41966455078125,-0.005640819668769836,-3.4099137783050537,-1.4540832042694092
1782969362002590700,0.4295908203125,-0.02226507104933262,-4.240581512451172,-1.9133813381195068
1782969362012517400,0.439517333984375,0.0977720394730568,-5.015748023986816,-2.3513500690460205
1782969362022443500,0.449443603515625,0.3312271237373352,-5.6843485832214355,-2.5353245735168457
1782969362032369700,0.45936962890625,0.5863985419273376,-6.253089427947998,-2.3198275566101074
1782969362042295600,0.469295654296875,0.785793662071228,-6.584124565124512,-1.5653575658798218
1782969362052221400,0.479221435546875,0.9405619502067566,-6.414727687835693,-0.18987010419368744
1782969362062148600,0.489148681640625,1.0828229188919067,-5.5494184494018555,1.4589041471481323
1782969362072074800,0.49907470703125,0.9999958276748657,-3.825063943862915,2.799166202545166
1782969362082000400,0.50900048828125,0.5764136910438538,-1.4775283336639404,3.4195408821105957
1782969362091926500,0.518926513671875,0.1868269294500351,0.5674540400505066,3.1444525718688965
1782969362101852700,0.528852783203125,-0.1043471097946167,2.063349485397339,2.261725664138794
1782969362111779300,0.538779296875,-0.2794526219367981,2.865304470062256,1.3424887657165527
1782969362121705500,0.54870556640625,-0.4847564995288849,3.006399154663086,0.8035943508148193
1782969362131631600,0.558631591796875,-0.6893444061279297,2.6178295612335205,0.665668785572052
1782969362141557500,0.5685576171875,-0.8203698396682739,1.9171741008758545,0.7805629372596741
1782969362151483600,0.578483642578125,-0.8285890221595764,1.0723743438720703,1.0674370527267456
1782969362161410600,0.58841064453125,-0.7187016606330872,0.2742961347103119,1.4640438556671143
1782969362171336700,0.598336669921875,-0.5118977427482605,-0.3874492943286896,1.8786795139312744
1782969362181262600,0.6082626953125,-0.24624000489711761,-0.8177860379219055,2.2314822673797607
1782969362191188500,0.6181884765625,0.018589459359645844,-0.966111958026886,2.484975576400757
1782969362201114600,0.628114501953125,0.2338988482952118,-0.849479615688324,2.6277520656585693
1782969362211041500,0.63804150390625,0.3990408778190613,-0.47539836168289185,2.470005750656128
1782969362220967400,0.647967529296875,0.44629815220832825,0.16560585796833038,1.896093726158142
1782969362230893600,0.6578935546875,0.43721312284469604,1.2795358896255493,0.8687977194786072
1782969362240819500,0.6678193359375,0.34191375970840454,2.6091737747192383,-0.3559231758117676
1782969362250745600,0.67774560546875,0.06276813894510269,3.6159305572509766,-1.3035006523132324
1782969362260671500,0.68767138671875,-0.28591474890708923,4.114678382873535,-1.7618950605392456
1782969362270598700,0.6975986328125,-0.6400697231292725,3.9865782260894775,-1.8508058786392212
1782969362280524500,0.707524658203125,-0.9773798584938049,3.3039133548736572,-1.7655490636825562
1782969362290450700,0.71745068359375,-1.1999094486236572,2.4649407863616943,-1.5654881000518799
1782969362300376600,0.72737646484375,-1.2922500371932983,1.7474604845046997,-1.2982279062271118
1782969362310302500,0.737302490234375,-1.2349311113357544,1.2254993915557861,-1.076860785484314
1782969362320229600,0.747229736328125,-1.1074796915054321,0.8627976775169373,-0.9378874897956848
1782969362330155500,0.757155517578125,-0.9338470697402954,0.6621389985084534,-0.9080542922019958
1782969362340081400,0.767081298828125,-0.7533829808235168,0.5983043313026428,-1.0114818811416626
1782969362350007600,0.777007568359375,-0.5449669361114502,0.6352139711380005,-1.2217650413513184
1782969362359933700,0.78693359375,-0.35789236426353455,0.6204765439033508,-1.4713492393493652
1782969362369860600,0.796860595703125,-0.2718234062194824,0.4375413656234741,-1.6254658699035645
1782969362379786500,0.806786376953125,-0.2870023846626282,0.08615164458751678,-1.6164084672927856
1782969362389712600,0.816712646484375,-0.3581175208091736,-0.4680330753326416,-1.5273343324661255
1782969362399638500,0.826638427734375,-0.3077941834926605,-1.127537488937378,-1.4737813472747803
1782969362409564400,0.836564453125,-0.05538749694824219,-1.617664098739624,-1.5098528861999512
1782969362419490600,0.846490478515625,0.4100901782512665,-2.0147640705108643,-1.602447509765625
1782969362429417700,0.856417724609375,0.925154983997345,-2.558138608932495,-1.6300996541976929
1782969362439343400,0.86634326171875,1.3296184539794922,-3.4340291023254395,-1.5174157619476318
1782969362449269500,0.87626953125,1.5295393466949463,-4.645455837249756,-1.3066976070404053
1782969362459195600,0.886195556640625,1.5884255170822144,-5.836207866668701,-1.0744349956512451
1782969362469121500,0.89612158203125,1.6711480617523193,-6.397211074829102,-0.6277137994766235
1782969362479048400,0.90604833984375,1.7715078592300415,-5.836655616760254,0.16564485430717468
1782969362488974600,0.915974609375,1.7540959119796753,-4.275393962860107,1.0721814632415771
1782969362498900700,0.925900634765625,1.5350258350372314,-2.0905885696411133,1.8237782716751099
1782969362508826400,0.935826416015625,1.0029196739196777,0.21418122947216034,2.1439480781555176
1782969362518752500,0.94575244140625,0.42430421710014343,2.0192363262176514,1.7818357944488525
1782969362528679700,0.9556796875,-0.19457629323005676,3.0930099487304688,1.1079256534576416
1782969362538605600,0.96560546875,-0.7697024345397949,3.372714042663574,0.5181728601455688
1782969362548531500,0.975531494140625,-1.1747050285339355,3.1392033100128174,0.263092964887619
1782969362558457600,0.98545751953125,-1.3082196712493896,2.67295241355896,0.2907909154891968
1782969362568383500,0.995383544921875,-1.1661113500595093,2.1764345169067383,0.516810953617096
1782969362578310400,1.005310302734375,-0.8637911677360535,1.7582014799118042,0.85677170753479
1782969362588236500,1.015236572265625,-0.5362512469291687,1.5112539529800415,1.2155219316482544
1782969362598162700,1.02516259765625,-0.28883078694343567,1.3898111581802368,1.4866986274719238
1782969362608088600,1.035088623046875,-0.18706372380256653,1.345788598060608,1.6404143571853638
1782969362618014500,1.045014404296875,-0.2307041436433792,1.3576185703277588,1.6915901899337769
1782969362627940600,1.054940673828125,-0.3722982406616211,1.4097559452056885,1.632612705230713
1782969362637867500,1.064867431640625,-0.5543354153633118,1.3873103857040405,1.4679005146026611
1782969362647793400,1.07479345703125,-0.7616913914680481,1.353814721107483,1.2545702457427979
1782969362657719600,1.084719482421875,-0.9599898457527161,1.4036900997161865,1.0700232982635498
1782969362667645400,1.0946455078125,-1.0635225772857666,1.4792860746383667,0.813312828540802
1782969362677571600,1.104571533203125,-1.062307596206665,1.6408408880233765,0.4579235911369324
1782969362687498500,1.11449853515625,-0.9958207607269287,1.8976328372955322,0.05527682229876518
1782969362697424600,1.124424560546875,-0.9325171113014221,2.160752058029175,-0.26007527112960815
1782969362707350500,1.1343505859375,-0.914364755153656,2.3804805278778076,-0.4470377564430237
1782969362717276700,1.144276611328125,-1.0117616653442383,2.507817506790161,-0.48335981369018555
1782969362727202600,1.15420263671875,-1.209525227546692,2.435117483139038,-0.4357544481754303
1782969362737129500,1.16412939453125,-1.3659193515777588,2.173011541366577,-0.48851752281188965
1782969362747055600,1.1740556640625,-1.5323704481124878,1.761469841003418,-0.7308358550071716
1782969362756981500,1.1839814453125,-1.696359395980835,1.246417760848999,-1.0928720235824585
1782969362766907400,1.193907470703125,-1.8144861459732056,0.6748143434524536,-1.4327739477157593
1782969362776834000,1.203833984375,-1.7966850996017456,0.008577194064855576,-1.6233230829238892
1782969362786760200,1.21376025390625,-1.7914564609527588,-0.650956928730011,-1.866127848625183
1782969362796686800,1.223686767578125,-1.6056619882583618,-1.1381441354751587,-2.0099780559539795
1782969362806613000,1.233613037109375,-1.3340014219284058,-1.4348556995391846,-2.105698585510254
1782969362816539100,1.2435390625,-0.966907799243927,-1.5358760356903076,-2.1208369731903076
1782969362826464800,1.25346484375,-0.5673562288284302,-1.526222825050354,-2.0407705307006836
1782969362836391000,1.263390869140625,-0.18406794965267181,-1.5597509145736694,-1.8976935148239136
1782969362846318000,1.273318115234375,0.07171343266963959,-1.7991693019866943,-1.6797480583190918
1782969362856244000,1.283243896484375,0.15964995324611664,-2.2279109954833984,-1.4942042827606201
1782969362866169900,1.293169921875,0.24527788162231445,-2.7945899963378906,-1.5374943017959595
1782969362876096000,1.303095947265625,0.4191349148750305,-3.2877399921417236,-1.7840343713760376
1782969362886022100,1.313022216796875,0.6333069801330566,-3.7616512775421143,-2.0590035915374756
1782969362895948800,1.32294873046875,0.8074276447296143,-4.358335494995117,-2.1054186820983887
1782969362905875000,1.332875,0.9647977352142334,-5.049637317657471,-1.7924875020980835
1782969362915801000,1.342801025390625,1.1252869367599487,-5.593195915222168,-0.9818766713142395
1782969362925727000,1.35272705078125,1.309496283531189,-5.379258155822754,0.22509285807609558
1782969362935652900,1.36265283203125,1.3590079545974731,-4.12896203994751,1.3844635486602783
1782969362945579000,1.3725791015625,0.974770188331604,-1.9326422214508057,2.2725327014923096
1782969362955506200,1.382506103515625,0.4185578525066376,0.503860592842102,2.5530474185943604
1782969362965431800,1.392431884765625,-0.18158242106437683,2.5492238998413086,2.2396700382232666
1782969362975358000,1.40235791015625,-0.7089453339576721,3.9553654193878174,1.6353696584701538
1782969362985284000,1.4122841796875,-1.1321892738342285,4.478061676025391,1.1550850868225098
1782969362995210000,1.4222099609375,-1.3868836164474487,4.385397434234619,0.835583508014679
1782969363005137000,1.432136962890625,-1.4437261819839478,3.884348154067993,0.700927734375
1782969363015063000,1.44206298828125,-1.3921024799346924,3.1080799102783203,0.7213970422744751
1782969363024989000,1.451989013671875,-1.1568831205368042,2.222196578979492,0.8283939957618713
1782969363034915000,1.4619150390625,-0.8338795900344849,1.2941086292266846,0.9910420179367065
1782969363044841000,1.471841064453125,-0.5016440749168396,0.5305919647216797,1.1650185585021973
1782969363054766800,1.481766845703125,-0.1748414784669876,0.01053118146955967,1.341837763786316
1782969363064694000,1.491694091796875,0.13847218453884125,-0.2718127965927124,1.521686315536499
1782969363074620000,1.501619873046875,0.3338286280632019,-0.33504265546798706,1.6659899950027466
1782969363084546000,1.511546142578125,0.3465636074542999,-0.22152966260910034,1.7478951215744019
1782969363094472000,1.521471923828125,0.22488538920879364,0.035333551466464996,1.7489523887634277
1782969363104398000,1.531398193359375,0.05960734561085701,0.3896143436431885,1.6240652799606323
1782969363114325000,1.541324951171875,-0.09353134036064148,0.7578368782997131,1.3306751251220703
1782969363124251000,1.5512509765625,-0.21928264200687408,1.0441322326660156,0.9056781530380249
1782969363134177000,1.561177001953125,-0.3244021534919739,1.226392149925232,0.4943014979362488
1782969363144103200,1.571103271484375,-0.218074232339859,1.254790186882019,0.14274808764457703
1782969363154028800,1.58102880859375,-0.032296642661094666,1.1206704378128052,-0.08160991966724396
1782969363163956000,1.5909560546875,0.19047488272190094,0.9583211541175842,-0.15144170820713043
1782969363173882000,1.600882080078125,0.4293646812438965,0.8618540167808533,-0.11421550810337067
1782969363183808000,1.61080810546875,0.6891749501228333,0.799068033695221,-0.04698320850729942
1782969363193734000,1.62073388671875,0.9140445590019226,0.730177104473114,0.03125087544322014
1782969363203660000,1.630659912109375,1.0705082416534424,0.6143282651901245,0.09613712131977081
1782969363213587000,1.6405869140625,1.1380904912948608,0.38650766015052795,0.15084511041641235
1782969363223512800,1.650512939453125,1.1317676305770874,0.09389370679855347,0.1765182614326477
1782969363233439000,1.66043896484375,1.0822384357452393,-0.20402134954929352,0.09125716239213943
1782969363243365000,1.670365234375,0.9761961698532104,-0.466576486825943,-0.08832601457834244
1782969363253291000,1.680291015625,0.8777076601982117,-0.6394066214561462,-0.3337525725364685
1782969363263217000,1.690216796875,0.7242428064346313,-0.7890819311141968,-0.6273174285888672
1782969363273144000,1.70014404296875,0.5736820697784424,-0.9214461445808411,-1.0190162658691406
1782969363283070200,1.7100703125,0.5016310214996338,-0.9625535011291504,-1.4367707967758179
1782969363292995800,1.719995849609375,0.5173710584640503,-1.0103557109832764,-1.8315612077713013
1782969363302922000,1.729921875,0.6071999073028564,-1.3533265590667725,-2.070697546005249
1782969363312848100,1.73984814453125,0.8418576717376709,-2.2481911182403564,-2.0376439094543457
1782969363322774800,1.74977490234375,1.2019752264022827,-3.6497035026550293,-1.7995251417160034
1782969363332701000,1.759700927734375,1.6656177043914795,-5.1465163230896,-1.2229446172714233
1782969363342627000,1.769626953125,2.0688376426696777,-6.221203327178955,-0.3091922104358673
1782969363352553000,1.779552978515625,2.211500644683838,-6.24474573135376,0.6098878383636475
1782969363362478800,1.789478759765625,1.7355724573135376,-4.665493488311768,1.2054123878479004
1782969363372405000,1.799405029296875,0.8009552955627441,-1.9324935674667358,1.1835473775863647
1782969363382332200,1.809332275390625,-0.19103197753429413,1.1431422233581543,0.8079620003700256
1782969363392258000,1.819258056640625,-1.01063072681427,3.8303890228271484,0.3000550866127014
1782969363402184000,1.829183837890625,-1.479776382446289,5.474870681762695,-0.1946531981229782
1782969363412110000,1.839110107421875,-1.630709171295166,5.855993747711182,-0.4530234932899475
1782969363422036000,1.849035888671875,-1.5760456323623657,5.2584052085876465,-0.3668239116668701
1782969363431963000,1.858962890625,-1.4051508903503418,4.055450916290283,-0.006339481566101313
1782969363441889000,1.868888916015625,-1.1229362487792969,2.599663019180298,0.4755282402038574
1782969363451815000,1.87881494140625,-0.7547292113304138,1.1855378150939941,0.9333540797233582
1782969363461741000,1.888740966796875,-0.35896143317222595,0.07710446417331696,1.3215926885604858
1782969363471667000,1.8986669921875,-0.013807774521410465,-0.6207675933837891,1.6380723714828491
1782969363481594000,1.908593994140625,0.23665210604667664,-0.8466435074806213,1.8808984756469727
1782969363491520000,1.91852001953125,0.34027916193008423,-0.6594390273094177,1.9897445440292358
1782969363501446000,1.92844580078125,0.31342554092407227,-0.14030630886554718,1.9342689514160156
1782969363511372000,1.9383720703125,0.18685534596443176,0.6276081800460815,1.7167158126831055
1782969363521298000,1.9482978515625,-0.037577591836452484,1.4474389553070068,1.3611115217208862
1782969363531224000,1.95822412109375,-0.34514927864074707,2.1844701766967773,0.9920434951782227
1782969363541151000,1.96815087890625,-0.6467232704162598,2.7318339347839355,0.7128829956054688
1782969363551076900,1.978076904296875,-0.8577625751495361,3.071302890777588,0.450977623462677
1782969363561003000,1.9880029296875,-1.0089055299758911,3.26080322265625,0.1671534776687622
1782969363570929200,1.99792919921875,-1.1031585931777954,3.2249996662139893,-0.18841049075126648
1782969363580854800,2.007854736328125,-1.089353084564209,2.887507677078247,-0.4757596254348755
1782969363590782000,2.017781982421875,-0.9773104786872864,2.2839837074279785,-0.6392902135848999
1782969363600708000,2.0277080078125,-0.7952688932418823,1.5615599155426025,-0.7112318277359009
1782969363610634000,2.037634033203125,-0.5974242687225342,0.8025841116905212,-0.7334442138671875
1782969363620560000,2.047559814453125,-0.40237098932266235,0.08958465605974197,-0.7276572585105896
1782969363630486000,2.057486083984375,-0.19139191508293152,-0.528007447719574,-0.6916422843933105
1782969363640412200,2.067412109375,0.01991824433207512,-1.0458765029907227,-0.6243279576301575
1782969363650338800,2.0773388671875,0.2853887975215912,-1.3905489444732666,-0.5798241496086121
1782969363660265000,2.087264892578125,0.5792619585990906,-1.603387475013733,-0.6266802549362183
1782969363670191000,2.097191162109375,0.7908080220222473,-1.749818205833435,-0.779869794845581
1782969363680117000,2.107116943359375,0.8836084008216858,-1.8943630456924438,-0.9654209613800049
1782969363690043000,2.11704296875,0.8261690735816956,-2.024071455001831,-1.1963727474212646
1782969363699970000,2.126969970703125,0.6262739896774292,-2.1573617458343506,-1.52238130569458
1782969363709896200,2.136896240234375,0.38370823860168457,-2.24568772315979,-1.8059704303741455
1782969363719821800,2.14682177734375,0.21400219202041626,-2.448806047439575,-2.296260118484497
1782969363729748000,2.156748046875,0.1364424079656601,-2.7424209117889404,-2.7604246139526367
1782969363739674000,2.166674072265625,0.1728365272283554,-3.349959373474121,-3.0288543701171875
1782969363749600800,2.176600830078125,0.3668864369392395,-4.288582801818848,-3.028954267501831
1782969363759527000,2.18652685546875,0.6751220226287842,-5.51264762878418,-2.7865521907806396
1782969363769453000,2.196453125,1.1167598962783813,-6.743325233459473,-1.9506243467330933
1782969363779379000,2.20637890625,1.698299527168274,-7.058956623077393,-0.4273746609687805
1782969363789304800,2.216304931640625,1.950291633605957,-6.072590351104736,1.2663873434066772
1782969363799230700,2.226230712890625,1.8457292318344116,-4.315522193908691,2.4909849166870117
1782969363809158000,2.236157958984375,1.318198800086975,-2.4163856506347656,2.958632469177246
1782969363819084000,2.246083984375,0.4841275215148926,-0.5630078315734863,2.69547963142395
1782969363829009700,2.256009765625,-0.44089484214782715,1.3369437456130981,1.881759524345398
1782969363838935800,2.265935791015625,-1.2036433219909668,2.954090118408203,0.8470465540885925
1782969363848861700,2.27586181640625,-1.7019498348236084,3.886204719543457,-0.011905407533049583
1782969363858788600,2.28578857421875,-1.9586323499679565,4.238027095794678,-0.47979095578193665
1782969363868714800,2.29571484375,-2.0082290172576904,4.21808385848999,-0.5088614821434021
1782969363878641000,2.305640869140625,-1.8911126852035522,3.8855984210968018,-0.2214149534702301
1782969363888566800,2.31556689453125,-1.6482893228530884,3.4099953174591064,0.20718753337860107
1782969363898493000,2.325492919921875,-1.3237658739089966,2.9472575187683105,0.6109456419944763
1782969363908419800,2.335419921875,-0.9489073157310486,2.578894853591919,0.9361748695373535
1782969363918346000,2.345345947265625,-0.6200491189956665,2.266533851623535,1.2316770553588867
1782969363928272000,2.35527197265625,-0.3165648281574249,1.942552089691162,1.5157614946365356
1782969363938197800,2.36519775390625,-0.10584385693073273,1.6690860986709595,1.795737624168396
1782969363948124000,2.3751240234375,0.034568384289741516,1.5684387683868408,2.0205512046813965
1782969363958049800,2.3850498046875,0.08052137494087219,1.6663092374801636,2.131025552749634
1782969363967976700,2.394976806640625,0.06720876693725586,1.931887149810791,2.084468364715576
1782969363977902800,2.40490283203125,0.045033957809209824,2.339656352996826,1.8353424072265625
1782969363987828700,2.414828857421875,-0.00620446028187871,2.8160414695739746,1.457094669342041
1782969363997755000,2.4247548828125,-0.013511646538972855,3.1067562103271484,1.0762717723846436
1782969364007680800,2.4346806640625,0.07036221027374268,3.0641794204711914,0.7320001125335693
1782969364017608000,2.44460791015625,0.17311707139015198,2.7050468921661377,0.39734628796577454
1782969364027533800,2.454533935546875,0.24501550197601318,2.0790438652038574,0.04466388747096062
1782969364037460000,2.4644599609375,0.2720889747142792,1.3235838413238525,-0.27170777320861816
1782969364047385900,2.4743857421875,0.2562953531742096,0.7045494318008423,-0.5221163034439087
1782969364057311700,2.484311767578125,0.24279354512691498,0.13850601017475128,-0.608698844909668
1782969364067239000,2.494239013671875,0.31417930126190186,-0.3691055476665497,-0.5931859612464905
1782969364077164800,2.504164794921875,0.4520319402217865,-0.7481621503829956,-0.5952150821685791
1782969364087090700,2.514090576171875,0.5254260301589966,-1.0598353147506714,-0.6785738468170166
1782969364097016800,2.524016845703125,0.49707427620887756,-1.331483244895935,-0.8544756174087524
1782969364106943000,2.53394287109375,0.4392152428627014,-1.5336568355560303,-1.1158031225204468
1782969364116868600,2.54386865234375,0.362964928150177,-1.670776605606079,-1.3839858770370483
1782969364126795800,2.553795654296875,0.43004757165908813,-1.705281138420105,-1.446244478225708
1782969364136722000,2.563721923828125,0.3771170973777771,-1.8318427801132202,-1.6758182048797607
1782969364146647800,2.573647705078125,0.36645594239234924,-2.0497372150421143,-1.7669379711151123
1782969364156573700,2.58357373046875,0.45180147886276245,-2.4727141857147217,-1.799344778060913
1782969364166499800,2.593499755859375,0.7789129614830017,-3.0732126235961914,-1.6012886762619019
1782969364176427000,2.603427001953125,1.2443984746932983,-4.0233588218688965,-0.9535611867904663
1782969364186352600,2.6133525390625,1.8042505979537964,-5.243084907531738,0.26963940262794495
1782969364196278800,2.62327880859375,2.289569616317749,-6.109474182128906,1.7082557678222656
1782969364206205000,2.633204833984375,2.4695332050323486,-5.992886066436768,2.781639337539673
1782969364216130800,2.643130859375,2.197232723236084,-4.8913469314575195,3.243696689605713
1782969364226056700,2.653056640625,1.4544682502746582,-2.9952855110168457,3.036707878112793
1782969364235984000,2.66298388671875,0.43817123770713806,-0.7797433137893677,2.225619316101074
1782969364245910000,2.672909912109375,-0.5982937812805176,1.1666191816329956,1.1448290348052979
1782969364255835600,2.682835693359375,-1.4178940057754517,2.458866834640503,0.10152850300073624
1782969364265761800,2.69276171875,-1.9443612098693848,2.855004072189331,-0.5444628000259399
1782969364275687700,2.702687744140625,-2.192018747329712,2.4008326530456543,-0.6446802616119385
1782969364285614800,2.71261474609375,-2.1585168838500977,1.3848942518234253,-0.309560626745224
1782969364295540700,2.722540771484375,-1.896606206893921,0.20580381155014038,0.31926122307777405
1782969364305467000,2.732466796875,-1.51536226272583,-0.929714560508728,1.0151937007904053
1782969364315392800,2.742392822265625,-1.1954716444015503,-1.975854754447937,1.5880584716796875
1782969364325319000,2.75231884765625,-1.03492271900177,-2.5042338371276855,2.028146982192993
1782969364335245800,2.762245849609375,-0.8746718168258667,-2.720513343811035,2.258230209350586
1782969364345172000,2.772171875,-0.6733799576759338,-2.9072272777557373,2.2623367309570312
1782969364355097900,2.782097900390625,-0.7060441374778748,-2.9981508255004883,2.0706653594970703
1782969364365023700,2.792023681640625,-0.8150560855865479,-2.873621702194214,1.9141398668289185
1782969364374950000,2.801949951171875,-0.9784898161888123,-2.6980676651000977,1.9403371810913086
1782969364384875800,2.811875732421875,-1.1300466060638428,-2.649787425994873,2.20204496383667
1782969364394802700,2.821802734375,-1.4689297676086426,-2.6247470378875732,2.9134881496429443
1782969364404728800,2.831728759765625,-1.4856232404708862,-3.228999376296997,3.5920231342315674
1782969364414654700,2.84165478515625,-1.4365296363830566,-3.232252597808838,3.88732647895813
1782969364424580900,2.851580810546875,-1.0597102642059326,-3.314620018005371,4.077132225036621
1782969364434507000,2.861507080078125,-0.4081108868122101,-3.2610082626342773,4.190802574157715
1782969364444434000,2.871433837890625,0.43483367562294006,-2.823697090148926,4.062396049499512
1782969364454359800,2.88135986328125,1.1210981607437134,-2.265211343765259,3.5601108074188232
1782969364464286000,2.891285888671875,1.3323776721954346,-1.6823763847351074,2.8859589099884033
1782969364474211800,2.9012119140625,1.184537649154663,-1.4561777114868164,2.198117733001709
1782969364484137700,2.9111376953125,0.7449114918708801,-1.1405822038650513,1.7092311382293701
1782969364494065000,2.92106494140625,0.2113795280456543,-0.6111027002334595,1.4553682804107666
1782969364503990800,2.93099072265625,-0.227058544754982,-0.09199374914169312,1.2116624116897583
1782969364513916700,2.940916748046875,-0.4811806082725525,0.45080551505088806,0.833807647228241
1782969364523842800,2.9508427734375,-0.5080287456512451,1.0513854026794434,0.2785142958164215
1782969364533769000,2.96076904296875,-0.38920164108276367,1.7095104455947876,-0.430985689163208
1782969364543694800,2.97069482421875,-0.14516444504261017,2.258981704711914,-1.2696566581726074
1782969364553621800,2.980621826171875,0.029435664415359497,2.4313817024230957,-2.093149423599243
1782969364563548000,2.9905478515625,0.07881200313568115,2.3511276245117188,-2.6063337326049805
1782969364573474000,3.00047412109375,-0.0022153411991894245,2.1262564659118652,-2.7331607341766357
1782969364583399700,3.010399658203125,-0.06369201838970184,1.7467691898345947,-2.613386392593384
1782969364593325800,3.020325927734375,-0.024291696026921272,1.355665683746338,-2.504720687866211
1782969364603253000,3.0302529296875,0.22962446510791779,1.0288646221160889,-2.698194742202759
1782969364613178600,3.0401787109375,0.7555713057518005,0.8810885548591614,-3.2031915187835693
1782969364623104800,3.050104736328125,1.5055078268051147,0.7463645935058594,-3.8289356231689453
1782969364633031000,3.060031005859375,2.3465347290039062,0.037335630506277084,-4.256350040435791
1782969364642956800,3.069956787109375,2.853961944580078,-1.5842421054840088,-3.8241124153137207
1782969364652882700,3.079882568359375,2.88628888130188,-3.6171367168426514,-2.156721353530884
1782969364662809900,3.089809814453125,2.806272029876709,-5.05903434753418,0.11815155297517776
1782969364672736000,3.099736083984375,2.8268721103668213,-5.226800441741943,1.9097713232040405
1782969364682662000,3.109661865234375,2.710686206817627,-4.1535115242004395,2.7103896141052246
1782969364692587800,3.119587890625,2.3470089435577393,-2.5561795234680176,2.4952940940856934
1782969364702513700,3.129513671875,1.6340293884277344,-1.0928354263305664,1.44981849193573
1782969364712440800,3.13944091796875,0.41845276951789856,0.20946763455867767,-0.10426513850688934
1782969364722366700,3.14936669921875,-0.7084675431251526,1.3287601470947266,-1.6991419792175293
1782969364732292900,3.15929296875,-1.2638745307922363,2.230651378631592,-2.77340030670166
1782969364742218800,3.16921875,-1.2609128952026367,2.562523126602173,-3.0598323345184326
1782969364752145000,3.179144775390625,-0.8310635685920715,2.372061014175415,-2.5891849994659424
1782969364762071800,3.18907177734375,-0.1281677484512329,1.8907686471939087,-1.7023669481277466
1782969364771998000,3.198998046875,0.32505151629447937,1.1833815574645996,-0.627844512462616
1782969364781923800,3.208923828125,-0.03538523614406586,0.6109835505485535,0.7488499879837036
1782969364791849700,3.218849609375,-0.25711190700531006,-0.08470472693443298,1.91830313205719
1782969364801775900,3.22877587890625,-0.21242406964302063,-0.9097751975059509,2.335261106491089
1782969364811701800,3.23870166015625,-0.0699988529086113,-1.153116226196289,2.087151527404785
1782969364821629000,3.24862890625,-0.03759190812706947,-0.969763457775116,1.398585557937622
1782969364831554800,3.258554931640625,-0.16029971837997437,-0.5893279314041138,0.5727941989898682
1782969364841480700,3.268480712890625,-0.32290568947792053,-0.02946600317955017,-0.16148462891578674
1782969364851406800,3.27840673828125,-0.5202943682670593,0.43051677942276,-0.6448991894721985
1782969364861333000,3.2883330078125,-0.7081758975982666,0.6565976142883301,-0.9184228777885437
1782969364871260000,3.298260009765625,-0.8233190178871155,0.7009456753730774,-1.0636931657791138
1782969364881185800,3.308185791015625,-0.8004413843154907,0.6219829320907593,-1.0881659984588623
1782969364891112000,3.31811181640625,-0.6613399386405945,0.47632455825805664,-0.9868349432945251
1782969364901037800,3.328037841796875,-0.48302161693573,0.25306564569473267,-0.8238438963890076
1782969364910963700,3.337963623046875,-0.2715527415275574,-0.0017064607236534357,-0.6155633330345154
1782969364920891000,3.347890869140625,-0.09774048626422882,-0.19189824163913727,-0.461528480052948
1782969364930816800,3.357816650390625,-0.03808845207095146,-0.23439167439937592,-0.45333564281463623
1782969364940742700,3.36774267578125,-0.08232355862855911,-0.08896496891975403,-0.6626513004302979
1782969364950668800,3.377668701171875,-0.1900981217622757,0.23911254107952118,-1.0955631732940674
1782969364960595000,3.387594970703125,-0.3385711908340454,0.687298059463501,-1.6132545471191406
1782969364970520800,3.397520751953125,-0.5010093450546265,1.0612683296203613,-1.9585342407226562
1782969364980447700,3.40744775390625,-0.6971269249916077,1.6390105485916138,-2.361577272415161
1782969364990374000,3.417373779296875,-0.6589027643203735,1.8594906330108643,-2.5389211177825928
1782969365000300000,3.427300048828125,-0.28023192286491394,1.549567699432373,-2.3957223892211914
1782969365010225700,3.4372255859375,0.3836762309074402,0.6911465525627136,-1.6888363361358643
1782969365020151800,3.44715185546875,1.0509333610534668,-0.5078290700912476,-0.5680031180381775
1782969365030079000,3.457078857421875,1.575755000114441,-1.8531911373138428,0.6233486533164978
1782969365040004600,3.467004638671875,1.7539013624191284,-2.6945581436157227,1.6107763051986694
1782969365049930800,3.4769306640625,1.4323447942733765,-2.547863245010376,2.1498734951019287
1782969365059857000,3.48685693359375,0.6304730772972107,-1.4144845008850098,2.0255584716796875
1782969365069782800,3.49678271484375,-0.42626672983169556,0.3225530982017517,1.2466615438461304
1782969365079709000,3.506708984375,-1.3785032033920288,2.0858893394470215,0.1771685630083084
1782969365089635800,3.5166357421875,-1.9730393886566162,3.30711030960083,-0.7346738576889038
1782969365099562000,3.52656201171875,-2.1151435375213623,3.795297145843506,-1.3410106897354126
1782969365109487900,3.53648779296875,-1.9363824129104614,3.56341814994812,-1.540813684463501
1782969365119413800,3.546413818359375,-1.5325204133987427,2.7191145420074463,-1.2395877838134766
1782969365129339600,3.556339599609375,-1.0556122064590454,1.4835526943206787,-0.49491971731185913
1782969365139266800,3.566266845703125,-0.5845053791999817,0.22689296305179596,0.4232271611690521
1782969365149192700,3.576192626953125,-0.14349466562271118,-0.7433947920799255,1.228330373764038
1782969365159118800,3.586118896484375,0.23158040642738342,-1.4200975894927979,1.7594677209854126
1782969365169044700,3.596044677734375,0.44311657547950745,-1.6937458515167236,2.0138087272644043
1782969365178971000,3.605970947265625,0.5147795677185059,-1.6018502712249756,1.997967004776001
1782969365188897800,3.615897705078125,0.46813714504241943,-1.3183056116104126,1.7641477584838867
1782969365198824000,3.625823974609375,0.33212366700172424,-0.8827866315841675,1.3855749368667603
1782969365208749800,3.635749755859375,0.15793068706989288,-0.3259021043777466,0.9075376391410828
1782969365218676000,3.645676025390625,-0.02657097391784191,0.14778076112270355,0.4234308898448944
1782969365228601900,3.655601806640625,-0.20121896266937256,0.5241227149963379,0.07825876027345657
1782969365238527700,3.66552783203125,-0.33205100893974304,0.8140909075737,-0.092045858502388
1782969365248455000,3.675454833984375,-0.39455753564834595,0.9951024651527405,-0.09145650267601013
1782969365258380800,3.685380859375,-0.3190382719039917,1.0395748615264893,0.06635203212499619
1782969365268306700,3.695306640625,-0.09227149188518524,0.8797864317893982,0.3401890993118286
1782969365278232800,3.70523291015625,0.08605004847049713,0.46866360306739807,0.6541217565536499
1782969365288159000,3.715158935546875,0.1346868872642517,0.18070568144321442,0.9041865468025208
1782969365298086000,3.7250859375,0.15408961474895477,-0.16428259015083313,0.9618711471557617
1782969365308011800,3.73501171875,0.05297909677028656,-0.4368075430393219,0.7836278676986694
1782969365317938000,3.74493798828125,-0.12563058733940125,-0.41096368432044983,0.4395517110824585
1782969365327863800,3.75486376953125,-0.2952757477760315,-0.14937494695186615,0.03906557708978653
1782969365337789700,3.764789794921875,-0.22500795125961304,0.1888534277677536,-0.31280457973480225
1782969365347715800,3.7747158203125,0.05927623435854912,0.527162492275238,-0.5612894892692566
1782969365357643000,3.78464306640625,0.3916616141796112,0.6672032475471497,-0.6999586820602417
1782969365367568600,3.794568603515625,0.7299103736877441,0.5227327346801758,-0.7663949728012085
1782969365377494800,3.804494873046875,1.0553622245788574,0.14983397722244263,-0.7824327945709229
1782969365387421000,3.8144208984375,1.3495938777923584,-0.33543992042541504,-0.775291919708252
1782969365397346800,3.824346923828125,1.6065877676010132,-0.8929985761642456,-0.7416434288024902
1782969365407273700,3.834273681640625,1.7410051822662354,-1.3705013990402222,-0.6808483600616455
1782969365417199900,3.844199951171875,1.7327916622161865,-1.6605172157287598,-0.6165639162063599
1782969365427126000,3.8541259765625,1.5807195901870728,-1.7331031560897827,-0.614313006401062
1782969365437051600,3.8640517578125,1.3040738105773926,-1.5968164205551147,-0.61961829662323
1782969365446977800,3.873977783203125,0.7628657221794128,-0.891396164894104,-0.5004616379737854
1782969365456905000,3.883905029296875,0.31220322847366333,-0.5134214162826538,-0.7103250622749329
1782969365466830800,3.893830810546875,0.06709703058004379,-0.28933316469192505,-1.1305453777313232
1782969365476756700,3.9037568359375,0.20637556910514832,-0.09155828505754471,-1.2755590677261353
1782969365486683000,3.913682861328125,0.38642388582229614,-0.271666020154953,-0.8585740327835083
1782969365496608800,3.92360888671875,0.6682636141777039,-1.3342139720916748,0.1619085669517517
1782969365506535000,3.933534912109375,0.8134515881538391,-2.1256136894226074,1.3682864904403687
1782969365516461800,3.9434619140625,0.5598861575126648,-2.300947666168213,2.457712173461914
1782969365526388000,3.953387939453125,0.09698668867349625,-2.0798802375793457,3.1485376358032227
1782969365536313900,3.96331396484375,-0.22441770136356354,-1.3984613418579102,3.0803604125976562
1782969365546239700,3.97323974609375,-0.5531506538391113,-0.008866369724273682,1.8670892715454102
1782969365556165600,3.98316552734375,-0.9794827699661255,1.4235761165618896,0.09065026044845581
1782969365566092800,3.9930927734375,-1.1877824068069458,2.3801448345184326,-1.3960338830947876
1782969365576018700,4.003018798828125,-0.918041467666626,2.7925586700439453,-2.080230951309204
1782969365587182800,4.014182861328125,-0.2632153332233429,2.6427648067474365,-2.139331579208374
1782969365597109800,4.02410986328125,0.2996855676174164,2.101886034011841,-1.6362043619155884
1782969365607036000,4.034035888671875,0.7324305772781372,1.307198405265808,-0.9110771417617798
1782969365616961800,4.0439619140625,0.9835544228553772,0.46797728538513184,-0.2766408324241638
1782969365626887700,4.0538876953125,1.0210132598876953,-0.22214989364147186,0.1826547533273697
1782969365636813800,4.063813720703125,0.8582991361618042,-0.7088385820388794,0.421371728181839
1782969365646741000,4.073740966796875,0.6464689373970032,-0.9044272303581238,0.38025838136672974
1782969365656667000,4.0836669921875,0.5173463821411133,-0.7812871932983398,0.12813691794872284
1782969365666592800,4.0935927734375,0.4236953556537628,-0.5022855997085571,-0.2229621410369873
1782969365676519000,4.103518798828125,0.3501678705215454,-0.1806548833847046,-0.5609694719314575
1782969365686444800,4.11344482421875,0.33017387986183167,0.05692481994628906,-0.8094273805618286
1782969365696371000,4.123370849609375,0.3042445480823517,0.13924285769462585,-0.9841512441635132
1782969365706297900,4.1332978515625,0.12944017350673676,0.337449848651886,-0.8992354273796082
1782969365716223700,4.1432236328125,-0.10459575802087784,0.44637927412986755,-0.6827353239059448
1782969365726150000,4.15314990234375,-0.2439844012260437,0.4759807884693146,-0.4941786527633667
1782969365736075800,4.16307568359375,-0.30187511444091797,0.5442336201667786,-0.3163239657878876
1782969365746001700,4.173001708984375,-0.3311457633972168,0.6701699495315552,-0.20840968191623688
1782969365755928800,4.1829287109375,-0.3291795551776886,0.860193133354187,-0.2652822732925415
1782969365765854700,4.192854736328125,-0.2995961010456085,1.0124058723449707,-0.4119665324687958
1782969365775780900,4.20278076171875,-0.2722766101360321,1.097188115119934,-0.5853244662284851
1782969365785706500,4.21270654296875,-0.27827170491218567,1.0773037672042847,-0.744712769985199
1782969365795632400,4.22263232421875,-0.312808632850647,1.0093451738357544,-0.8732694387435913
1782969365805559300,4.232559326171875,-0.33735838532447815,0.9591561555862427,-0.971978485584259
1782969365815485400,4.2424853515625,-0.44114017486572266,1.000175952911377,-1.0499340295791626
1782969365825411600,4.25241162109375,-0.5148173570632935,1.1598947048187256,-1.1271330118179321
1782969365835337500,4.26233740234375,-0.555209755897522,1.4531172513961792,-1.1676348447799683
1782969365845263400,4.272263427734375,-0.4671969711780548,1.8484455347061157,-1.1811819076538086
1782969365855189500,4.282189453125,-0.2923247516155243,2.2475063800811768,-1.1744707822799683
1782969365865116700,4.29211669921875,-0.03584950789809227,2.726775884628296,-1.156493902206421
1782969365875042600,4.30204248046875,0.20937569439411163,3.0900371074676514,-1.1199473142623901
1782969365884968400,4.311968505859375,0.37005725502967834,2.9480574131011963,-1.0109046697616577
1782969365894894300,4.321894287109375,0.4089524447917938,2.2852540016174316,-0.7785892486572266
1782969365904820500,4.331820556640625,0.4069449007511139,1.1466933488845825,-0.6071507334709167
1782969365914747400,4.341747314453125,0.43664446473121643,-0.44695791602134705,-0.8471220135688782
1782969365924673500,4.351673583984375,0.651661217212677,-2.146925449371338,-1.3754717111587524
1782969365934599400,4.361599365234375,1.0456910133361816,-3.457566738128662,-1.5289396047592163
1782969365944525600,4.371525634765625,1.2952536344528198,-4.061092853546143,-0.8490977883338928
1782969365954451500,4.381451416015625,1.2060681581497192,-3.671135187149048,0.5093737840652466
1782969365964377300,4.39137744140625,0.5996115803718567,-1.9718283414840698,1.7367643117904663
1782969365974304500,4.401304443359375,-0.10397107899188995,0.40215709805488586,2.0965828895568848
1782969365984230400,4.41123046875,-0.6871569156646729,2.6239726543426514,1.6393873691558838
1782969365994156500,4.421156494140625,-1.048791527748108,4.301968574523926,0.8392741680145264
1782969366004082400,4.43108251953125,-1.1952877044677734,4.907610893249512,0.1950460970401764
1782969366014008600,4.441008544921875,-1.1680808067321777,4.545255661010742,-0.044005900621414185
1782969366023935500,4.450935546875,-0.9843475818634033,3.674607038497925,0.05964701995253563
1782969366033861400,4.460861328125,-0.6725833415985107,2.6025173664093018,0.3495592772960663
1782969366043787500,4.47078759765625,-0.3048307001590729,1.4711267948150635,0.7294166088104248
1782969366053713700,4.480713623046875,0.03938712179660797,0.4176892638206482,1.1338324546813965
1782969366063639300,4.490639404296875,0.32095643877983093,-0.40728241205215454,1.5140953063964844
1782969366073566500,4.50056640625,0.5272358655929565,-0.9400256872177124,1.76352059841156
1782969366083492600,4.51049267578125,0.6079487800598145,-1.1305491924285889,1.7924211025238037
1782969366093418500,4.52041845703125,0.5448795557022095,-0.9292442202568054,1.5877161026000977
1782969366103344400,4.530344482421875,0.37167996168136597,-0.4481818675994873,1.2161788940429688
1782969366113270500,4.5402705078125,0.10906565934419632,0.12385261058807373,0.7782285213470459
1782969366123197400,4.550197509765625,-0.15456607937812805,0.6222550868988037,0.3845714330673218
1782969366133123300,4.560123291015625,-0.3540025055408478,0.9850426316261292,0.04919983819127083
1782969366143049500,4.570049560546875,-0.5000825524330139,1.227192997932434,-0.1358407884836197
1782969366152975600,4.5799755859375,-0.5970740914344788,1.314841389656067,-0.18774554133415222
1782969366162901500,4.589901611328125,-0.6320207715034485,1.2371209859848022,-0.13836845755577087
1782969366172827400,4.599827392578125,-0.6145429611206055,1.0772130489349365,-0.031925641000270844
1782969366182754600,4.609754638671875,-0.5753288865089417,0.9323315024375916,0.09123607724905014
1782969366192680700,4.6196806640625,-0.5499060750007629,0.8686673045158386,0.15823295712471008
1782969366202606300,4.6296064453125,-0.5676158666610718,0.8430982828140259,0.11265969276428223
1782969366212532500,4.639532470703125,-0.639399528503418,0.7650367617607117,-0.05742841958999634
1782969366222458400,4.649458251953125,-0.733252227306366,0.5891798138618469,-0.295337975025177
1782969366232385300,4.65938525390625,-0.8278442621231079,0.3075132369995117,-0.5256747603416443
1782969366242311400,4.6693115234375,-0.8625535368919373,-0.04548077657818794,-0.7145394682884216
1782969366252237600,4.679237548828125,-0.7873461246490479,-0.3708104193210602,-0.8009470701217651
1782969366262163500,4.68916357421875,-0.5853299498558044,-0.5798156261444092,-0.7821217775344849
1782969366272089600,4.699089599609375,-0.31532272696495056,-0.7312262058258057,-0.6757276654243469
1782969366282015500,4.709015380859375,-0.022573795169591904,-0.8690294027328491,-0.49973341822624207
1782969366291942700,4.718942626953125,0.19663205742835999,-0.9968030452728271,-0.2991795539855957
1782969366301868500,4.72886865234375,0.29562047123908997,-1.157266616821289,-0.0915851891040802
1782969366311794400,4.73879443359375,0.3170005679130554,-1.3758809566497803,-0.022937685251235962
1782969366321720300,4.74872021484375,0.25044047832489014,-1.5332527160644531,-0.2185547798871994
1782969366331646500,4.758646484375,0.0714251771569252,-1.6062885522842407,-0.629470705986023
1782969366341573400,4.768573486328125,-0.1097862496972084,-1.5210587978363037,-1.1746293306350708
1782969366351499500,4.77849951171875,-0.1694900542497635,-1.4624913930892944,-1.7891579866409302
1782969366361425400,4.78842529296875,-0.07042834907770157,-1.5461806058883667,-2.179445505142212
1782969366371351600,4.7983515625,0.16299664974212646,-1.7064647674560547,-2.0669362545013428
1782969366381277400,4.80827734375,0.49075987935066223,-1.8861713409423828,-1.4753313064575195
1782969366391204600,4.81820458984375,0.7836458086967468,-2.0677707195281982,-0.6278773546218872
1782969366401130500,4.828130615234375,0.9576473832130432,-2.1523351669311523,0.21369920670986176
1782969366411056600,4.838056640625,0.8529902100563049,-2.042487859725952,0.8669803142547607
1782969366420982500,4.847982421875,0.4012521207332611,-1.5123634338378906,1.2817778587341309
1782969366430908400,4.857908447265625,-0.19944970309734344,-0.43180161714553833,1.2870311737060547
1782969366440834600,4.86783447265625,-0.747254490852356,0.982069194316864,0.837437093257904
1782969366450761500,4.877761474609375,-1.1386576890945435,2.221196174621582,0.1743811070919037
1782969366460687400,4.887687255859375,-1.3537578582763672,2.9046788215637207,-0.35172250866889954
1782969366470613500,4.897613525390625,-1.434624433517456,3.0064780712127686,-0.5677381157875061
1782969366480539600,4.90753955078125,-1.3699809312820435,2.6536738872528076,-0.4976801872253418
1782969366490465300,4.91746533203125,-1.1490440368652344,1.9586591720581055,-0.28299131989479065
1782969366500392400,4.927392333984375,-0.8451085686683655,1.158625602722168,0.017230559140443802
1782969366510318600,4.937318603515625,-0.5444568991661072,0.46766161918640137,0.33535048365592957
1782969366520244500,4.947244384765625,-0.2835213541984558,-0.00514445174485445,0.6037042737007141
1782969366530170400,4.95717041015625,-0.0966596007347107,-0.21056552231311798,0.7485962510108948
1782969366540096500,4.967096435546875,-0.010850334540009499,-0.17597946524620056,0.7433215379714966
1782969366550023700,4.977023681640625,-0.0012278009671717882,0.01721290312707424,0.6232502460479736
1782969366559949300,4.98694921875,-0.055508680641651154,0.2986687123775482,0.42137476801872253
1782969366569875500,4.99687548828125,-0.15462620556354523,0.5860568284988403,0.194046288728714
1782969366579801600,5.006801513671875,-0.2819305658340454,0.8065006136894226,-0.00924144871532917
1782969366589727500,5.0167275390625,-0.37051236629486084,0.9070336222648621,-0.15745489299297333
1782969366599654400,5.026654296875,-0.40481463074684143,0.9154640436172485,-0.2085479199886322
1782969366609580500,5.03658056640625,-0.38815709948539734,0.8463773727416992,-0.15764717757701874
1782969366619506700,5.046506591796875,-0.3244573175907135,0.7155686020851135,-0.03120025061070919
1782969366629432300,5.056432373046875,-0.24292728304862976,0.5814289450645447,0.09536302089691162
1782969366639358500,5.0663583984375,-0.15256908535957336,0.4679435193538666,0.1657380610704422
1782969366649284400,5.076284423828125,-0.07985812425613403,0.36266955733299255,0.16915889084339142
1782969366659211500,5.08621142578125,-0.05823985114693642,0.25117188692092896,0.11459910869598389
1782969366669137400,5.096137451171875,-0.10216682404279709,0.09214656800031662,0.02309662289917469
1782969366679063600,5.1060634765625,-0.18390169739723206,-0.07447688281536102,-0.10070108622312546
1782969366688989400,5.115989501953125,-0.2658415734767914,-0.17874708771705627,-0.28179389238357544
1782969366698915600,5.12591552734375,-0.3293422758579254,-0.17906926572322845,-0.49501240253448486
1782969366708842500,5.135842529296875,-0.3473244905471802,-0.09688197821378708,-0.7245737314224243
1782969366718768600,5.1457685546875,-0.343376487493515,-0.00047187041491270065,-0.9266802072525024
1782969366728694500,5.155694580078125,-0.33318403363227844,0.06645842641592026,-1.0946474075317383
1782969366738620400,5.165620361328125,-0.31731534004211426,0.08853346109390259,-1.2016570568084717
1782969366748546300,5.17554638671875,-0.28424447774887085,0.06040995195508003,-1.2386113405227661
1782969366758473500,5.185473388671875,-0.21470510959625244,-0.03689548745751381,-1.2169448137283325
1782969366768399400,5.1953994140625,-0.0573037713766098,-0.18217359483242035,-1.1317462921142578
1782969366778325500,5.205325439453125,0.19347083568572998,-0.44453689455986023,-1.0154122114181519
1782969366788251600,5.215251708984375,0.4975276589393616,-0.937061607837677,-0.9260855913162231
1782969366798177800,5.225177734375,0.8268948793411255,-1.7115212678909302,-0.8411826491355896
1782969366808103700,5.235103759765625,1.1091744899749756,-2.726531744003296,-0.7427242398262024
1782969366818030800,5.24503076171875,1.36579430103302,-3.875532627105713,-0.8373665809631348
1782969366827956700,5.254956787109375,1.7050999402999878,-5.0549750328063965,-1.2070229053497314
1782969366837883000,5.2648828125,2.1313464641571045,-5.71842622756958,-1.302419900894165
1782969366847808800,5.274808837890625,2.339168071746826,-4.991955280303955,-0.598480761051178
1782969366857734700,5.284734619140625,1.9989674091339111,-3.0875840187072754,0.5646672248840332
1782969366867661800,5.294661865234375,1.2158068418502808,-0.8242207169532776,1.5128540992736816
1782969366877587700,5.304587646484375,0.3732104003429413,1.2283194065093994,1.705820083618164
1782969366887513600,5.314513671875,-0.3117551803588867,2.790621519088745,1.2598402500152588
1782969366897439700,5.324439697265625,-0.7551903128623962,3.558350086212158,0.6345617771148682
1782969366907366000,5.334365966796875,-1.0078483819961548,3.5745863914489746,0.22396492958068848
1782969366917292800,5.344292724609375,-1.041416883468628,3.072840690612793,0.1317034214735031
1782969366927218700,5.35421875,-0.8937123417854309,2.2669999599456787,0.2880898416042328
1782969366937144800,5.364144775390625,-0.6565067768096924,1.3922913074493408,0.6237432360649109
1782969366947070700,5.37407080078125,-0.4052969217300415,0.5841097831726074,1.049019455909729
1782969366956996600,5.38399658203125,-0.1813143938779831,-0.04982513561844826,1.4818251132965088
1782969366966922800,5.3939228515625,-0.015017302706837654,-0.4029722809791565,1.8470494747161865
1782969366976850000,5.403849853515625,0.03845014423131943,-0.42629215121269226,2.0680854320526123
1782969366986775600,5.413775634765625,-0.0221365038305521,-0.14335261285305023,2.1085331439971924
1782969366996701700,5.42370166015625,-0.17329661548137665,0.3179364800453186,1.9738876819610596
1782969367006627800,5.4336279296875,-0.3923909068107605,0.8433347344398499,1.7216497659683228
1782969367016553700,5.4435537109375,-0.5737320780754089,1.3129425048828125,1.47299325466156
1782969367026480600,5.453480712890625,-0.6718621253967285,1.7006758451461792,1.2977588176727295
1782969367036406800,5.46340673828125,-0.689728319644928,1.9380825757980347,1.160672664642334
1782969367046333000,5.4733330078125,-0.6461246609687805,1.9311962127685547,1.042608618736267
1782969367056258600,5.483258544921875,-0.5466070771217346,1.7277164459228516,0.9564575552940369
1782969367066184700,5.493184814453125,-0.42222124338150024,1.4238308668136597,0.8916159868240356
1782969367076112000,5.50311181640625,-0.31668052077293396,1.0527487993240356,0.8151798248291016
1782969367086037800,5.513037841796875,-0.23716628551483154,0.7088204026222229,0.7307552099227905
1782969367095963600,5.522963623046875,-0.18143987655639648,0.43523484468460083,0.596630334854126
1782969367105889800,5.532889892578125,-0.13144515454769135,0.31110623478889465,0.37750545144081116
1782969367115815700,5.542815673828125,-0.11052900552749634,0.23684164881706238,0.09347499907016754
1782969367125741800,5.552741943359375,-0.13695581257343292,0.12367381900548935,-0.21251128613948822
1782969367135668700,5.562668701171875,-0.19179747998714447,-0.044565245509147644,-0.5144199728965759
1782969367145595000,5.572594970703125,-0.24659602344036102,-0.2579004168510437,-0.7867854237556458
1782969367155520800,5.582520751953125,-0.28572219610214233,-0.48276373744010925,-0.9851346611976624
1782969367165446700,5.59244677734375,-0.2964225113391876,-0.6382055282592773,-1.1321179866790771
1782969367175372800,5.602372802734375,-0.2616291046142578,-0.7143736481666565,-1.2437373399734497
1782969367185299700,5.6122998046875,-0.19997583329677582,-0.7625662088394165,-1.3072748184204102
1782969367195225600,5.6222255859375,-0.09149728715419769,-0.7591504454612732,-1.3299038410186768
1782969367205151700,5.63215185546875,0.0575217567384243,-0.7137901186943054,-1.349035382270813
1782969367215077600,5.64207763671875,0.2064448744058609,-0.6892490386962891,-1.3514546155929565
1782969367225003800,5.652003662109375,0.31007006764411926,-0.7652407288551331,-1.300295114517212
1782969367234930000,5.661929931640625,0.3307618796825409,-0.9955955147743225,-1.1755930185317993
1782969367244856800,5.67185693359375,0.23894965648651123,-1.3676882982254028,-0.9985236525535583
1782969367254782700,5.68178271484375,0.21201373636722565,-1.8361250162124634,-0.9005592465400696
1782969367264708900,5.691708984375,0.38526275753974915,-2.085604429244995,-1.1067135334014893
1782969367274634800,5.701634765625,0.6680794954299927,-2.02347993850708,-1.7836402654647827
1782969367284560600,5.711560546875,0.852012038230896,-1.823090672492981,-2.7014870643615723
1782969367294487800,5.72148779296875,0.7909961938858032,-1.7914315462112427,-3.3671469688415527
1782969367304413700,5.73141357421875,0.4454430043697357,-2.1595475673675537,-3.5135233402252197
1782969367314339600,5.741339599609375,0.0776725634932518,-2.625427007675171,-2.9873478412628174
1782969367324265700,5.751265625,-0.08536961674690247,-2.7396273612976074,-1.8836642503738403
1782969367334191900,5.76119189453125,0.0031766556203365326,-2.4296817779541016,-0.5308945775032043
1782969367344118800,5.771118896484375,0.009553594514727592,-1.6380060911178589,0.8698626160621643
1782969367354044700,5.781044677734375,-0.18046115338802338,-0.40628501772880554,2.0527422428131104
1782969367363970800,5.790970703125,-0.3179582953453064,0.9199907779693604,2.5046377182006836
1782969367373897000,5.80089697265625,-0.42237383127212524,1.9971392154693604,2.087388277053833
1782969367383822600,5.810822509765625,-0.5555870532989502,2.666184663772583,1.1777187585830688
1782969367393749800,5.820749755859375,-0.7760481834411621,2.986229181289673,0.332965612411499
1782969367403676000,5.830676025390625,-1.0593520402908325,3.008636951446533,-0.2251298725605011
1782969367413601500,5.8406015625,-1.2549800872802734,2.7709670066833496,-0.5067718625068665
1782969367423527700,5.850527587890625,-1.2882184982299805,2.3600356578826904,-0.6208891272544861
1782969367433453800,5.860453857421875,-1.1881824731826782,1.9259343147277832,-0.5984628200531006
1782969367443379700,5.870379638671875,-0.9899550676345825,1.544958233833313,-0.46175822615623474
1782969367453306600,5.880306640625,-0.7036182880401611,1.1800496578216553,-0.2684847414493561
1782969367463232800,5.890232666015625,-0.43928757309913635,0.8890804052352905,-0.00004075875040143728
1782969367473159000,5.900158935546875,-0.21173015236854553,0.6619550585746765,0.3014169931411743
1782969367483084800,5.910084716796875,-0.06999219208955765,0.4778169095516205,0.6012364625930786
1782969367493010700,5.9200107421875,-0.011896318756043911,0.36339351534843445,0.8776229619979858
1782969367502937900,5.929937744140625,-0.03772285580635071,0.3009924590587616,1.1098686456680298
1782969367512863700,5.93986376953125,-0.03471837937831879,0.35257384181022644,1.2798573970794678
1782969367522789600,5.94978955078125,-0.012134244665503502,0.46711722016334534,1.3155461549758911
1782969367532715800,5.9597158203125,0.04859189689159393,0.6041219830513,1.2523226737976074
1782969367542641700,5.9696416015625,0.14568756520748138,0.6913428902626038,1.1100109815597534
1782969367552568600,5.979568603515625,0.2324114292860031,0.7423204779624939,0.9052072763442993
1782969367562494700,5.98949462890625,0.2704022228717804,0.8316043019294739,0.626899242401123
1782969367572420900,5.9994208984375,0.2606178820133209,0.8518239259719849,0.2974244952201843
1782969367582346800,6.0093466796875,0.24673403799533844,0.7577784061431885,-0.028034817427396774
1782969367592272600,6.019272705078125,0.24114681780338287,0.5935763716697693,-0.31537237763404846
1782969367602199800,6.02919970703125,0.25928986072540283,0.4245322048664093,-0.4966023564338684
1782969367612125700,6.039125732421875,0.27930891513824463,0.22887396812438965,-0.554646372795105
1782969367622051800,6.0490517578125,0.30641990900039673,0.02015938051044941,-0.49566081166267395
1782969367631977700,6.058977783203125,0.34405747056007385,-0.16353484988212585,-0.3774184286594391
1782969367641903600,6.068903564453125,0.383908748626709,-0.285914808511734,-0.25231271982192993
1782969367651829800,6.078829833984375,0.4141805171966553,-0.3850327432155609,-0.16235435009002686
1782969367661756700,6.088756591796875,0.44269710779190063,-0.48432204127311707,-0.1256416141986847
1782969367671682800,6.098682861328125,0.48800861835479736,-0.5320694446563721,-0.18738454580307007
1782969367681608700,6.108608642578125,0.5231484770774841,-0.5147618055343628,-0.3437986671924591
1782969367691534800,6.118534912109375,0.49937519431114197,-0.41736942529678345,-0.5315991640090942
1782969367701460700,6.128460693359375,0.38913658261299133,-0.24348950386047363,-0.7043294310569763
1782969367711387600,6.1383876953125,0.25412338972091675,-0.17864985764026642,-0.9466502666473389
1782969367721313800,6.148313720703125,0.1566133350133896,-0.4609747529029846,-1.3090770244598389
1782969367731239700,6.15823974609375,0.458342045545578,-1.072204828262329,-1.7085403203964233
1782969367741165600,6.16816552734375,0.9178955554962158,-1.9064128398895264,-1.8454632759094238
1782969367751091700,6.178091796875,1.4874447584152222,-2.738086223602295,-1.574751615524292
1782969367761017900,6.188017822265625,1.912302851676941,-3.584368944168091,-0.7238650321960449
1782969367770944800,6.19794482421875,2.0617406368255615,-4.291224479675293,0.6491494178771973
1782969367780870700,6.20787060546875,2.0248100757598877,-4.345914840698242,1.9332548379898071
1782969367790797300,6.21779736328125,1.8137935400009155,-3.4087326526641846,2.7649593353271484
1782969367800723200,6.22772314453125,1.398250699043274,-1.7399159669876099,3.1342878341674805
1782969367810649000,6.237649169921875,0.850834846496582,0.014186551794409752,3.0227208137512207
1782969367820576300,6.247576171875,0.33124780654907227,1.4289133548736572,2.4992494583129883
1782969367830502100,6.257502197265625,-0.016186140477657318,2.2424559593200684,1.779096007347107
1782969367840428000,6.267427978515625,-0.20815718173980713,2.383117198944092,1.1768919229507446
1782969367850354200,6.277354248046875,-0.3527890145778656,2.057985782623291,0.8504649996757507
1782969367860280300,6.2872802734375,-0.482649028301239,1.5205905437469482,0.783420205116272
1782969367870207200,6.297207275390625,-0.510676383972168,0.9290012121200562,0.870920717716217
1782969367880133000,6.307133056640625,-0.4277956485748291,0.4189571440219879,1.0149670839309692
1782969367890059300,6.317059326171875,-0.2795851230621338,0.033894143998622894,1.1672230958938599
1782969367899985400,6.3269853515625,-0.10745756328105927,-0.19576355814933777,1.3168314695358276
1782969367909911000,6.3369111328125,0.04701509699225426,-0.2451513409614563,1.447336196899414
1782969367919838200,6.346838134765625,0.14662769436836243,-0.1313432902097702,1.5262818336486816
1782969367929764400,6.356764404296875,0.15396711230278015,0.1284928172826767,1.5652230978012085
1782969367939690200,6.366690185546875,0.04848116636276245,0.45759692788124084,1.5276970863342285
1782969367949616000,6.3766162109375,-0.1120215654373169,0.8276939988136292,1.3994817733764648
1782969367959542300,6.386542236328125,-0.30867627263069153,1.2507450580596924,1.226926565170288
1782969367969468200,6.39646826171875,-0.5413879156112671,1.7025401592254639,1.0388269424438477
1782969367979395000,6.40639501953125,-0.7894443273544312,2.1141300201416016,0.8343611359596252
1782969367989321200,6.4163212890625,-0.9728001356124878,2.4198391437530518,0.5709372162818909
1782969367999247400,6.426247314453125,-0.9914430379867554,2.4830050468444824,0.3401128351688385
1782969368009173200,6.43617333984375,-0.8215697407722473,2.2966527938842773,0.2198886275291443
1782969368019099100,6.44609912109375,-0.5676741003990173,1.9434870481491089,0.19882674515247345
1782969368029026300,6.4560263671875,-0.35120147466659546,1.4665164947509766,0.2594456374645233
1782969368038952200,6.4659521484375,-0.1930328905582428,0.9365911483764648,0.3537828028202057
1782969368048878000,6.475878173828125,-0.09275037795305252,0.4124784469604492,0.40699392557144165
1782969368058804200,6.48580419921875,-0.045843858271837234,-0.02605924755334854,0.324819415807724
1782969368068730000,6.495730224609375,-0.02530328556895256,-0.35272902250289917,0.043726321309804916
1782969368078657000,6.505656982421875,-0.040847089141607285,-0.6240872740745544,-0.38300901651382446
1782969368088583200,6.515583251953125,-0.04619390144944191,-0.7616408467292786,-0.8828976154327393
1782969368098509300,6.52550927734375,-0.08134603500366211,-0.8503350615501404,-1.301801085472107
1782969368108435200,6.535435302734375,-0.12422671914100647,-0.871789813041687,-1.5614829063415527
1782969368118361300,6.545361328125,-0.18657797574996948,-0.8253341913223267,-1.6833603382110596
1782969368128287200,6.555287353515625,-0.27229318022727966,-0.7339262962341309,-1.742149829864502
1782969368138214100,6.565214111328125,-0.3766896426677704,-0.6408426761627197,-1.7698578834533691
1782969368148140300,6.575140380859375,-0.4541102349758148,-0.644848644733429,-1.7901514768600464
1782969368158066200,6.585066162109375,-0.4599470794200897,-0.8157396912574768,-1.8384746313095093
1782969368167992000,6.594991943359375,-0.35183483362197876,-1.135857343673706,-1.950700283050537
1782969368177918200,6.604918212890625,-0.16952094435691833,-1.5660794973373413,-2.0339174270629883
1782969368187845000,6.61484521484375,0.04179337993264198,-2.045564889907837,-1.9934594631195068
1782969368197771300,6.624771240234375,0.24152353405952454,-2.5596110820770264,-1.8595126867294312
1782969368207697200,6.634697265625,0.4482896029949188,-3.013158082962036,-1.7300782203674316
1782969368217623300,6.644623291015625,0.6193156838417053,-3.2145676612854004,-1.5991950035095215
1782969368227549400,6.654549560546875,0.7392669320106506,-3.2015762329101562,-1.240134835243225
1782969368237476400,6.664476318359375,0.7216205596923828,-3.003199815750122,-0.5160900950431824
1782969368247402200,6.67440234375,0.5028141736984253,-2.573185682296753,0.47896242141723633
1782969368257328400,6.684328369140625,0.08463741093873978,-1.7325818538665771,1.4268207550048828
1782969368267254000,6.69425390625,-0.43260616064071655,-0.4695065915584564,2.0394206047058105
1782969368277180200,6.70418017578125,-0.8757897019386292,0.9341222643852234,2.1759934425354004
1782969368287106300,6.714106201171875,-1.1682299375534058,2.1024725437164307,1.9487698078155518
1782969368297033200,6.724033203125,-1.289927363395691,2.7221627235412598,1.5227376222610474
1782969368306959000,6.733958984375,-1.3635348081588745,2.7529478073120117,1.1126115322113037
1782969368316885200,6.74388525390625,-1.5048855543136597,2.4626951217651367,0.8992865085601807
1782969368326811400,6.753811279296875,-1.655677318572998,2.0852649211883545,0.8402183055877686
1782969368336737300,6.7637373046875,-1.7260249853134155,1.7570152282714844,0.8343257904052734
1782969368346664200,6.773664306640625,-1.677618145942688,1.5450518131256104,0.8051506876945496
1782969368356590300,6.78359033203125,-1.539044737815857,1.429405689239502,0.7294306755065918
1782969368366516200,6.79351611328125,-1.3573102951049805,1.4156153202056885,0.6427160501480103
1782969368376442000,6.803442138671875,-1.1773748397827148,1.4548064470291138,0.5638127326965332
1782969368386368300,6.8133681640625,-1.0285613536834717,1.4903008937835693,0.5339843034744263
1782969368396295400,6.82329541015625,-0.934016227722168,1.471058964729309,0.537071168422699
1782969368406221000,6.833220947265625,-0.8554807901382446,1.3916029930114746,0.5774877667427063
1782969368416147200,6.843147216796875,-0.8106749653816223,1.2990589141845703,0.5784539580345154
1782969368426073300,6.8530732421875,-0.7950310707092285,1.2922866344451904,0.512961745262146
1782969368435999200,6.862999267578125,-0.7968723773956299,1.4178472757339478,0.4338701367378235
1782969368445926100,6.872926025390625,-0.7906764149665833,1.5921918153762817,0.34835177659988403
1782969368455852300,6.882852294921875,-0.7403333187103271,1.703439474105835,0.21853147447109222
1782969368465778200,6.892778076171875,-0.5988603234291077,1.6654256582260132,0.0755247250199318
1782969368475704300,6.902704345703125,-0.40092751383781433,1.4281548261642456,-0.061224061995744705
1782969368485630200,6.912630126953125,-0.18471240997314453,1.0533561706542969,-0.1894238144159317
1782969368495556000,6.92255615234375,0.03406412526965141,0.6842213273048401,-0.31996026635169983
1782969368505483300,6.932483154296875,0.25388842821121216,0.341227650642395,-0.42075490951538086
1782969368515409200,6.9424091796875,0.45448651909828186,0.013630085624754429,-0.47352465987205505
1782969368525335300,6.952335205078125,0.5966526865959167,-0.2707963287830353,-0.4766412377357483
1782969368535261200,6.96226123046875,0.7000512480735779,-0.5003246068954468,-0.4781011641025543
1782969368545187300,6.972187255859375,0.7399097084999084,-0.7027278542518616,-0.5156259536743164
1782969368555114200,6.9821142578125,0.7326467633247375,-0.820308268070221,-0.6100656390190125
1782969368565040000,6.9920400390625,0.6706258058547974,-0.8269092440605164,-0.7367960810661316
1782969368574966300,7.00196630859375,0.5974754095077515,-0.6576755046844482,-0.9059075713157654
1782969368584892200,7.01189208984375,0.5382614135742188,-0.40463849902153015,-1.1212238073349
1782969368594818000,7.021818115234375,0.4827219545841217,-0.13989420235157013,-1.360856294631958
1782969368604745200,7.0317451171875,0.4489004611968994,0.03881388530135155,-1.6477301120758057
1782969368614671000,7.041671142578125,0.45891979336738586,0.023392317816615105,-1.9535536766052246
1782969368624597200,7.05159716796875,0.5268536806106567,-0.2417348474264145,-2.2520408630371094
1782969368634523100,7.061523193359375,0.6413394808769226,-0.8561401963233948,-2.27783203125
1782969368644449300,7.07144921875,0.8428236842155457,-1.927206039428711,-1.9352467060089111
1782969368654375400,7.08137548828125,1.2110626697540283,-3.3760688304901123,-1.4321109056472778
1782969368664302300,7.09130224609375,1.7552099227905273,-4.749637126922607,-1.0011662244796753
1782969368674228200,7.101228271484375,2.2439749240875244,-5.464659690856934,-0.6623546481132507
1782969368684154400,7.111154296875,2.2409794330596924,-5.395066738128662,-0.32894977927207947
1782969368694080000,7.121080078125,1.6218489408493042,-4.4939751625061035,0.1848432421684265
1782969368704006100,7.131006103515625,0.7816659212112427,-2.747558116912842,0.7368077039718628
1782969368713933300,7.140933349609375,0.1045665442943573,-0.5515472292900085,1.0398181676864624
1782969368723859200,7.150859130859375,-0.3764543831348419,1.5207287073135376,1.1330233812332153
1782969368733785000,7.16078515625,-0.6980130076408386,3.0641510486602783,1.1555140018463135
1782969368743711200,7.170711181640625,-0.8171941041946411,3.7245662212371826,1.0811911821365356
1782969368753637400,7.180637451171875,-0.7924141883850098,3.5755362510681152,0.9735564589500427
1782969368763564300,7.190564208984375,-0.7598838210105896,2.9365789890289307,0.9318192005157471
1782969368773490200,7.200490234375,-0.7174572944641113,2.052776336669922,0.962820291519165
1782969368783415800,7.210415771484375,-0.65818852186203,1.151064157485962,1.0455280542373657
1782969368793342000,7.220342041015625,-0.5850993990898132,0.4329683184623718,1.1768791675567627
1782969368803267800,7.230267822265625,-0.5111199021339417,-0.022634422406554222,1.2688809633255005
1782969368813193700,7.24019384765625,-0.47171980142593384,-0.23282042145729065,1.257464051246643
1782969368823121000,7.250120849609375,-0.4896427094936371,-0.16949313879013062,1.1084027290344238
1782969368833047000,7.260047119140625,-0.5357635617256165,0.09146282076835632,0.8438411355018616
1782969368842972700,7.26997265625,-0.6010594964027405,0.4418020248413086,0.5369768738746643
1782969368852898800,7.27989892578125,-0.6861093640327454,0.8150597810745239,0.24536317586898804
1782969368862825000,7.289824951171875,-0.7838050723075867,1.1433653831481934,0.02288263849914074
1782969368872751600,7.299751708984375,-0.8486354947090149,1.4054664373397827,-0.11173003166913986
1782969368882677800,7.309677734375,-0.8837348222732544,1.5963518619537354,-0.1646387279033661
1782969368892604000,7.31960400390625,-0.880170464515686,1.6733070611953735,-0.15364547073841095
1782969368902529800,7.32952978515625,-0.8308649063110352,1.7043371200561523,-0.097552590072155
1782969368912455700,7.33945556640625,-0.7622405886650085,1.6955822706222534,0.015202987939119339
1782969368922382800,7.3493828125,-0.6660473346710205,1.6248810291290283,0.14594212174415588
1782969368932309000,7.35930908203125,-0.5634389519691467,1.489956259727478,0.21765145659446716
1782969368942235000,7.36923486328125,-0.4788333773612976,1.315811276435852,0.18713036179542542
1782969368952160800,7.379160888671875,-0.4373253285884857,1.1469253301620483,0.10386315733194351
1782969368962087000,7.3890869140625,-0.43503373861312866,0.9960393905639648,-0.018095100298523903
1782969368972012800,7.3990126953125,-0.4490198791027069,0.834409773349762,-0.18283051252365112
1782969368981939700,7.408939697265625,-0.4354877471923828,0.6821365356445312,-0.36285650730133057
1782969368991865900,7.418865966796875,-0.38430365920066833,0.49655842781066895,-0.5642951130867004
1782969369001791700,7.428791748046875,-0.32250282168388367,0.2884466350078583,-0.7820526957511902
1782969369011718000,7.4387177734375,-0.2493673413991928,0.08480267226696014,-1.0108827352523804
1782969369021643800,7.448643798828125,-0.17032040655612946,-0.12334935367107391,-1.1973552703857422
1782969369031571000,7.458571044921875,-0.06486747413873672,-0.32030850648880005,-1.3067538738250732
1782969369041496800,7.468496826171875,0.09454429149627686,-0.5090264678001404,-1.3488398790359497
1782969369051422700,7.478422607421875,0.25951725244522095,-0.7369211316108704,-1.3324604034423828
1782969369061348900,7.488348876953125,0.3609406650066376,-1.0628323554992676,-1.239583969116211
1782969369071274800,7.498274658203125,0.37080925703048706,-1.511606216430664,-1.1222127676010132
1782969369081201700,7.50820166015625,0.37115970253944397,-1.9658513069152832,-1.107957363128662
1782969369091127800,7.5181279296875,0.4941016137599945,-2.4682745933532715,-1.3382997512817383
1782969369101053700,7.5280537109375,0.7769139409065247,-3.049170970916748,-1.709864854812622
1782969369110979800,7.537979736328125,1.1682623624801636,-3.580169916152954,-1.9332184791564941
1782969369120906000,7.547906005859375,1.5425583124160767,-4.011013507843018,-1.7525954246520996
1782969369130833000,7.5578330078125,1.6640008687973022,-4.246518611907959,-1.0814396142959595
1782969369140758800,7.5677587890625,1.5054981708526611,-4.093329906463623,-0.12989449501037598
1782969369150685000,7.577684814453125,1.1390674114227295,-3.404256582260132,0.7814546823501587
1782969369160610800,7.58761083984375,0.60113126039505,-2.2074778079986572,1.3725389242172241
1782969369170536700,7.59753662109375,0.00665911054238677,-0.6214367747306824,1.51466703414917
1782969369180462800,7.607462890625,-0.515671968460083,1.1481460332870483,1.159964919090271
1782969369190389800,7.6173896484375,-0.923183262348175,2.7521779537200928,0.4830015301704407
1782969369200315600,7.627315673828125,-1.172078013420105,3.7870748043060303,-0.1912672221660614
1782969369210241800,7.63724169921875,-1.3104339838027954,4.072002410888672,-0.7311448454856873
1782969369220168000,7.64716796875,-1.3740311861038208,3.7766644954681396,-1.011781930923462
1782969369230093800,7.65709375,-1.3741563558578491,3.191676616668701,-0.9994432926177979
1782969369240020700,7.667020751953125,-1.2873733043670654,2.4886956214904785,-0.7913215160369873
1782969369249947000,7.67694677734375,-1.1388602256774902,1.806276559829712,-0.5049800276756287
1782969369259873000,7.686873046875,-0.9745206236839294,1.2769279479980469,-0.1844872236251831
1782969369269798700,7.696798583984375,-0.804360568523407,0.9688045382499695,0.11971314996480942
1782969369279724800,7.706724853515625,-0.6301218867301941,0.8527384400367737,0.3949733376502991
1782969369289652000,7.71665185546875,-0.4677779972553253,0.8511126041412354,0.6313941478729248
1782969369299577600,7.72657763671875,-0.3494780957698822,0.900572657585144,0.8346471190452576
1782969369309503700,7.736503662109375,-0.29215487837791443,0.9616304039955139,1.0116618871688843
1782969369319430000,7.746429931640625,-0.3054839074611664,1.0681087970733643,1.1678271293640137
1782969369329355800,7.756355712890625,-0.3512308895587921,1.1972066164016724,1.2810115814208984
1782969369339282000,7.766281982421875,-0.3514174818992615,1.2860544919967651,1.2689725160598755
1782969369349208800,7.776208740234375,-0.29093149304389954,1.330770492553711,1.1193807125091553
1782969369359135000,7.786135009765625,-0.1806323528289795,1.3300256729125977,0.9025554060935974
1782969369369060900,7.796060791015625,-0.06159944087266922,1.2801268100738525,0.7180273532867432
1782969369378986800,7.80598681640625,0.035884372889995575,1.173012375831604,0.5908467769622803
1782969369388913000,7.815912841796875,0.1311246156692505,0.988016664981842,0.5026660561561584
1782969369398839800,7.82583984375,0.21089905500411987,0.7226063013076782,0.40242621302604675
1782969369408765700,7.835765625,0.2628016471862793,0.48072150349617004,0.27017682790756226
1782969369418691800,7.84569189453125,0.2911839783191681,0.2945725619792938,0.1082397997379303
1782969369428617700,7.85561767578125,0.2952900230884552,0.12975458800792694,-0.07014326006174088
1782969369438544000,7.8655439453125,0.25416651368141174,-0.07343041151762009,-0.22407108545303345
1782969369448470800,7.875470703125,0.18198846280574799,-0.27759313583374023,-0.36958834528923035
1782969369458397000,7.88539697265625,0.11449898034334183,-0.4278869330883026,-0.5591583251953125
1782969369468322800,7.89532275390625,0.059376876801252365,-0.4897145926952362,-0.8107554316520691
1782969369478249000,7.9052490234375,0.08254886418581009,-0.5109302997589111,-1.0514618158340454
1782969369488174800,7.9151748046875,0.21940259635448456,-0.5372375249862671,-1.235141634941101
1782969369498101800,7.925101806640625,0.4277266263961792,-0.6664963364601135,-1.3372746706008911
1782969369508028000,7.93502783203125,0.6448962092399597,-0.9970404505729675,-1.3966865539550781
1782969369517953800,7.944953857421875,0.7862977981567383,-1.6609783172607422,-1.4597364664077759
1782969369527879700,7.954879638671875,0.8405349254608154,-2.695082664489746,-1.5824445486068726
1782969369537805800,7.964805908203125,0.8333937525749207,-3.8561978340148926,-1.6478286981582642
1782969369547732000,7.97473193359375,0.7785052061080933,-4.65065336227417,-1.3448320627212524
1782969369557659000,7.984658935546875,0.6735148429870605,-4.731490135192871,-0.6406953930854797
1782969369567584800,7.994584716796875,0.5147603154182434,-3.862644910812378,0.20498418807983398
1782969369577511000,8.004510986328125,0.3342101573944092,-2.238170623779297,0.7697552442550659
1782969369587436800,8.014436767578125,0.15010610222816467,-0.3589552044868469,0.791720449924469
1782969369597362700,8.02436279296875,-0.10695596784353256,1.2824132442474365,0.4350140392780304
1782969369607289900,8.034289794921875,-0.4298418462276459,2.506505250930786,0.056934110820293427
1782969369617215700,8.0442158203125,-0.7057852745056152,3.1838948726654053,-0.1797582507133484
1782969369627141600,8.0541416015625,-0.8629977703094482,3.2607579231262207,-0.2455039769411087
1782969369637067800,8.06406787109375,-0.9002833962440491,2.872870445251465,-0.18259041011333466
1782969369646994000,8.073993896484374,-0.8277463912963867,2.1879305839538574,-0.009809846058487892
1782969369656920800,8.0839208984375,-0.6952536702156067,1.415822148323059,0.2655993103981018
1782969369666846700,8.0938466796875,-0.5465653538703918,0.7594423890113831,0.5773100852966309
1782969369676772900,8.10377294921875,-0.4000505208969116,0.33685341477394104,0.8413673639297485
1782969369686699000,8.113698974609376,-0.2909269630908966,0.1427992433309555,0.9783462285995483
1782969369696624600,8.123624755859375,-0.23036636412143707,0.1518440693616867,0.9678906202316284
1782969369706550800,8.13355078125,-0.2252001017332077,0.35875436663627625,0.8292054533958435
1782969369716478000,8.14347802734375,-0.2621948719024658,0.7042422890663147,0.6167923808097839
1782969369726403800,8.15340380859375,-0.3061599135398865,1.0887196063995361,0.4066316783428192
1782969369736329700,8.163329833984376,-0.37387144565582275,1.4328420162200928,0.2725072503089905
1782969369746256000,8.173255859375,-0.4273064434528351,1.665761113166809,0.22928547859191895
1782969369756181800,8.183181640625,-0.45680978894233704,1.7408654689788818,0.2555917799472809
1782969369766108700,8.193108642578125,-0.43967849016189575,1.6158509254455566,0.2821842432022095
1782969369776034800,8.203034912109375,-0.3675324618816376,1.3382471799850464,0.30292224884033203
1782969369785961200,8.212961181640624,-0.25105246901512146,1.0013272762298584,0.3379228413105011
1782969369795887000,8.22288720703125,-0.10819851607084274,0.6708192825317383,0.44433823227882385
1782969369805813000,8.23281298828125,0.05210593715310097,0.3760960102081299,0.5850613117218018
1782969369815740200,8.242740234375,0.19770637154579163,0.16523957252502441,0.72425377368927
1782969369825666300,8.252666259765626,0.3297072947025299,0.04630546644330025,0.8005847930908203
1782969369835592000,8.262592041015624,0.3873228430747986,-0.05727466568350792,0.7846618890762329
1782969369845518000,8.27251806640625,0.3628305494785309,-0.16486237943172455,0.7199925780296326
1782969369855444200,8.2824443359375,0.2968165874481201,-0.27656716108322144,0.5760124325752258
1782969369865371000,8.292370849609375,0.2292868047952652,-0.38603001832962036,0.369899183511734
1782969369875297000,8.302297119140626,0.18437747657299042,-0.5190050005912781,0.14128300547599792
1782969369885223200,8.31222314453125,0.17344066500663757,-0.6845236420631409,-0.06239449232816696
1782969369895149000,8.322149169921875,0.2170497328042984,-0.9250866174697876,-0.19085025787353516
1782969369905075200,8.3320751953125,0.3323736786842346,-1.2337384223937988,-0.24782192707061768
1782969369915001000,8.3420009765625,0.5438321828842163,-1.6406804323196411,-0.30438217520713806
1782969369924928300,8.35192822265625,0.7791621685028076,-2.169067621231079,-0.4483419954776764
1782969369934854100,8.361854248046875,0.9977506995201111,-2.7309069633483887,-0.6996774673461914
1782969369944780000,8.371780029296875,1.1765400171279907,-3.261812448501587,-1.071847915649414
1782969369954706200,8.3817060546875,1.269062876701355,-3.7726080417633057,-1.565647840499878
1782969369964632000,8.391632080078125,1.1672648191452026,-4.477688789367676,-2.0479488372802734
1782969369974559000,8.40155908203125,0.9746459126472473,-5.477656841278076,-2.3516132831573486
1782969369984485000,8.411485107421875,0.983498752117157,-6.447100639343262,-2.4545507431030273
1782969369994411000,8.421410888671875,1.2825381755828857,-6.772354602813721,-2.2487404346466064
1782969370004337200,8.431337158203124,1.6056139469146729,-6.155336380004883,-1.5605525970458984
1782969370014263000,8.441262939453125,1.601202368736267,-4.515779972076416,-0.3911432921886444
1782969370024190200,8.451190185546874,1.0903449058532715,-2.2009217739105225,0.7750077843666077
1782969370034116000,8.4611162109375,0.3303978145122528,0.2136097550392151,1.5194051265716553
1782969370044042000,8.4710419921875,-0.3457612097263336,2.1605517864227295,1.6649503707885742
1782969370053968100,8.480968017578125,-0.8020828366279602,3.409764051437378,1.3781105279922485
1782969370063894000,8.49089404296875,-0.9824315309524536,3.8063132762908936,0.9056040048599243
1782969370073821200,8.5008212890625,-0.9479233026504517,3.507155656814575,0.5428241491317749
1782969370083747000,8.5107470703125,-0.8450326323509216,2.768944025039673,0.477917343378067
1782969370093673000,8.5206728515625,-0.7042574882507324,1.8220505714416504,0.6646905541419983
1782969370103599000,8.53059912109375,-0.5119106769561768,0.8549931645393372,0.979568600654602
1782969370113525200,8.540525146484375,-0.287155419588089,0.0004066731780767441,1.2932372093200684
1782969370123452200,8.5504521484375,-0.08964285999536514,-0.6062089204788208,1.5431588888168335
1782969370133378000,8.5603779296875,0.06478258222341537,-0.923098623752594,1.6580528020858765
1782969370143304200,8.57030419921875,0.16374938189983368,-1.0642520189285278,1.6919841766357422
1782969370153230000,8.58022998046875,0.2282048761844635,-1.0490039587020874,1.646363615989685
1782969370163156000,8.590156005859376,0.2669757008552551,-0.9139212369918823,1.5569854974746704
1782969370173082000,8.60008203125,0.2898485064506531,-0.727479100227356,1.461055040359497
1782969370183009000,8.610009033203125,0.2666393220424652,-0.49095872044563293,1.4250578880310059
1782969370192935000,8.619934814453124,0.20774725079536438,-0.1870313137769699,1.478060245513916
1782969370202861000,8.629861083984375,0.1620553880929947,0.11547928303480148,1.520185112953186
1782969370212787200,8.639787109375,0.15151642262935638,0.39565402269363403,1.453640341758728
1782969370222713000,8.649713134765625,0.18312734365463257,0.6389420032501221,1.2530070543289185
1782969370232640000,8.659639892578125,0.23218469321727753,0.8548203706741333,0.9970420002937317
1782969370242566100,8.669566162109374,0.2657937705516815,1.0150891542434692,0.7025994658470154
1782969370252492300,8.6794921875,0.2629645764827728,1.0959901809692383,0.39124664664268494
1782969370262418000,8.68941796875,0.22710272669792175,1.0805017948150635,0.08083206415176392
1782969370272344000,8.699343994140625,0.1741005778312683,0.9462170004844666,-0.19113105535507202
1782969370282271200,8.709271240234376,0.1303538978099823,0.7062931060791016,-0.41437479853630066
1782969370292196900,8.71919677734375,0.09052512794733047,0.42237481474876404,-0.6117200255393982
1782969370302123000,8.729123046875,0.0673588216304779,0.09562332183122635,-0.7748700380325317
1782969370312049200,8.739049072265624,0.06980670988559723,-0.2529216408729553,-0.8800116777420044
1782969370321975000,8.74897509765625,0.10131296515464783,-0.5856119990348816,-0.926369309425354
1782969370331901200,8.758901123046876,0.17593929171562195,-0.8590663075447083,-0.9321750402450562
1782969370341828000,8.768828125,0.3024570345878601,-1.1003113985061646,-0.9376960396766663
1782969370351754200,8.778754150390625,0.44647151231765747,-1.2735536098480225,-1.005253553390503
1782969370361680100,8.78868017578125,0.5463972687721252,-1.318272352218628,-1.1463093757629395
1782969370371606000,8.79860595703125,0.5764204263687134,-1.2995922565460205,-1.361642599105835
1782969370381532200,8.8085322265625,0.5368674397468567,-1.2975139617919922,-1.6286766529083252
1782969370391459000,8.818458984375,0.4831635057926178,-1.4650317430496216,-1.9938446283340454
1782969370401385000,8.828385009765626,0.5416632890701294,-2.0197622776031494,-2.319202184677124
1782969370411311000,8.83831103515625,0.8877544403076172,-2.916266918182373,-2.3623600006103516
1782969370421237000,8.848237060546875,1.4433729648590088,-3.706371784210205,-2.0210981369018555
1782969370431163100,8.8581630859375,1.9222159385681152,-4.201218128204346,-1.3655784130096436
1782969370441090000,8.868090087890625,1.9975972175598145,-4.435330390930176,-0.4550289809703827
1782969370451016200,8.87801611328125,1.7117340564727783,-3.8508152961730957,0.33927109837532043
1782969370460942000,8.887942138671875,1.0527329444885254,-2.238614559173584,0.7304969429969788
1782969370470868200,8.8978681640625,0.14762023091316223,-0.20721986889839172,0.5497696399688721
1782969370480794000,8.907794189453124,-0.7653459906578064,1.7702968120574951,0.0946652740240097
1782969370490721000,8.917720947265625,-1.3679512739181519,3.3271195888519287,-0.4271181523799896
1782969370500647200,8.927647216796874,-1.5767226219177246,4.068215370178223,-0.9091252684593201
1782969370510573000,8.937572998046875,-1.5320485830307007,3.935939073562622,-1.132003903388977
1782969370520499000,8.9474990234375,-1.3989360332489014,3.2492830753326416,-1.0923347473144531
1782969370530425000,8.957425048828124,-1.2889269590377808,2.339087724685669,-0.7605165839195251
1782969370540351200,8.967351318359375,-1.1540583372116089,1.340396761894226,-0.2988983988761902
1782969370550278100,8.977278076171874,-0.9732527732849121,0.49585023522377014,0.14716129004955292
1782969370560204000,8.9872041015625,-0.8022352457046509,-0.054245129227638245,0.5341532230377197
1782969370570130200,8.997130126953126,-0.6938484907150269,-0.3006950914859772,0.7936834692955017
1782969370580056000,9.00705615234375,-0.6657902598381042,-0.2834489941596985,0.9287595152854919
1782969370589982000,9.01698193359375,-0.7138884663581848,-0.053578488528728485,0.9670095443725586
1782969370599909000,9.0269091796875,-0.8116757273674011,0.321526437997818,0.9425737261772156
1782969370609835300,9.036835205078125,-0.9348600506782532,0.7791669964790344,0.8728266358375549
1782969370619761000,9.046760986328126,-1.0891486406326294,1.2716784477233887,0.8233967423439026
1782969370629687000,9.05668701171875,-1.228322982788086,1.7473779916763306,0.8347363471984863
1782969370639613200,9.06661328125,-1.339273452758789,2.107797861099243,0.9014346599578857
1782969370649540000,9.0765400390625,-1.3967567682266235,2.2311935424804688,0.9651811122894287
1782969370659466000,9.086466064453125,-1.380447506904602,2.199397087097168,0.9352386593818665
1782969370669392100,9.09639208984375,-1.280032753944397,2.099301338195801,0.7375797629356384
1782969370679318300,9.106318359375,-1.1483772993087769,1.9740514755249023,0.4067690968513489
1782969370689244000,9.116243896484375,-1.0366010665893555,1.8759288787841797,0.06247979775071144
1782969370699171000,9.126171142578125,-0.7906626462936401,1.9313849210739136,-0.3538593649864197
1782969370709097200,9.13609716796875,-0.6014439463615417,1.9859211444854736,-0.7228261828422546
1782969370719023000,9.146023193359374,-0.45655494928359985,2.1384012699127197,-1.0412086248397827
1782969370728949000,9.155948974609375,-0.3156310021877289,2.3609087467193604,-1.3564748764038086
1782969370738875100,9.165875244140626,-0.19103898108005524,2.4929914474487305,-1.6290022134780884
1782969370748801000,9.175801025390625,-0.06706251204013824,2.465369701385498,-1.8322566747665405
1782969370758728000,9.18572802734375,0.009735594503581524,2.236452341079712,-1.894681453704834
1782969370768654000,9.195654052734374,-0.006011531688272953,1.7511025667190552,-1.7279810905456543
1782969370778580200,9.205580322265625,-0.1063929945230484,1.086792230606079,-1.4528560638427734
1782969370788505900,9.215505859375,-0.1970541924238205,0.32465729117393494,-1.2650318145751953
1782969370798431700,9.225431640625,-0.22965368628501892,-0.466604620218277,-1.2739789485931396
1782969370808358700,9.235358642578126,-0.24170298874378204,-1.2805821895599365,-1.5202425718307495
1782969370818284800,9.245284912109375,-0.1972351223230362,-2.108396291732788,-1.9850118160247803
1782969370828210700,9.255210693359375,-0.059200968593358994,-3.0358948707580566,-2.562832832336426
1782969370838136600,9.265136474609376,0.162875235080719,-4.095375061035156,-2.918313980102539
1782969370848062700,9.275062744140625,0.43589627742767334,-5.120331287384033,-2.7214136123657227
1782969370857990000,9.284989990234376,0.7499479651451111,-5.909093379974365,-1.9939136505126953
1782969370867915500,9.29491552734375,1.1134107112884521,-6.254384994506836,-1.18966543674469
1782969370877841700,9.304841552734375,1.4425183534622192,-5.822047710418701,-0.40496739745140076
1782969370887767800,9.314767822265624,1.5833512544631958,-4.715627193450928,0.4048556089401245
1782969370897693700,9.324693603515625,1.2439683675765991,-3.379366397857666,1.40309739112854
1782969370907620600,9.33462060546875,0.7613350749015808,-1.8549375534057617,2.2547836303710938
1782969370917546800,9.344546630859375,0.23826491832733154,-0.08285476267337799,2.768831491470337
1782969370927472600,9.35447265625,-0.2469722330570221,1.6668212413787842,2.7850778102874756
1782969370937398800,9.364398681640624,-0.6134098768234253,2.9786784648895264,2.3212203979492188
1782969370947324700,9.37432470703125,-0.8344208598136902,3.611189842224121,1.645820140838623
1782969370957250600,9.38425048828125,-0.966091513633728,3.7019214630126953,1.1132869720458984
1782969370967177700,9.394177734375,-0.9965604543685913,3.2904903888702393,0.747418999671936
1782969370977103600,9.404103515625,-0.9445928931236267,2.509053945541382,0.5156310796737671
1782969370987029800,9.41402978515625,-0.8857929110527039,1.7199976444244385,0.5114143490791321
1782969370996955600,9.42395556640625,-0.8077878355979919,1.0643361806869507,0.6492199301719666
1782969371006881800,9.4338818359375,-0.7255319952964783,0.5751956105232239,0.7892606258392334
1782969371016808700,9.44380859375,-0.6422317624092102,0.282269686460495,0.8735201358795166
1782969371026734600,9.453734619140626,-0.547114908695221,0.1929275393486023,0.8947147727012634
1782969371036660700,9.46366064453125,-0.4495142996311188,0.2705554962158203,0.9023399353027344
1782969371046586600,9.473586669921875,-0.36512434482574463,0.4843067228794098,0.9104328155517578
1782969371056512500,9.483512451171874,-0.2951364517211914,0.7827882766723633,0.9359477758407593
1782969371066438700,9.493438720703125,-0.22815106809139252,1.0941121578216553,0.9897288084030151
1782969371076365800,9.50336572265625,-0.17093969881534576,1.3407049179077148,1.0686651468276978
1782969371086291700,9.513291748046875,-0.1383841335773468,1.5408090353012085,1.1714396476745605
1782969371096217600,9.523217529296875,-0.08334246277809143,1.6680903434753418,1.2821004390716553
1782969371106143700,9.533143798828124,0.03676292672753334,1.6749746799468994,1.3423783779144287
1782969371116070000,9.54306982421875,0.22844794392585754,1.55478036403656,1.3083094358444214
1782969371125996500,9.55299658203125,0.4270976483821869,1.386464238166809,1.1840229034423828
1782969371135922700,9.562922607421875,0.575663149356842,1.208639144897461,0.9903383851051331
1782969371145848800,9.572848876953126,0.6461521983146667,0.984754741191864,0.7585330605506897
1782969371155774700,9.582774658203125,0.6149607300758362,0.7504860162734985,0.5125826597213745
1782969371165700600,9.59270068359375,0.5484086871147156,0.51584792137146,0.19502608478069305
1782969371175627800,9.602627685546874,0.44819608330726624,0.2597751319408417,-0.17329095304012299
1782969371185553700,9.6125537109375,0.3658616542816162,-0.017547260969877243,-0.542594850063324
1782969371195479600,9.6224794921875,0.3228369653224945,-0.30352070927619934,-0.8742486834526062
1782969371205405700,9.63240576171875,0.3049223721027374,-0.5650089383125305,-1.1330269575119019
1782969371215331800,9.642331787109375,0.30295562744140625,-0.764168918132782,-1.313850998878479
1782969371225258500,9.652258544921875,0.30062511563301086,-0.918153703212738,-1.4481946229934692
1782969371235184600,9.6621845703125,0.32764342427253723,-1.0891062021255493,-1.54636812210083
1782969371245110800,9.67211083984375,0.39621222019195557,-1.3413788080215454,-1.6417227983474731
1782969371255036700,9.68203662109375,0.5124685168266296,-1.7456532716751099,-1.7226983308792114
1782969371264962600,9.691962646484376,0.6150882840156555,-2.383206605911255,-1.7500965595245361
1782969371274889700,9.7018896484375,0.6160760521888733,-3.1344804763793945,-1.6202325820922852
1782969371284816000,9.71181591796875,0.5564184784889221,-3.8386709690093994,-1.3850679397583008
1782969371294741500,9.721741455078124,0.5591575503349304,-4.393536567687988,-1.2580196857452393
1782969371304667600,9.731667724609375,0.6345168352127075,-4.616078853607178,-1.1981267929077148
1782969371314593800,9.74159375,0.7297256588935852,-4.0906291007995605,-0.8274549841880798
1782969371324519700,9.751519775390625,0.6091825366020203,-2.5032458305358887,-0.11917271465063095
1782969371334446600,9.761446533203125,0.19829805195331573,-0.23412790894508362,0.5956836342811584
1782969371344372700,9.771372802734374,-0.28782424330711365,1.9403706789016724,1.0074167251586914
1782969371354298600,9.781298583984375,-0.669862687587738,3.5141940116882324,1.0466240644454956
1782969371364224800,9.791224853515626,-0.9090585112571716,4.422173976898193,0.8610546588897705
1782969371374150700,9.801150634765625,-1.0002505779266357,4.655847549438477,0.6542475819587708
1782969371384077800,9.811077880859376,-0.9964662790298462,4.322741985321045,0.5493083596229553
1782969371394003700,9.821003662109375,-0.9498367309570312,3.633481979370117,0.591853678226471
1782969371403929600,9.8309296875,-0.8763983249664307,2.8541295528411865,0.7683495879173279
1782969371413855700,9.840855712890624,-0.7740820646286011,2.1660749912261963,0.9915717244148254
1782969371423781600,9.85078173828125,-0.6534408926963806,1.6437870264053345,1.1253355741500854
1782969371433707800,9.860707763671876,-0.5655813217163086,1.3215807676315308,1.0982853174209595
1782969371443634700,9.870634765625,-0.5242634415626526,1.229074478149414,0.9263451099395752
1782969371453560600,9.880560546875,-0.5151898264884949,1.333207368850708,0.6869958639144897
1782969371463486700,9.89048681640625,-0.5344421863555908,1.5690830945968628,0.48580068349838257
1782969371473412900,9.900412841796875,-0.5758410096168518,1.8295634984970093,0.40873971581459045
1782969371483338500,9.91033837890625,-0.5951682925224304,2.0575292110443115,0.4894653260707855
1782969371493265700,9.920265625,-0.5514208078384399,2.1701292991638184,0.6786797046661377
1782969371503191800,9.93019189453125,-0.45812299847602844,2.1532158851623535,0.8960506916046143
1782969371513117700,9.94011767578125,-0.33602026104927063,2.037402391433716,1.099669337272644
1782969371523043600,9.950043701171875,-0.2113877683877945,1.8605657815933228,1.2673070430755615
1782969371532969700,9.9599697265625,-0.11691053956747055,1.63139808177948,1.3412939310073853
1782969371542896600,9.969896728515625,-0.07363193482160568,1.431114673614502,1.2992141246795654
1782969371552822500,9.979822509765626,-0.07731562107801437,1.3891825675964355,1.140296459197998
1782969371562748700,9.989748779296875,-0.0858956128358841,1.4704290628433228,0.8877764344215393
1782969371572674800,9.9996748046875,-0.13317736983299255,1.6232671737670898,0.591621994972229
1782969371582600700,10.0096005859375,-0.20768561959266663,1.8140754699707031,0.2845207452774048
1782969371592527600,10.019527587890625,-0.2817305624485016,1.933455467224121,0.019437681883573532
1782969371602453800,10.029453857421874,-0.3809147775173187,1.8860019445419312,-0.12115416675806046
1782969371612380000,10.0393798828125,-0.4911235570907593,1.6511777639389038,-0.13192026317119598
1782969371622305500,10.049305419921875,-0.5858919024467468,1.2343580722808838,-0.10999418795108795
1782969371632231700,10.059231689453124,-0.6495049595832825,0.6826158165931702,-0.10650598257780075
1782969371642158800,10.069158935546875,-0.593035876750946,0.07283145934343338,-0.2070087492465973
1782969371652084500,10.07908447265625,-0.4765830338001251,-0.5063011646270752,-0.3917519748210907
1782969371662010600,10.0890107421875,-0.2966802418231964,-1.1151604652404785,-0.6696312427520752
1782969371671936800,10.098936767578126,-0.07417979836463928,-1.7944802045822144,-0.9440028667449951
1782969371681862700,10.108862548828125,0.1453673541545868,-2.5618834495544434,-1.2516406774520874
1782969371691788800,10.118788818359375,0.3321087658405304,-3.039525270462036,-1.6919611692428589
1782969371701715700,10.1287158203125,0.312793105840683,-3.04305100440979,-2.4204959869384766
1782969371711641900,10.138641845703125,-0.010899482294917107,-2.755833625793457,-3.286477565765381
1782969371721567700,10.148567626953126,-0.5283598303794861,-2.8981268405914307,-4.053020000457764
1782969371731493600,10.15849365234375,-0.9413764476776123,-3.586541175842285,-4.349526882171631
1782969371741419800,10.168419677734375,-0.9702164530754089,-3.7819607257843018,-3.629390239715576
1782969371751346700,10.1783466796875,-0.5092983841896057,-3.308392286300659,-2.071864128112793
1782969371761272600,10.1882724609375,0.040951408445835114,-2.6833596229553223,-0.3715968728065491
1782969371771198700,10.19819873046875,0.4061392545700073,-1.9063125848770142,1.0698130130767822
1782969371781124600,10.20812451171875,0.44292470812797546,-1.1284265518188477,1.9936463832855225
1782969371791050800,10.21805078125,0.1782349795103073,-0.4906097948551178,2.3586888313293457
1782969371800977400,10.227977294921875,-0.18632198870182037,0.0866084098815918,2.3052053451538086
1782969371810903600,10.237903564453125,-0.491108238697052,0.6415033340454102,1.8988527059555054
1782969371820829700,10.24782958984375,-0.7070373296737671,1.1376272439956665,1.344915747642517
1782969371830755600,10.257755615234375,-0.871579110622406,1.4519984722137451,0.8010252714157104
1782969371840681500,10.267681396484376,-0.949545681476593,1.5959327220916748,0.3553846478462219
1782969371850608600,10.277608642578125,-0.938635528087616,1.5498251914978027,0.060952767729759216
1782969371860534800,10.28753466796875,-0.84295654296875,1.3009777069091797,-0.09747327864170074
1782969371870460400,10.29746044921875,-0.6987380981445312,0.943654477596283,-0.12184786051511765
1782969371880386600,10.307386474609375,-0.567803144454956,0.6374114155769348,-0.048244427889585495
1782969371890312700,10.317312744140626,-0.43423953652381897,0.47069379687309265,0.053401507437229156
1782969371900238600,10.327238525390625,-0.3243100345134735,0.4428148865699768,0.15583781898021698
1782969371910165500,10.33716552734375,-0.24404607713222504,0.4874204397201538,0.24254581332206726
1782969371920091600,10.347091552734375,-0.19658969342708588,0.585018515586853,0.2840014100074768
1782969371930017500,10.357017578125,-0.1782306581735611,0.7136390805244446,0.29343539476394653
1782969371939943700,10.366943603515624,-0.1744047850370407,0.8567086458206177,0.30332809686660767
1782969371949869600,10.37686962890625,-0.17552970349788666,1.000154733657837,0.32324719429016113
1782969371959796700,10.386796630859376,-0.22378185391426086,1.1140329837799072,0.38943299651145935
1782969371969722600,10.39672265625,-0.297105610370636,1.1645020246505737,0.5285261869430542
1782969371979648500,10.4066484375,-0.3283420205116272,1.1191428899765015,0.7116870880126953
1782969371989574700,10.41657470703125,-0.30313706398010254,0.9336630702018738,0.8605066537857056
1782969371999500500,10.42650048828125,-0.2350059449672699,0.6785951256752014,0.9158452749252319
1782969372009427500,10.436427490234376,-0.1208663359284401,0.4405628442764282,0.8946830034255981
1782969372019353600,10.446353515625,0.01898866705596447,0.24565242230892181,0.7927716970443726
1782969372029279500,10.456279541015626,0.1432666778564453,0.0951089859008789,0.6365501284599304
1782969372039205600,10.46620556640625,0.2561563551425934,0.016031447798013687,0.4786246120929718
1782969372049131500,10.476131591796875,0.3514291048049927,-0.013999953866004944,0.33222612738609314
1782969372059057400,10.486057373046876,0.3854060471057892,0.03121957555413246,0.20527715981006622
1782969372068984600,10.495984619140625,0.36856767535209656,0.1113109439611435,0.09122702479362488
1782969372078910500,10.505910400390626,0.33815568685531616,0.1706690639257431,-0.039266083389520645
1782969372088836600,10.515836669921875,0.3240281641483307,0.17564678192138672,-0.20499193668365479
1782969372098762500,10.525762451171875,0.35505199432373047,0.19362972676753998,-0.4042823314666748
1782969372108688600,10.535688720703124,0.4349585473537445,0.10490173101425171,-0.7301376461982727
1782969372118615600,10.545615478515625,0.5555295944213867,-0.31637752056121826,-1.343525767326355
1782969372128541400,10.55554150390625,0.6860558986663818,-1.2380470037460327,-2.2263271808624268
1782969372138467600,10.565467529296875,0.7617906928062439,-2.4302289485931396,-2.9755351543426514
1782969372148393700,10.575393798828125,0.7625028491020203,-3.70816969871521,-3.232468843460083
1782969372158319400,10.5853193359375,0.7021457552909851,-3.353154420852661,-3.066840171813965
1782969372168246500,10.59524658203125,0.12092334777116776,-2.539425849914551,-2.9320976734161377
1782969372178172700,10.605172607421874,-0.4056004583835602,-1.5498014688491821,-2.4942359924316406
1782969372188098600,10.6150986328125,-0.6187577247619629,-0.1404161900281906,-1.6636614799499512
1782969372198024400,10.6250244140625,-0.5639345049858093,0.6440737247467041,-0.23656699061393738
1782969372207950600,10.63495068359375,-0.48514804244041443,0.9568172693252563,1.347580075263977
1782969372217877500,10.64487744140625,-0.4380573332309723,1.1294517517089844,2.3064122200012207
1782969372227803400,10.654803466796874,-0.3603132665157318,1.2787482738494873,2.444364547729492
1782969372237729500,10.6647294921875,-0.25896310806274414,1.4616750478744507,1.9477587938308716
1782969372247655700,10.67465576171875,-0.14371055364608765,1.6087381839752197,1.2590895891189575
1782969372257581600,10.68458154296875,-0.11524306982755661,1.5793418884277344,0.7055141925811768
1782969372267507500,10.694507568359375,-0.14927586913108826,1.3459070920944214,0.3786396086215973
1782969372277434600,10.7044345703125,-0.21226492524147034,0.9871307611465454,0.26606112718582153
1782969372287360800,10.71436083984375,-0.248249813914299,0.6125518679618835,0.2975093424320221
1782969372297286400,10.724286376953126,-0.2345290631055832,0.3224203586578369,0.37675416469573975
1782969372307212500,10.734212646484375,-0.17285291850566864,0.2468816488981247,0.36194220185279846
1782969372317138700,10.744138671875,-0.07820934057235718,0.3257700502872467,0.21504266560077667
1782969372327065300,10.7540654296875,0.0027076173573732376,0.45313361287117004,0.003982078284025192
1782969372336991500,10.763991455078125,0.05018787086009979,0.6229125261306763,-0.2013888955116272
1782969372346917600,10.773917724609374,0.09573511779308319,0.7117928862571716,-0.35766398906707764
1782969372356843500,10.783843505859375,0.12043968588113785,0.6688736081123352,-0.4186130166053772
1782969372366769700,10.793769775390626,0.13910284638404846,0.5579519271850586,-0.4255926311016083
1782969372376696600,10.803696533203125,0.1498548835515976,0.4348629415035248,-0.36811649799346924
1782969372386622700,10.813622802734375,0.12902657687664032,0.31436824798583984,-0.258897066116333
1782969372396548600,10.823548583984374,0.08458862453699112,0.20516729354858398,-0.13047701120376587
1782969372406474500,10.833474609375,0.048587214201688766,0.10973265022039413,-0.017782418057322502
1782969372416400600,10.843400634765626,-0.00035364620271138847,0.03419564664363861,0.09508639574050903
1782969372426326500,10.853326416015625,-0.05015582591295242,-0.03495146706700325,0.20910245180130005
1782969372436253400,10.86325341796875,-0.08800093829631805,-0.10593163222074509,0.31296253204345703
1782969372446179600,10.8731796875,-0.08288341015577316,-0.1929781287908554,0.39401423931121826
1782969372456105500,10.88310546875,-0.026810117065906525,-0.2857246696949005,0.46759334206581116
1782969372466031600,10.893031494140626,0.05434039607644081,-0.35681670904159546,0.5358099341392517
1782969372475957800,10.902957763671875,0.11583627760410309,-0.3674863576889038,0.5923846960067749
1782969372485884700,10.912884765625,0.13893307745456696,-0.2722349464893341,0.5880826115608215
1782969372495810600,10.922810546875,0.13648509979248047,-0.12644989788532257,0.48053550720214844
1782969372505736700,10.93273681640625,0.10505341738462448,0.026309823617339134,0.28770241141319275
1782969372515662600,10.94266259765625,0.029882270842790604,0.14106588065624237,0.08307012915611267
1782969372525588500,10.95258837890625,-0.07687080651521683,0.1632833033800125,-0.013822857290506363
1782969372535515600,10.962515625,-0.1543472707271576,0.014184546656906605,0.043965552002191544
1782969372545441500,10.972441650390625,-0.17175689339637756,-0.34583327174186707,0.34003183245658875
1782969372555367400,10.982367431640625,-0.14718586206436157,-0.703960120677948,0.5228580832481384
1782969372565293600,10.99229345703125,-0.09943564981222153,-0.9755743145942688,0.5716983675956726
1782969372575219700,11.0022197265625,-0.038586050271987915,-1.1206121444702148,0.33089587092399597
1782969372585146600,11.012146728515624,0.03192513436079025,-1.0475001335144043,-0.16441453993320465
1782969372595072500,11.022072509765625,0.07313352823257446,-0.7551317811012268,-0.7965263724327087
1782969372604998700,11.03199853515625,0.059309061616659164,-0.40874743461608887,-1.3256959915161133
1782969372614924500,11.041924560546875,-0.021938245743513107,-0.14230622351169586,-1.5296130180358887
1782969372624850400,11.051850341796875,-0.15600550174713135,-0.015483825467526913,-1.3828233480453491
1782969372634776600,11.061776611328124,-0.2524692118167877,-0.10778872668743134,-0.9720115661621094
