time,seconds_elapsed,z,y,x
1782969361635322000,0.062322021484375,0.10476423054933548,1.6532493829727173,0.09855800122022629
1782969361645249000,0.0722490234375,0.17249374091625214,1.582890510559082,0.17852208018302917
1782969361655175200,0.082175048828125,0.18046803772449493,1.2719414234161377,0.22744327783584595
1782969361665101300,0.092101318359375,0.12335442751646042,0.8628638982772827,0.2421623021364212
1782969361675027200,0.102027099609375,0.014370417222380638,0.5261871218681335,0.15866315364837646
1782969361684953000,0.111953125,-0.09435712546110153,0.2852402627468109,0.03361361846327782
1782969361694880300,0.12188037109375,-0.17647330462932587,0.2671044170856476,-0.10957629233598709
1782969361704806100,0.13180615234375,-0.20573478937149048,0.4256761968135834,-0.22591276466846466
1782969361714732300,0.141732177734375,-0.18391603231430054,0.5553234219551086,-0.3338102102279663
1782969361724658200,0.151658203125,-0.1213354840874672,0.5804167985916138,-0.3984251320362091
1782969361734584000,0.161583984375,-0.06006626784801483,0.4698335528373718,-0.3486035168170929
1782969361744510200,0.17151025390625,-0.05823827162384987,0.2539188265800476,-0.161896750330925
1782969361754437000,0.18143701171875,-0.10221105813980103,0.10700447857379913,0.09069661051034927
1782969361764363300,0.19136328125,-0.20462052524089813,0.06015574932098389,0.3020578622817993
1782969361774288600,0.20128857421875,-0.3058992028236389,0.1102527379989624,0.40295037627220154
1782969361784214500,0.211214599609375,-0.38182884454727173,0.3027082085609436,0.40473151206970215
1782969361794140700,0.221140625,-0.4466472566127777,0.5533774495124817,0.3801209628582001
1782969361804067600,0.231067626953125,-0.49989691376686096,0.7265902161598206,0.3295174539089203
1782969361813993500,0.240993408203125,-0.5450894236564636,0.737993061542511,0.2678482234477997
1782969361823919600,0.250919677734375,-0.5498554110527039,0.6154525279998779,0.21929560601711273
1782969361833845500,0.260845458984375,-0.5205654501914978,0.3811225891113281,0.1640922725200653
1782969361843771400,0.270771484375,-0.4958007037639618,0.10920131951570511,0.09692281484603882
1782969361853698600,0.280698486328125,-0.4874325096607208,-0.11482805013656616,0.01943042315542698
1782969361863624400,0.29062451171875,-0.4870982766151428,-0.2717587947845459,-0.05085093155503273
1782969361873550600,0.300550537109375,-0.5033702254295349,-0.3906348645687103,-0.12865464389324188
1782969361883476500,0.3104765625,-0.519664466381073,-0.45029711723327637,-0.2386477291584015
1782969361893402600,0.320402587890625,-0.5283016562461853,-0.462240070104599,-0.35424089431762695
1782969361903329500,0.33032958984375,-0.5129096508026123,-0.4141782820224762,-0.45539841055870056
1782969361913255400,0.34025537109375,-0.4609188735485077,-0.35119131207466125,-0.5210940837860107
1782969361923181600,0.350181640625,-0.3692014813423157,-0.33723077178001404,-0.5429649949073792
1782969361933107700,0.360107666015625,-0.28893592953681946,-0.391256719827652,-0.5016782879829407
1782969361943033300,0.370033447265625,-0.20736117660999298,-0.5385614633560181,-0.45872336626052856
1782969361952960500,0.37996044921875,-0.10468859225511551,-0.8051502704620361,-0.4314262270927429
1782969361962886700,0.38988671875,0.025622539222240448,-1.2349234819412231,-0.5084366202354431
1782969361972812500,0.3998125,0.09854228794574738,-1.859123945236206,-0.75240159034729
1782969361982738400,0.409738525390625,0.06954498589038849,-2.595747709274292,-1.0752147436141968
1782969361992664600,0.41966455078125,-0.005889580585062504,-3.4049015045166016,-1.452446460723877
1782969362002590700,0.4295908203125,-0.02251383103430271,-4.235569477081299,-1.9117445945739746
1782969362012517400,0.439517333984375,0.09752282500267029,-5.010735988616943,-2.3497140407562256
1782969362022443500,0.449443603515625,0.3309779167175293,-5.6793365478515625,-2.533688545227051
1782969362032369700,0.45936962890625,0.5861497521400452,-6.248077392578125,-2.318190813064575
1782969362042295600,0.469295654296875,0.7855448722839355,-6.579112529754639,-1.5637208223342896
1782969362052221400,0.479221435546875,0.9403120875358582,-6.40971565246582,-0.18823488056659698
1782969362062148600,0.489148681640625,1.0825730562210083,-5.544406414031982,1.4605393409729004
1782969362072074800,0.49907470703125,0.9997463822364807,-3.820051908493042,2.800801992416382
1782969362082000400,0.50900048828125,0.5761642456054688,-1.4725162982940674,3.4211766719818115
1782969362091926500,0.518926513671875,0.18658292293548584,0.5724678039550781,3.1460955142974854
1782969362101852700,0.528852783203125,-0.10459112375974655,2.0683631896972656,2.263368606567383
1782969362111779300,0.538779296875,-0.27969956398010254,2.870317220687866,1.3441277742385864
1782969362121705500,0.54870556640625,-0.48500344157218933,3.0114119052886963,0.805233359336853
1782969362131631600,0.558631591796875,-0.6895877122879028,2.6228435039520264,0.667312502861023
1782969362141557500,0.5685576171875,-0.8206131458282471,1.92218816280365,0.782206654548645
1782969362151483600,0.578483642578125,-0.8288393616676331,1.0773860216140747,1.069071650505066
1782969362161410600,0.58841064453125,-0.7189520001411438,0.2793078124523163,1.4656784534454346
1782969362171336700,0.598336669921875,-0.5121474266052246,-0.3824373781681061,1.8803150653839111
1782969362181262600,0.6082626953125,-0.24648967385292053,-0.812774121761322,2.2331178188323975
1782969362191188500,0.6181884765625,0.018340924754738808,-0.9610996842384338,2.486612558364868
1782969362201114600,0.628114501953125,0.2336503118276596,-0.8444673418998718,2.6293890476226807
1782969362211041500,0.63804150390625,0.3987921178340912,-0.4703861474990845,2.47164249420166
1782969362220967400,0.647967529296875,0.44604939222335815,0.17061807215213776,1.8977304697036743
1782969362230893600,0.6578935546875,0.43696480989456177,1.284548282623291,0.8704349994659424
1782969362240819500,0.6678193359375,0.34166544675827026,2.6141860485076904,-0.3542858958244324
1782969362250745600,0.67774560546875,0.06251983344554901,3.6209428310394287,-1.301863431930542
1782969362260671500,0.68767138671875,-0.2861630618572235,4.119690895080566,-1.7602578401565552
1782969362270598700,0.6975986328125,-0.6403173804283142,3.991590738296509,-1.8491677045822144
1782969362280524500,0.707524658203125,-0.9776275157928467,3.3089258670806885,-1.7639108896255493
1782969362290450700,0.71745068359375,-1.2001575231552124,2.4699532985687256,-1.5638505220413208
1782969362300376600,0.72737646484375,-1.2924981117248535,1.7524728775024414,-1.2965903282165527
1782969362310302500,0.737302490234375,-1.2351796627044678,1.2305116653442383,-1.0752238035202026
1782969362320229600,0.747229736328125,-1.1077282428741455,0.8678099513053894,-0.9362505078315735
1782969362330155500,0.757155517578125,-0.9340976476669312,0.667150616645813,-0.9064199328422546
1782969362340081400,0.767081298828125,-0.7536335587501526,0.6033159494400024,-1.0098475217819214
1782969362350007600,0.777007568359375,-0.5452127456665039,0.6402271389961243,-1.22012460231781
1782969362359933700,0.78693359375,-0.35813817381858826,0.6254897117614746,-1.469708800315857
1782969362369860600,0.796860595703125,-0.2720717191696167,0.44255372881889343,-1.623828649520874
1782969362379786500,0.806786376953125,-0.28725069761276245,0.0911640003323555,-1.6147712469100952
1782969362389712600,0.816712646484375,-0.35836559534072876,-0.4630206525325775,-1.5256967544555664
1782969362399638500,0.826638427734375,-0.3080422580242157,-1.1225250959396362,-1.4721437692642212
1782969362409564400,0.836564453125,-0.055637162178754807,-1.6126521825790405,-1.5082173347473145
1782969362419490600,0.846490478515625,0.40984052419662476,-2.0097522735595703,-1.6008119583129883
1782969362429417700,0.856417724609375,0.9249073266983032,-2.553126096725464,-1.628461480140686
1782969362439343400,0.86634326171875,1.3293708562850952,-3.429016590118408,-1.515777587890625
1782969362449269500,0.87626953125,1.5292912721633911,-4.640443325042725,-1.3050600290298462
1782969362459195600,0.886195556640625,1.5881774425506592,-5.83119535446167,-1.072797417640686
1782969362469121500,0.89612158203125,1.6709027290344238,-6.392197608947754,-0.6260727047920227
1782969362479048400,0.90604833984375,1.771262526512146,-5.831642150878906,0.16728593409061432
1782969362488974600,0.915974609375,1.7538471221923828,-4.270381927490234,1.0738182067871094
1782969362498900700,0.925900634765625,1.534777045249939,-2.085576295852661,1.825415015220642
1782969362508826400,0.935826416015625,1.0026698112487793,0.21919307112693787,2.145583391189575
1782969362518752500,0.94575244140625,0.4240543246269226,2.0242481231689453,1.7834709882736206
1782969362528679700,0.9556796875,-0.19482460618019104,3.098022222518921,1.109562873840332
1782969362538605600,0.96560546875,-0.7699507474899292,3.3777263164520264,0.519810140132904
1782969362548531500,0.975531494140625,-1.1749560832977295,3.1442148685455322,0.2647267282009125
1782969362558457600,0.98545751953125,-1.3084707260131836,2.677963972091675,0.29242467880249023
1782969362568383500,0.995383544921875,-1.1663599014282227,2.1814467906951904,0.5184479355812073
1782969362578310400,1.005310302734375,-0.8640397191047668,1.7632137537002563,0.8584086894989014
1782969362588236500,1.015236572265625,-0.5365004539489746,1.5162659883499146,1.2171580791473389
1782969362598162700,1.02516259765625,-0.2890799939632416,1.3948231935501099,1.4883347749710083
1782969362608088600,1.035088623046875,-0.1873115748167038,1.3508011102676392,1.642052173614502
1782969362618014500,1.045014404296875,-0.23095199465751648,1.36263108253479,1.693228006362915
1782969362627940600,1.054940673828125,-0.37254586815834045,1.4147685766220093,1.6342508792877197
1782969362637867500,1.064867431640625,-0.5545830726623535,1.3923230171203613,1.469538688659668
1782969362647793400,1.07479345703125,-0.7619397044181824,1.3588271141052246,1.2562074661254883
1782969362657719600,1.084719482421875,-0.9602381587028503,1.4087024927139282,1.0716605186462402
1782969362667645400,1.0946455078125,-1.0637701749801636,1.4842987060546875,0.8149510025978088
1782969362677571600,1.104571533203125,-1.062555193901062,1.6458535194396973,0.4595617353916168
1782969362687498500,1.11449853515625,-0.9960685968399048,1.9026453495025635,0.05691467970609665
1782969362697424600,1.124424560546875,-0.9327649474143982,2.165764570236206,-0.2584374248981476
1782969362707350500,1.1343505859375,-0.9146144390106201,2.3854923248291016,-0.44540223479270935
1782969362717276700,1.144276611328125,-1.0120112895965576,2.512829303741455,-0.4817242920398712
1782969362727202600,1.15420263671875,-1.2097771167755127,2.4401285648345947,-0.43412187695503235
1782969362737129500,1.16412939453125,-1.3661712408065796,2.178022623062134,-0.4868849515914917
1782969362747055600,1.1740556640625,-1.5326228141784668,1.766480803489685,-0.7292038798332214
1782969362756981500,1.1839814453125,-1.696611762046814,1.2514287233352661,-1.0912400484085083
1782969362766907400,1.193907470703125,-1.8147319555282593,0.6798275113105774,-1.431133508682251
1782969362776834000,1.203833984375,-1.7969309091567993,0.013590376824140549,-1.6216826438903809
1782969362786760200,1.21376025390625,-1.791705846786499,-0.6459449529647827,-1.8644920587539673
1782969362796686800,1.223686767578125,-1.605911374092102,-1.1331321001052856,-2.0083422660827637
1782969362806613000,1.233613037109375,-1.3342477083206177,-1.4298427104949951,-2.1040587425231934
1782969362816539100,1.2435390625,-0.9671540856361389,-1.5308630466461182,-2.119197130203247
1782969362826464800,1.25346484375,-0.5676043033599854,-1.5212104320526123,-2.039133071899414
1782969362836391000,1.263390869140625,-0.18431603908538818,-1.5547385215759277,-1.8960559368133545
1782969362846318000,1.273318115234375,0.07146512717008591,-1.7941569089889526,-1.6781108379364014
1782969362856244000,1.283243896484375,0.15940164029598236,-2.2228987216949463,-1.4925670623779297
1782969362866169900,1.293169921875,0.2450302541255951,-2.7895774841308594,-1.5358561277389526
1782969362876096000,1.303095947265625,0.41888728737831116,-3.2827274799346924,-1.7823961973190308
1782969362886022100,1.313022216796875,0.6330584287643433,-3.756639003753662,-2.0573666095733643
1782969362895948800,1.32294873046875,0.8071790933609009,-4.353322982788086,-2.1037817001342773
1782969362905875000,1.332875,0.9645500779151917,-5.0446248054504395,-1.7908493280410767
1782969362915801000,1.342801025390625,1.1250393390655518,-5.588183403015137,-0.9802384972572327
1782969362925727000,1.35272705078125,1.3092474937438965,-5.374246120452881,0.22672954201698303
1782969362935652900,1.36265283203125,1.3587591648101807,-4.123950004577637,1.3861002922058105
1782969362945579000,1.3725791015625,0.9745198488235474,-1.9276305437088013,2.27416729927063
1782969362955506200,1.382506103515625,0.41830751299858093,0.5088722705841064,2.5546820163726807
1782969362965431800,1.392431884765625,-0.1818305104970932,2.55423641204834,2.241307497024536
1782969362975358000,1.40235791015625,-0.7091934084892273,3.9603779315948486,1.637007236480713
1782969362985284000,1.4122841796875,-1.1324386596679688,4.483073711395264,1.1567208766937256
1782969362995210000,1.4222099609375,-1.387133002281189,4.390409469604492,0.8372192978858948
1782969363005137000,1.432136962890625,-1.4439762830734253,3.889359951019287,0.702562689781189
1782969363015063000,1.44206298828125,-1.39235258102417,3.1130917072296143,0.7230319976806641
1782969363024989000,1.451989013671875,-1.1571301221847534,2.2272093296051025,0.830033004283905
1782969363034915000,1.4619150390625,-0.8341265320777893,1.299121379852295,0.9926810264587402
1782969363044841000,1.471841064453125,-0.5018923878669739,0.5356042981147766,1.1666557788848877
1782969363054766800,1.481766845703125,-0.1750897914171219,0.015543540008366108,1.3434749841690063
1782969363064694000,1.491694091796875,0.13822364807128906,-0.26680052280426025,1.5233232975006104
1782969363074620000,1.501619873046875,0.3335801064968109,-0.3300303816795349,1.667626976966858
1782969363084546000,1.511546142578125,0.3463166654109955,-0.21651685237884521,1.7495341300964355
1782969363094472000,1.521471923828125,0.224638432264328,0.040346357971429825,1.7505913972854614
1782969363104398000,1.531398193359375,0.059358131140470505,0.3946264088153839,1.6257014274597168
1782969363114325000,1.541324951171875,-0.09378055483102798,0.7628489136695862,1.3323112726211548
1782969363124251000,1.5512509765625,-0.2195320874452591,1.0491442680358887,0.9073139429092407
1782969363134177000,1.561177001953125,-0.3246515989303589,1.231404185295105,0.495937317609787
1782969363144103200,1.571103271484375,-0.21832434833049774,1.259801983833313,0.1443830132484436
1782969363154028800,1.58102880859375,-0.0325467586517334,1.1256822347640991,-0.07997499406337738
1782969363163956000,1.5909560546875,0.19022905826568604,0.963334321975708,-0.14980120956897736
1782969363173882000,1.600882080078125,0.4291188716888428,0.866867184638977,-0.11257501691579819
1782969363183808000,1.61080810546875,0.6889246106147766,0.8040797114372253,-0.045348573476076126
1782969363193734000,1.62073388671875,0.913794219493866,0.7351887822151184,0.032885510474443436
1782969363203660000,1.630659912109375,1.070258617401123,0.619340181350708,0.09777263551950455
1782969363213587000,1.6405869140625,1.1378408670425415,0.39151957631111145,0.1524806171655655
1782969363223512800,1.650512939453125,1.131517767906189,0.0989055410027504,0.17815348505973816
1782969363233439000,1.66043896484375,1.0819885730743408,-0.199009507894516,0.09289238601922989
1782969363243365000,1.670365234375,0.9759494662284851,-0.4615636169910431,-0.08668669313192368
1782969363253291000,1.680291015625,0.8774609565734863,-0.6343937516212463,-0.33211323618888855
1782969363263217000,1.690216796875,0.7239947319030762,-0.7840694785118103,-0.6256798505783081
1782969363273144000,1.70014404296875,0.5734339952468872,-0.9164336919784546,-1.0173786878585815
1782969363283070200,1.7100703125,0.5013827085494995,-0.9575411677360535,-1.4351335763931274
1782969363292995800,1.719995849609375,0.517122745513916,-1.0053433179855347,-1.8299239873886108
1782969363302922000,1.729921875,0.6069522500038147,-1.3483139276504517,-2.069059371948242
1782969363312848100,1.73984814453125,0.8416100144386292,-2.243178606033325,-2.036005735397339
1782969363322774800,1.74977490234375,1.2017251253128052,-3.6446917057037354,-1.7978901863098145
1782969363332701000,1.759700927734375,1.665367603302002,-5.141504764556885,-1.2213096618652344
1782969363342627000,1.769626953125,2.068589687347412,-6.216190814971924,-0.30755436420440674
1782969363352553000,1.779552978515625,2.2112526893615723,-6.2397332191467285,0.6115257143974304
1782969363362478800,1.789478759765625,1.73532235622406,-4.660481929779053,1.2070473432540894
1782969363372405000,1.799405029296875,0.8007051944732666,-1.927481770515442,1.1851823329925537
1782969363382332200,1.809332275390625,-0.1912836730480194,1.1481534242630005,0.8095948696136475
1782969363392258000,1.819258056640625,-1.0108823776245117,3.835400342941284,0.30168795585632324
1782969363402184000,1.829183837890625,-1.4800235033035278,5.479883193969727,-0.193014457821846
1782969363412110000,1.839110107421875,-1.6309562921524048,5.861006259918213,-0.4513847529888153
1782969363422036000,1.849035888671875,-1.5762927532196045,5.263417720794678,-0.3651851713657379
1782969363431963000,1.858962890625,-1.4053980112075806,4.0604634284973145,-0.004700745455920696
1782969363441889000,1.868888916015625,-1.1231868267059326,2.6046745777130127,0.47716256976127625
1782969363451815000,1.87881494140625,-0.7549797892570496,1.190549373626709,0.9349884390830994
1782969363461741000,1.888740966796875,-0.3592092990875244,0.0821169763803482,1.323230504989624
1782969363471667000,1.8986669921875,-0.014055631123483181,-0.6157550811767578,1.6397101879119873
1782969363481594000,1.908593994140625,0.23640401661396027,-0.8416310548782349,1.8825360536575317
1782969363491520000,1.91852001953125,0.34003108739852905,-0.6544265747070312,1.991382122039795
1782969363501446000,1.92844580078125,0.31317654252052307,-0.13529416918754578,1.9359053373336792
1782969363511372000,1.9383720703125,0.18660636246204376,0.6326203346252441,1.718352198600769
1782969363521298000,1.9482978515625,-0.03782567381858826,1.4524513483047485,1.3627490997314453
1782969363531224000,1.95822412109375,-0.34539735317230225,2.1894826889038086,0.9936810731887817
1782969363541151000,1.96815087890625,-0.6469718217849731,2.7368462085723877,0.7145199775695801
1782969363551076900,1.978076904296875,-0.8580111265182495,3.07631516456604,0.45261460542678833
1782969363561003000,1.9880029296875,-1.0091526508331299,3.2658159732818604,0.1687922179698944
1782969363570929200,1.99792919921875,-1.1034057140350342,3.2300124168395996,-0.18677175045013428
1782969363580854800,2.007854736328125,-1.0896011590957642,2.8925201892852783,-0.4741220474243164
1782969363590782000,2.017781982421875,-0.9775585532188416,2.2889962196350098,-0.6376526355743408
1782969363600708000,2.0277080078125,-0.7955165505409241,1.5665725469589233,-0.709593653678894
1782969363610634000,2.037634033203125,-0.5976719260215759,0.8075966835021973,-0.7318060398101807
1782969363620560000,2.047559814453125,-0.402617484331131,0.09459761530160904,-0.7260176539421082
1782969363630486000,2.057486083984375,-0.19163841009140015,-0.5229945182800293,-0.6900026798248291
1782969363640412200,2.067412109375,0.01967197097837925,-1.0408635139465332,-0.6226880550384521
1782969363650338800,2.0773388671875,0.2851425111293793,-1.3855359554290771,-0.5781842470169067
1782969363660265000,2.087264892578125,0.5790125131607056,-1.5983754396438599,-0.6250444650650024
1782969363670191000,2.097191162109375,0.7905585765838623,-1.744806170463562,-0.7782340049743652
1782969363680117000,2.107116943359375,0.8833612203598022,-1.8893502950668335,-0.9637822508811951
1782969363690043000,2.11704296875,0.825921893119812,-2.0190587043762207,-1.19473397731781
1782969363699970000,2.126969970703125,0.6260236501693726,-2.1523499488830566,-1.5207467079162598
1782969363709896200,2.136896240234375,0.38345789909362793,-2.240675926208496,-1.8043358325958252
1782969363719821800,2.14682177734375,0.2137541025876999,-2.443793535232544,-2.2946226596832275
1782969363729748000,2.156748046875,0.13619431853294373,-2.737408399581909,-2.758787155151367
1782969363739674000,2.166674072265625,0.17258934676647186,-3.3449466228485107,-3.0272157192230225
1782969363749600800,2.176600830078125,0.36663925647735596,-4.283570289611816,-3.027315616607666
1782969363759527000,2.18652685546875,0.6748732328414917,-5.507635593414307,-2.7849154472351074
1782969363769453000,2.196453125,1.1165111064910889,-6.7383131980896,-1.948987603187561
1782969363779379000,2.20637890625,1.6980482339859009,-7.053945064544678,-0.42574119567871094
1782969363789304800,2.216304931640625,1.950040340423584,-6.0675787925720215,1.268020749092102
1782969363799230700,2.226230712890625,1.8454824686050415,-4.310509204864502,2.492624282836914
1782969363809158000,2.236157958984375,1.317952036857605,-2.411372661590576,2.9602718353271484
1782969363819084000,2.246083984375,0.48387718200683594,-0.5579961538314819,2.6971142292022705
1782969363829009700,2.256009765625,-0.4411451816558838,1.3419554233551025,1.8833941221237183
1782969363838935800,2.265935791015625,-1.2038934230804443,2.959101915359497,0.8486815094947815
1782969363848861700,2.27586181640625,-1.702199935913086,3.891216516494751,-0.010270480997860432
1782969363858788600,2.28578857421875,-1.9588793516159058,4.243040084838867,-0.47815191745758057
1782969363868714800,2.29571484375,-2.0084760189056396,4.22309684753418,-0.5072224736213684
1782969363878641000,2.305640869140625,-1.8913650512695312,3.8906095027923584,-0.2197829633951187
1782969363888566800,2.31556689453125,-1.6485416889190674,3.415006399154663,0.20881952345371246
1782969363898493000,2.325492919921875,-1.3240139484405518,2.952270030975342,0.6125832200050354
1782969363908419800,2.335419921875,-0.9491553902626038,2.58390736579895,0.9378124475479126
1782969363918346000,2.345345947265625,-0.620299220085144,2.271545648574829,1.2333120107650757
1782969363928272000,2.35527197265625,-0.31681495904922485,1.947563886642456,1.5173964500427246
1782969363938197800,2.36519775390625,-0.10609261691570282,1.674098253250122,1.7973743677139282
1782969363948124000,2.3751240234375,0.03431962430477142,1.5734509229660034,2.0221879482269287
1782969363958049800,2.3850498046875,0.08027193695306778,1.6713212728500366,2.1326613426208496
1782969363967976700,2.394976806640625,0.06695932894945145,1.936899185180664,2.086104154586792
1782969363977902800,2.40490283203125,0.044789042323827744,2.344669818878174,1.8369840383529663
1782969363987828700,2.414828857421875,-0.006449377164244652,2.8210549354553223,1.4587363004684448
1782969363997755000,2.4247548828125,-0.013761085458099842,3.1117682456970215,1.0779075622558594
1782969364007680800,2.4346806640625,0.07011277228593826,3.0691914558410645,0.7336359024047852
1782969364017608000,2.44460791015625,0.1728689819574356,2.710059404373169,0.3989838659763336
1782969364027533800,2.454533935546875,0.24476741254329681,2.0840563774108887,0.046301450580358505
1782969364037460000,2.4644599609375,0.27183976769447327,1.3285958766937256,-0.27007168531417847
1782969364047385900,2.4743857421875,0.2560461461544037,0.7095614671707153,-0.520480215549469
1782969364057311700,2.484311767578125,0.24254658818244934,0.1435188204050064,-0.6070598363876343
1782969364067239000,2.494239013671875,0.3139323592185974,-0.36409273743629456,-0.5915469527244568
1782969364077164800,2.504164794921875,0.45178771018981934,-0.7431484460830688,-0.5935725569725037
1782969364087090700,2.514090576171875,0.525181770324707,-1.0548216104507446,-0.6769313216209412
1782969364097016800,2.524016845703125,0.4968273341655731,-1.3264704942703247,-0.8528366088867188
1782969364106943000,2.53394287109375,0.438968300819397,-1.52864408493042,-1.114164113998413
1782969364116868600,2.54386865234375,0.362716406583786,-1.665764331817627,-1.382348895072937
1782969364126795800,2.553795654296875,0.42979905009269714,-1.7002688646316528,-1.4446074962615967
1782969364136722000,2.563721923828125,0.3768676519393921,-1.8268307447433472,-1.674182415008545
1782969364146647800,2.573647705078125,0.36620649695396423,-2.044725179672241,-1.7653021812438965
1782969364156573700,2.58357373046875,0.451553612947464,-2.4677016735076904,-1.797706961631775
1782969364166499800,2.593499755859375,0.7786651253700256,-3.06820011138916,-1.5996508598327637
1782969364176427000,2.603427001953125,1.2441511154174805,-4.018346309661865,-0.9519227147102356
1782969364186352600,2.6133525390625,1.8040032386779785,-5.238072395324707,0.27127784490585327
1782969364196278800,2.62327880859375,2.289322853088379,-6.104461193084717,1.709895133972168
1782969364206205000,2.633204833984375,2.4692864418029785,-5.987873077392578,2.783278703689575
1782969364216130800,2.643130859375,2.196985960006714,-4.88633394241333,3.2453360557556152
1782969364226056700,2.653056640625,1.454221487045288,-2.9902725219726562,3.0383472442626953
1782969364235984000,2.66298388671875,0.4379208981990814,-0.7747316360473633,2.2272539138793945
1782969364245910000,2.672909912109375,-0.5985441207885742,1.171630859375,1.1464636325836182
1782969364255835600,2.682835693359375,-1.4181420803070068,2.463879346847534,0.10316606611013412
1782969364265761800,2.69276171875,-1.94460928440094,2.8600165843963623,-0.5428252220153809
1782969364275687700,2.702687744140625,-2.1922659873962402,2.4058454036712646,-0.6430415511131287
1782969364285614800,2.71261474609375,-2.158764123916626,1.3899070024490356,-0.3079218864440918
1782969364295540700,2.722540771484375,-1.8968532085418701,0.2108166217803955,0.3209002614021301
1782969364305467000,2.732466796875,-1.5156092643737793,-0.9247017502784729,1.016832709312439
1782969364315392800,2.742392822265625,-1.1957201957702637,-1.9708424806594849,1.5896954536437988
1782969364325319000,2.75231884765625,-1.0351712703704834,-2.4992215633392334,2.0297839641571045
1782969364335245800,2.762245849609375,-0.8749235272407532,-2.7155020236968994,2.2598631381988525
1782969364345172000,2.772171875,-0.6736316680908203,-2.9022159576416016,2.263969659805298
1782969364355097900,2.782097900390625,-0.7062879204750061,-2.9931368827819824,2.0723085403442383
1782969364365023700,2.792023681640625,-0.8152998685836792,-2.868607759475708,1.9157830476760864
1782969364374950000,2.801949951171875,-0.9787415266036987,-2.693056344985962,1.9419701099395752
1782969364384875800,2.811875732421875,-1.1302982568740845,-2.6447761058807373,2.2036778926849365
1782969364394802700,2.821802734375,-1.4691778421401978,-2.619734525680542,2.915125608444214
1782969364404728800,2.831728759765625,-1.4858713150024414,-3.223986864089966,3.593660593032837
1782969364414654700,2.84165478515625,-1.4367772340774536,-3.2272400856018066,3.8889646530151367
1782969364424580900,2.851580810546875,-1.0599578619003296,-3.30960750579834,4.078770160675049
1782969364434507000,2.861507080078125,-0.40836167335510254,-3.2559967041015625,4.192436695098877
1782969364444434000,2.871433837890625,0.4345828890800476,-2.818685531616211,4.064030170440674
1782969364454359800,2.88135986328125,1.1208539009094238,-2.260197639465332,3.561753273010254
1782969364464286000,2.891285888671875,1.332133412361145,-1.6773626804351807,2.887601375579834
1782969364474211800,2.9012119140625,1.1842888593673706,-1.4511655569076538,2.199754476547241
1782969364484137700,2.9111376953125,0.7446627020835876,-1.1355700492858887,1.7108678817749023
1782969364494065000,2.92106494140625,0.21113167703151703,-0.6060901880264282,1.4570060968399048
1782969364503990800,2.93099072265625,-0.22730639576911926,-0.08698123693466187,1.2133002281188965
1782969364513916700,2.940916748046875,-0.4814273416996002,0.45581838488578796,0.8354469537734985
1782969364523842800,2.9508427734375,-0.5082754492759705,1.0563982725143433,0.28015363216400146
1782969364533769000,2.96076904296875,-0.38945242762565613,1.7145220041275024,-0.4293516278266907
1782969364543694800,2.97069482421875,-0.14541524648666382,2.263993263244629,-1.2680226564407349
1782969364553621800,2.980621826171875,0.02918984368443489,2.4363949298858643,-2.0915088653564453
1782969364563548000,2.9905478515625,0.07856617867946625,2.3561408519744873,-2.6046931743621826
1782969364573474000,3.00047412109375,-0.002463423879817128,2.1312689781188965,-2.731523275375366
1782969364583399700,3.010399658203125,-0.06394010037183762,1.7517815828323364,-2.6117489337921143
1782969364593325800,3.020325927734375,-0.024540230631828308,1.36067795753479,-2.5030837059020996
1782969364603253000,3.0302529296875,0.2293759286403656,1.033876895904541,-2.6965577602386475
1782969364613178600,3.0401787109375,0.755324125289917,0.8861013054847717,-3.2015528678894043
1782969364623104800,3.050104736328125,1.505260705947876,0.7513773441314697,-3.8272969722747803
1782969364633031000,3.060031005859375,2.3462865352630615,0.0423479899764061,-4.2547125816345215
1782969364642956800,3.069956787109375,2.8537137508392334,-1.579229712486267,-3.8224751949310303
1782969364652882700,3.079882568359375,2.8860418796539307,-3.612123966217041,-2.1550822257995605
1782969364662809900,3.089809814453125,2.8060250282287598,-5.05402135848999,0.11979058384895325
1782969364672736000,3.099736083984375,2.8266243934631348,-5.221787929534912,1.9114094972610474
1782969364682662000,3.109661865234375,2.7104384899139404,-4.148499011993408,2.7120277881622314
1782969364692587800,3.119587890625,2.3467602729797363,-2.5511672496795654,2.4969308376312256
1782969364702513700,3.129513671875,1.633780598640442,-1.0878232717514038,1.4514552354812622
1782969364712440800,3.13944091796875,0.4182046949863434,0.21448007225990295,-0.10262757539749146
1782969364722366700,3.14936669921875,-0.7087156176567078,1.3337725400924683,-1.6975044012069702
1782969364732292900,3.15929296875,-1.2641210556030273,2.2356643676757812,-2.7717607021331787
1782969364742218800,3.16921875,-1.2611594200134277,2.5675361156463623,-3.058192729949951
1782969364752145000,3.179144775390625,-0.8313150405883789,2.377072334289551,-2.5875518321990967
1782969364762071800,3.18907177734375,-0.12841922044754028,1.8957799673080444,-1.7007337808609009
1782969364771998000,3.198998046875,0.3248036503791809,1.1883940696716309,-0.626206636428833
1782969364781923800,3.208923828125,-0.03563309460878372,0.6159960627555847,0.7504878640174866
1782969364791849700,3.218849609375,-0.25736203789711,-0.07969296723604202,1.919938087463379
1782969364801775900,3.22877587890625,-0.21267418563365936,-0.9047634601593018,2.3368959426879883
1782969364811701800,3.23870166015625,-0.0702480673789978,-1.148104190826416,2.08878755569458
1782969364821629000,3.24862890625,-0.03784112259745598,-0.9647514224052429,1.4002217054367065
1782969364831554800,3.258554931640625,-0.16054892539978027,-0.5843158960342407,0.5744302868843079
1782969364841480700,3.268480712890625,-0.32315489649772644,-0.024453943595290184,-0.15984852612018585
1782969364851406800,3.27840673828125,-0.5205435752868652,0.43552884459495544,-0.6432631015777588
1782969364861333000,3.2883330078125,-0.7084251046180725,0.6616096496582031,-0.916786789894104
1782969364871260000,3.298260009765625,-0.8235668540000916,0.7059581875801086,-1.0620553493499756
1782969364881185800,3.308185791015625,-0.8006892204284668,0.6269954442977905,-1.0865281820297241
1782969364891112000,3.31811181640625,-0.6615893840789795,0.4813365340232849,-0.9851991534233093
1782969364901037800,3.328037841796875,-0.483271062374115,0.25807762145996094,-0.8222081065177917
1782969364910963700,3.337963623046875,-0.27180060744285583,0.003306048223748803,-0.6139254570007324
1782969364920891000,3.347890869140625,-0.09798834472894669,-0.18688572943210602,-0.4598906338214874
1782969364930816800,3.357816650390625,-0.0383354052901268,-0.2293788641691208,-0.45169660449028015
1782969364940742700,3.36774267578125,-0.08257050812244415,-0.0839521586894989,-0.6610122919082642
1782969364950668800,3.377668701171875,-0.19034597277641296,0.24412505328655243,-1.0939253568649292
1782969364960595000,3.387594970703125,-0.33881905674934387,0.6923105716705322,-1.6116167306900024
1782969364970520800,3.397520751953125,-0.5012570023536682,1.0662809610366821,-1.9568960666656494
1782969364980447700,3.40744775390625,-0.6973745822906494,1.6440231800079346,-2.3599390983581543
1782969364990374000,3.417373779296875,-0.6591501832008362,1.864503264427185,-2.537282705307007
1782969365000300000,3.427300048828125,-0.2804793417453766,1.5545803308486938,-2.3940839767456055
1782969365010225700,3.4372255859375,0.3834270238876343,0.6961585879325867,-1.6872001886367798
1782969365020151800,3.44715185546875,1.0506840944290161,-0.5028170347213745,-0.5663670301437378
1782969365030079000,3.457078857421875,1.57550847530365,-1.8481781482696533,0.6249882578849792
1782969365040004600,3.467004638671875,1.7536548376083374,-2.689545154571533,1.6124159097671509
1782969365049930800,3.4769306640625,1.432096004486084,-2.542850971221924,2.151510238647461
1782969365059857000,3.48685693359375,0.6302242875099182,-1.4094723463058472,2.0271952152252197
1782969365069782800,3.49678271484375,-0.42651617527008057,0.32756507396698,1.2482973337173462
1782969365079709000,3.506708984375,-1.378752589225769,2.0909013748168945,0.17880436778068542
1782969365089635800,3.5166357421875,-1.9732884168624878,3.312122344970703,-0.7330374717712402
1782969365099562000,3.52656201171875,-2.1153924465179443,3.800309181213379,-1.339374303817749
1782969365109487900,3.53648779296875,-1.9366300106048584,3.5684306621551514,-1.5391755104064941
1782969365119413800,3.546413818359375,-1.5327680110931396,2.7241270542144775,-1.2379496097564697
1782969365129339600,3.556339599609375,-1.0558602809906006,1.4885650873184204,-0.49328213930130005
1782969365139266800,3.566266845703125,-0.5847534537315369,0.23190540075302124,0.4248647391796112
1782969365149192700,3.576192626953125,-0.14374704658985138,-0.7383837699890137,1.2299623489379883
1782969365159118800,3.586118896484375,0.23132802546024323,-1.4150866270065308,1.7610996961593628
1782969365169044700,3.596044677734375,0.44287142157554626,-1.6887325048446655,2.0154500007629395
1782969365178971000,3.605970947265625,0.5145344138145447,-1.5968369245529175,1.9996083974838257
1782969365188897800,3.615897705078125,0.4678899645805359,-1.3132928609848022,1.7657865285873413
1782969365198824000,3.625823974609375,0.3318764865398407,-0.8777738809585571,1.3872137069702148
1782969365208749800,3.635749755859375,0.15768283605575562,-0.32088959217071533,0.9091755151748657
1782969365218676000,3.645676025390625,-0.026818830519914627,0.1527932733297348,0.425068736076355
1782969365228601900,3.655601806640625,-0.20146840810775757,0.5291346907615662,0.07989456504583359
1782969365238527700,3.66552783203125,-0.33230045437812805,0.8191028833389282,-0.09041005373001099
1782969365248455000,3.675454833984375,-0.39480698108673096,1.0001144409179688,-0.08982069790363312
1782969365258380800,3.685380859375,-0.3192877173423767,1.0445868968963623,0.0679878368973732
1782969365268306700,3.695306640625,-0.09251821786165237,0.8847993016242981,0.34182843565940857
1782969365278232800,3.70523291015625,0.08580332249403,0.473676472902298,0.6557610630989075
1782969365288159000,3.715158935546875,0.13443903625011444,0.18571819365024567,0.9058244228363037
1782969365298086000,3.7250859375,0.1538417637348175,-0.15927007794380188,0.9635090231895447
1782969365308011800,3.73501171875,0.052731920033693314,-0.43179482221603394,0.7852665781974792
1782969365317938000,3.74493798828125,-0.1258777678012848,-0.40595096349716187,0.4411904513835907
1782969365327863800,3.75486376953125,-0.2955254018306732,-0.14436303079128265,0.040701091289520264
1782969365337789700,3.764789794921875,-0.22525762021541595,0.1938653439283371,-0.3111690580844879
1782969365347715800,3.7747158203125,0.0590265691280365,0.5321744084358215,-0.5596539974212646
1782969365357643000,3.78464306640625,0.3914119601249695,0.6722151637077332,-0.6983231902122498
1782969365367568600,3.794568603515625,0.7296627163887024,0.5277453064918518,-0.7647567987442017
1782969365377494800,3.804494873046875,1.0551146268844604,0.15484656393527985,-0.780794620513916
1782969365387421000,3.8144208984375,1.3493475914001465,-0.3304269015789032,-0.7736520171165466
1782969365397346800,3.824346923828125,1.6063414812088013,-0.8879855275154114,-0.7400035262107849
1782969365407273700,3.834273681640625,1.740755558013916,-1.3654894828796387,-0.6792128682136536
1782969365417199900,3.844199951171875,1.7325420379638672,-1.6555052995681763,-0.6149284243583679
1782969365427126000,3.8541259765625,1.5804742574691772,-1.7280898094177246,-0.6126719117164612
1782969365437051600,3.8640517578125,1.303828477859497,-1.5918030738830566,-0.6179772019386292
1782969365446977800,3.873977783203125,0.7626187801361084,-0.8863833546638489,-0.4988225996494293
1782969365456905000,3.883905029296875,0.3119562864303589,-0.5084086060523987,-0.7086860537528992
1782969365466830800,3.893830810546875,0.0668482705950737,-0.2843209505081177,-1.128908634185791
1782969365476756700,3.9037568359375,0.20612680912017822,-0.08654607832431793,-1.273922324180603
1782969365486683000,3.913682861328125,0.38617512583732605,-0.26665380597114563,-0.8569373488426208
1782969365496608800,3.92360888671875,0.6680148243904114,-1.3292018175125122,0.16354525089263916
1782969365506535000,3.933534912109375,0.8132023811340332,-2.1206016540527344,1.3699226379394531
1782969365516461800,3.9434619140625,0.5596369504928589,-2.29593563079834,2.459348201751709
1782969365526388000,3.953387939453125,0.09673906117677689,-2.0748677253723145,3.1501758098602295
1782969365536313900,3.96331396484375,-0.2246653288602829,-1.3934487104415894,3.081998586654663
1782969365546239700,3.97323974609375,-0.5533984899520874,-0.0038538603112101555,1.8687270879745483
1782969365556165600,3.98316552734375,-0.9797306060791016,1.428588628768921,0.09228812158107758
1782969365566092800,3.9930927734375,-1.1880300045013428,2.385157346725464,-1.3943957090377808
1782969365576018700,4.003018798828125,-0.9182891249656677,2.7975711822509766,-2.0785927772521973
1782969365585942800,4.01294287109375,-0.3366840183734894,2.690723180770874,-2.170259475708008
1782969365595869000,4.022868896484375,0.23153015971183777,2.1946566104888916,-1.7174006700515747
1782969365605794800,4.032794921875,0.6884250044822693,1.4159250259399414,-0.9994156360626221
1782969365615720700,4.042720703125,0.9630048871040344,0.5745669007301331,-0.34303298592567444
1782969365625646800,4.052646728515625,1.029843807220459,-0.14570286870002747,0.1398545652627945
1782969365635573800,4.06257373046875,0.8824738264083862,-0.6582058668136597,0.41003385186195374
1782969365645499600,4.072499755859375,0.6705418825149536,-0.8936849236488342,0.4004581868648529
1782969365655425800,4.08242578125,0.528705358505249,-0.8021435737609863,0.17018024623394012
1782969365665352000,4.09235205078125,0.4364076852798462,-0.5401766896247864,-0.17470683157444
1782969365675277800,4.10227783203125,0.3553370535373688,-0.21517276763916016,-0.5192252993583679
1782969365685204700,4.112204833984375,0.32715895771980286,0.04453497752547264,-0.7795224189758301
1782969365695131000,4.122130859375,0.31632867455482483,0.12351687997579575,-0.9743675589561462
1782969365705057000,4.13205712890625,0.15713635087013245,0.32154661417007446,-0.920599102973938
1782969365714982700,4.141982666015625,-0.07497144490480423,0.44683635234832764,-0.7097944617271423
1782969365724908800,4.15190869140625,-0.2311653047800064,0.4764419198036194,-0.513530969619751
1782969365734835000,4.1618349609375,-0.29557839035987854,0.539918065071106,-0.3335832953453064
1782969365744761600,4.17176171875,-0.3298964202404022,0.6552156805992126,-0.21378739178180695
1782969365754687700,4.181687744140625,-0.3298934996128082,0.8428654670715332,-0.24694320559501648
1782969365764614000,4.19161376953125,-0.30229994654655457,1.003235101699829,-0.3930458128452301
1782969365774539800,4.201539794921875,-0.27633678913116455,1.0984998941421509,-0.5615408420562744
1782969365784465700,4.211465576171875,-0.27378228306770325,1.0883862972259521,-0.725589394569397
1782969365794392600,4.221392578125,-0.30922630429267883,1.0224570035934448,-0.8582513332366943
1782969365804318500,4.231318359375,-0.3337010145187378,0.9700239300727844,-0.9606115221977234
1782969365814244600,4.24124462890625,-0.4271313548088074,0.9874793291091919,-1.0398941040039062
1782969365824170500,4.25117041015625,-0.5004599094390869,1.1395207643508911,-1.1181873083114624
1782969365834096400,4.261096435546875,-0.5588345527648926,1.4130439758300781,-1.161698579788208
1782969365844022500,4.2710224609375,-0.4793572723865509,1.8017408847808838,-1.1768444776535034
1782969365853949400,4.280949462890625,-0.32048532366752625,2.198570966720581,-1.1742311716079712
1782969365863875300,4.290875244140625,-0.06396779417991638,2.6696994304656982,-1.1569844484329224
1782969365873801500,4.300801513671875,0.18202945590019226,3.0709338188171387,-1.127031683921814
1782969365883727600,4.3107275390625,0.35950011014938354,2.9984636306762695,-1.029466986656189
1782969365893653500,4.320653564453125,0.4086388945579529,2.401092529296875,-0.8110377192497253
1782969365903580400,4.330580322265625,0.40610650181770325,1.3200812339782715,-0.6063618063926697
1782969365913506600,4.340506591796875,0.42510974407196045,-0.22588053345680237,-0.7873172163963318
1782969365923432700,4.3504326171875,0.6123531460762024,-1.9478589296340942,-1.3153592348098755
1782969365933358300,4.3603583984375,0.9974379539489746,-3.3207709789276123,-1.5488917827606201
1782969365943284500,4.370284423828125,1.2827816009521484,-4.026297092437744,-0.9820243716239929
1782969365953211600,4.380211669921875,1.2489759922027588,-3.785590887069702,0.33041971921920776
1782969365963137300,4.39013720703125,0.6932588815689087,-2.2410149574279785,1.621289610862732
1782969365973063400,4.4000634765625,-0.023793745785951614,0.1125454530119896,2.1082816123962402
1782969365982989600,4.409989501953125,-0.6212781667709351,2.3677804470062256,1.7281802892684937
1782969365992916500,4.41991650390625,-1.0211217403411865,4.154662609100342,0.9425374269485474
1782969366002842400,4.42984228515625,-1.1869252920150757,4.899327754974365,0.25561046600341797
1782969366012768500,4.4397685546875,-1.1768524646759033,4.634222030639648,-0.031564850360155106
1782969366022695400,4.4496953125,-1.016524314880371,3.8013672828674316,0.03540406376123428
1782969366032621300,4.459621337890625,-0.7169666290283203,2.7456512451171875,0.3081229329109192
1782969366042547500,4.46954736328125,-0.3511148691177368,1.6129595041275024,0.6812096834182739
1782969366052473600,4.4794736328125,0.001350222621113062,0.5461887717247009,1.084066390991211
1782969366062399500,4.4893994140625,0.28816255927085876,-0.31430307030677795,1.4724644422531128
1782969366072326400,4.499326416015625,0.5079891681671143,-0.8825523853302002,1.746226191520691
1782969366082252500,4.50925244140625,0.6068238615989685,-1.1231921911239624,1.804287075996399
1782969366092178700,4.5191787109375,0.5577476620674133,-0.9674869775772095,1.6274614334106445
1782969366102104300,4.529104248046875,0.40086594223976135,-0.5148497819900513,1.2693208456039429
1782969366112030500,4.539030517578125,0.14347460865974426,0.05722387507557869,0.8324567675590515
1782969366121957600,4.54895751953125,-0.12629881501197815,0.5733522176742554,0.43533629179000854
1782969366131883300,4.55888330078125,-0.3315662145614624,0.9497679471969604,0.08809710294008255
1782969366141809400,4.568809326171875,-0.4860711097717285,1.211335301399231,-0.12259941548109055
1782969366151735600,4.578735595703125,-0.587576150894165,1.3175054788589478,-0.18568943440914154
1782969366161661400,4.588661376953125,-0.6326634883880615,1.2546857595443726,-0.1487516611814499
1782969366171587600,4.598587646484375,-0.6189002394676208,1.1028627157211304,-0.045700374990701675
1782969366181514500,4.608514404296875,-0.5790114402770996,0.9505224227905273,0.07889987528324127
1782969366191440600,4.618440673828125,-0.5478649735450745,0.8740484118461609,0.15979471802711487
1782969366201366500,4.628366455078125,-0.5626500248908997,0.8519673347473145,0.12809298932552338
1782969366211292400,4.63829248046875,-0.62778240442276,0.7835467457771301,-0.027995681390166283
1782969366221218600,4.648218505859375,-0.72259521484375,0.623440146446228,-0.26514938473701477
1782969366231145500,4.6581455078125,-0.8166934847831726,0.34968051314353943,-0.49754321575164795
1782969366241071400,4.6680712890625,-0.8653110861778259,0.0062549663707613945,-0.6922096014022827
1782969366250997500,4.67799755859375,-0.8069759011268616,-0.3321380019187927,-0.7941117286682129
1782969366260923400,4.68792333984375,-0.6142138838768005,-0.5537670850753784,-0.7865664958953857
1782969366270849500,4.697849609375,-0.3519758880138397,-0.7090024352073669,-0.6900279521942139
1782969366280775400,4.707775390625,-0.058467306196689606,-0.8461390137672424,-0.5245351195335388
1782969366290702600,4.71770263671875,0.17772924900054932,-0.9755561351776123,-0.32390403747558594
1782969366300628500,4.72762841796875,0.2878325879573822,-1.1269868612289429,-0.11472152173519135
1782969366310554600,4.7375546875,0.31848689913749695,-1.3444939851760864,-0.018383800983428955
1782969366320480500,4.74748046875,0.26481807231903076,-1.513839602470398,-0.1772911548614502
1782969366330406400,4.757406494140625,0.09794307500123978,-1.604942798614502,-0.5679633021354675
1782969366340333600,4.76733349609375,-0.09218984842300415,-1.527222990989685,-1.0987640619277954
1782969366350259500,4.777259521484375,-0.17004495859146118,-1.4608242511749268,-1.7145979404449463
1782969366360185300,4.787185302734375,-0.08982602506875992,-1.5226303339004517,-2.1546850204467773
1782969366370111500,4.797111572265625,0.1314363181591034,-1.6858760118484497,-2.1090469360351562
1782969366380037600,4.80703759765625,0.4507935345172882,-1.8556495904922485,-1.5639091730117798
1782969366389964500,4.816964599609375,0.754337728023529,-2.042996406555176,-0.7369989156723022
1782969366399890400,4.826890380859375,0.9470853209495544,-2.1456010341644287,0.11946035176515579
1782969366409816600,4.836816650390625,0.887419581413269,-2.0684189796447754,0.795520007610321
1782969366419742500,4.846742431640625,0.4730277359485626,-1.6052725315093994,1.2503231763839722
1782969366429668400,4.85666845703125,-0.12490278482437134,-0.5881138443946838,1.316205620765686
1782969366439594500,4.866594482421875,-0.6853546500205994,0.8110457062721252,0.9132125973701477
1782969366449521700,4.876521728515625,-1.0981653928756714,2.09744930267334,0.25757160782814026
1782969366459447300,4.886447265625,-1.3385419845581055,2.8582491874694824,-0.2980812191963196
1782969366469373400,4.89637353515625,-1.43001127243042,3.0264346599578857,-0.5563340783119202
1782969366479299600,4.906299560546875,-1.3882606029510498,2.7249395847320557,-0.5147016644477844
1782969366489225500,4.9162255859375,-1.184063196182251,2.062666177749634,-0.3106550872325897
1782969366499152400,4.92615234375,-0.8842949271202087,1.2602999210357666,-0.02311224304139614
1782969366509078500,4.93607861328125,-0.5803642868995667,0.5495907068252563,0.2968583106994629
1782969366519004700,4.946004638671875,-0.3118060827255249,0.04024862125515938,0.5763895511627197
1782969366528930300,4.955930419921875,-0.11559903621673584,-0.1951199620962143,0.7398272156715393
1782969366538856400,4.9658564453125,-0.0158841572701931,-0.18592272698879242,0.7562964558601379
1782969366548783600,4.97578369140625,0.0003307645965833217,-0.007995075546205044,0.645623505115509
1782969366558709500,4.98570947265625,-0.04643381014466286,0.26581063866615295,0.452149361371994
1782969366568635400,4.995635498046875,-0.1407960057258606,0.5594468116760254,0.22434867918491364
1782969366578561500,5.0055615234375,-0.26624608039855957,0.7890946269035339,0.014581073075532913
1782969366588487400,5.0154873046875,-0.3633473217487335,0.9039783477783203,-0.14307700097560883
1782969366598414300,5.025414306640625,-0.40392005443573,0.9219035506248474,-0.20688074827194214
1782969366608340500,5.035340576171875,-0.39168521761894226,0.8624697923660278,-0.16801802814006805
1782969366618266600,5.0452666015625,-0.33414414525032043,0.7396330833435059,-0.04590943455696106
1782969366628192500,5.055192626953125,-0.2554408311843872,0.6040397882461548,0.08376999944448471
1782969366638118400,5.065118408203125,-0.16570881009101868,0.48667165637016296,0.1660694032907486
1782969366648044500,5.07504443359375,-0.08448958396911621,0.3798956573009491,0.17621684074401855
1782969366657971500,5.084971435546875,-0.056934654712677,0.2728610932826996,0.12767167389392853
1782969366667897300,5.0948974609375,-0.09240449965000153,0.11743208765983582,0.03881583735346794
1782969366677823500,5.104823486328125,-0.17323356866836548,-0.05066157877445221,-0.08047620207071304
1782969366687749400,5.114749267578125,-0.25726163387298584,-0.16345177590847015,-0.25586453080177307
1782969366697675500,5.124675537109375,-0.32457196712493896,-0.17888905107975006,-0.4654712975025177
1782969366707602400,5.1346025390625,-0.34753772616386414,-0.1051674336194992,-0.6931403875350952
1782969366717528600,5.144528564453125,-0.34705597162246704,-0.004595550708472729,-0.9004454016685486
1782969366727454500,5.154454345703125,-0.3326282799243927,0.06411826610565186,-1.0766454935073853
1782969366737380600,5.164380615234375,-0.32044458389282227,0.09348814189434052,-1.1911994218826294
1782969366747306500,5.174306396484375,-0.28990426659584045,0.06873378902673721,-1.2359216213226318
1782969366757233400,5.1842333984375,-0.22605763375759125,-0.01684449426829815,-1.224616527557373
1782969366767159600,5.19415966796875,-0.08343470841646194,-0.15448811650276184,-1.143243432044983
1782969366777085400,5.20408544921875,0.15824875235557556,-0.3911733627319336,-1.029523253440857
1782969366787011600,5.214011474609375,0.45814892649650574,-0.8557239770889282,-0.9335402250289917
1782969366796937700,5.223937744140625,0.7879409193992615,-1.5953741073608398,-0.851850152015686
1782969366806864000,5.23386376953125,1.0769274234771729,-2.583616256713867,-0.7488774061203003
1782969366816790800,5.243790771484375,1.3358805179595947,-3.728393793106079,-0.8047382831573486
1782969366826716700,5.253716552734375,1.6564491987228394,-4.908320903778076,-1.1590524911880493
1782969366836642800,5.263642822265625,2.0790388584136963,-5.695488452911377,-1.330040693283081
1782969366846568700,5.273568603515625,2.336925506591797,-5.157093048095703,-0.7224413156509399
1782969366856494600,5.28349462890625,2.0733697414398193,-3.3565256595611572,0.41810697317123413
1782969366866421800,5.293421875,1.323759913444519,-1.0962090492248535,1.4319134950637817
1782969366876348000,5.303347900390625,0.47346875071525574,1.0030322074890137,1.7289625406265259
1782969366886273500,5.3132734375,-0.23895585536956787,2.638484001159668,1.3344013690948486
1782969366896199700,5.32319970703125,-0.712202250957489,3.514585494995117,0.7102176547050476
1782969366906125800,5.333125732421875,-0.986579179763794,3.608860492706299,0.255344957113266
1782969366916052700,5.343052734375,-1.051194190979004,3.162193775177002,0.13345739245414734
1782969366925978600,5.352978515625,-0.9158658981323242,2.3798987865448,0.25867071747779846
1782969366935904800,5.36290478515625,-0.6887336373329163,1.5053513050079346,0.5729897618293762
1782969366945831000,5.372830810546875,-0.43549633026123047,0.6835362315177917,0.9948368668556213
1782969366955756500,5.382756591796875,-0.2072538584470749,0.021621938794851303,1.4337273836135864
1782969366965682700,5.3926826171875,-0.03261573240160942,-0.37332430481910706,1.8125051259994507
1782969366975609900,5.40260986328125,0.03875671699643135,-0.43506357073783875,2.050816774368286
1782969366985535700,5.41253564453125,-0.006875216495245695,-0.18680770695209503,2.114319086074829
1782969366995461600,5.422461669921875,-0.14971892535686493,0.2604251801967621,2.000342845916748
1782969367005387800,5.4323876953125,-0.3637624979019165,0.7855179905891418,1.755035161972046
1782969367015313700,5.442313720703125,-0.5562576651573181,1.262422800064087,1.5023959875106812
1782969367025240600,5.452240478515625,-0.6650320887565613,1.6658879518508911,1.3146382570266724
1782969367035166700,5.462166748046875,-0.6892074346542358,1.9233719110488892,1.178048014640808
1782969367045092900,5.4720927734375,-0.6547186970710754,1.9491883516311646,1.0583125352859497
1782969367055018800,5.482018798828125,-0.5618196725845337,1.7634015083312988,0.969002366065979
1782969367064944600,5.491944580078125,-0.43786442279815674,1.4704856872558594,0.9028768539428711
1782969367074871800,5.501871826171875,-0.3293118476867676,1.1050914525985718,0.826519787311554
1782969367084797700,5.511797607421875,-0.2463352084159851,0.7573696970939636,0.7423377633094788
1782969367094723600,5.5217236328125,-0.19026102125644684,0.46501508355140686,0.6175225973129272
1782969367104649700,5.531649658203125,-0.1372646540403366,0.32696533203125,0.41153401136398315
1782969367114575600,5.54157568359375,-0.11125728487968445,0.25228285789489746,0.13136228919029236
1782969367124501800,5.551501708984375,-0.13088823854923248,0.1449848860502243,-0.1738482266664505
1782969367134428700,5.5614287109375,-0.18228831887245178,-0.014050304889678955,-0.4739505350589752
1782969367144354800,5.571354736328125,-0.2417641580104828,-0.22479556500911713,-0.7551934123039246
1782969367154280700,5.58128076171875,-0.28615957498550415,-0.44867900013923645,-0.9641836285591125
1782969367164206800,5.591206787109375,-0.29979631304740906,-0.6205892562866211,-1.1123749017715454
1782969367174132700,5.6011328125,-0.264348566532135,-0.7021240592002869,-1.2288432121276855
1782969367184059600,5.6110595703125,-0.20840060710906982,-0.7564200162887573,-1.3006007671356201
1782969367193985800,5.62098583984375,-0.11185462772846222,-0.7593346238136292,-1.3243098258972168
1782969367203911700,5.63091162109375,0.03960706293582916,-0.7116685509681702,-1.3448686599731445
1782969367213837600,5.640837646484375,0.1919340193271637,-0.685686469078064,-1.3513766527175903
1782969367223763700,5.650763671875,0.2986871004104614,-0.7428467273712158,-1.3114871978759766
1782969367233689900,5.66068994140625,0.3308151960372925,-0.9507671594619751,-1.1956826448440552
1782969367243616800,5.67061669921875,0.2507323622703552,-1.308910608291626,-1.020699381828308
1782969367253542700,5.680542724609375,0.20456832647323608,-1.7753766775131226,-0.8972445130348206
1782969367263468800,5.69046875,0.35230904817581177,-2.067146062850952,-1.0526759624481201
1782969367273395000,5.70039501953125,0.6342829465866089,-2.040117025375366,-1.6752146482467651
1782969367283320600,5.710320556640625,0.8400866985321045,-1.8388315439224243,-2.592691659927368
1782969367293247700,5.720247802734375,0.8150013089179993,-1.7717938423156738,-3.306701183319092
1782969367303174000,5.730173828125,0.4979999363422394,-2.0921802520751953,-3.5283615589141846
1782969367313099500,5.740099609375,0.1163330003619194,-2.577678918838501,-3.0880067348480225
1782969367323025700,5.750025634765625,-0.07910867035388947,-2.7440004348754883,-2.0439670085906982
1782969367332951800,5.759951904296875,-0.01709536276757717,-2.482666015625,-0.7022153735160828
1782969367342878700,5.769878662109375,0.02455221489071846,-1.7630780935287476,0.699273407459259
1782969367352804600,5.7798046875,-0.15947355329990387,-0.5665028095245361,1.9384843111038208
1782969367362730800,5.789730712890625,-0.3027492165565491,0.7640672922134399,2.5005252361297607
1782969367372657000,5.799656982421875,-0.4062308669090271,1.88984215259552,2.1785271167755127
1782969367382582800,5.809582763671875,-0.5341089367866516,2.6045610904693604,1.2989139556884766
1782969367392509700,5.819509765625,-0.744489848613739,2.96791934967041,0.4259033799171448
1782969367402435800,5.829435791015625,-1.0229079723358154,3.0235061645507812,-0.1709107607603073
1782969367412361700,5.83936181640625,-1.2385531663894653,2.8178343772888184,-0.4793407618999481
1782969367422287600,5.84928759765625,-1.293884515762329,2.419970750808716,-0.6140599846839905
1782969367432213800,5.8592138671875,-1.2013442516326904,1.9822884798049927,-0.6084414720535278
1782969367442139600,5.8691396484375,-1.0240757465362549,1.5939205884933472,-0.47968989610671997
1782969367452066600,5.879066650390625,-0.7374178767204285,1.2291284799575806,-0.29609477519989014
1782969367461992700,5.88899267578125,-0.47181013226509094,0.9264418482780457,-0.03524640575051308
1782969367471918800,5.8989189453125,-0.23894865810871124,0.692024827003479,0.2636111378669739
1782969367481844700,5.9088447265625,-0.08377665281295776,0.5032340884208679,0.5658040046691895
1782969367491770600,5.9187705078125,-0.0183491799980402,0.37675607204437256,0.8454627990722656
1782969367501697800,5.92869775390625,-0.0346812829375267,0.3094870150089264,1.08406662940979
1782969367511623700,5.938623779296875,-0.0350879468023777,0.34732067584991455,1.2668426036834717
1782969367521549800,5.9485498046875,-0.013775466941297054,0.45464739203453064,1.3187099695205688
1782969367531475700,5.958475830078125,0.03802008554339409,0.5960695147514343,1.2667357921600342
1782969367541401600,5.968401611328125,0.13350613415241241,0.6869933009147644,1.1354386806488037
1782969367551328800,5.978328857421875,0.22281630337238312,0.740674614906311,0.9364728927612305
1782969367561254700,5.988254638671875,0.2712826430797577,0.8258068561553955,0.666843831539154
1782969367571180800,5.998180908203125,0.2637796998023987,0.8607121109962463,0.343515008687973
1782969367581106700,6.008106689453125,0.24838903546333313,0.7756568193435669,0.015930762514472008
1782969367591032800,6.01803271484375,0.24105176329612732,0.6212576627731323,-0.2844671607017517
1782969367600959700,6.027959716796875,0.25490739941596985,0.44960230588912964,-0.4792872369289398
1782969367610885600,6.0378857421875,0.2778680920600891,0.26112666726112366,-0.5480213165283203
1782969367620811800,6.047811767578125,0.3028642535209656,0.05013693496584892,-0.5060493350028992
1782969367630737700,6.057737548828125,0.33994239568710327,-0.14020851254463196,-0.3911195695400238
1782969367640663600,6.06766357421875,0.3794613182544708,-0.26997849345207214,-0.26448890566825867
1782969367650589700,6.077589599609375,0.4133060872554779,-0.3677998483181,-0.17146602272987366
1782969367660516900,6.087516845703125,0.4397592544555664,-0.4710860252380371,-0.12350436300039291
1782969367670442800,6.09744287109375,0.4828140437602997,-0.5239564180374146,-0.17303596436977386
1782969367680368600,6.10736865234375,0.5223060846328735,-0.5170170068740845,-0.31769540905952454
1782969367690294800,6.117294677734375,0.5076794624328613,-0.43362945318222046,-0.5071630477905273
1782969367700221000,6.127220947265625,0.4075794816017151,-0.2596867084503174,-0.6820952296257019
1782969367710147600,6.137147705078125,0.2667451500892639,-0.1671450436115265,-0.9053115248680115
1782969367720073700,6.14707373046875,0.16468562185764313,-0.4042545258998871,-1.2646023035049438
1782969367730000000,6.156999755859375,0.40304359793663025,-0.9623260498046875,-1.6612657308578491
1782969367739925500,6.166925537109375,0.8575953841209412,-1.8005261421203613,-1.8458789587020874
1782969367749851600,6.1768515625,1.414185643196106,-2.6261708736419678,-1.6339473724365234
1782969367759777800,6.18677783203125,1.8761218786239624,-3.4763829708099365,-0.8684232831001282
1782969367769704700,6.19670458984375,2.057553291320801,-4.216949462890625,0.4743606448173523
1782969367779630600,6.206630615234375,2.033494472503662,-4.387024879455566,1.7967684268951416
1782969367789557200,6.21655712890625,1.8488143682479858,-3.5705580711364746,2.690546989440918
1782969367799483400,6.2264833984375,1.4595345258712769,-1.9627516269683838,3.1151740550994873
1782969367809409000,6.236408935546875,0.9178597927093506,-0.1845024675130844,3.0650501251220703
1782969367819336200,6.246336181640625,0.38988199830055237,1.2817999124526978,2.582143783569336
1782969367829262300,6.256262451171875,0.01305375061929226,2.187101364135742,1.8709367513656616
1782969367839188200,6.266188232421875,-0.1884482055902481,2.4029877185821533,1.2385728359222412
1782969367849114000,6.276114013671875,-0.3375878930091858,2.1181654930114746,0.8753930330276489
1782969367859040300,6.286040283203125,-0.4699275493621826,1.598045825958252,0.7824055552482605
1782969367868967200,6.29596728515625,-0.5147333741188049,1.0052311420440674,0.8558856248855591
1782969367878893000,6.30589306640625,-0.44525229930877686,0.4818025827407837,0.998523473739624
1782969367888819200,6.315819091796875,-0.3007188141345978,0.08050069957971573,1.1469566822052002
1782969367898745300,6.325745361328125,-0.12458693236112595,-0.1718287467956543,1.3019523620605469
1782969367908671200,6.335671142578125,0.02785373479127884,-0.2446739226579666,1.4336360692977905
1782969367918598100,6.34559814453125,0.1392684131860733,-0.15126222372055054,1.5217249393463135
1782969367928524300,6.355524169921875,0.15550410747528076,0.09747329354286194,1.5641103982925415
1782969367938450400,6.365450439453125,0.06366659700870514,0.41899141669273376,1.5385315418243408
1782969367948376000,6.3753759765625,-0.09019753336906433,0.784760594367981,1.422328233718872
1782969367958302200,6.38530224609375,-0.281127005815506,1.1999415159225464,1.253450870513916
1782969367968228400,6.395228271484375,-0.5098342299461365,1.6515833139419556,1.0636292695999146
1782969367978155300,6.4051552734375,-0.7596414089202881,2.0694823265075684,0.8648197650909424
1782969367988081200,6.4150810546875,-0.9576375484466553,2.3950295448303223,0.6061274409294128
1782969367998007300,6.42500732421875,-1.0001519918441772,2.4933433532714844,0.36534202098846436
1782969368007933200,6.43493310546875,-0.8483979105949402,2.3348588943481445,0.23100845515727997
1782969368017859300,6.444859375,-0.5988783240318298,1.9983540773391724,0.19548481702804565
1782969368027786200,6.4547861328125,-0.37389370799064636,1.534346103668213,0.25251615047454834
1782969368037712400,6.46471240234375,-0.21056681871414185,1.009506344795227,0.3426345884799957
1782969368047638300,6.47463818359375,-0.102091483771801,0.4779694974422455,0.4066593647003174
1782969368057564200,6.484564208984375,-0.04926634952425957,0.02545582503080368,0.3453179895877838
1782969368067490300,6.494490234375,-0.02803190052509308,-0.3134433925151825,0.09045932441949844
1782969368077417200,6.504417236328125,-0.03966991603374481,-0.5910718441009521,-0.32174447178840637
1782969368087343000,6.514343017578125,-0.045760296285152435,-0.7451282143592834,-0.822035014629364
1782969368097269200,6.524269287109375,-0.07492697238922119,-0.8385378122329712,-1.2552764415740967
1782969368107195100,6.534195068359375,-0.11953944712877274,-0.8705833554267883,-1.5359448194503784
1782969368117121300,6.544121337890625,-0.1753595620393753,-0.830260694026947,-1.669488787651062
1782969368127047400,6.55404736328125,-0.2575439214706421,-0.7423814535140991,-1.7346097230911255
1782969368136974300,6.563974365234375,-0.36434465646743774,-0.644146203994751,-1.7642861604690552
1782969368146900200,6.573900146484375,-0.4495178759098053,-0.6310557126998901,-1.7879589796066284
1782969368156826400,6.583826416015625,-0.4632784426212311,-0.7818471193313599,-1.8287421464920044
1782969368166752300,6.593752197265625,-0.37102174758911133,-1.084389090538025,-1.930911660194397
1782969368176678100,6.60367822265625,-0.19634154438972473,-1.5057169198989868,-2.0251948833465576
1782969368186605300,6.613605224609375,0.020171847194433212,-1.9796395301818848,-2.000751495361328
1782969368196531200,6.62353125,0.21812354028224945,-2.4904048442840576,-1.875270962715149
1782969368206457000,6.63345703125,0.4248916506767273,-2.9592013359069824,-1.7421435117721558
1782969368216383200,6.64338330078125,0.6006578803062439,-3.2001142501831055,-1.6236974000930786
1782969368226309400,6.653309326171875,0.7278440594673157,-3.203791856765747,-1.3018324375152588
1782969368236236300,6.663236328125,0.734459638595581,-3.0328006744384766,-0.6248473525047302
1782969368246162200,6.673162109375,0.5446273684501648,-2.6432321071624756,0.3540060222148895
1782969368256088300,6.68308837890625,0.14661207795143127,-1.8580248355865479,1.3226200342178345
1782969368266014500,6.693014404296875,-0.37347185611724854,-0.6395666599273682,1.9914367198944092
1782969368275940000,6.702940185546875,-0.8233982920646667,0.7654539942741394,2.1846463680267334
1782969368285866200,6.7128662109375,-1.1427184343338013,1.9859753847122192,1.9940849542617798
1782969368295793400,6.72279345703125,-1.2800846099853516,2.6837306022644043,1.5859334468841553
1782969368305719000,6.732718994140625,-1.3525651693344116,2.7780704498291016,1.1574060916900635
1782969368315645200,6.742645263671875,-1.488743543624878,2.5116589069366455,0.9165210127830505
1782969368325571300,6.7525712890625,-1.6403511762619019,2.1385083198547363,0.8442957997322083
1782969368335497200,6.762497314453125,-1.7238487005233765,1.7960667610168457,0.8350749015808105
1782969368345424100,6.772424072265625,-1.6880571842193604,1.5697057247161865,0.8151552677154541
1782969368355350300,6.782350341796875,-1.5579273700714111,1.4433419704437256,0.7418224215507507
1782969368365276400,6.7922763671875,-1.3806875944137573,1.4198975563049316,0.6548113822937012
1782969368375202300,6.802202392578125,-1.1978826522827148,1.4554595947265625,0.5740667581558228
1782969368385128200,6.812128173828125,-1.0439471006393433,1.492408037185669,0.5361158847808838
1782969368395055400,6.822055419921875,-0.9414210319519043,1.4816997051239014,0.5390064716339111
1782969368404981200,6.831981201171875,-0.8667182922363281,1.4078928232192993,0.5741066932678223
1782969368414907100,6.8419072265625,-0.8137565851211548,1.3141344785690308,0.5855002403259277
1782969368424833300,6.851833251953125,-0.7965887784957886,1.2913668155670166,0.525859534740448
1782969368434759200,6.86175927734375,-0.7946433424949646,1.4017441272735596,0.4451180696487427
1782969368444686000,6.87168603515625,-0.7894219160079956,1.5728636980056763,0.3630623519420624
1782969368454612200,6.8816123046875,-0.7522056102752686,1.7008203268051147,0.23776862025260925
1782969368464538400,6.891538330078125,-0.6206390261650085,1.6886893510818481,0.09190036356449127
1782969368474464300,6.90146435546875,-0.42634040117263794,1.473427414894104,-0.04398796334862709
1782969368484390100,6.91139013671875,-0.21188482642173767,1.1068975925445557,-0.1711147576570511
1782969368494316300,6.92131640625,0.0077471355907619,0.733954131603241,-0.3036104738712311
1782969368504243200,6.9312431640625,0.23097382485866547,0.38619962334632874,-0.41006234288215637
1782969368514169300,6.94116943359375,0.42892658710479736,0.05395590886473656,-0.46971821784973145
1782969368524095200,6.95109521484375,0.5816516876220703,-0.23282232880592346,-0.4738312065601349
1782969368534021000,6.961021240234375,0.688529908657074,-0.46919625997543335,-0.4748898148536682
1782969368543947300,6.970947265625,0.7394202947616577,-0.6776692867279053,-0.5124356150627136
1782969368553874200,6.980874267578125,0.7334305644035339,-0.8079900145530701,-0.5940393805503845
1782969368563800300,6.99080029296875,0.6796371340751648,-0.8274787664413452,-0.717139720916748
1782969368573726200,7.000726318359375,0.6065341234207153,-0.6812216639518738,-0.8781664371490479
1782969368583652400,7.01065234375,0.5440971255302429,-0.4342859387397766,-1.0892109870910645
1782969368593578200,7.020578125,0.4877675473690033,-0.1679980605840683,-1.3292369842529297
1782969368603505200,7.030505126953125,0.4502981901168823,0.03347300365567207,-1.6078027486801147
1782969368613431300,7.040431396484375,0.45714491605758667,0.04274133965373039,-1.9137630462646484
1782969368623357200,7.050357177734375,0.5158615112304688,-0.18522152304649353,-2.2183480262756348
1782969368633283000,7.060282958984375,0.6209245324134827,-0.7489640116691589,-2.2956576347351074
1782969368643209200,7.070209228515625,0.8110840916633606,-1.7645028829574585,-1.9890838861465454
1782969368653135400,7.08013525390625,1.152724266052246,-3.1795785427093506,-1.4912580251693726
1782969368663062300,7.090062255859375,1.6814868450164795,-4.598207473754883,-1.0479607582092285
1782969368672988200,7.09998828125,2.198497772216797,-5.410709381103516,-0.6973074674606323
1782969368682914300,7.109914306640625,2.278003692626953,-5.4450788497924805,-0.3773728609085083
1782969368692840400,7.11984033203125,1.7219711542129517,-4.651031970977783,0.1151987612247467
1782969368702766000,7.12976611328125,0.8859178423881531,-2.9985873699188232,0.6789186000823975
1782969368712693200,7.139693359375,0.1779652088880539,-0.8224078416824341,1.0203083753585815
1782969368722619400,7.149619384765625,-0.3255307078361511,1.2883167266845703,1.1257506608963013
1782969368732545000,7.159544921875,-0.6695448160171509,2.9201996326446533,1.1579861640930176
1782969368742471200,7.16947119140625,-0.8116174936294556,3.6942355632781982,1.0940207242965698
1782969368752397300,7.179397216796875,-0.7986745238304138,3.634941577911377,0.9890751242637634
1782969368762324200,7.18932421875,-0.7642822265625,3.037652015686035,0.933214545249939
1782969368772250000,7.19925,-0.7228549122810364,2.1747539043426514,0.9566817879676819
1782969368782175700,7.20917578125,-0.6652688384056091,1.2620842456817627,1.0335144996643066
1782969368792102000,7.219101806640625,-0.5976831316947937,0.5142114162445068,1.1610721349716187
1782969368802027800,7.22902783203125,-0.5203025937080383,0.02557673305273056,1.2638038396835327
1782969368811953700,7.23895361328125,-0.47352975606918335,-0.216193288564682,1.2627692222595215
1782969368821880800,7.248880859375,-0.4853872060775757,-0.1862761378288269,1.1328577995300293
1782969368831807000,7.258806884765625,-0.5299903750419617,0.057256098836660385,0.883158266544342
1782969368841732900,7.26873291015625,-0.5942042469978333,0.40023741126060486,0.5755066871643066
1782969368851658800,7.27865869140625,-0.6743749380111694,0.7749857306480408,0.2809171676635742
1782969368861585000,7.2885849609375,-0.7719667553901672,1.1107664108276367,0.04651184007525444
1782969368871511800,7.29851171875,-0.8407573103904724,1.3797749280929565,-0.09759499877691269
1782969368881437700,7.308437744140625,-0.8825632929801941,1.5830609798431396,-0.1630278080701828
1782969368891363800,7.31836376953125,-0.8848962783813477,1.6707948446273804,-0.15327663719654083
1782969368901289700,7.328289794921875,-0.8405186533927917,1.7067224979400635,-0.10721087455749512
1782969368911215900,7.3382158203125,-0.7708472013473511,1.7029978036880493,0.0019443739438429475
1782969368921142800,7.348142822265625,-0.6810293793678284,1.6456929445266724,0.13333381712436676
1782969368931069000,7.35806884765625,-0.5765916705131531,1.514222502708435,0.2162870317697525
1782969368940994800,7.367994873046875,-0.48795104026794434,1.3406566381454468,0.19868087768554688
1782969368950920700,7.377920654296875,-0.439970999956131,1.175084114074707,0.11681316792964935
1782969368960846800,7.387846923828125,-0.4350113868713379,1.0196900367736816,0.0007033408619463444
1782969368970772700,7.397772705078125,-0.4447295367717743,0.8601323366165161,-0.15936408936977386
1782969368980700000,7.407699951171875,-0.44144025444984436,0.710114061832428,-0.33887073397636414
1782969368990625800,7.417625732421875,-0.39184847474098206,0.5282387733459473,-0.5375819802284241
1782969369000551700,7.4275517578125,-0.3288436532020569,0.31953486800193787,-0.7534194588661194
1782969369010477800,7.437477783203125,-0.25568583607673645,0.11450766772031784,-0.9791021347045898
1782969369020404000,7.447404052734375,-0.18047656118869781,-0.09141513705253601,-1.17836594581604
1782969369030331000,7.457330810546875,-0.08322484791278839,-0.2929019033908844,-1.295432686805725
1782969369040256800,7.4672568359375,0.07027363032102585,-0.47721555829048157,-1.3459757566452026
1782969369050183000,7.477182861328125,0.24028371274471283,-0.6969074606895447,-1.3371039628982544
1782969369060108800,7.48710888671875,0.3522661626338959,-1.0101889371871948,-1.2534364461898804
1782969369070034700,7.49703466796875,0.3716752827167511,-1.446524739265442,-1.1325936317443848
1782969369079961900,7.5069619140625,0.36430126428604126,-1.9026880264282227,-1.0994749069213867
1782969369089887700,7.5168876953125,0.47019147872924805,-2.39615797996521,-1.2969133853912354
1782969369099813600,7.526813720703125,0.737085223197937,-2.9710631370544434,-1.6674845218658447
1782969369109739800,7.53673974609375,1.1181989908218384,-3.5131216049194336,-1.917022466659546
1782969369119666000,7.546666015625,1.506210446357727,-3.96250057220459,-1.8011376857757568
1782969369129592800,7.5565927734375,1.6664562225341797,-4.230605602264404,-1.1847004890441895
1782969369139518700,7.566518798828125,1.5374423265457153,-4.1363019943237305,-0.24893498420715332
1782969369149444900,7.57644482421875,1.193598985671997,-3.516235589981079,0.6839780807495117
1782969369159371000,7.58637109375,0.6755012273788452,-2.3733394145965576,1.3187541961669922
1782969369169296600,7.596296630859375,0.07704311609268188,-0.8306079506874084,1.524402141571045
1782969369179222800,7.606222900390625,-0.45764318108558655,0.933141827583313,1.2272764444351196
1782969369189150000,7.61614990234375,-0.8781903982162476,2.5815231800079346,0.5760846138000488
1782969369199075600,7.62607568359375,-1.150356650352478,3.704098701477051,-0.1119193434715271
1782969369209001700,7.636001708984375,-1.2994223833084106,4.078365325927734,-0.6741829514503479
1782969369218927900,7.645927978515625,-1.3704403638839722,3.8395938873291016,-0.9905962944030762
1782969369228853800,7.655853759765625,-1.3794058561325073,3.2804932594299316,-1.0117639303207397
1782969369238780700,7.66578076171875,-1.3052842617034912,2.5858089923858643,-0.8238496780395508
1782969369248706800,7.675706787109375,-1.1609978675842285,1.8910236358642578,-0.5403431057929993
1782969369258633000,7.685633056640625,-0.9991580843925476,1.3352693319320679,-0.2250024825334549
1782969369268558800,7.695558837890625,-0.8241551518440247,0.9971320033073425,0.08466695249080658
1782969369278484700,7.705484619140625,-0.6519796252250671,0.8626447319984436,0.3635518550872803
1782969369288412000,7.715411865234375,-0.48560211062431335,0.8528967499732971,0.6090923547744751
1782969369298337800,7.725337890625,-0.3612940311431885,0.8966514468193054,0.811957836151123
1782969369308263700,7.735263671875,-0.2941559851169586,0.9594583511352539,0.993738055229187
1782969369318189800,7.74518994140625,-0.3022461533546448,1.0586177110671997,1.1507902145385742
1782969369328115700,7.75511572265625,-0.34500664472579956,1.1860986948013306,1.2754675149917603
1782969369338041900,7.765041748046875,-0.35350853204727173,1.281265139579773,1.2813128232955933
1782969369347968800,7.77496875,-0.30490052700042725,1.3340798616409302,1.1440149545669556
1782969369357895000,7.78489501953125,-0.1949460506439209,1.3388434648513794,0.9348866939544678
1782969369367820800,7.79482080078125,-0.0736214891076088,1.295767903327942,0.7405784726142883
1782969369377747000,7.804746826171875,0.02414102293550968,1.1939464807510376,0.6069344282150269
1782969369387672800,7.8146728515625,0.11728028953075409,1.0219659805297852,0.5142518877983093
1782969369397599700,7.824599853515625,0.20147718489170074,0.7611554265022278,0.4178757965564728
1782969369407526000,7.83452587890625,0.2560991644859314,0.5126540064811707,0.29134368896484375
1782969369417451800,7.84445166015625,0.29102304577827454,0.32009756565093994,0.13116255402565002
1782969369427377700,7.854377685546875,0.2980678975582123,0.15670917928218842,-0.05092043802142143
1782969369437303800,7.8643037109375,0.26014289259910583,-0.042633745819330215,-0.20337282121181488
1782969369447230700,7.874230712890625,0.1898183971643448,-0.2477717101573944,-0.34798941016197205
1782969369457156900,7.884156982421875,0.1212979331612587,-0.4099808633327484,-0.5267543792724609
1782969369467082800,7.894082763671875,0.06227322667837143,-0.48164281249046326,-0.7739415168762207
1782969369477009000,7.9040087890625,0.07556186616420746,-0.5034682154655457,-1.022128701210022
1782969369486934800,7.913934814453125,0.1942989081144333,-0.5294063091278076,-1.2183101177215576
1782969369496861700,7.92386181640625,0.3996768295764923,-0.6366441249847412,-1.3243242502212524
1782969369506787800,7.933787841796875,0.6200917363166809,-0.9387645721435547,-1.3847146034240723
1782969369516714000,7.9437138671875,0.7724155187606812,-1.5536447763442993,-1.4479726552963257
1782969369526639600,7.9536396484375,0.8360501527786255,-2.5428152084350586,-1.5635520219802856
1782969369536565800,7.963565673828125,0.8379843831062317,-3.717039108276367,-1.6561492681503296
1782969369546492000,7.973491943359375,0.7862240076065063,-4.579091548919678,-1.4048625230789185
1782969369556418800,7.983418701171875,0.689423680305481,-4.763293266296387,-0.7409862279891968
1782969369566344700,7.9933447265625,0.5377556085586548,-4.017115592956543,0.11121147871017456
1782969369576270800,8.003270751953124,0.3576012849807739,-2.459562301635742,0.7295678853988647
1782969369586195700,8.01319580078125,0.17273981869220734,-0.5844559669494629,0.8224000930786133
1782969369596122600,8.02312255859375,-0.07000970840454102,1.1047444343566895,0.489402174949646
1782969369606048800,8.033048828125,-0.39319390058517456,2.385251522064209,0.09713933616876602
1782969369615975000,8.042974853515625,-0.6785396337509155,3.137876033782959,-0.1608583927154541
1782969369625900800,8.05290087890625,-0.8476729989051819,3.2852015495300293,-0.2479594647884369
1782969369635827000,8.062826904296875,-0.9018749594688416,2.945512294769287,-0.19383472204208374
1782969369645753900,8.07275390625,-0.8401130437850952,2.2853684425354004,-0.03404185548424721
1782969369655679700,8.0826796875,-0.7138957381248474,1.5140336751937866,0.2291085571050644
1782969369665606000,8.09260595703125,-0.5641427636146545,0.8336402773857117,0.5413463711738586
1782969369675531800,8.10253173828125,-0.41661080718040466,0.38264936208724976,0.8174210786819458
1782969369685457700,8.112457763671875,-0.3018365502357483,0.1595158874988556,0.9705794453620911
1782969369695384800,8.122384765625,-0.23488467931747437,0.14571405947208405,0.9798182249069214
1782969369705310700,8.132310791015625,-0.2261074334383011,0.3312082886695862,0.853492259979248
1782969369715236900,8.14223681640625,-0.25847628712654114,0.6618368029594421,0.6473606824874878
1782969369725162800,8.152162841796875,-0.2982282340526581,1.0457128286361694,0.4322955012321472
1782969369735089000,8.1620888671875,-0.36146339774131775,1.3995851278305054,0.2863446772098541
1782969369745015800,8.172015869140624,-0.4213680028915405,1.6474066972732544,0.2331877201795578
1782969369754941700,8.181941650390625,-0.4563172161579132,1.749412178993225,0.2500956058502197
1782969369764867800,8.191867919921876,-0.4450432360172272,1.6488256454467773,0.2826346158981323
1782969369774794000,8.2017939453125,-0.3809952735900879,1.383484959602356,0.3012900650501251
1782969369784720100,8.21172021484375,-0.26443031430244446,1.0493792295455933,0.3334541320800781
1782969369794646000,8.22164599609375,-0.12804797291755676,0.713854193687439,0.4289598762989044
1782969369804573200,8.2315732421875,0.03235367685556412,0.41417402029037476,0.5673425197601318
1782969369814499000,8.2414990234375,0.1812313050031662,0.1906314641237259,0.7110296487808228
1782969369824425200,8.25142529296875,0.31635984778404236,0.06172488257288933,0.7949469089508057
1782969369834351000,8.26135107421875,0.38467150926589966,-0.03911517933011055,0.7931620478630066
1782969369844277200,8.27127734375,0.3704225420951843,-0.14786216616630554,0.7339988946914673
1782969369854204200,8.2812041015625,0.3063282370567322,-0.25779852271080017,0.6049311757087708
1782969369864130000,8.291130126953124,0.23552091419696808,-0.36622992157936096,0.39695826172828674
1782969369874056200,8.30105615234375,0.18562978506088257,-0.49357402324676514,0.16959941387176514
1782969369883982000,8.310982177734376,0.17105883359909058,-0.6553581357002258,-0.04036899283528328
1782969369893908000,8.320907958984375,0.2036236971616745,-0.8847074508666992,-0.1799820214509964
1782969369903834000,8.330834228515625,0.3117283284664154,-1.1878480911254883,-0.24166561663150787
1782969369913761000,8.340760986328124,0.5139219164848328,-1.5738186836242676,-0.29009920358657837
1782969369923687200,8.350687255859375,0.7472071051597595,-2.0925347805023193,-0.4211919605731964
1782969369933613000,8.360613037109376,0.9718287587165833,-2.657942295074463,-0.6575040817260742
1782969369943539200,8.370539306640625,1.1570398807525635,-3.1932990550994873,-1.0143040418624878
1782969369953465300,8.38046533203125,1.2667845487594604,-3.6975648403167725,-1.4977034330368042
1782969369963392000,8.39039208984375,1.1889182329177856,-4.364692211151123,-1.9909336566925049
1782969369973319200,8.400319091796876,0.9937558770179749,-5.336965084075928,-2.3221330642700195
1782969369983245000,8.4102451171875,0.9683154821395874,-6.343632221221924,-2.4539525508880615
1782969369993171200,8.420171142578125,1.2369760274887085,-6.778582572937012,-2.2966017723083496
1782969370003097000,8.43009716796875,1.5790449380874634,-6.282554626464844,-1.6776220798492432
1782969370013023200,8.440023193359375,1.6294556856155396,-4.762620449066162,-0.5500404834747314
1782969370022950100,8.4499501953125,1.175693154335022,-2.504953622817993,0.6500517725944519
1782969370032876000,8.4598759765625,0.42667701840400696,-0.06369349360466003,1.4645923376083374
1782969370042802200,8.46980224609375,-0.2722272574901581,1.9564268589019775,1.6769416332244873
1782969370052728000,8.47972802734375,-0.7569244503974915,3.304067373275757,1.430087924003601
1782969370062654000,8.489654052734375,-0.9740146994590759,3.8069043159484863,0.9638469815254211
1782969370072581000,8.4995810546875,-0.9556902647018433,3.5766310691833496,0.5757375955581665
1782969370082507000,8.509507080078125,-0.8582097887992859,2.8807642459869385,0.4736439883708954
1782969370092433200,8.51943310546875,-0.7247326970100403,1.9476921558380127,0.6318266987800598
1782969370102359000,8.529359130859374,-0.5389289855957031,0.9776384234428406,0.9407094717025757
1782969370112285200,8.53928515625,-0.31209343671798706,0.0997614786028862,1.2588030099868774
1782969370122212000,8.549212158203124,-0.111057810485363,-0.5422850847244263,1.5224322080612183
1782969370132138000,8.559137939453125,0.045822881162166595,-0.8914588093757629,1.6489901542663574
1782969370142064000,8.569064208984376,0.15614379942417145,-1.0493382215499878,1.6945520639419556
1782969370151990300,8.578990234375,0.22067086398601532,-1.0519648790359497,1.6567447185516357
1782969370161916000,8.588916015625,0.2617487907409668,-0.9326989054679871,1.56912362575531
1782969370171842000,8.598842041015626,0.28920090198516846,-0.7478460073471069,1.4740372896194458
1782969370181769200,8.608769287109375,0.272421658039093,-0.5201667547225952,1.4252923727035522
1782969370191695000,8.618695068359376,0.21512508392333984,-0.22120589017868042,1.4687615633010864
1782969370201621000,8.62862109375,0.1654249131679535,0.08439237624406815,1.5235902070999146
1782969370211547100,8.638547119140625,0.1504499614238739,0.36714765429496765,1.4720745086669922
1782969370221473300,8.648473388671874,0.17781740427017212,0.6154815554618835,1.2844066619873047
1782969370231400000,8.65839990234375,0.22603632509708405,0.8355545401573181,1.0319980382919312
1782969370241326000,8.668326171875,0.2663121223449707,1.004939079284668,0.7415183186531067
1782969370251252200,8.678252197265625,0.26317542791366577,1.0957605838775635,0.433619886636734
1782969370261178000,8.68817822265625,0.2343571037054062,1.0938433408737183,0.12113255262374878
1782969370271104000,8.69810400390625,0.18321429193019867,0.9747084379196167,-0.15544019639492035
1782969370281031200,8.70803125,0.1317915916442871,0.745977520942688,-0.3870435953140259
1782969370290957300,8.717957275390624,0.09311050176620483,0.4644497036933899,-0.5834982991218567
1782969370300883000,8.727883056640625,0.06756652891635895,0.14421789348125458,-0.7543827295303345
1782969370310809000,8.73780908203125,0.06660939007997513,-0.20225350558757782,-0.8695862889289856
1782969370320735200,8.7477353515625,0.09712015837430954,-0.5447123050689697,-0.9213466644287109
1782969370330661000,8.7576611328125,0.16490080952644348,-0.8223447203636169,-0.9320187568664551
1782969370340588000,8.767588134765624,0.2869015336036682,-1.067862868309021,-0.9323641657829285
1782969370350514200,8.77751416015625,0.43067869544029236,-1.2521147727966309,-0.9919622540473938
1782969370360440000,8.787440185546876,0.5369465351104736,-1.3143045902252197,-1.1224294900894165
1782969370370366200,8.7973662109375,0.576977550983429,-1.2982769012451172,-1.3304548263549805
1782969370380292000,8.8072919921875,0.5426701903343201,-1.2862380743026733,-1.5959224700927734
1782969370390219300,8.81721923828125,0.4873046875,-1.4226758480072021,-1.9416276216506958
1782969370400145200,8.827145263671875,0.5217230916023254,-1.9213876724243164,-2.288966417312622
1782969370410071000,8.837071044921874,0.8257679343223572,-2.798356533050537,-2.374011993408203
1782969370419997200,8.8469970703125,1.3707953691482544,-3.6221065521240234,-2.082084894180298
1782969370429923000,8.856923095703126,1.8780369758605957,-4.149506092071533,-1.4606401920318604
1782969370439850000,8.86685009765625,2.012286901473999,-4.424832820892334,-0.572626531124115
1782969370449776000,8.876776123046875,1.765199899673462,-3.981832981109619,0.26365986466407776
1782969370459702000,8.886701904296874,1.1557029485702515,-2.475083112716675,0.7123183608055115
1782969370469628200,8.896628173828125,0.2667640447616577,-0.457348108291626,0.5944598913192749
1782969370479554300,8.90655419921875,-0.6664869785308838,1.5439207553863525,0.15797577798366547
1782969370489481200,8.916481201171875,-1.3130789995193481,3.1795125007629395,-0.358158141374588
1782969370499407000,8.926406982421875,-1.570700764656067,4.029642105102539,-0.8566025495529175
1782969370509333200,8.936333251953124,-1.5451983213424683,3.9949896335601807,-1.1192134618759155
1782969370519259100,8.946259033203125,-1.4160791635513306,3.353238344192505,-1.1080942153930664
1782969370529185000,8.95618505859375,-1.302924633026123,2.4662277698516846,-0.8160596489906311
1782969370539111200,8.966111083984375,-1.1716617345809937,1.4663859605789185,-0.354424387216568
1782969370549038000,8.9760380859375,-0.9978193640708923,0.5937304496765137,0.09536273777484894
1782969370558964000,8.9859638671875,-0.8234097361564636,0.001969407545402646,0.49370184540748596
1782969370568890000,8.99589013671875,-0.7042497992515564,-0.2795911729335785,0.7701917886734009
1782969370578816300,9.005816162109374,-0.6656464338302612,-0.29123982787132263,0.9197083115577698
1782969370588742100,9.0157421875,-0.7032210230827332,-0.08847234398126602,0.968196451663971
1782969370598669000,9.0256689453125,-0.7965764999389648,0.2742733657360077,0.950396716594696
1782969370608595200,9.03559521484375,-0.9171737432479858,0.7239845991134644,0.882561445236206
1782969370618521000,9.04552099609375,-1.0685555934906006,1.2148653268814087,0.8266134858131409
1782969370628447000,9.055447021484374,-1.2118892669677734,1.6975510120391846,0.8319456577301025
1782969370638373000,9.065373046875,-1.3280612230300903,2.0797200202941895,0.8944836258888245
1782969370648300300,9.07530029296875,-1.3969858884811401,2.2321248054504395,0.9621569514274597
1782969370658226000,9.085225830078125,-1.384566307067871,2.211495876312256,0.9500555396080017
1782969370668152000,9.095152099609376,-1.2948826551437378,2.120999574661255,0.7712234854698181
1782969370678078200,9.105078125,-1.166178822517395,1.9923830032348633,0.45363885164260864
1782969370688004000,9.115004150390625,-1.051486611366272,1.8811120986938477,0.10532668977975845
1782969370697931000,9.124930908203124,-0.8244163990020752,1.932860255241394,-0.29891613125801086
1782969370707857200,9.134857177734375,-0.6215916275978088,1.9779959917068481,-0.6772663593292236
1782969370717783300,9.144783203125,-0.47541579604148865,2.118553638458252,-0.999354898929596
1782969370727709000,9.154708984375,-0.3344823718070984,2.3393759727478027,-1.3172128200531006
1782969370737635000,9.164635009765625,-0.20634332299232483,2.489163637161255,-1.5973938703536987
1782969370747561200,9.174561279296874,-0.08247170597314835,2.47940731048584,-1.8146328926086426
1782969370757488000,9.184488037109375,0.0021947110071778297,2.284060001373291,-1.8933658599853516
1782969370767414000,9.1944140625,-0.0016082830261439085,1.828330636024475,-1.754074215888977
1782969370777340200,9.204340087890625,-0.08999913185834885,1.1803678274154663,-1.481952428817749
1782969370787265800,9.214265869140625,-0.18819494545459747,0.4278235137462616,-1.2782038450241089
1782969370797191700,9.224191650390624,-0.22928458452224731,-0.35901835560798645,-1.2610241174697876
1782969370807118600,9.23411865234375,-0.24458444118499756,-1.1755483150482178,-1.4724771976470947
1782969370817044700,9.244044677734376,-0.2111434042453766,-1.9980707168579102,-1.9147312641143799
1782969370826970600,9.253970703125,-0.07841331511735916,-2.909383773803711,-2.4911117553710938
1782969370836896800,9.263896728515626,0.13272342085838318,-3.9570672512054443,-2.8946409225463867
1782969370846822700,9.27382275390625,0.3982171416282654,-4.9931960105896,-2.7771224975585938
1782969370856749800,9.283749755859375,0.7077465057373047,-5.822245121002197,-2.093824625015259
1782969370866675700,9.29367578125,1.0676802396774292,-6.241686820983887,-1.2866040468215942
1782969370876601600,9.3036015625,1.4087285995483398,-5.918708324432373,-0.5004960894584656
1782969370886527700,9.31352783203125,1.5909093618392944,-4.867756366729736,0.2946992814540863
1782969370896453600,9.32345361328125,1.297972559928894,-3.5497663021087646,1.2813717126846313
1782969370906380500,9.333380615234375,0.8254417181015015,-2.0576889514923096,2.1628217697143555
1782969370916306700,9.343306640625,0.30247998237609863,-0.30499985814094543,2.7327680587768555
1782969370926232600,9.353232666015625,-0.19130684435367584,1.465559959411621,2.811863899230957
1782969370936158700,9.36315869140625,-0.5759314894676208,2.8573663234710693,2.4003121852874756
1782969370946084900,9.3730849609375,-0.8120619654655457,3.5698654651641846,1.7295020818710327
1782969370956010500,9.383010498046875,-0.9518052339553833,3.7203619480133057,1.1704601049423218
1782969370965937700,9.392937744140625,-0.9980579614639282,3.375711441040039,0.7889638543128967
1782969370975863800,9.40286376953125,-0.9491969347000122,2.6190059185028076,0.5305932760238647
1782969370985789700,9.412789794921874,-0.8926825523376465,1.822446346282959,0.5037971138954163
1782969370995715600,9.422715576171875,-0.8193875551223755,1.1462165117263794,0.6322048902511597
1782969371005641700,9.432641845703126,-0.7369259595870972,0.6328642964363098,0.7744222283363342
1782969371015568600,9.442568603515625,-0.6538118720054626,0.31399786472320557,0.8674030303955078
1782969371025494500,9.45249462890625,-0.5582001805305481,0.20027077198028564,0.895930290222168
1782969371035420700,9.462420654296874,-0.46106642484664917,0.25704485177993774,0.9022738933563232
1782969371045346800,9.472346923828125,-0.3749283254146576,0.4555584788322449,0.9120429158210754
1782969371055272700,9.482272705078126,-0.3015614449977875,0.7483493089675903,0.9345189332962036
1782969371065198600,9.492198486328125,-0.2362825721502304,1.0622968673706055,0.9842063188552856
1782969371075125800,9.502125732421876,-0.1773580014705658,1.3161277770996094,1.0606441497802734
1782969371085051600,9.5120517578125,-0.14044606685638428,1.5179122686386108,1.1613209247589111
1782969371094977500,9.5219775390625,-0.09387402981519699,1.662400245666504,1.2705574035644531
1782969371104903700,9.531903564453126,0.0144135607406497,1.686233401298523,1.3430792093276978
1782969371114829800,9.541829833984375,0.2014438956975937,1.5781389474868774,1.320919156074524
1782969371124756500,9.551756591796876,0.4039437472820282,1.413346290588379,1.207118272781372
1782969371134682600,9.5616826171875,0.5584638118743896,1.2380671501159668,1.0220956802368164
1782969371144608800,9.57160888671875,0.6460674405097961,1.0176881551742554,0.7890655994415283
1782969371154534700,9.58153466796875,0.6197609901428223,0.7849965691566467,0.5472742915153503
1782969371164460500,9.59146044921875,0.5593594312667847,0.5487062335014343,0.2399715781211853
1782969371174387700,9.6013876953125,0.46241050958633423,0.29898643493652344,-0.125658318400383
1782969371184313900,9.61131396484375,0.3742537498474121,0.02502971887588501,-0.4969671666622162
1782969371194239700,9.62123974609375,0.3256273567676544,-0.262440949678421,-0.8341925740242004
1782969371204165600,9.63116552734375,0.3068464994430542,-0.5305605530738831,-1.102075219154358
1782969371214091800,9.641091796875,0.3043593764305115,-0.7350178360939026,-1.294488549232483
1782969371224018700,9.651018798828124,0.29722607135772705,-0.8956908583641052,-1.4320054054260254
1782969371233944600,9.660944580078125,0.3214230239391327,-1.0597617626190186,-1.5360386371612549
1782969371243870700,9.67087060546875,0.3846012055873871,-1.300974726676941,-1.6303619146347046
1782969371253796600,9.680796630859374,0.49563291668891907,-1.676972508430481,-1.7125481367111206
1782969371263722800,9.69072265625,0.6057645082473755,-2.2850825786590576,-1.7509266138076782
1782969371273649700,9.700649658203124,0.6207322478294373,-3.0362050533294678,-1.643420934677124
1782969371283575800,9.710575927734375,0.5606904625892639,-3.7528653144836426,-1.4121664762496948
1782969371293501700,9.720501708984376,0.5565305948257446,-4.330313682556152,-1.2621489763259888
1782969371303427600,9.730427490234375,0.6178978681564331,-4.6121602058410645,-1.211925745010376
1782969371313353700,9.740353759765625,0.7239094972610474,-4.208488941192627,-0.8950077295303345
1782969371323279600,9.750279541015624,0.6425824165344238,-2.747750997543335,-0.21222437918186188
1782969371333206500,9.76020654296875,0.2618443965911865,-0.5224160552024841,0.5209811329841614
1782969371343132700,9.770132568359376,-0.23246759176254272,1.7043906450271606,0.9810851216316223
1782969371353058600,9.78005859375,-0.6286868453025818,3.357447624206543,1.0598247051239014
1782969371362984700,9.789984619140625,-0.8879889845848083,4.352802276611328,0.8904374837875366
1782969371372910800,9.799910888671874,-0.9949908256530762,4.664020538330078,0.6782141923904419
1782969371382837800,9.809837646484375,-1.0026426315307617,4.393722057342529,0.5579386353492737
1782969371392763600,9.819763671875,-0.9567914605140686,3.732372283935547,0.5811667442321777
1782969371402689800,9.829689697265625,-0.8852807879447937,2.95495343208313,0.7453373074531555
1782969371412615700,9.83961572265625,-0.7847243547439575,2.250178575515747,0.9646749496459961
1782969371422541600,9.84954150390625,-0.6680529117584229,1.7058329582214355,1.1183159351348877
1782969371432467700,9.8594677734375,-0.5762335062026978,1.3553117513656616,1.1129711866378784
1782969371442394600,9.86939453125,-0.5308409929275513,1.2353307008743286,0.954512357711792
1782969371452320500,9.879320556640625,-0.5154575109481812,1.3162460327148438,0.719160258769989
1782969371462246700,9.88924658203125,-0.5290145874023438,1.5420194864273071,0.5073652267456055
1782969371472172800,9.8991728515625,-0.5707297921180725,1.8030847311019897,0.4086974859237671
1782969371482098700,9.9090986328125,-0.5993401408195496,2.038149118423462,0.4724876582622528
1782969371492025600,9.919025634765624,-0.5611929893493652,2.1668550968170166,0.6551991701126099
1782969371501951700,9.92895166015625,-0.4726378619670868,2.1688899993896484,0.8681161999702454
1782969371511878000,9.9388779296875,-0.35180172324180603,2.060743808746338,1.079437255859375
1782969371521803500,9.948803466796875,-0.2269711047410965,1.887952208518982,1.2513437271118164
1782969371531729700,9.958729736328126,-0.12403912097215652,1.6655744314193726,1.3428633213043213
1782969371541656800,9.96865673828125,-0.07530620694160461,1.4552133083343506,1.3127338886260986
1782969371551582500,9.97858251953125,-0.07814673334360123,1.3897655010223389,1.1659774780273438
1782969371561508600,9.988508544921874,-0.08549892157316208,1.4587211608886719,0.9255275726318359
1782969371571434800,9.998434814453125,-0.12364071607589722,1.6054781675338745,0.6309595704078674
1782969371581360600,10.008360595703126,-0.19776421785354614,1.796797275543213,0.3246974050998688
1782969371591287600,10.01828759765625,-0.2745330333709717,1.9321579933166504,0.04838111624121666
1782969371601213700,10.028213623046875,-0.3647920787334442,1.9084731340408325,-0.11160349100828171
1782969371611139800,10.038139892578124,-0.4801484942436218,1.695786952972412,-0.13340651988983154
1782969371621065700,10.048065673828125,-0.5732682943344116,1.3004425764083862,-0.11436492204666138
1782969371630991600,10.05799169921875,-0.6510720252990723,0.7594012022018433,-0.1001921147108078
1782969371640918800,10.067918701171875,-0.6054840683937073,0.15470169484615326,-0.1927393525838852
1782969371650844700,10.0778447265625,-0.49484753608703613,-0.4273654520511627,-0.35613226890563965
1782969371660770600,10.0877705078125,-0.3231777846813202,-1.0295826196670532,-0.6315734386444092
1782969371670696700,10.09769677734375,-0.10304675996303558,-1.7024438381195068,-0.9057621359825134
1782969371680622600,10.10762255859375,0.12063533812761307,-2.4626200199127197,-1.2061374187469482
1782969371690548700,10.117548828125,0.3134218454360962,-3.0046539306640625,-1.6213759183883667
1782969371700475600,10.1274755859375,0.33616042137145996,-3.061836004257202,-2.312344551086426
1782969371710401800,10.13740185546875,0.04324760660529137,-2.7767255306243896,-3.180929183959961
1782969371720327700,10.14732763671875,-0.4609513580799103,-2.827711820602417,-3.96407151222229
1782969371730253800,10.15725390625,-0.9070654511451721,-3.5010433197021484,-4.360945224761963
1782969371740179700,10.1671796875,-0.9938480257987976,-3.810868740081787,-3.7798821926116943
1782969371750106600,10.177106689453124,-0.5849974155426025,-3.370620012283325,-2.276970863342285
1782969371760032800,10.18703271484375,-0.021037107333540916,-2.768651008605957,-0.5777717232704163
1782969371769958700,10.196958740234376,0.37494218349456787,-2.0014283657073975,0.9187802076339722
1782969371779884500,10.206884521484374,0.45865944027900696,-1.210727572441101,1.9106130599975586
1782969371789810700,10.216810791015625,0.21562257409095764,-0.5633251667022705,2.3370838165283203
1782969371799737300,10.2267373046875,-0.14157576858997345,0.02328774519264698,2.333740472793579
1782969371809663500,10.23666357421875,-0.46066296100616455,0.576521635055542,1.9639118909835815
1782969371819589600,10.246589599609376,-0.6855701208114624,1.0876954793930054,1.4173734188079834
1782969371829515500,10.256515625,-0.8505936861038208,1.429479956626892,0.866786777973175
1782969371839441700,10.266441650390625,-0.9447670578956604,1.5914430618286133,0.40525853633880615
1782969371849368600,10.27636865234375,-0.9461854696273804,1.5740594863891602,0.09191927313804626
1782969371859294700,10.286294677734375,-0.8547924160957336,1.3452696800231934,-0.08632396906614304
1782969371869220600,10.296220703125,-0.7168691754341125,0.9900442361831665,-0.12169846892356873
1782969371879146500,10.306146484375,-0.5860688090324402,0.6719139218330383,-0.057626012712717056
1782969371889072600,10.31607275390625,-0.4506683647632599,0.4893640875816345,0.040894970297813416
1782969371898998500,10.32599853515625,-0.33481526374816895,0.4461311399936676,0.14332972466945648
1782969371908925400,10.335925537109375,-0.2516769766807556,0.4848306179046631,0.23539094626903534
1782969371918851600,10.3458515625,-0.19986224174499512,0.5752816796302795,0.2806907892227173
1782969371928777500,10.355777587890625,-0.1829354614019394,0.7045677304267883,0.2927740812301636
1782969371938703600,10.36570361328125,-0.17356114089488983,0.8436638712882996,0.302379846572876
1782969371948629500,10.37562939453125,-0.17556357383728027,0.9887624382972717,0.32043421268463135
1782969371958556700,10.385556640625,-0.2152441293001175,1.108966588973999,0.377921998500824
1782969371968482600,10.395482666015624,-0.28852981328964233,1.1679191589355469,0.5084280967712402
1782969371978408400,10.405408447265625,-0.3281283378601074,1.1381099224090576,0.6880683898925781
1782969371988334600,10.41533447265625,-0.3091975152492523,0.9648581743240356,0.8498213291168213
1782969371998260500,10.425260498046875,-0.24891208112239838,0.7148275971412659,0.9175564646720886
1782969372008187600,10.435187744140626,-0.13584332168102264,0.470604807138443,0.9026361107826233
1782969372018113500,10.445113525390624,0.0016666061710566282,0.27459827065467834,0.8090236186981201
1782969372028039400,10.455039306640625,0.12780722975730896,0.11115740984678268,0.6592586040496826
1782969372037965600,10.464965576171876,0.24281370639801025,0.027956001460552216,0.5002857446670532
1782969372047891700,10.4748916015625,0.34320956468582153,-0.007512244861572981,0.35175296664237976
1782969372057817300,10.4848173828125,0.38469254970550537,0.025620674714446068,0.2211022973060608
1782969372067744500,10.49474462890625,0.37084758281707764,0.10590699315071106,0.10748837888240814
1782969372077670700,10.504670654296875,0.3433072865009308,0.17314381897449493,-0.020197413861751556
1782969372087596500,10.514596435546874,0.3236936330795288,0.18116499483585358,-0.18085047602653503
1782969372097522400,10.5245224609375,0.3489454686641693,0.19718922674655914,-0.37224361300468445
1782969372107448600,10.534448486328126,0.42032885551452637,0.13358496129512787,-0.6736191511154175
1782969372117375500,10.54437548828125,0.5407165288925171,-0.23837235569953918,-1.2487248182296753
1782969372127301400,10.55430126953125,0.6719973087310791,-1.0874147415161133,-2.104874849319458
1782969372137227500,10.5642275390625,0.7581883668899536,-2.2797276973724365,-2.913672685623169
1782969372147153700,10.574153564453125,0.7558972835540771,-3.603339195251465,-3.2299602031707764
1782969372157079600,10.58407958984375,0.7370015978813171,-3.4632034301757812,-3.085059642791748
1782969372167006500,10.59400634765625,0.20965895056724548,-2.6127238273620605,-2.9545645713806152
1782969372176932600,10.6039326171875,-0.3572705090045929,-1.7116578817367554,-2.566669225692749
1782969372186858800,10.613858642578125,-0.6107139587402344,-0.293152779340744,-1.7982909679412842
1782969372196784400,10.623784423828125,-0.5773900747299194,0.5901628732681274,-0.4404410421848297
1782969372206710500,10.63371044921875,-0.4942840337753296,0.9335732460021973,1.174567699432373
1782969372216637700,10.6436376953125,-0.4449700117111206,1.1194692850112915,2.2330965995788574
1782969372226563300,10.653563232421876,-0.37119805812835693,1.2593270540237427,2.471923828125
1782969372236489500,10.663489501953125,-0.2715660035610199,1.4466989040374756,2.0294253826141357
1782969372246415600,10.67341552734375,-0.1527770310640335,1.602979063987732,1.344225525856018
1782969372256341500,10.683341552734374,-0.11404161900281906,1.6005054712295532,0.7639954090118408
1782969372266267600,10.693267578125,-0.14406423270702362,1.3901524543762207,0.4093627333641052
1782969372276194600,10.703194580078126,-0.20381997525691986,1.039622187614441,0.27084773778915405
1782969372286120700,10.71312060546875,-0.24528193473815918,0.6620267033576965,0.29112690687179565
1782969372296046600,10.723046630859375,-0.24058091640472412,0.3541056215763092,0.37020042538642883
1782969372305972500,10.732972412109374,-0.1810147911310196,0.25043433904647827,0.37078580260276794
1782969372315898600,10.742898681640625,-0.09232141077518463,0.31631162762641907,0.23772414028644562
1782969372325825500,10.752825439453124,-0.005835518706589937,0.4386892020702362,0.03513055667281151
1782969372335751400,10.76275146484375,0.046119559556245804,0.6038030385971069,-0.17279201745986938
1782969372345677600,10.772677490234376,0.09089767932891846,0.715265154838562,-0.34156957268714905
1782969372355603500,10.782603515625,0.11719772964715958,0.6821191906929016,-0.4128173887729645
1782969372365529600,10.792529541015625,0.14028680324554443,0.5787746906280518,-0.42200103402137756
1782969372375456500,10.80245654296875,0.14880652725696564,0.4546996057033539,-0.37602663040161133
1782969372385382700,10.812382568359375,0.13146455585956573,0.33423149585723877,-0.27109143137931824
1782969372395308500,10.82230859375,0.09543570876121521,0.22342829406261444,-0.14266394078731537
1782969372405234700,10.832234619140625,0.05359398573637009,0.12230034917593002,-0.028435636311769485
1782969372415160600,10.84216064453125,0.006669620517641306,0.04806846007704735,0.08003544807434082
1782969372425086500,10.85208642578125,-0.04500902071595192,-0.01811189204454422,0.19474951922893524
1782969372435013600,10.862013671875,-0.08726619929075241,-0.09082391113042831,0.3022434711456299
1782969372444939500,10.871939453125,-0.08753224462270737,-0.17610178887844086,0.38515087962150574
1782969372454865400,10.881865478515625,-0.03558489307761192,-0.270361989736557,0.457638144493103
1782969372464791600,10.89179150390625,0.044679321348667145,-0.34166598320007324,0.5275996327400208
1782969372474717700,10.9017177734375,0.113617904484272,-0.36812344193458557,0.5884251594543457
1782969372484644600,10.91164453125,0.14076218008995056,-0.27950727939605713,0.5967009663581848
1782969372494570500,10.921570556640624,0.13841140270233154,-0.14208044111728668,0.5023826956748962
1782969372504496600,10.93149658203125,0.1097392812371254,0.01540638692677021,0.3171164393424988
1782969372514422500,10.941422607421876,0.0410933755338192,0.1328967958688736,0.10433812439441681
1782969372524348400,10.951348388671875,-0.06543493270874023,0.1736423671245575,-0.008783903904259205
1782969372534275600,10.961275634765625,-0.14705230295658112,0.052322059869766235,0.024209998548030853
1782969372544201700,10.97120166015625,-0.17270119488239288,-0.2895575165748596,0.311685174703598
1782969372554127400,10.98112744140625,-0.151187926530838,-0.6609206795692444,0.5029557943344116
1782969372564053500,10.991053466796876,-0.10507768392562866,-0.9389549493789673,0.5848959684371948
1782969372573979600,11.000979736328125,-0.05040937662124634,-1.1057183742523193,0.3791172206401825
1782969372583906600,11.010906494140626,0.021739117801189423,-1.0651086568832397,-0.08965372294187546
1782969372593832400,11.02083251953125,0.07026244699954987,-0.7928408980369568,-0.7165669202804565
1782969372603758600,11.030758544921875,0.06464983522891998,-0.4462648332118988,-1.273329496383667
1782969372613684700,11.040684814453124,-0.009705091826617718,-0.1653444916009903,-1.5197964906692505
1782969372623610600,11.050610595703125,-0.13815787434577942,-0.0138993039727211,-1.4170669317245483
1782969372633536500,11.06053662109375,-0.24657249450683594,-0.0816866084933281,-1.0307213068008423
