time,seconds_elapsed,z,y,x
1782951201369235000,0.06123486328125,-0.9622344970703125,-0.145477294921875,-0.0323638916015625
1782951201379162000,0.071162109375,-0.9648590087890625,-0.139434814453125,-0.0451202392578125
1782951201389089000,0.081089111328125,-0.9735565185546875,-0.1390838623046875,-0.0619964599609375
1782951201399015200,0.09101513671875,-0.9868011474609375,-0.1457366943359375,-0.0732879638671875
1782951201408942300,0.1009423828125,-0.9967041015625,-0.1508026123046875,-0.081695556640625
1782951201418869200,0.110869140625,-1.001922607421875,-0.1501007080078125,-0.082305908203125
1782951201428796200,0.120796142578125,-1.006103515625,-0.1467742919921875,-0.0772857666015625
1782951201438723000,0.13072314453125,-1.0145263671875,-0.138427734375,-0.0689697265625
1782951201448649200,0.140649169921875,-1.0211181640625,-0.131103515625,-0.06280517578125
1782951201458576100,0.150576171875,-1.0174560546875,-0.125579833984375,-0.0589599609375
1782951201468503300,0.16050341796875,-1.00286865234375,-0.12567138671875,-0.0575714111328125
1782951201478430000,0.170429931640625,-0.9858856201171875,-0.1349945068359375,-0.05615234375
1782951201488357000,0.180357177734375,-0.9770050048828125,-0.143310546875,-0.05462646484375
1782951201498284000,0.190283935546875,-0.9737091064453125,-0.14398193359375,-0.0590362548828125
1782951201508210200,0.200210205078125,-0.972259521484375,-0.1471710205078125,-0.061370849609375
1782951201518137300,0.210137451171875,-0.9772186279296875,-0.146820068359375,-0.0603485107421875
1782951201528064300,0.220064208984375,-0.9798736572265625,-0.14453125,-0.0644683837890625
1782951201537991200,0.2299912109375,-0.9792633056640625,-0.1464080810546875,-0.0655975341796875
1782951201547917000,0.2399169921875,-0.9790496826171875,-0.14788818359375,-0.061492919921875
1782951201557844200,0.24984423828125,-0.978118896484375,-0.1483612060546875,-0.0564117431640625
1782951201567771100,0.259771240234375,-0.97808837890625,-0.14886474609375,-0.0547332763671875
1782951201577698300,0.2696982421875,-0.9791259765625,-0.150299072265625,-0.05133056640625
1782951201587625200,0.279625244140625,-0.9752960205078125,-0.1481170654296875,-0.05157470703125
1782951201597551000,0.289551025390625,-0.973541259765625,-0.1476898193359375,-0.049530029296875
1782951201607478000,0.29947802734375,-0.982513427734375,-0.1492767333984375,-0.0528717041015625
1782951201617405200,0.3094052734375,-0.99139404296875,-0.1477813720703125,-0.058502197265625
1782951201627332000,0.31933203125,-0.9949493408203125,-0.1458587646484375,-0.0570068359375
1782951201637259300,0.32925927734375,-0.996246337890625,-0.14642333984375,-0.0457000732421875
1782951201647185200,0.33918505859375,-0.994873046875,-0.1452789306640625,-0.040069580078125
1782951201657112000,0.349112060546875,-0.9892730712890625,-0.1435546875,-0.042022705078125
1782951201667039200,0.359039306640625,-0.983184814453125,-0.1427764892578125,-0.041778564453125
1782951201676966100,0.368966064453125,-0.9746246337890625,-0.146453857421875,-0.042694091796875
1782951201686893300,0.378893310546875,-0.97308349609375,-0.1512908935546875,-0.050567626953125
1782951201696819000,0.38881884765625,-0.9782867431640625,-0.152740478515625,-0.062835693359375
1782951201706746000,0.39874609375,-0.9769287109375,-0.15130615234375,-0.0677947998046875
1782951201716673800,0.408673828125,-0.9729766845703125,-0.1503753662109375,-0.0651397705078125
1782951201726601000,0.41860107421875,-0.976318359375,-0.1535797119140625,-0.060699462890625
1782951201736528000,0.42852783203125,-0.9761810302734375,-0.15203857421875,-0.0560760498046875
1782951201746454000,0.4384541015625,-0.9826202392578125,-0.1519622802734375,-0.0531463623046875
1782951201756381000,0.448380859375,-0.9877166748046875,-0.155303955078125,-0.05523681640625
1782951201766307800,0.458307861328125,-0.98883056640625,-0.1562652587890625,-0.057373046875
1782951201776234800,0.46823486328125,-0.9862213134765625,-0.1566162109375,-0.0561676025390625
1782951201786162000,0.478161865234375,-0.9831390380859375,-0.157958984375,-0.0624542236328125
1782951201796088000,0.488088134765625,-0.9832916259765625,-0.158782958984375,-0.0686798095703125
1782951201806015000,0.498014892578125,-0.9781494140625,-0.1585235595703125,-0.06878662109375
1782951201815942100,0.507942138671875,-0.9734649658203125,-0.1587982177734375,-0.0634613037109375
1782951201825868800,0.517868896484375,-0.985137939453125,-0.1613311767578125,-0.06524658203125
1782951201835796000,0.5277958984375,-0.9925994873046875,-0.1594696044921875,-0.0635833740234375
1782951201845721900,0.537721923828125,-0.985565185546875,-0.15826416015625,-0.06243896484375
1782951201855649000,0.54764892578125,-0.973907470703125,-0.1615753173828125,-0.0584869384765625
1782951201865576000,0.557575927734375,-0.9762725830078125,-0.161773681640625,-0.053070068359375
1782951201875502800,0.5675029296875,-0.983917236328125,-0.157470703125,-0.0606536865234375
1782951201885429800,0.5774296875,-0.9892425537109375,-0.15484619140625,-0.0673370361328125
1782951201895357000,0.58735693359375,-0.9975738525390625,-0.160888671875,-0.06121826171875
1782951201905283000,0.597282958984375,-1.01031494140625,-0.164093017578125,-0.0595550537109375
1782951201915210000,0.6072099609375,-1.015869140625,-0.15997314453125,-0.0625152587890625
1782951201925137200,0.61713720703125,-1.0099334716796875,-0.15399169921875,-0.0683746337890625
1782951201935063800,0.627063720703125,-0.99432373046875,-0.156951904296875,-0.0711669921875
1782951201944990000,0.636989990234375,-0.9776153564453125,-0.1627960205078125,-0.0650177001953125
1782951201954916900,0.646916748046875,-0.966064453125,-0.16400146484375,-0.0591888427734375
1782951201964844000,0.656843994140625,-0.964080810546875,-0.161285400390625,-0.0552978515625
1782951201974771000,0.66677099609375,-0.9653167724609375,-0.1572113037109375,-0.05743408203125
1782951201984698000,0.676697998046875,-0.9714813232421875,-0.152374267578125,-0.0592041015625
1782951201994624000,0.6866240234375,-0.9764404296875,-0.150238037109375,-0.061248779296875
1782951202004551000,0.696551025390625,-0.977508544921875,-0.1512908935546875,-0.061920166015625
1782951202014478000,0.70647802734375,-0.983642578125,-0.153656005859375,-0.063446044921875
1782951202024405000,0.716405029296875,-0.9912872314453125,-0.1542205810546875,-0.067962646484375
1782951202034332200,0.726332275390625,-0.9880218505859375,-0.1527862548828125,-0.068206787109375
1782951202044257800,0.7362578125,-0.98175048828125,-0.153656005859375,-0.0663604736328125
1782951202054185000,0.74618505859375,-0.9751434326171875,-0.15509033203125,-0.0634765625
1782951202064111900,0.75611181640625,-0.970916748046875,-0.1548309326171875,-0.0638580322265625
1782951202074039000,0.7660390625,-0.973052978515625,-0.1550750732421875,-0.0631256103515625
1782951202083966000,0.775966064453125,-0.9775848388671875,-0.155487060546875,-0.0646209716796875
1782951202093891800,0.785891845703125,-0.980621337890625,-0.15679931640625,-0.0632476806640625
1782951202103819000,0.795819091796875,-0.9834442138671875,-0.1572723388671875,-0.0631866455078125
1782951202113746000,0.805745849609375,-0.986541748046875,-0.1580963134765625,-0.06494140625
1782951202123673000,0.815673095703125,-0.9915313720703125,-0.160400390625,-0.0634765625
1782951202133600000,0.82560009765625,-0.9960174560546875,-0.1592864990234375,-0.0655059814453125
1782951202143526000,0.83552587890625,-0.9989013671875,-0.1577911376953125,-0.068634033203125
1782951202153452800,0.845452880859375,-0.9959869384765625,-0.159210205078125,-0.0701446533203125
1782951202163380000,0.8553798828125,-0.9884033203125,-0.1611785888671875,-0.06842041015625
1782951202173307000,0.865306884765625,-0.978363037109375,-0.1613922119140625,-0.0630950927734375
1782951202183234000,0.875234130859375,-0.9720306396484375,-0.1610260009765625,-0.0593719482421875
1782951202193160000,0.885159912109375,-0.9743194580078125,-0.160308837890625,-0.0598907470703125
1782951202203086800,0.8950869140625,-0.9786834716796875,-0.1614227294921875,-0.06036376953125
1782951202213013800,0.905013671875,-0.9845428466796875,-0.1585693359375,-0.060760498046875
1782951202222941000,0.91494091796875,-0.9937744140625,-0.155914306640625,-0.063751220703125
1782951202232867800,0.924867919921875,-0.9968414306640625,-0.1532745361328125,-0.0596466064453125
1782951202242794000,0.9347939453125,-0.994720458984375,-0.151702880859375,-0.059356689453125
1782951202252721000,0.944720947265625,-0.98529052734375,-0.1522216796875,-0.056549072265625
1782951202262647800,0.954647705078125,-0.9757080078125,-0.15093994140625,-0.0572357177734375
1782951202272575000,0.964574951171875,-0.97015380859375,-0.1554107666015625,-0.0617523193359375
1782951202282502000,0.974501953125,-0.9675445556640625,-0.15838623046875,-0.0604248046875
1782951202292428000,0.984427978515625,-0.9696044921875,-0.1591339111328125,-0.063934326171875
1782951202302355000,0.99435498046875,-0.97119140625,-0.159637451171875,-0.06768798828125
1782951202312281900,1.00428173828125,-0.97418212890625,-0.1608123779296875,-0.0681304931640625
1782951202322208800,1.014208740234375,-0.9805450439453125,-0.1627044677734375,-0.0703582763671875
1782951202332136000,1.024135986328125,-0.985321044921875,-0.1628265380859375,-0.0681915283203125
1782951202342062000,1.03406201171875,-0.9846038818359375,-0.16448974609375,-0.067352294921875
1782951202351989000,1.043989013671875,-0.9819793701171875,-0.16778564453125,-0.0662689208984375
1782951202361916000,1.053916015625,-0.99102783203125,-0.171173095703125,-0.067626953125
1782951202371842800,1.0638427734375,-1.005401611328125,-0.16943359375,-0.071563720703125
1782951202381770000,1.07377001953125,-1.01080322265625,-0.165985107421875,-0.078155517578125
1782951202391696000,1.08369580078125,-1.002288818359375,-0.1647796630859375,-0.0758819580078125
1782951202401623000,1.093623046875,-0.994354248046875,-0.1644134521484375,-0.0680694580078125
1782951202411550000,1.103550048828125,-0.9837493896484375,-0.163360595703125,-0.0673980712890625
1782951202421476900,1.113476806640625,-0.9773712158203125,-0.1603240966796875,-0.0666046142578125
1782951202431403800,1.12340380859375,-0.9705047607421875,-0.1606292724609375,-0.0589752197265625
1782951202441330000,1.133329833984375,-0.9653778076171875,-0.1629180908203125,-0.0544281005859375
1782951202451257000,1.143257080078125,-0.975189208984375,-0.160064697265625,-0.0592498779296875
1782951202461184000,1.15318408203125,-0.9857635498046875,-0.154022216796875,-0.066680908203125
1782951202471111200,1.163111083984375,-0.9854278564453125,-0.15386962890625,-0.0694122314453125
1782951202481037800,1.173037841796875,-0.9830322265625,-0.15545654296875,-0.06195068359375
1782951202490964000,1.1829638671875,-0.977447509765625,-0.155731201171875,-0.0605316162109375
1782951202500891000,1.192890869140625,-0.973114013671875,-0.1529541015625,-0.065277099609375
1782951202510818000,1.202818115234375,-0.964874267578125,-0.1596221923828125,-0.0681304931640625
1782951202520745000,1.212744873046875,-0.9638519287109375,-0.16583251953125,-0.0653076171875
1782951202530671900,1.222671875,-0.9690093994140625,-0.167144775390625,-0.0683441162109375
1782951202540598000,1.232597900390625,-0.9775238037109375,-0.1666107177734375,-0.068695068359375
1782951202550525000,1.24252490234375,-0.9826507568359375,-0.1673583984375,-0.0639801025390625
1782951202560452000,1.2524521484375,-0.98974609375,-0.17034912109375,-0.061737060546875
1782951202570379000,1.26237890625,-0.99700927734375,-0.1675262451171875,-0.066619873046875
1782951202580306200,1.27230615234375,-1.0009307861328125,-0.16790771484375,-0.0700531005859375
1782951202590231800,1.282231689453125,-1.003173828125,-0.173583984375,-0.066009521484375
1782951202600159000,1.292158935546875,-1.0042724609375,-0.1736297607421875,-0.0665740966796875
1782951202610086000,1.3020859375,-0.9996795654296875,-0.1685791015625,-0.0742645263671875
1782951202620013000,1.312012939453125,-0.99267578125,-0.164520263671875,-0.073638916015625
1782951202629940000,1.32193994140625,-0.9811248779296875,-0.16265869140625,-0.0665283203125
1782951202639865900,1.331865966796875,-0.9715728759765625,-0.1612548828125,-0.0573272705078125
1782951202649793000,1.34179296875,-0.9685516357421875,-0.15911865234375,-0.0564727783203125
1782951202659720000,1.351719970703125,-0.9756622314453125,-0.1595611572265625,-0.058685302734375
1782951202669647000,1.361647216796875,-0.9752960205078125,-0.1570892333984375,-0.0626983642578125
1782951202679574000,1.371573974609375,-0.971954345703125,-0.159912109375,-0.065185546875
1782951202689500000,1.3815,-0.9730377197265625,-0.1634521484375,-0.065643310546875
1782951202699426800,1.3914267578125,-0.975311279296875,-0.16119384765625,-0.070404052734375
1782951202709353700,1.401353759765625,-0.97540283203125,-0.1605224609375,-0.07391357421875
1782951202719280400,1.4112802734375,-0.975250244140625,-0.1636199951171875,-0.07135009765625
1782951202729207600,1.42120751953125,-0.9776153564453125,-0.1640167236328125,-0.0688934326171875
1782951202739133700,1.4311337890625,-0.978973388671875,-0.1633453369140625,-0.0735626220703125
1782951202749060600,1.441060546875,-0.981597900390625,-0.1662139892578125,-0.073883056640625
1782951202758987800,1.45098779296875,-0.9842681884765625,-0.17047119140625,-0.0732269287109375
1782951202768914400,1.46091455078125,-0.987762451171875,-0.1727447509765625,-0.0740966796875
1782951202778841600,1.470841552734375,-0.988067626953125,-0.170654296875,-0.07421875
1782951202788767500,1.480767578125,-0.9896240234375,-0.16925048828125,-0.071685791015625
1782951202798694700,1.490694580078125,-0.986175537109375,-0.170166015625,-0.0697479248046875
1782951202808621600,1.50062158203125,-0.984649658203125,-0.1726226806640625,-0.06927490234375
1782951202818548700,1.510548828125,-0.9844818115234375,-0.1740875244140625,-0.0718536376953125
1782951202828475400,1.520475341796875,-0.9832763671875,-0.174468994140625,-0.06915283203125
1782951202838401500,1.530401611328125,-0.986724853515625,-0.1696624755859375,-0.0667877197265625
1782951202848328700,1.54032861328125,-0.98712158203125,-0.165313720703125,-0.0669403076171875
1782951202858255600,1.550255615234375,-0.9866485595703125,-0.1593017578125,-0.063446044921875
1782951202868182800,1.560182861328125,-0.9829254150390625,-0.158538818359375,-0.0619049072265625
1782951202878108400,1.5701083984375,-0.977935791015625,-0.1585540771484375,-0.063873291015625
1782951202888035600,1.58003564453125,-0.9722137451171875,-0.1579742431640625,-0.0718994140625
1782951202897962500,1.58996240234375,-0.96484375,-0.16094970703125,-0.0769805908203125
1782951202907889700,1.5998896484375,-0.9589080810546875,-0.16552734375,-0.076446533203125
1782951202917816600,1.609816650390625,-0.958465576171875,-0.166534423828125,-0.073333740234375
1782951202927742500,1.619742431640625,-0.9596099853515625,-0.1669464111328125,-0.07275390625
1782951202937669600,1.629669677734375,-0.973114013671875,-0.1717071533203125,-0.070770263671875
1782951202947596500,1.639596435546875,-0.995849609375,-0.17510986328125,-0.07220458984375
1782951202957523700,1.649523681640625,-1.0128173828125,-0.174530029296875,-0.0734100341796875
1782951202967450600,1.65945068359375,-1.0138702392578125,-0.1722259521484375,-0.0775604248046875
1782951202977376500,1.66937646484375,-1.0038909912109375,-0.1736907958984375,-0.0766448974609375
1782951202987303400,1.679303466796875,-0.98968505859375,-0.17999267578125,-0.070220947265625
1782951202997230600,1.689230712890625,-0.97906494140625,-0.1833343505859375,-0.06689453125
1782951203007157500,1.699157470703125,-0.9842529296875,-0.1812286376953125,-0.0599212646484375
1782951203017084700,1.709084716796875,-0.993011474609375,-0.1741790771484375,-0.060760498046875
1782951203027010600,1.719010498046875,-0.9858551025390625,-0.17022705078125,-0.0614776611328125
1782951203036937500,1.7289375,-0.9775543212890625,-0.1696014404296875,-0.05645751953125
1782951203046864400,1.738864501953125,-0.9686431884765625,-0.1680450439453125,-0.05615234375
1782951203056791600,1.74879150390625,-0.9616241455078125,-0.1677703857421875,-0.059295654296875
1782951203066718500,1.758718505859375,-0.9622039794921875,-0.16583251953125,-0.0609588623046875
1782951203076644600,1.76864453125,-0.9693603515625,-0.164031982421875,-0.0610809326171875
1782951203086571500,1.778571533203125,-0.9768829345703125,-0.1595916748046875,-0.0633697509765625
1782951203096498400,1.78849853515625,-0.9765777587890625,-0.1551055908203125,-0.061431884765625
1782951203106425600,1.798425537109375,-0.971343994140625,-0.159271240234375,-0.0580902099609375
1782951203116352500,1.8083525390625,-0.96875,-0.16510009765625,-0.0565643310546875
1782951203126278700,1.818278564453125,-0.97235107421875,-0.16790771484375,-0.0608673095703125
1782951203136205600,1.82820556640625,-0.9794464111328125,-0.1701507568359375,-0.0663299560546875
1782951203146132500,1.838132568359375,-0.9900360107421875,-0.172637939453125,-0.0711517333984375
1782951203156059400,1.848059326171875,-0.9968414306640625,-0.1767578125,-0.075714111328125
1782951203165986600,1.857986572265625,-0.99688720703125,-0.178680419921875,-0.0809783935546875
1782951203175912700,1.86791259765625,-0.9934539794921875,-0.1806793212890625,-0.081268310546875
1782951203185839600,1.877839599609375,-0.981781005859375,-0.1815032958984375,-0.0791015625
1782951203195766500,1.8877666015625,-0.9716339111328125,-0.1800994873046875,-0.0777740478515625
1782951203205693400,1.897693359375,-0.96063232421875,-0.18206787109375,-0.07769775390625
1782951203215620600,1.90762060546875,-0.953582763671875,-0.183685302734375,-0.0755157470703125
1782951203225546500,1.91754638671875,-0.9482269287109375,-0.179351806640625,-0.0726470947265625
1782951203235473700,1.9274736328125,-0.951507568359375,-0.1786041259765625,-0.0684356689453125
1782951203245400600,1.937400634765625,-0.969512939453125,-0.1796417236328125,-0.0670166015625
1782951203255327500,1.947327392578125,-0.9909210205078125,-0.175018310546875,-0.0677947998046875
1782951203265254400,1.95725439453125,-1.0086822509765625,-0.1700897216796875,-0.0680084228515625
1782951203275180500,1.9671806640625,-1.017242431640625,-0.171600341796875,-0.06781005859375
1782951203285107700,1.977107666015625,-1.01385498046875,-0.170989990234375,-0.067779541015625
1782951203295034600,1.98703466796875,-1.0029144287109375,-0.1700592041015625,-0.06768798828125
1782951203304961800,1.9969619140625,-0.985809326171875,-0.170989990234375,-0.066650390625
1782951203314887400,2.006887451171875,-0.9668731689453125,-0.17340087890625,-0.06121826171875
1782951203324814600,2.016814697265625,-0.955352783203125,-0.17584228515625,-0.0576324462890625
1782951203334741500,2.026741455078125,-0.9534149169921875,-0.1740264892578125,-0.0579681396484375
1782951203344668700,2.036668701171875,-0.9608001708984375,-0.1732177734375,-0.0600433349609375
1782951203354595600,2.046595703125,-0.9693450927734375,-0.17236328125,-0.06646728515625
1782951203364521500,2.056521484375,-0.976531982421875,-0.1737518310546875,-0.0700836181640625
1782951203374448600,2.06644873046875,-0.9853057861328125,-0.1771240234375,-0.0750885009765625
1782951203384375600,2.07637548828125,-0.9888153076171875,-0.1771392822265625,-0.0762786865234375
1782951203394302700,2.086302734375,-0.9904632568359375,-0.1769561767578125,-0.0764312744140625
1782951203404229600,2.096229736328125,-0.9884490966796875,-0.177337646484375,-0.0736236572265625
1782951203414155500,2.106155517578125,-0.987945556640625,-0.1764678955078125,-0.0721588134765625
1782951203424082400,2.11608251953125,-0.987396240234375,-0.178802490234375,-0.07366943359375
1782951203434009600,2.126009521484375,-0.98162841796875,-0.1779022216796875,-0.0743255615234375
1782951203443936500,2.1359365234375,-0.973541259765625,-0.1785430908203125,-0.0722198486328125
1782951203453863700,2.14586376953125,-0.968902587890625,-0.178466796875,-0.0686187744140625
1782951203463789600,2.15578955078125,-0.964935302734375,-0.172332763671875,-0.06781005859375
1782951203473716500,2.165716552734375,-0.970855712890625,-0.1707763671875,-0.067047119140625
1782951203483643600,2.1756435546875,-0.9833221435546875,-0.17059326171875,-0.06951904296875
1782951203493570600,2.185570556640625,-0.9924468994140625,-0.1698455810546875,-0.072357177734375
1782951203503497700,2.195497802734375,-0.9938812255859375,-0.169769287109375,-0.0733489990234375
1782951203513423600,2.205423583984375,-0.988250732421875,-0.1726531982421875,-0.069732666015625
1782951203523350500,2.2153505859375,-0.979888916015625,-0.17364501953125,-0.068450927734375
1782951203533277400,2.22527734375,-0.9725189208984375,-0.1730499267578125,-0.0696258544921875
1782951203543204600,2.23520458984375,-0.9690093994140625,-0.1751556396484375,-0.0705718994140625
1782951203553131500,2.245131591796875,-0.972259521484375,-0.1746063232421875,-0.07037353515625
1782951203563057700,2.2550576171875,-0.9726715087890625,-0.1718597412109375,-0.073211669921875
1782951203572984600,2.264984619140625,-0.9697113037109375,-0.17144775390625,-0.0690765380859375
1782951203582911500,2.274911376953125,-0.96832275390625,-0.17364501953125,-0.0662994384765625
1782951203592838400,2.28483837890625,-0.969482421875,-0.1751556396484375,-0.06951904296875
1782951203602764500,2.2947646484375,-0.976531982421875,-0.1751556396484375,-0.071319580078125
1782951203612691700,2.304691650390625,-0.98468017578125,-0.177520751953125,-0.0737152099609375
1782951203622618600,2.31461865234375,-0.992431640625,-0.174835205078125,-0.0770721435546875
1782951203632545500,2.324545654296875,-0.996124267578125,-0.1761322021484375,-0.078857421875
1782951203642472400,2.334472412109375,-0.9907073974609375,-0.1800537109375,-0.076080322265625
1782951203652398600,2.344398681640625,-0.9812164306640625,-0.1805267333984375,-0.072998046875
1782951203662325500,2.354325439453125,-0.9734649658203125,-0.1784820556640625,-0.0696258544921875
1782951203672252700,2.364252685546875,-0.9714813232421875,-0.17974853515625,-0.06622314453125
1782951203682179300,2.374179443359375,-0.974639892578125,-0.177520751953125,-0.06219482421875
1782951203692106500,2.3841064453125,-0.977294921875,-0.171478271484375,-0.064727783203125
1782951203702032600,2.39403271484375,-0.97784423828125,-0.172698974609375,-0.0687408447265625
1782951203711959800,2.403959716796875,-0.9769287109375,-0.1759185791015625,-0.0716400146484375
1782951203721887000,2.413886962890625,-0.976776123046875,-0.178680419921875,-0.07489013671875
1782951203731814000,2.42381396484375,-0.9754791259765625,-0.178131103515625,-0.0774383544921875
1782951203741740800,2.43374072265625,-0.9712982177734375,-0.1773529052734375,-0.07318115234375
1782951203751666700,2.443666748046875,-0.9743499755859375,-0.176971435546875,-0.067657470703125
1782951203761593900,2.45359375,-0.982269287109375,-0.176788330078125,-0.0652313232421875
1782951203771520800,2.463520751953125,-0.9866180419921875,-0.1748199462890625,-0.06463623046875
1782951203781448000,2.473447998046875,-0.9883575439453125,-0.1738739013671875,-0.0620574951171875
1782951203791374800,2.483374755859375,-0.989013671875,-0.17486572265625,-0.0629119873046875
1782951203801300700,2.49330078125,-0.988433837890625,-0.1727142333984375,-0.06463623046875
1782951203811228000,2.503227783203125,-0.982635498046875,-0.1710968017578125,-0.065582275390625
1782951203821154800,2.51315478515625,-0.976531982421875,-0.1772308349609375,-0.0697021484375
1782951203831082000,2.52308203125,-0.971527099609375,-0.180908203125,-0.068206787109375
1782951203841009000,2.5330087890625,-0.975860595703125,-0.178863525390625,-0.0673065185546875
1782951203850934800,2.542934814453125,-0.9783172607421875,-0.1778411865234375,-0.07098388671875
1782951203860861700,2.55286181640625,-0.976654052734375,-0.17529296875,-0.0688934326171875
1782951203870788900,2.562788818359375,-0.970184326171875,-0.177581787109375,-0.0642242431640625
1782951203880715800,2.5727158203125,-0.96148681640625,-0.176910400390625,-0.061553955078125
1782951203890642000,2.582641845703125,-0.9586639404296875,-0.178070068359375,-0.0596771240234375
1782951203900568800,2.59256884765625,-0.9642791748046875,-0.1792144775390625,-0.060516357421875
1782951203910495700,2.602495849609375,-0.98333740234375,-0.17803955078125,-0.0630950927734375
1782951203920423000,2.6124228515625,-1.0078887939453125,-0.176513671875,-0.0667724609375
1782951203930349800,2.622349853515625,-1.0264434814453125,-0.1744232177734375,-0.0696258544921875
1782951203940276000,2.63227587890625,-1.0281219482421875,-0.1709442138671875,-0.071044921875
1782951203950202600,2.64220263671875,-1.01220703125,-0.172210693359375,-0.070953369140625
1782951203960129800,2.6521298828125,-0.983856201171875,-0.174346923828125,-0.0666046142578125
1782951203970056700,2.662056640625,-0.957061767578125,-0.174957275390625,-0.06658935546875
1782951203979984000,2.67198388671875,-0.94073486328125,-0.17584228515625,-0.0677337646484375
1782951203989909800,2.68190966796875,-0.9520416259765625,-0.1779327392578125,-0.065765380859375
1782951203999837000,2.6918369140625,-0.960845947265625,-0.1754913330078125,-0.0715484619140625
1782951204009763800,2.701763916015625,-0.9673919677734375,-0.173492431640625,-0.0757904052734375
1782951204019690800,2.711690673828125,-0.9748077392578125,-0.1767120361328125,-0.072967529296875
1782951204029617700,2.72161767578125,-0.9778289794921875,-0.1768035888671875,-0.0763092041015625
1782951204039543800,2.731543701171875,-0.981475830078125,-0.1749114990234375,-0.0756378173828125
1782951204049471000,2.741470947265625,-0.979827880859375,-0.17401123046875,-0.07611083984375
1782951204059397600,2.751397705078125,-0.98089599609375,-0.17791748046875,-0.072235107421875
1782951204069324800,2.76132470703125,-0.9863739013671875,-0.1782684326171875,-0.0683135986328125
1782951204079251700,2.771251708984375,-0.9903564453125,-0.1756439208984375,-0.0679473876953125
1782951204089177900,2.781177734375,-0.991851806640625,-0.1729736328125,-0.0702056884765625
1782951204099104800,2.791104736328125,-0.9825897216796875,-0.17486572265625,-0.0726318359375
1782951204109032000,2.801031982421875,-0.9726715087890625,-0.1784210205078125,-0.0716552734375
1782951204118958600,2.81095849609375,-0.96441650390625,-0.1792755126953125,-0.0699310302734375
1782951204128885800,2.8208857421875,-0.962677001953125,-0.1783599853515625,-0.0720062255859375
1782951204138812000,2.83081201171875,-0.9700775146484375,-0.1744842529296875,-0.071014404296875
1782951204148738800,2.84073876953125,-0.98272705078125,-0.1716461181640625,-0.0685577392578125
1782951204158666000,2.850666015625,-0.9948272705078125,-0.1673736572265625,-0.069854736328125
1782951204168593000,2.860593017578125,-1.003631591796875,-0.1654510498046875,-0.068359375
1782951204178518800,2.870518798828125,-1.0014801025390625,-0.1683197021484375,-0.0662689208984375
1782951204188445700,2.88044580078125,-0.99200439453125,-0.1703948974609375,-0.0652618408203125
1782951204198372900,2.890372802734375,-0.977081298828125,-0.1734619140625,-0.0644683837890625
1782951204208299800,2.9002998046875,-0.9631805419921875,-0.176605224609375,-0.0650482177734375
1782951204218227000,2.91022705078125,-0.962554931640625,-0.1795806884765625,-0.0656890869140625
1782951204228152800,2.92015283203125,-0.9646453857421875,-0.1773834228515625,-0.0677490234375
1782951204238079700,2.930079833984375,-0.971588134765625,-0.174102783203125,-0.0692291259765625
1782951204248007000,2.9400068359375,-0.9738006591796875,-0.1730499267578125,-0.069183349609375
1782951204257933800,2.949933837890625,-0.9801025390625,-0.1754150390625,-0.0670318603515625
1782951204267861000,2.959861083984375,-0.985382080078125,-0.1768798828125,-0.0683135986328125
1782951204277786600,2.96978662109375,-0.9873504638671875,-0.176849365234375,-0.06884765625
1782951204287713800,2.9797138671875,-0.9873046875,-0.1805572509765625,-0.0713653564453125
1782951204297640700,2.989640625,-0.9911041259765625,-0.180755615234375,-0.0709991455078125
1782951204307567900,2.99956787109375,-0.9918212890625,-0.1792755126953125,-0.072906494140625
1782951204317494800,3.009494873046875,-0.9862823486328125,-0.177337646484375,-0.069549560546875
1782951204327420700,3.019420654296875,-0.976959228515625,-0.1761932373046875,-0.0618743896484375
1782951204337347800,3.029347900390625,-0.972808837890625,-0.17584228515625,-0.0564727783203125
1782951204347274800,3.039274658203125,-0.976531982421875,-0.17138671875,-0.0572967529296875
1782951204357202000,3.049201904296875,-0.9759674072265625,-0.1681976318359375,-0.0642852783203125
1782951204367128800,3.05912890625,-0.97454833984375,-0.172027587890625,-0.069976806640625
1782951204377055000,3.069054931640625,-0.9741668701171875,-0.1753387451171875,-0.0717315673828125
1782951204386981600,3.078981689453125,-0.9770050048828125,-0.174957275390625,-0.0753631591796875
1782951204396908800,3.08890869140625,-0.9785919189453125,-0.17138671875,-0.0828857421875
1782951204406835700,3.098835693359375,-0.976043701171875,-0.1703338623046875,-0.080322265625
1782951204416761900,3.108761962890625,-0.9729766845703125,-0.17327880859375,-0.071319580078125
1782951204426689000,3.11868896484375,-0.9720611572265625,-0.175079345703125,-0.0626373291015625
1782951204436615700,3.12861572265625,-0.9802093505859375,-0.1718902587890625,-0.0623016357421875
1782951204446542800,3.13854296875,-0.990814208984375,-0.1733551025390625,-0.066497802734375
1782951204456469800,3.1484697265625,-0.99371337890625,-0.17437744140625,-0.070098876953125
1782951204466396000,3.15839599609375,-0.9883575439453125,-0.178009033203125,-0.0751495361328125
1782951204476322800,3.16832275390625,-0.9821014404296875,-0.1821136474609375,-0.07763671875
1782951204486250000,3.17825,-0.9744110107421875,-0.182220458984375,-0.07684326171875
1782951204496176600,3.1881767578125,-0.96954345703125,-0.18218994140625,-0.0744171142578125
1782951204506103800,3.198103759765625,-0.9676513671875,-0.1801910400390625,-0.0731048583984375
1782951204516030000,3.208030029296875,-0.96826171875,-0.17706298828125,-0.06951904296875
1782951204525956900,3.217956787109375,-0.97100830078125,-0.177947998046875,-0.0685577392578125
1782951204535883800,3.2278837890625,-0.9736480712890625,-0.17730712890625,-0.0642852783203125
1782951204545810700,3.237810791015625,-0.980438232421875,-0.178253173828125,-0.063507080078125
1782951204555737900,3.24773779296875,-0.982452392578125,-0.1771240234375,-0.06463623046875
1782951204565663700,3.257663818359375,-0.981689453125,-0.1751556396484375,-0.0636444091796875
1782951204575591000,3.2675908203125,-0.9875030517578125,-0.178741455078125,-0.0620880126953125
1782951204585517800,3.277517822265625,-0.9939117431640625,-0.1801910400390625,-0.060882568359375
1782951204595445000,3.287445068359375,-1.00152587890625,-0.17852783203125,-0.0638885498046875
1782951204605371600,3.29737158203125,-1.0096282958984375,-0.17425537109375,-0.06622314453125
1782951204615297800,3.3072978515625,-1.014984130859375,-0.170318603515625,-0.072235107421875
1782951204625224700,3.317224609375,-1.0021820068359375,-0.1725006103515625,-0.0742034912109375
1782951204635152000,3.32715185546875,-0.98004150390625,-0.177825927734375,-0.0697174072265625
1782951204645078800,3.337078857421875,-0.958770751953125,-0.1814727783203125,-0.0626678466796875
1782951204655006000,3.347005859375,-0.944000244140625,-0.1818695068359375,-0.0604705810546875
1782951204664931800,3.356931884765625,-0.9413299560546875,-0.1803436279296875,-0.0655670166015625
1782951204674858800,3.366858642578125,-0.9528656005859375,-0.177093505859375,-0.0676727294921875
1782951204684786000,3.376785888671875,-0.97314453125,-0.1720733642578125,-0.068267822265625
1782951204694712800,3.386712890625,-0.985748291015625,-0.168731689453125,-0.0733489990234375
1782951204704638700,3.396638671875,-0.99017333984375,-0.169647216796875,-0.0735015869140625
1782951204714565400,3.4065654296875,-0.986968994140625,-0.17083740234375,-0.0701446533203125
1782951204724492300,3.4164921875,-0.978240966796875,-0.1739044189453125,-0.070831298828125
1782951204734419500,3.42641943359375,-0.9720611572265625,-0.1784820556640625,-0.0730743408203125
1782951204744346400,3.436346435546875,-0.9766387939453125,-0.1825103759765625,-0.074798583984375
1782951204754272300,3.446272216796875,-0.98468017578125,-0.1788177490234375,-0.0761871337890625
1782951204764199200,3.45619921875,-0.9936676025390625,-0.1765289306640625,-0.07489013671875
1782951204774126300,3.466126220703125,-0.99725341796875,-0.1748046875,-0.0726318359375
1782951204784053200,3.47605322265625,-0.989837646484375,-0.1756591796875,-0.06903076171875
1782951204793980400,3.48598046875,-0.976287841796875,-0.1787109375,-0.0637969970703125
1782951204803906300,3.49590625,-0.967803955078125,-0.181671142578125,-0.063201904296875
1782951204813833200,3.505833251953125,-0.9669036865234375,-0.177276611328125,-0.0649566650390625
1782951204823760400,3.515760498046875,-0.972503662109375,-0.175750732421875,-0.0680389404296875
1782951204833687300,3.525687255859375,-0.9838409423828125,-0.175201416015625,-0.07330322265625
1782951204843614500,3.535614501953125,-0.9928741455078125,-0.173004150390625,-0.0749359130859375
1782951204853540400,3.545540283203125,-0.99102783203125,-0.1725006103515625,-0.075225830078125
1782951204863467300,3.55546728515625,-0.9851837158203125,-0.1763916015625,-0.0684051513671875
1782951204873394200,3.565394287109375,-0.9763031005859375,-0.1775054931640625,-0.0655059814453125
1782951204883321300,3.5753212890625,-0.9671630859375,-0.17327880859375,-0.065521240234375
1782951204893248300,3.585248291015625,-0.9616851806640625,-0.175323486328125,-0.06378173828125
1782951204903174400,3.59517431640625,-0.9667816162109375,-0.17822265625,-0.063079833984375
1782951204913101300,3.605101318359375,-0.9808807373046875,-0.174041748046875,-0.0683441162109375
1782951204923028200,3.6150283203125,-0.986907958984375,-0.1701202392578125,-0.07659912109375
1782951204932955400,3.624955322265625,-0.9831695556640625,-0.173004150390625,-0.0745086669921875
1782951204942881300,3.63488134765625,-0.9748382568359375,-0.181427001953125,-0.068695068359375
1782951204952808400,3.644808349609375,-0.9771575927734375,-0.1835479736328125,-0.0692291259765625
1782951204962735400,3.6547353515625,-0.982147216796875,-0.180267333984375,-0.075103759765625
1782951204972662300,3.664662353515625,-0.9830474853515625,-0.1790771484375,-0.074493408203125
1782951204982589200,3.674589111328125,-0.9834442138671875,-0.1831512451171875,-0.0714569091796875
1782951204992515300,3.684515380859375,-0.9865875244140625,-0.181793212890625,-0.0718536376953125
1782951205002442200,3.694442138671875,-0.98358154296875,-0.179962158203125,-0.0760650634765625
1782951205012369400,3.704369384765625,-0.9791107177734375,-0.1817169189453125,-0.0743255615234375
1782951205022296300,3.71429638671875,-0.977203369140625,-0.1830596923828125,-0.0675506591796875
1782951205032223200,3.72422314453125,-0.9739837646484375,-0.18115234375,-0.0656890869140625
1782951205042149400,3.7341494140625,-0.9712982177734375,-0.1764984130859375,-0.0655364990234375
1782951205052076300,3.744076171875,-0.9713134765625,-0.1764068603515625,-0.064849853515625
1782951205062003500,3.75400341796875,-0.974609375,-0.176849365234375,-0.0671539306640625
1782951205071930400,3.763930419921875,-0.9762115478515625,-0.1735992431640625,-0.0748748779296875
1782951205081857300,3.773857177734375,-0.980010986328125,-0.175567626953125,-0.0817718505859375
1782951205091783200,3.783783203125,-0.9768524169921875,-0.1739959716796875,-0.08355712890625
1782951205101710300,3.79371044921875,-0.970947265625,-0.1736907958984375,-0.079376220703125
1782951205111637200,3.80363720703125,-0.966522216796875,-0.1762542724609375,-0.068023681640625
1782951205121564400,3.813564453125,-0.9701995849609375,-0.175689697265625,-0.05877685546875
1782951205131491300,3.8234912109375,-0.97674560546875,-0.172515869140625,-0.0596923828125
1782951205141417200,3.833417236328125,-0.9847259521484375,-0.1724395751953125,-0.0623016357421875
1782951205151344400,3.843344482421875,-0.99249267578125,-0.176025390625,-0.0652923583984375
1782951205161271300,3.853271240234375,-1.0001068115234375,-0.17724609375,-0.0708770751953125
1782951205171198500,3.863198486328125,-0.9990386962890625,-0.1787567138671875,-0.0756683349609375
1782951205181125400,3.87312548828125,-0.9894256591796875,-0.1824493408203125,-0.07415771484375
1782951205191051300,3.88305126953125,-0.97552490234375,-0.185546875,-0.0706634521484375
1782951205200978200,3.892978271484375,-0.961181640625,-0.1872406005859375,-0.064605712890625
1782951205210905300,3.9029052734375,-0.9552459716796875,-0.1883544921875,-0.0594635009765625
1782951205220832300,3.912832275390625,-0.9588470458984375,-0.1851806640625,-0.0607147216796875
1782951205230758400,3.92275830078125,-0.9683380126953125,-0.18060302734375,-0.063568115234375
1782951205240685300,3.932685302734375,-0.97662353515625,-0.1795501708984375,-0.0639801025390625
1782951205250612200,3.9426123046875,-0.9842987060546875,-0.177886962890625,-0.0657806396484375
1782951205260539400,3.952539306640625,-0.9899749755859375,-0.17755126953125,-0.068023681640625
1782951205270466300,3.96246630859375,-0.99462890625,-0.1766204833984375,-0.0653228759765625
1782951205280392400,3.972392333984375,-0.9993133544921875,-0.177459716796875,-0.06219482421875
1782951205290319000,3.982319091796875,-1.004241943359375,-0.175994873046875,-0.065032958984375
1782951205300246300,3.992246337890625,-1.003570556640625,-0.1723175048828125,-0.0725555419921875
1782951205310170400,4.00217041015625,-0.99407958984375,-0.171722412109375,-0.0772247314453125
1782951205320097300,4.01209716796875,-0.9776763916015625,-0.1785430908203125,-0.0761871337890625
1782951205330024200,4.022024169921875,-0.96185302734375,-0.1828765869140625,-0.0736846923828125
1782951205339951400,4.031951416015625,-0.9493255615234375,-0.18359375,-0.070770263671875
1782951205349878300,4.041878173828125,-0.951568603515625,-0.180999755859375,-0.0694732666015625
1782951205359804400,4.051804443359375,-0.9638519287109375,-0.1754302978515625,-0.0681915283203125
1782951205369731300,4.0617314453125,-0.9738006591796875,-0.174591064453125,-0.0695037841796875
1782951205379658200,4.071658203125,-0.98272705078125,-0.1764373779296875,-0.072662353515625
1782951205389585200,4.081585205078125,-0.987945556640625,-0.1748504638671875,-0.0754241943359375
1782951205399511300,4.09151123046875,-0.9873504638671875,-0.17730712890625,-0.074859619140625
1782951205409438500,4.1014384765625,-0.98321533203125,-0.176788330078125,-0.073760986328125
1782951205419365400,4.111365478515625,-0.9790802001953125,-0.1756744384765625,-0.07275390625
1782951205429292300,4.121292236328125,-0.9756317138671875,-0.177459716796875,-0.0726318359375
1782951205439219200,4.13121923828125,-0.977508544921875,-0.1783447265625,-0.07086181640625
1782951205449145300,4.141145263671875,-0.983428955078125,-0.178558349609375,-0.07196044921875
1782951205459072300,4.151072265625,-0.9869842529296875,-0.1776885986328125,-0.071197509765625
1782951205468999400,4.16099951171875,-0.9893798828125,-0.1789093017578125,-0.071533203125
1782951205478926300,4.17092626953125,-0.9886474609375,-0.1769561767578125,-0.071533203125
1782951205488853200,4.180853271484375,-0.9840850830078125,-0.175811767578125,-0.0714569091796875
1782951205498779400,4.190779296875,-0.9810638427734375,-0.175750732421875,-0.0695648193359375
1782951205508706300,4.200706298828125,-0.978118896484375,-0.1765289306640625,-0.0714263916015625
1782951205518633500,4.210633544921875,-0.9716339111328125,-0.17559814453125,-0.0750732421875
1782951205528560400,4.220560302734375,-0.9687957763671875,-0.178924560546875,-0.07525634765625
1782951205538487600,4.230487548828125,-0.968994140625,-0.1800384521484375,-0.07098388671875
1782951205548413200,4.2404130859375,-0.970245361328125,-0.1792755126953125,-0.075958251953125
1782951205558340400,4.25034033203125,-0.9691314697265625,-0.177490234375,-0.075531005859375
1782951205568267300,4.260267333984375,-0.972869873046875,-0.175567626953125,-0.070709228515625
1782951205578194400,4.2701943359375,-0.9752349853515625,-0.1766357421875,-0.0728912353515625
1782951205588121300,4.280121337890625,-0.978851318359375,-0.1783294677734375,-0.0757904052734375
1782951205598047200,4.290047119140625,-0.9827117919921875,-0.179046630859375,-0.0745849609375
1782951205607974400,4.299974365234375,-0.986328125,-0.1766510009765625,-0.075927734375
1782951205617901300,4.3099013671875,-0.9867095947265625,-0.1766510009765625,-0.0696563720703125
1782951205627828500,4.319828369140625,-0.9831085205078125,-0.1780242919921875,-0.065460205078125
1782951205637755400,4.32975537109375,-0.9766693115234375,-0.1777801513671875,-0.0639801025390625
1782951205647681300,4.339681396484375,-0.97442626953125,-0.1783599853515625,-0.0640869140625
1782951205657608200,4.349608154296875,-0.9735107421875,-0.1778411865234375,-0.066375732421875
1782951205667535400,4.359535400390625,-0.97467041015625,-0.18060302734375,-0.066253662109375
1782951205677462300,4.369462158203125,-0.977508544921875,-0.1811676025390625,-0.0657196044921875
1782951205687388400,4.379388427734375,-0.98089599609375,-0.1789703369140625,-0.06817626953125
1782951205697315300,4.3893154296875,-0.983184814453125,-0.1798858642578125,-0.072662353515625
1782951205707242200,4.3992421875,-0.9826812744140625,-0.18194580078125,-0.0707244873046875
1782951205717169400,4.40916943359375,-0.9815216064453125,-0.1857452392578125,-0.0704803466796875
1782951205727097000,4.41909716796875,-0.980255126953125,-0.182861328125,-0.0732421875
1782951205737023200,4.429023193359375,-0.97882080078125,-0.1812896728515625,-0.07275390625
1782951205746950100,4.4389501953125,-0.9734039306640625,-0.18145751953125,-0.0672149658203125
1782951205756877000,4.448876953125,-0.9660797119140625,-0.184600830078125,-0.066314697265625
1782951205766804200,4.45880419921875,-0.9645538330078125,-0.1827545166015625,-0.0671234130859375
1782951205776731100,4.468731201171875,-0.9697418212890625,-0.1830291748046875,-0.0696258544921875
1782951205786657000,4.478656982421875,-0.977783203125,-0.1820831298828125,-0.0759124755859375
1782951205796584200,4.488584228515625,-0.9869537353515625,-0.1802520751953125,-0.080963134765625
1782951205806511000,4.498510986328125,-0.98870849609375,-0.1798553466796875,-0.0825958251953125
1782951205816438300,4.508438232421875,-0.9886016845703125,-0.1795654296875,-0.08135986328125
1782951205826365200,4.518365234375,-0.9898681640625,-0.17962646484375,-0.076080322265625
1782951205836291000,4.528291015625,-0.9910125732421875,-0.1750640869140625,-0.0673675537109375
1782951205846218000,4.538218017578125,-0.9833831787109375,-0.17041015625,-0.05902099609375
1782951205856145200,4.548145263671875,-0.97412109375,-0.1724395751953125,-0.056060791015625
1782951205866072000,4.558072021484375,-0.9682464599609375,-0.176605224609375,-0.055908203125
1782951205875999200,4.567999267578125,-0.9683685302734375,-0.180908203125,-0.061981201171875
1782951205885925000,4.577925048828125,-0.974761962890625,-0.183258056640625,-0.0695343017578125
1782951205895852000,4.58785205078125,-0.9781494140625,-0.180328369140625,-0.0738677978515625
1782951205905779200,4.597779296875,-0.9799041748046875,-0.1809539794921875,-0.073944091796875
1782951205915706000,4.6077060546875,-0.9773406982421875,-0.1803741455078125,-0.069610595703125
1782951205925633300,4.61763330078125,-0.9755859375,-0.180023193359375,-0.0679779052734375
1782951205935559000,4.627558837890625,-0.97259521484375,-0.180755615234375,-0.0665435791015625
1782951205945486000,4.637486083984375,-0.97064208984375,-0.18096923828125,-0.06878662109375
1782951205955413000,4.6474130859375,-0.970611572265625,-0.182647705078125,-0.065704345703125
1782951205965340200,4.657340087890625,-0.974517822265625,-0.1795654296875,-0.0658416748046875
1782951205975266300,4.667266357421875,-0.9836883544921875,-0.1781768798828125,-0.0658111572265625
1782951205985193200,4.677193115234375,-0.992950439453125,-0.178466796875,-0.0665130615234375
1782951205995120000,4.6871201171875,-0.99932861328125,-0.1807098388671875,-0.0682373046875
1782951206005047000,4.697047119140625,-0.9991607666015625,-0.1830902099609375,-0.071014404296875
1782951206014974200,4.70697412109375,-0.994415283203125,-0.182464599609375,-0.072509765625
1782951206024900000,4.716900146484375,-0.9911956787109375,-0.1809844970703125,-0.078369140625
1782951206034827300,4.7268271484375,-0.9836578369140625,-0.1786651611328125,-0.083587646484375
1782951206044754200,4.736754150390625,-0.977783203125,-0.1787567138671875,-0.0819244384765625
1782951206054681000,4.74668115234375,-0.969451904296875,-0.177398681640625,-0.0784149169921875
1782951206064608000,4.75660791015625,-0.962921142578125,-0.1787872314453125,-0.0760955810546875
1782951206074534100,4.7665341796875,-0.9644927978515625,-0.180389404296875,-0.0767059326171875
1782951206084461300,4.77646142578125,-0.96417236328125,-0.176849365234375,-0.0763702392578125
1782951206094388200,4.78638818359375,-0.96612548828125,-0.175689697265625,-0.075225830078125
1782951206104315100,4.796315185546875,-0.970489501953125,-0.1791229248046875,-0.0753326416015625
1782951206114242000,4.806241943359375,-0.9753265380859375,-0.1754913330078125,-0.0759124755859375
1782951206124168200,4.816168212890625,-0.97930908203125,-0.1732635498046875,-0.0721435546875
1782951206134095000,4.82609521484375,-0.9861297607421875,-0.17230224609375,-0.069305419921875
1782951206144022300,4.836022216796875,-0.9913787841796875,-0.1714019775390625,-0.071868896484375
1782951206153949200,4.84594921875,-0.989593505859375,-0.170440673828125,-0.074432373046875
1782951206163876000,4.8558759765625,-0.98443603515625,-0.173858642578125,-0.0748138427734375
1782951206173802200,4.86580224609375,-0.975921630859375,-0.1769256591796875,-0.072845458984375
1782951206183729200,4.875729248046875,-0.9665069580078125,-0.1774444580078125,-0.0729522705078125
1782951206193656300,4.88565625,-0.9601287841796875,-0.1780853271484375,-0.0700836181640625
1782951206203583200,4.895583251953125,-0.9659423828125,-0.1753387451171875,-0.064178466796875
1782951206213510100,4.90551025390625,-0.9771728515625,-0.1735382080078125,-0.0648193359375
1782951206223436000,4.91543603515625,-0.988983154296875,-0.1754302978515625,-0.0682220458984375
1782951206233363200,4.92536328125,-0.9943084716796875,-0.1798248291015625,-0.072845458984375
1782951206243290000,4.9352900390625,-0.9906158447265625,-0.18438720703125,-0.079620361328125
1782951206253217300,4.94521728515625,-0.9836578369140625,-0.1876068115234375,-0.0820465087890625
1782951206263144200,4.955144287109375,-0.9772186279296875,-0.1868743896484375,-0.0819244384765625
1782951206273070000,4.965070068359375,-0.9727020263671875,-0.184600830078125,-0.0780029296875
1782951206282997200,4.974997314453125,-0.9757843017578125,-0.183197021484375,-0.0725555419921875
1782951206292924200,4.984924072265625,-0.983734130859375,-0.1798858642578125,-0.0715179443359375
1782951206302851300,4.994851318359375,-0.9897003173828125,-0.1755828857421875,-0.0748443603515625
1782951206312777000,5.00477685546875,-0.990264892578125,-0.17169189453125,-0.07647705078125
1782951206322704100,5.0147041015625,-0.9835662841796875,-0.1722869873046875,-0.072113037109375
1782951206332631000,5.024631103515625,-0.9734344482421875,-0.175323486328125,-0.0692596435546875
1782951206342558200,5.03455810546875,-0.9700469970703125,-0.1794891357421875,-0.0692901611328125
1782951206352485000,5.044485107421875,-0.9721527099609375,-0.1780242919921875,-0.0711517333984375
1782951206362411300,5.054411376953125,-0.9748382568359375,-0.1753692626953125,-0.0706634521484375
1782951206372338200,5.064338134765625,-0.97808837890625,-0.1750030517578125,-0.0675201416015625
1782951206382265000,5.07426513671875,-0.977935791015625,-0.1763916015625,-0.066802978515625
1782951206392192000,5.08419189453125,-0.9765472412109375,-0.176788330078125,-0.0664215087890625
1782951206402119200,5.094119140625,-0.973907470703125,-0.1792144775390625,-0.06854248046875
1782951206412045300,5.10404541015625,-0.9728546142578125,-0.1782989501953125,-0.0697784423828125
1782951206421972000,5.113971923828125,-0.9761810302734375,-0.1792449951171875,-0.071624755859375
1782951206431899100,5.123899169921875,-0.9883880615234375,-0.1819610595703125,-0.0719757080078125
1782951206441826000,5.133825927734375,-0.9980926513671875,-0.1822967529296875,-0.0749969482421875
1782951206451752200,5.143752197265625,-0.99200439453125,-0.184173583984375,-0.074371337890625
1782951206461679000,5.15367919921875,-0.9820556640625,-0.190093994140625,-0.067596435546875
1782951206471606300,5.163606201171875,-0.9777984619140625,-0.1878662109375,-0.0655975341796875
1782951206481533000,5.173532958984375,-0.9761810302734375,-0.1856536865234375,-0.0696563720703125
1782951206491460000,5.183460205078125,-0.9769134521484375,-0.1805572509765625,-0.0706787109375
1782951206501386200,5.19338623046875,-0.9773406982421875,-0.178375244140625,-0.072113037109375
1782951206511313200,5.203313232421875,-0.975341796875,-0.176666259765625,-0.070953369140625
1782951206521240300,5.213240234375,-0.97467041015625,-0.1757965087890625,-0.0670013427734375
1782951206531167200,5.223167236328125,-0.9657440185546875,-0.17401123046875,-0.0658111572265625
1782951206541094100,5.23309423828125,-0.9622344970703125,-0.17315673828125,-0.06353759765625
1782951206551020000,5.24302001953125,-0.963653564453125,-0.173797607421875,-0.0672454833984375
1782951206560947200,5.252947265625,-0.97137451171875,-0.1748809814453125,-0.076263427734375
1782951206570874000,5.2628740234375,-0.9792022705078125,-0.1735076904296875,-0.0814361572265625
1782951206580801300,5.27280126953125,-0.981536865234375,-0.170867919921875,-0.0814208984375
1782951206590728000,5.28272802734375,-0.9819488525390625,-0.168304443359375,-0.0760650634765625
1782951206600654000,5.292654052734375,-0.9797821044921875,-0.1662139892578125,-0.0679473876953125
1782951206610581200,5.302581298828125,-0.97442626953125,-0.1693267822265625,-0.0617218017578125
1782951206620508200,5.312508056640625,-0.9762725830078125,-0.1736602783203125,-0.0609130859375
1782951206630435300,5.322435302734375,-0.9797515869140625,-0.1750030517578125,-0.06414794921875
1782951206640361000,5.33236083984375,-0.98504638671875,-0.1776885986328125,-0.0676727294921875
1782951206650288000,5.3422880859375,-0.989044189453125,-0.1814727783203125,-0.0702056884765625
1782951206660215000,5.352215087890625,-0.9901885986328125,-0.1852264404296875,-0.0696868896484375
1782951206670142200,5.36214208984375,-0.9916839599609375,-0.1842498779296875,-0.0715789794921875
1782951206680069000,5.372069091796875,-0.99029541015625,-0.1813812255859375,-0.07257080078125
1782951206689995000,5.3819951171875,-0.9799041748046875,-0.1812896728515625,-0.069183349609375
1782951206699922200,5.391922119140625,-0.9662933349609375,-0.1814727783203125,-0.0678558349609375
1782951206709849000,5.40184912109375,-0.9552459716796875,-0.1820220947265625,-0.0670928955078125
1782951206719776300,5.4117763671875,-0.9547576904296875,-0.1844024658203125,-0.0681610107421875
1782951206729703000,5.421702880859375,-0.963958740234375,-0.18157958984375,-0.06658935546875
1782951206739629000,5.431629150390625,-0.9775238037109375,-0.1788787841796875,-0.0710906982421875
1782951206749556000,5.441555908203125,-0.9901123046875,-0.176849365234375,-0.0733489990234375
1782951206759483100,5.451483154296875,-0.99853515625,-0.1748199462890625,-0.0730438232421875
1782951206769410000,5.46141015625,-1.00030517578125,-0.177764892578125,-0.072418212890625
1782951206779336000,5.4713359375,-0.9996337890625,-0.1780242919921875,-0.0699615478515625
1782951206789263000,5.48126318359375,-0.993133544921875,-0.178466796875,-0.070281982421875
1782951206799190000,5.49118994140625,-0.9853973388671875,-0.179168701171875,-0.0718841552734375
1782951206809117200,5.5011171875,-0.97869873046875,-0.1759033203125,-0.074676513671875
1782951206819044000,5.511044189453125,-0.96942138671875,-0.1731109619140625,-0.07501220703125
1782951206828970000,5.520969970703125,-0.9613800048828125,-0.174835205078125,-0.0684051513671875
1782951206838897000,5.53089697265625,-0.9561004638671875,-0.1767425537109375,-0.061981201171875
1782951206848824000,5.540823974609375,-0.954132080078125,-0.1799163818359375,-0.06231689453125
1782951206858751000,5.5507509765625,-0.9602508544921875,-0.1816558837890625,-0.0659942626953125
1782951206868678100,5.56067822265625,-0.977508544921875,-0.179229736328125,-0.070098876953125
1782951206878604300,5.570604248046875,-0.9923553466796875,-0.175445556640625,-0.076904296875
1782951206888531000,5.580531005859375,-1.0008087158203125,-0.1765899658203125,-0.0794677734375
1782951206898458000,5.5904580078125,-1.0012969970703125,-0.178802490234375,-0.0773773193359375
1782951206908385000,5.600385009765625,-0.9951629638671875,-0.178680419921875,-0.0767974853515625
1782951206918311200,5.610311279296875,-0.98150634765625,-0.1776580810546875,-0.07623291015625
1782951206928238000,5.620238037109375,-0.968017578125,-0.180999755859375,-0.0723876953125
1782951206938165000,5.6301650390625,-0.9661407470703125,-0.1845550537109375,-0.071624755859375
1782951206948092000,5.640091796875,-0.9680328369140625,-0.1805572509765625,-0.0743560791015625
1782951206958019000,5.65001904296875,-0.972503662109375,-0.1770782470703125,-0.0770416259765625
1782951206967945200,5.6599453125,-0.9795684814453125,-0.179840087890625,-0.07257080078125
1782951206977872100,5.6698720703125,-0.988677978515625,-0.1817779541015625,-0.07049560546875
1782951206987799000,5.679799072265625,-0.9939117431640625,-0.178802490234375,-0.076324462890625
1782951206997726000,5.689725830078125,-0.995147705078125,-0.180084228515625,-0.0779266357421875
1782951207007653000,5.699653076171875,-0.9906158447265625,-0.1793060302734375,-0.0754547119140625
1782951207017579000,5.7095791015625,-0.97662353515625,-0.1790771484375,-0.0703277587890625
1782951207027506200,5.719506103515625,-0.9669647216796875,-0.1763916015625,-0.06719970703125
1782951207037433000,5.72943310546875,-0.9634552001953125,-0.17462158203125,-0.0614013671875
1782951207047360300,5.7393603515625,-0.968292236328125,-0.173370361328125,-0.0608978271484375
1782951207057286100,5.7492861328125,-0.9782867431640625,-0.1715545654296875,-0.0621185302734375
1782951207067213000,5.759213134765625,-0.988677978515625,-0.1708984375,-0.063934326171875
1782951207077140000,5.769139892578125,-0.99127197265625,-0.1711883544921875,-0.067413330078125
1782951207087067100,5.779067138671875,-0.9901580810546875,-0.1721038818359375,-0.06866455078125
1782951207096994000,5.788994140625,-0.9808807373046875,-0.1716461181640625,-0.0704345703125
1782951207106920000,5.798919921875,-0.970367431640625,-0.17535400390625,-0.070343017578125
1782951207116847000,5.80884716796875,-0.9645538330078125,-0.176849365234375,-0.0669097900390625
1782951207126774000,5.81877392578125,-0.9687042236328125,-0.17669677734375,-0.0684661865234375
1782951207136701200,5.828701171875,-0.9763641357421875,-0.17755126953125,-0.0738677978515625
1782951207146627000,5.838626953125,-0.9824371337890625,-0.18017578125,-0.076202392578125
1782951207156554000,5.848553955078125,-0.978759765625,-0.1790771484375,-0.074737548828125
1782951207166481000,5.85848095703125,-0.973724365234375,-0.179290771484375,-0.0709991455078125
1782951207176408000,5.868407958984375,-0.9734649658203125,-0.1826934814453125,-0.069793701171875
1782951207186335000,5.8783349609375,-0.9821624755859375,-0.18359375,-0.069305419921875
1782951207196261000,5.88826123046875,-0.9904937744140625,-0.179931640625,-0.07073974609375
1782951207206188000,5.89818798828125,-0.992767333984375,-0.176727294921875,-0.07073974609375
1782951207216115000,5.908114990234375,-0.989898681640625,-0.1777801513671875,-0.0685272216796875
1782951207226042000,5.9180419921875,-0.98388671875,-0.1780853271484375,-0.0657958984375
1782951207235969000,5.927968994140625,-0.978057861328125,-0.178497314453125,-0.0677642822265625
1782951207245895200,5.937895263671875,-0.971771240234375,-0.1778564453125,-0.0652618408203125
1782951207255822000,5.947822021484375,-0.97222900390625,-0.177978515625,-0.0616455078125
1782951207265749000,5.9577490234375,-0.97735595703125,-0.178619384765625,-0.0638427734375
1782951207275676000,5.967676025390625,-0.9830780029296875,-0.17242431640625,-0.0660247802734375
1782951207285602000,5.97760205078125,-0.9896697998046875,-0.1695556640625,-0.06915283203125
1782951207295529200,5.987529296875,-0.990875244140625,-0.1709747314453125,-0.074554443359375
1782951207305456000,5.9974560546875,-0.9853973388671875,-0.1698760986328125,-0.079193115234375
1782951207315383000,6.007383056640625,-0.9775238037109375,-0.17169189453125,-0.079071044921875
1782951207325310000,6.01731005859375,-0.9704742431640625,-0.173095703125,-0.07147216796875
1782951207335236000,6.027236083984375,-0.967315673828125,-0.174652099609375,-0.0706939697265625
1782951207345163000,6.0371630859375,-0.969482421875,-0.17657470703125,-0.0767974853515625
1782951207355090200,6.047090087890625,-0.9716339111328125,-0.1735076904296875,-0.0746002197265625
1782951207365017000,6.05701708984375,-0.975494384765625,-0.173980712890625,-0.0709381103515625
1782951207374943000,6.06694287109375,-0.976348876953125,-0.17852783203125,-0.071533203125
1782951207384870100,6.0768701171875,-0.97857666015625,-0.1829071044921875,-0.075347900390625
1782951207394797000,6.086797119140625,-0.9809417724609375,-0.1847686767578125,-0.0765380859375
1782951207404724200,6.09672412109375,-0.977691650390625,-0.1854705810546875,-0.075897216796875
1782951207414651100,6.106651123046875,-0.9808502197265625,-0.1829071044921875,-0.073577880859375
1782951207424577000,6.116576904296875,-0.983062744140625,-0.1806793212890625,-0.0692596435546875
1782951207434504000,6.12650390625,-0.9848480224609375,-0.17596435546875,-0.064422607421875
1782951207444431000,6.13643115234375,-0.981719970703125,-0.17852783203125,-0.0661468505859375
1782951207454358000,6.14635791015625,-0.980926513671875,-0.182647705078125,-0.0679931640625
1782951207464285200,6.15628515625,-0.9777679443359375,-0.17962646484375,-0.0694427490234375
1782951207474211000,6.166211181640625,-0.98077392578125,-0.1783447265625,-0.069549560546875
1782951207484138000,6.176137939453125,-0.9790496826171875,-0.1761932373046875,-0.0686798095703125
1782951207494065200,6.186065185546875,-0.980377197265625,-0.1747894287109375,-0.0640106201171875
1782951207503992000,6.195991943359375,-0.984954833984375,-0.1759490966796875,-0.058563232421875
1782951207513918200,6.205918212890625,-0.9918212890625,-0.17449951171875,-0.062286376953125
1782951207523844900,6.215844970703125,-0.99530029296875,-0.1752471923828125,-0.068328857421875
1782951207533772000,6.22577197265625,-0.993194580078125,-0.1771087646484375,-0.07177734375
1782951207543699000,6.235698974609375,-0.9803619384765625,-0.178192138671875,-0.0750274658203125
1782951207553626000,6.245626220703125,-0.96630859375,-0.17681884765625,-0.0760498046875
1782951207563552300,6.25555224609375,-0.9544830322265625,-0.1757659912109375,-0.071533203125
1782951207573479200,6.265479248046875,-0.9494781494140625,-0.175079345703125,-0.06689453125
1782951207583406000,6.275406005859375,-0.9493408203125,-0.1764678955078125,-0.065032958984375
1782951207593333000,6.2853330078125,-0.9566497802734375,-0.17620849609375,-0.06707763671875
1782951207603260200,6.29526025390625,-0.963287353515625,-0.177337646484375,-0.07318115234375
1782951207613186000,6.30518603515625,-0.963836669921875,-0.17877197265625,-0.0753326416015625
1782951207623113200,6.31511328125,-0.9694061279296875,-0.1826934814453125,-0.0782318115234375
1782951207633040000,6.325039794921875,-0.9812164306640625,-0.185272216796875,-0.0735626220703125
1782951207642967000,6.334967041015625,-0.990386962890625,-0.1806182861328125,-0.0782012939453125
1782951207652893200,6.34489306640625,-0.9859619140625,-0.177459716796875,-0.081512451171875
1782951207662820000,6.354820068359375,-0.98883056640625,-0.1805572509765625,-0.0799102783203125
1782951207672747000,6.3647470703125,-0.99444580078125,-0.1801300048828125,-0.0833892822265625
1782951207682674200,6.374674072265625,-1.007476806640625,-0.1786956787109375,-0.0847320556640625
1782951207692601000,6.38460107421875,-1.0171051025390625,-0.178863525390625,-0.0858154296875
1782951207702527000,6.39452685546875,-1.0124664306640625,-0.17742919921875,-0.082427978515625
1782951207712454100,6.4044541015625,-1.000579833984375,-0.175933837890625,-0.0786590576171875
1782951207722381000,6.414381103515625,-0.9864349365234375,-0.1742706298828125,-0.0754241943359375
1782951207732308000,6.424307861328125,-0.9736785888671875,-0.173553466796875,-0.0726318359375
1782951207742233900,6.43423388671875,-0.9644622802734375,-0.17340087890625,-0.07379150390625
1782951207752160800,6.444160888671875,-0.965362548828125,-0.17431640625,-0.07623291015625
1782951207762088000,6.454087890625,-0.9710693359375,-0.171722412109375,-0.0755767822265625
1782951207772014800,6.464014892578125,-0.978240966796875,-0.1708526611328125,-0.073638916015625
1782951207781942000,6.47394189453125,-0.984588623046875,-0.1685333251953125,-0.0709686279296875
1782951207791867600,6.48386767578125,-0.9900665283203125,-0.1666717529296875,-0.0673370361328125
1782951207801794800,6.493794921875,-0.9861297607421875,-0.1675567626953125,-0.067291259765625
1782951207811721700,6.5037216796875,-0.98089599609375,-0.1690216064453125,-0.0693359375
1782951207821649000,6.51364892578125,-0.975372314453125,-0.1714019775390625,-0.071319580078125
1782951207831575800,6.523575927734375,-0.9731597900390625,-0.175537109375,-0.0752410888671875
1782951207841501700,6.533501708984375,-0.972900390625,-0.1774749755859375,-0.0781707763671875
1782951207851428900,6.543428955078125,-0.9734649658203125,-0.1795654296875,-0.083099365234375
1782951207861355800,6.553355712890625,-0.9725799560546875,-0.1812591552734375,-0.0849609375
1782951207871282700,6.56328271484375,-0.9708099365234375,-0.18048095703125,-0.080169677734375
1782951207881208800,6.573208740234375,-0.9703216552734375,-0.1782989501953125,-0.074981689453125
1782951207891136000,6.583135986328125,-0.9704742431640625,-0.1789398193359375,-0.071990966796875
1782951207901062700,6.593062744140625,-0.9750213623046875,-0.179412841796875,-0.068389892578125
1782951207910989800,6.60298974609375,-0.9818572998046875,-0.1778106689453125,-0.0687408447265625
1782951207920916700,6.612916748046875,-0.9843597412109375,-0.1737213134765625,-0.064544677734375
1782951207930843000,6.6228427734375,-0.98260498046875,-0.1721038818359375,-0.0596771240234375
1782951207940769800,6.632769775390625,-0.97869873046875,-0.1725006103515625,-0.0557403564453125
1782951207950696700,6.64269677734375,-0.977294921875,-0.17291259765625,-0.0628662109375
1782951207960623600,6.65262353515625,-0.9765625,-0.1750640869140625,-0.068939208984375
1782951207970550800,6.66255078125,-0.977203369140625,-0.17877197265625,-0.068634033203125
1782951207980477000,6.672476806640625,-0.98419189453125,-0.1762237548828125,-0.06512451171875
1782951207990403800,6.68240380859375,-0.992095947265625,-0.1688385009765625,-0.0619964599609375
1782951208000331000,6.6923310546875,-0.9942779541015625,-0.162506103515625,-0.059844970703125
1782951208010257700,6.702257568359375,-0.9927520751953125,-0.1678466796875,-0.0616302490234375
1782951208020183800,6.712183837890625,-0.9876708984375,-0.172637939453125,-0.0665740966796875
1782951208030110700,6.72211083984375,-0.98162841796875,-0.17510986328125,-0.0729827880859375
1782951208040038000,6.732037841796875,-0.9762725830078125,-0.1748504638671875,-0.0773468017578125
1782951208049964800,6.74196484375,-0.975128173828125,-0.17633056640625,-0.0789947509765625
1782951208059891700,6.7518916015625,-0.972259521484375,-0.178497314453125,-0.0787506103515625
1782951208069817900,6.76181787109375,-0.97393798828125,-0.1770477294921875,-0.0780487060546875
1782951208079744800,6.771744873046875,-0.972381591796875,-0.1734771728515625,-0.0809173583984375
1782951208089672000,6.781671875,-0.9754791259765625,-0.1745758056640625,-0.0843658447265625
1782951208099598800,6.791598876953125,-0.97564697265625,-0.1732330322265625,-0.0854949951171875
1782951208109526000,6.801526123046875,-0.9775848388671875,-0.17535400390625,-0.08856201171875
1782951208119451600,6.81145166015625,-0.979248046875,-0.177703857421875,-0.088409423828125
1782951208129378800,6.82137890625,-0.981201171875,-0.1765594482421875,-0.0830078125
1782951208139305700,6.8313056640625,-0.9842529296875,-0.1765899658203125,-0.0783843994140625
1782951208149233000,6.84123291015625,-0.982391357421875,-0.174530029296875,-0.075439453125
1782951208159158800,6.85115869140625,-0.9774322509765625,-0.1763458251953125,-0.0757598876953125
1782951208169085700,6.861085693359375,-0.9752197265625,-0.1768646240234375,-0.0749053955078125
1782951208179012900,6.871012939453125,-0.9720458984375,-0.1741485595703125,-0.076812744140625
1782951208188939800,6.880939697265625,-0.9696197509765625,-0.170745849609375,-0.077056884765625
1782951208198867000,6.890866943359375,-0.9679107666015625,-0.171234130859375,-0.07452392578125
1782951208208792800,6.900792724609375,-0.9648284912109375,-0.172332763671875,-0.0653839111328125
1782951208218719700,6.9107197265625,-0.96966552734375,-0.1749114990234375,-0.0606231689453125
1782951208228646700,6.920646728515625,-0.9812774658203125,-0.176361083984375,-0.0627899169921875
1782951208238573800,6.93057373046875,-0.9939117431640625,-0.177520751953125,-0.06689453125
1782951208248500000,6.9405,-1.0056610107421875,-0.1751556396484375,-0.0712890625
1782951208258427000,6.950427001953125,-1.008270263671875,-0.175140380859375,-0.07061767578125
1782951208268353800,6.960353759765625,-0.9986572265625,-0.1750946044921875,-0.0684967041015625
1782951208278280700,6.97028076171875,-0.9866485595703125,-0.1764373779296875,-0.063812255859375
1782951208288208000,6.980207763671875,-0.9726104736328125,-0.175079345703125,-0.0599365234375
1782951208298133800,6.9901337890625,-0.962677001953125,-0.1764068603515625,-0.0564422607421875
1782951208308061000,7.00006103515625,-0.959075927734375,-0.175201416015625,-0.05712890625
1782951208317987800,7.00998779296875,-0.9609375,-0.1766815185546875,-0.05914306640625
1782951208327914800,7.019914794921875,-0.970794677734375,-0.1776275634765625,-0.06304931640625
1782951208337841700,7.029841552734375,-0.9796142578125,-0.17669677734375,-0.0688934326171875
1782951208347767800,7.039767822265625,-0.987884521484375,-0.17828369140625,-0.0730438232421875
1782951208357695000,7.049695068359375,-0.9933929443359375,-0.1785888671875,-0.075408935546875
1782951208367622000,7.059621826171875,-0.9939422607421875,-0.1804351806640625,-0.0742340087890625
1782951208377549000,7.069549072265625,-0.994903564453125,-0.17828369140625,-0.0713043212890625
1782951208387474700,7.079474609375,-0.9942626953125,-0.18035888671875,-0.0699615478515625
1782951208397401900,7.08940185546875,-0.9894561767578125,-0.18310546875,-0.07366943359375
1782951208407328800,7.099328857421875,-0.9841766357421875,-0.1831817626953125,-0.0793914794921875
1782951208417256000,7.109255859375,-0.97784423828125,-0.1809844970703125,-0.081817626953125
1782951208427182800,7.119182861328125,-0.975433349609375,-0.1806488037109375,-0.0866546630859375
1782951208437108700,7.129108642578125,-0.97607421875,-0.178863525390625,-0.08343505859375
1782951208447036000,7.139035888671875,-0.9725189208984375,-0.17706298828125,-0.0800018310546875
1782951208456962800,7.148962890625,-0.9711151123046875,-0.1776580810546875,-0.07305908203125
1782951208466890000,7.158889892578125,-0.9686279296875,-0.1762847900390625,-0.0691986083984375
1782951208476815600,7.168815673828125,-0.9686126708984375,-0.1720123291015625,-0.07177734375
1782951208486742800,7.17874267578125,-0.9694671630859375,-0.1708526611328125,-0.0757598876953125
1782951208496669700,7.188669677734375,-0.9696502685546875,-0.175079345703125,-0.0795745849609375
1782951208506596900,7.198596923828125,-0.9705047607421875,-0.17822265625,-0.0829010009765625
1782951208516523800,7.208523681640625,-0.97222900390625,-0.17608642578125,-0.0829620361328125
1782951208526450000,7.218449951171875,-0.9775238037109375,-0.1753387451171875,-0.082122802734375
1782951208536376800,7.228376953125,-0.9842681884765625,-0.1760711669921875,-0.082794189453125
1782951208546303700,7.2383037109375,-0.9869537353515625,-0.1772308349609375,-0.081573486328125
1782951208556230700,7.248230712890625,-0.9892120361328125,-0.1752777099609375,-0.0767974853515625
1782951208566157800,7.25815771484375,-0.9844970703125,-0.1785736083984375,-0.0746307373046875
1782951208576084000,7.268083984375,-0.9777069091796875,-0.17620849609375,-0.069427490234375
1782951208586011000,7.278010986328125,-0.9728851318359375,-0.174560546875,-0.0679168701171875
1782951208595937800,7.287937744140625,-0.96978759765625,-0.1761932373046875,-0.069671630859375
1782951208605864700,7.29786474609375,-0.9707183837890625,-0.1797637939453125,-0.0704345703125
1782951208615790800,7.307790771484375,-0.9783172607421875,-0.1792144775390625,-0.074249267578125
1782951208625717800,7.3177177734375,-0.9845123291015625,-0.1771240234375,-0.0804290771484375
1782951208635645000,7.32764501953125,-0.9851837158203125,-0.178375244140625,-0.08026123046875
1782951208645571600,7.337571533203125,-0.9801025390625,-0.1789703369140625,-0.0772552490234375
1782951208655498800,7.347498779296875,-0.9813079833984375,-0.1793060302734375,-0.0750732421875
1782951208665425000,7.3574248046875,-0.987152099609375,-0.1770782470703125,-0.078033447265625
1782951208675351800,7.367351806640625,-0.988525390625,-0.1761474609375,-0.0802764892578125
1782951208685279000,7.377279052734375,-0.9808807373046875,-0.176177978515625,-0.07763671875
1782951208695206000,7.387205810546875,-0.9710845947265625,-0.176788330078125,-0.069976806640625
1782951208705131800,7.3971318359375,-0.96478271484375,-0.177581787109375,-0.070281982421875
1782951208715058700,7.40705859375,-0.961090087890625,-0.1767120361328125,-0.0751495361328125
1782951208724985900,7.41698583984375,-0.963104248046875,-0.1790618896484375,-0.076751708984375
1782951208734912800,7.426912841796875,-0.969879150390625,-0.1806182861328125,-0.0789794921875
1782951208744840000,7.43683984375,-0.976837158203125,-0.1826019287109375,-0.081573486328125
1782951208754765800,7.446765869140625,-0.9804534912109375,-0.1829681396484375,-0.082794189453125
1782951208764692700,7.456692626953125,-0.9868011474609375,-0.18310546875,-0.0801239013671875
1782951208774620000,7.466619873046875,-0.9877471923828125,-0.1833343505859375,-0.077056884765625
1782951208784546800,7.476546875,-0.98687744140625,-0.180450439453125,-0.07464599609375
1782951208794473000,7.486472900390625,-0.9831390380859375,-0.1797332763671875,-0.0699310302734375
1782951208804399600,7.496399658203125,-0.979034423828125,-0.1800994873046875,-0.0683746337890625
1782951208814326800,7.506326904296875,-0.9796600341796875,-0.1809539794921875,-0.069366455078125
1782951208824253700,7.516253662109375,-0.9823760986328125,-0.1804962158203125,-0.07305908203125
1782951208834180900,7.526180908203125,-0.9869842529296875,-0.1776275634765625,-0.0732879638671875
1782951208844107000,7.53610693359375,-0.9869232177734375,-0.1745758056640625,-0.0690155029296875
1782951208854033700,7.54603369140625,-0.982421875,-0.1743316650390625,-0.0685577392578125
1782951208863960800,7.5559609375,-0.97381591796875,-0.1780853271484375,-0.0689697265625
1782951208873887700,7.5658876953125,-0.9701080322265625,-0.1787872314453125,-0.0713043212890625
1782951208883814000,7.57581396484375,-0.9691009521484375,-0.179168701171875,-0.0731353759765625
1782951208893740800,7.58574072265625,-0.973236083984375,-0.1787872314453125,-0.0741729736328125
1782951208903668000,7.59566796875,-0.9789886474609375,-0.177459716796875,-0.074462890625
1782951208913594600,7.6055947265625,-0.9807586669921875,-0.1755828857421875,-0.0736541748046875
1782951208923521800,7.615521728515625,-0.981597900390625,-0.17913818359375,-0.076873779296875
1782951208933448000,7.625447998046875,-0.982421875,-0.183135986328125,-0.0785064697265625
1782951208943374800,7.635374755859375,-0.982574462890625,-0.182769775390625,-0.08294677734375
1782951208953302000,7.645302001953125,-0.977264404296875,-0.1820831298828125,-0.084136962890625
1782951208963228700,7.655228759765625,-0.9743499755859375,-0.18267822265625,-0.0787506103515625
1782951208973154800,7.66515478515625,-0.971527099609375,-0.182830810546875,-0.0756988525390625
1782951208983081700,7.675081787109375,-0.9723052978515625,-0.1828460693359375,-0.0755462646484375
1782951208993009000,7.6850087890625,-0.97625732421875,-0.18218994140625,-0.0747833251953125
1782951209002935800,7.694935791015625,-0.984161376953125,-0.1819610595703125,-0.079132080078125
1782951209012863000,7.704863037109375,-0.9910125732421875,-0.181427001953125,-0.0818023681640625
1782951209022788900,7.714788818359375,-0.9923553466796875,-0.179595947265625,-0.084991455078125
1782951209032715800,7.7247158203125,-0.98333740234375,-0.1773681640625,-0.08251953125
1782951209042643000,7.734642822265625,-0.96893310546875,-0.174957275390625,-0.078125
1782951209052569900,7.74456982421875,-0.9598846435546875,-0.176116943359375,-0.073486328125
1782951209062495700,7.754495849609375,-0.956878662109375,-0.175872802734375,-0.0699005126953125
1782951209072422700,7.764422607421875,-0.9581756591796875,-0.1723785400390625,-0.0651092529296875
1782951209082349800,7.774349853515625,-0.966064453125,-0.1743927001953125,-0.0611724853515625
1782951209092276700,7.78427685546875,-0.9785003662109375,-0.1760101318359375,-0.065582275390625
1782951209102204000,7.794203857421875,-0.991180419921875,-0.177520751953125,-0.0754547119140625
1782951209112130000,7.804130126953125,-0.998626708984375,-0.178619384765625,-0.0805511474609375
1782951209122056700,7.814056640625,-0.9907684326171875,-0.1803436279296875,-0.0810546875
1782951209131984000,7.82398388671875,-0.9774627685546875,-0.1823883056640625,-0.07708740234375
1782951209141910800,7.833910888671875,-0.96783447265625,-0.1856842041015625,-0.07391357421875
1782951209151837000,7.8438369140625,-0.964569091796875,-0.1828765869140625,-0.0728607177734375
1782951209161763800,7.853763916015625,-0.9697723388671875,-0.1825408935546875,-0.07427978515625
1782951209171690800,7.863690673828125,-0.97723388671875,-0.1836700439453125,-0.07501220703125
1782951209181617700,7.87361767578125,-0.9804534912109375,-0.18359375,-0.0740814208984375
1782951209191543800,7.883543701171875,-0.9803619384765625,-0.1826934814453125,-0.0730133056640625
1782951209201471000,7.893470947265625,-0.978912353515625,-0.1847686767578125,-0.072967529296875
1782951209211398000,7.90339794921875,-0.980377197265625,-0.1835174560546875,-0.0747833251953125
1782951209221324800,7.91332470703125,-0.983367919921875,-0.18365478515625,-0.075439453125
1782951209231251700,7.923251708984375,-0.9880523681640625,-0.183258056640625,-0.0749664306640625
1782951209241177900,7.933177734375,-0.9946746826171875,-0.1855926513671875,-0.073822021484375
1782951209251104800,7.943104736328125,-1.0004730224609375,-0.1836395263671875,-0.07708740234375
1782951209261032000,7.953031982421875,-0.99755859375,-0.18310546875,-0.0791168212890625
1782951209270958800,7.962958740234375,-0.99005126953125,-0.1818389892578125,-0.0797576904296875
1782951209280884700,7.972884765625,-0.97711181640625,-0.1807708740234375,-0.0760955810546875
1782951209290812000,7.98281201171875,-0.959747314453125,-0.18170166015625,-0.0720977783203125
1782951209300738800,7.99273876953125,-0.946746826171875,-0.1832733154296875,-0.070892333984375
1782951209310665700,8.002665771484375,-0.9461822509765625,-0.1837005615234375,-0.0716094970703125
1782951209320593000,8.012593017578125,-0.9551544189453125,-0.18365478515625,-0.072723388671875
1782951209330518800,8.022518798828125,-0.96795654296875,-0.1829986572265625,-0.0761566162109375
1782951209340445700,8.03244580078125,-0.9774017333984375,-0.181671142578125,-0.0790252685546875
1782951209350372900,8.042372802734375,-0.9847259521484375,-0.18011474609375,-0.0782318115234375
1782951209360299800,8.0522998046875,-0.9895172119140625,-0.1812286376953125,-0.0778350830078125
1782951209370226000,8.062225830078125,-0.994476318359375,-0.181243896484375,-0.081146240234375
1782951209380152600,8.072152587890624,-0.9972381591796875,-0.1801910400390625,-0.08428955078125
1782951209390079700,8.082079833984375,-0.9949188232421875,-0.180084228515625,-0.085052490234375
1782951209400006700,8.092006591796874,-0.9868621826171875,-0.1804351806640625,-0.0807342529296875
1782951209409933800,8.101933837890625,-0.978759765625,-0.1803131103515625,-0.0783538818359375
1782951209419860000,8.11185986328125,-0.9704437255859375,-0.180389404296875,-0.0738372802734375
1782951209429787000,8.121786865234375,-0.9642333984375,-0.178253173828125,-0.0745697021484375
1782951209439713800,8.1317138671875,-0.9650726318359375,-0.177093505859375,-0.0738067626953125
1782951209449640700,8.141640625,-0.9694671630859375,-0.177703857421875,-0.0745697021484375
1782951209459566800,8.15156689453125,-0.97119140625,-0.1764678955078125,-0.076141357421875
1782951209469493800,8.16149365234375,-0.9716796875,-0.1746063232421875,-0.076019287109375
1782951209479421000,8.1714208984375,-0.9762725830078125,-0.173492431640625,-0.0765228271484375
1782951209489347800,8.181347900390625,-0.977264404296875,-0.1776885986328125,-0.08074951171875
1782951209499273700,8.191273681640626,-0.97662353515625,-0.1797027587890625,-0.07965087890625
1782951209509201000,8.201200927734375,-0.972991943359375,-0.1829833984375,-0.07806396484375
1782951209519127800,8.2111279296875,-0.97332763671875,-0.183319091796875,-0.0758056640625
1782951209529055000,8.221054931640625,-0.9743804931640625,-0.178497314453125,-0.0763092041015625
1782951209538982000,8.23098193359375,-0.9739837646484375,-0.1811065673828125,-0.07666015625
1782951209548907800,8.24090771484375,-0.9754638671875,-0.18292236328125,-0.075164794921875
1782951209558834700,8.250834716796875,-0.9828643798828125,-0.18084716796875,-0.0790252685546875
1782951209568761900,8.260761962890625,-0.9879302978515625,-0.1808929443359375,-0.0833587646484375
1782951209578688800,8.270688720703125,-0.988616943359375,-0.1807098388671875,-0.082000732421875
1782951209588614700,8.28061474609375,-0.9833526611328125,-0.1839599609375,-0.0794677734375
1782951209598541800,8.290541748046875,-0.9807891845703125,-0.1851043701171875,-0.0788421630859375
1782951209608468700,8.30046875,-0.9772796630859375,-0.1829071044921875,-0.0774688720703125
1782951209618396000,8.31039599609375,-0.9749603271484375,-0.181549072265625,-0.0787811279296875
1782951209628322800,8.32032275390625,-0.9742279052734375,-0.18206787109375,-0.076416015625
1782951209638249000,8.3302490234375,-0.9761199951171875,-0.1765594482421875,-0.076263427734375
1782951209648175600,8.340175537109374,-0.980072021484375,-0.1731109619140625,-0.074066162109375
1782951209658102800,8.350102783203125,-0.984466552734375,-0.173736572265625,-0.0711669921875
1782951209668029700,8.36002978515625,-0.9838714599609375,-0.1753387451171875,-0.0724945068359375
1782951209677955800,8.369955810546875,-0.9744720458984375,-0.177490234375,-0.0726318359375
1782951209687883000,8.379883056640624,-0.9702911376953125,-0.1790313720703125,-0.07086181640625
1782951209697810000,8.389809814453125,-0.9669036865234375,-0.17999267578125,-0.0682830810546875
1782951209707736800,8.39973681640625,-0.9635009765625,-0.1776580810546875,-0.0639190673828125
1782951209717662700,8.409662841796875,-0.965850830078125,-0.1766815185546875,-0.0598297119140625
1782951209727589600,8.419589599609376,-0.96978759765625,-0.1767578125,-0.063079833984375
1782951209737516500,8.4295166015625,-0.9720306396484375,-0.17559814453125,-0.0605316162109375
1782951209747443700,8.439443603515626,-0.9703216552734375,-0.1788177490234375,-0.0633544921875
1782951209757370400,8.449370361328125,-0.9730072021484375,-0.184600830078125,-0.067626953125
1782951209767296500,8.459296630859376,-0.979156494140625,-0.186279296875,-0.0692291259765625
1782951209777223700,8.4692236328125,-0.9895172119140625,-0.185150146484375,-0.071136474609375
1782951209787150600,8.479150634765626,-0.9992218017578125,-0.1851654052734375,-0.072967529296875
1782951209797077800,8.489077880859375,-1.00341796875,-0.18408203125,-0.0712890625
1782951209807003400,8.49900341796875,-0.999053955078125,-0.181365966796875,-0.07098388671875
1782951209816930600,8.5089306640625,-0.9901123046875,-0.1814422607421875,-0.0696258544921875
1782951209826857500,8.518857421875,-0.980926513671875,-0.18389892578125,-0.070404052734375
1782951209836784600,8.52878466796875,-0.971771240234375,-0.185760498046875,-0.0708465576171875
1782951209846710800,8.538710693359375,-0.97064208984375,-0.1865234375,-0.078704833984375
1782951209856637400,8.548637451171874,-0.97454833984375,-0.18426513671875,-0.0829010009765625
1782951209866564600,8.558564697265625,-0.97869873046875,-0.1814727783203125,-0.08868408203125
1782951209876491500,8.568491455078124,-0.9820709228515625,-0.1829071044921875,-0.091033935546875
1782951209886418700,8.578418701171875,-0.9815521240234375,-0.1820068359375,-0.0895538330078125
1782951209896344600,8.588344482421874,-0.976409912109375,-0.1790313720703125,-0.08917236328125
1782951209906271500,8.598271484375,-0.9731903076171875,-0.1767578125,-0.0896148681640625
1782951209916198400,8.608198486328124,-0.96844482421875,-0.174102783203125,-0.083465576171875
1782951209926125600,8.61812548828125,-0.9653778076171875,-0.1696624755859375,-0.0767364501953125
1782951209936051700,8.6280517578125,-0.965240478515625,-0.170318603515625,-0.0685882568359375
1782951209945978600,8.637978515625,-0.9693145751953125,-0.1710662841796875,-0.061248779296875
1782951209955905800,8.64790576171875,-0.982391357421875,-0.1721343994140625,-0.061614990234375
1782951209965832400,8.65783251953125,-0.9943084716796875,-0.17144775390625,-0.0710906982421875
1782951209975759600,8.667759521484374,-0.999176025390625,-0.17034912109375,-0.07568359375
1782951209985685500,8.677685546875,-0.995849609375,-0.17108154296875,-0.077362060546875
1782951209995612700,8.68761279296875,-0.9881744384765625,-0.174072265625,-0.0732269287109375
1782951210005539600,8.69753955078125,-0.9804534912109375,-0.1749420166015625,-0.0681304931640625
1782951210015466500,8.707466552734376,-0.9697265625,-0.1761474609375,-0.06451416015625
1782951210025392600,8.717392578125,-0.960357666015625,-0.1774444580078125,-0.062255859375
1782951210035319600,8.727319580078126,-0.958343505859375,-0.1794586181640625,-0.0611572265625
1782951210045246700,8.737246826171875,-0.9652099609375,-0.1793060302734375,-0.062530517578125
1782951210055173600,8.747173583984376,-0.9741058349609375,-0.1767730712890625,-0.0677947998046875
1782951210065099500,8.757099609375,-0.983673095703125,-0.1777191162109375,-0.0705108642578125
1782951210075026400,8.7670263671875,-0.9913787841796875,-0.179290771484375,-0.0731201171875
1782951210084953600,8.77695361328125,-0.99420166015625,-0.179443359375,-0.07818603515625
1782951210094880500,8.786880615234375,-0.9990081787109375,-0.1788330078125,-0.0756378173828125
1782951210104807700,8.7968076171875,-1.00030517578125,-0.178802490234375,-0.0731201171875
1782951210114733600,8.806733642578125,-0.9988555908203125,-0.180908203125,-0.0709381103515625
1782951210124660500,8.816660400390624,-0.9919281005859375,-0.1804656982421875,-0.0688934326171875
1782951210134587600,8.826587646484375,-0.978973388671875,-0.1765899658203125,-0.074859619140625
1782951210144514600,8.8365146484375,-0.9629974365234375,-0.1767730712890625,-0.0774383544921875
1782951210154440700,8.846440673828125,-0.9519805908203125,-0.177093505859375,-0.07354736328125
1782951210164367600,8.85636767578125,-0.9442291259765625,-0.174957275390625,-0.070892333984375
1782951210174294500,8.86629443359375,-0.94415283203125,-0.17413330078125,-0.069122314453125
1782951210184221400,8.876221435546874,-0.953948974609375,-0.1741943359375,-0.0680999755859375
1782951210194148600,8.886148681640625,-0.9663238525390625,-0.1728057861328125,-0.0684051513671875
1782951210204074500,8.896074462890626,-0.987335205078125,-0.1722564697265625,-0.0743865966796875
1782951210214001700,8.906001708984375,-1.0042724609375,-0.1729278564453125,-0.07281494140625
1782951210223928600,8.915928466796874,-1.0130767822265625,-0.171142578125,-0.069549560546875
1782951210233855500,8.92585546875,-1.0133056640625,-0.17205810546875,-0.0692596435546875
1782951210243781600,8.93578173828125,-1.0033721923828125,-0.173187255859375,-0.0659332275390625
1782951210253708500,8.94570849609375,-0.98858642578125,-0.1759796142578125,-0.0640716552734375
1782951210263635700,8.9556357421875,-0.9712677001953125,-0.1766357421875,-0.0641326904296875
1782951210273562600,8.965562744140625,-0.9633026123046875,-0.1779937744140625,-0.0670928955078125
1782951210283488500,8.975488525390626,-0.9608917236328125,-0.1786041259765625,-0.07049560546875
1782951210293415400,8.98541552734375,-0.966827392578125,-0.1775360107421875,-0.074371337890625
1782951210303342600,8.995342529296876,-0.981231689453125,-0.1745452880859375,-0.0750732421875
1782951210313269500,9.00526953125,-0.988311767578125,-0.174163818359375,-0.0745086669921875
1782951210323196700,9.01519677734375,-0.99127197265625,-0.173828125,-0.0764007568359375
1782951210333122600,9.02512255859375,-0.9859619140625,-0.17474365234375,-0.0781402587890625
1782951210343049500,9.035049560546875,-0.976165771484375,-0.1765289306640625,-0.0766754150390625
1782951210352976600,9.0449765625,-0.971160888671875,-0.1766357421875,-0.0768585205078125
1782951210362903600,9.054903564453125,-0.97283935546875,-0.1760101318359375,-0.077239990234375
1782951210372829700,9.06482958984375,-0.9775848388671875,-0.17352294921875,-0.08074951171875
1782951210382756400,9.07475634765625,-0.982330322265625,-0.170623779296875,-0.078338623046875
1782951210392683500,9.08468359375,-0.9868011474609375,-0.170745849609375,-0.077301025390625
1782951210402610400,9.0946103515625,-0.9836578369140625,-0.17401123046875,-0.076171875
1782951210412537600,9.10453759765625,-0.9778900146484375,-0.176422119140625,-0.0736541748046875
1782951210422463700,9.114463623046875,-0.974456787109375,-0.176605224609375,-0.0740966796875
1782951210432390400,9.124390380859374,-0.9736480712890625,-0.177337646484375,-0.0738067626953125
1782951210442317600,9.134317626953125,-0.971954345703125,-0.176116943359375,-0.0704193115234375
1782951210452244500,9.144244384765624,-0.9785003662109375,-0.1756439208984375,-0.0701751708984375
1782951210462170600,9.154170654296875,-0.9860687255859375,-0.174041748046875,-0.068359375
1782951210472097500,9.16409765625,-0.9887237548828125,-0.1706085205078125,-0.0676116943359375
1782951210482024700,9.174024658203125,-0.9854888916015625,-0.1701202392578125,-0.069610595703125
1782951210491951400,9.183951416015624,-0.9777679443359375,-0.17431640625,-0.06439208984375
1782951210501877500,9.19387744140625,-0.973785400390625,-0.1717376708984375,-0.06280517578125
1782951210511804700,9.2038046875,-0.969696044921875,-0.171478271484375,-0.0630035400390625
1782951210521731600,9.213731689453125,-0.972503662109375,-0.1751556396484375,-0.0618133544921875
1782951210531658800,9.22365869140625,-0.9785919189453125,-0.1749725341796875,-0.0630340576171875
1782951210541585700,9.233585693359375,-0.9816436767578125,-0.1750030517578125,-0.06719970703125
1782951210551511600,9.243511474609376,-0.9835052490234375,-0.1747894287109375,-0.06854248046875
1782951210561438500,9.2534384765625,-0.9824371337890625,-0.1767730712890625,-0.0664825439453125
1782951210571365600,9.26336572265625,-0.9819488525390625,-0.1759185791015625,-0.065765380859375
1782951210581292500,9.27329248046875,-0.9833831787109375,-0.1765899658203125,-0.06719970703125
1782951210591218400,9.283218505859375,-0.9831390380859375,-0.1787109375,-0.0676727294921875
1782951210601145600,9.2931455078125,-0.981475830078125,-0.176544189453125,-0.0667572021484375
1782951210611072500,9.303072509765625,-0.9841461181640625,-0.1770477294921875,-0.068572998046875
1782951210620999700,9.312999755859375,-0.988006591796875,-0.1781463623046875,-0.0693359375
1782951210630925600,9.322925537109375,-0.9866790771484375,-0.1757354736328125,-0.0714569091796875
1782951210640852500,9.3328525390625,-0.978515625,-0.17584228515625,-0.072845458984375
1782951210650779400,9.342779296875,-0.9738311767578125,-0.177001953125,-0.0736083984375
1782951210660706600,9.35270654296875,-0.971649169921875,-0.1766815185546875,-0.074127197265625
1782951210670633500,9.362633544921875,-0.970855712890625,-0.175933837890625,-0.0748291015625
1782951210680559600,9.3725595703125,-0.974456787109375,-0.1757049560546875,-0.074066162109375
1782951210690486800,9.38248681640625,-0.97918701171875,-0.17340087890625,-0.0725860595703125
1782951210700413400,9.392413330078124,-0.983428955078125,-0.173828125,-0.07122802734375
1782951210710340600,9.402340576171875,-0.9862060546875,-0.176513671875,-0.07208251953125
1782951210720266500,9.4122666015625,-0.9844970703125,-0.1761932373046875,-0.0764923095703125
1782951210730193700,9.422193603515625,-0.9834442138671875,-0.1767120361328125,-0.0779876708984375
1782951210740120300,9.432120361328124,-0.981658935546875,-0.1761322021484375,-0.0759124755859375
1782951210750047500,9.442047607421875,-0.9763336181640625,-0.1744384765625,-0.0744171142578125
1782951210759974400,9.451974365234374,-0.9734344482421875,-0.174285888671875,-0.072845458984375
1782951210769900500,9.461900634765625,-0.970733642578125,-0.173553466796875,-0.0677642822265625
1782951210779827700,9.47182763671875,-0.9738006591796875,-0.1744842529296875,-0.0630950927734375
1782951210789754600,9.481754638671875,-0.981781005859375,-0.1735076904296875,-0.0637359619140625
1782951210799681500,9.491681640625,-0.990631103515625,-0.17315673828125,-0.06744384765625
1782951210809607400,9.501607421875,-0.9951629638671875,-0.17193603515625,-0.0670623779296875
1782951210819534600,9.51153466796875,-0.99365234375,-0.1728973388671875,-0.06500244140625
1782951210829461500,9.52146142578125,-0.98577880859375,-0.1742706298828125,-0.0676422119140625
1782951210839388700,9.531388671875,-0.9774932861328125,-0.1762237548828125,-0.0702056884765625
1782951210849314600,9.541314453125,-0.9700775146484375,-0.17718505859375,-0.0701446533203125
1782951210859241500,9.551241455078125,-0.9657440185546875,-0.177764892578125,-0.0708465576171875
1782951210869168600,9.561168701171875,-0.962310791015625,-0.177703857421875,-0.068359375
1782951210879095600,9.571095458984376,-0.9625091552734375,-0.1761474609375,-0.06781005859375
1782951210889021700,9.581021728515625,-0.967132568359375,-0.176300048828125,-0.0675201416015625
1782951210898948400,9.5909482421875,-0.9767303466796875,-0.175445556640625,-0.0662689208984375
1782951210908875500,9.60087548828125,-0.9914398193359375,-0.172210693359375,-0.0679473876953125
1782951210918802400,9.610802490234375,-0.9977874755859375,-0.1725921630859375,-0.07366943359375
1782951210928729600,9.6207294921875,-0.9984588623046875,-0.1770172119140625,-0.0695648193359375
1782951210938655500,9.630655517578125,-1.003265380859375,-0.180450439453125,-0.068603515625
1782951210948582400,9.64058251953125,-1.009429931640625,-0.1770477294921875,-0.0701446533203125
1782951210958509600,9.650509521484375,-1.005706787109375,-0.173370361328125,-0.0704193115234375
1782951210968436500,9.6604365234375,-0.99505615234375,-0.1746368408203125,-0.069366455078125
1782951210978362600,9.670362548828125,-0.9775848388671875,-0.1753082275390625,-0.0700225830078125
1782951210988289500,9.68028955078125,-0.9615478515625,-0.1729736328125,-0.0743560791015625
1782951210998216700,9.690216796875,-0.949859619140625,-0.172027587890625,-0.072418212890625
1782951211008143400,9.700143310546874,-0.9461517333984375,-0.1715545654296875,-0.0705108642578125
1782951211018070500,9.710070556640625,-0.9494781494140625,-0.1704254150390625,-0.072296142578125
1782951211027996400,9.719996337890626,-0.9607391357421875,-0.170135498046875,-0.073883056640625
1782951211037923600,9.729923583984375,-0.9710540771484375,-0.1702728271484375,-0.0748291015625
1782951211047850500,9.7398505859375,-0.9777679443359375,-0.1686553955078125,-0.07977294921875
1782951211057777700,9.749777587890625,-0.9828033447265625,-0.17120361328125,-0.07891845703125
1782951211067703600,9.75970361328125,-0.98944091796875,-0.173583984375,-0.0805511474609375
1782951211077630500,9.76963037109375,-0.99688720703125,-0.1731414794921875,-0.080108642578125
1782951211087557600,9.7795576171875,-0.9993438720703125,-0.1730804443359375,-0.0802001953125
1782951211097484500,9.789484619140625,-0.9915313720703125,-0.1699066162109375,-0.0806884765625
1782951211107410400,9.799410400390625,-0.97802734375,-0.1746978759765625,-0.078887939453125
1782951211117337300,9.80933740234375,-0.96844482421875,-0.180419921875,-0.078521728515625
1782951211127264500,9.819264404296876,-0.9658355712890625,-0.183868408203125,-0.081298828125
1782951211137191400,9.82919140625,-0.9687042236328125,-0.180572509765625,-0.0829315185546875
1782951211147118600,9.83911865234375,-0.974334716796875,-0.1777191162109375,-0.08123779296875
1782951211157044500,9.84904443359375,-0.9776611328125,-0.175537109375,-0.0782318115234375
1782951211166971400,9.858971435546875,-0.978912353515625,-0.1759185791015625,-0.0756683349609375
1782951211176898600,9.868898681640625,-0.9816131591796875,-0.17822265625,-0.076141357421875
1782951211186825500,9.878825439453125,-0.9814300537109375,-0.179595947265625,-0.0816802978515625
1782951211196751600,9.888751708984374,-0.983428955078125,-0.1811981201171875,-0.082855224609375
1782951211206678500,9.898678466796875,-0.9863128662109375,-0.1816864013671875,-0.08154296875
1782951211216605400,9.90860546875,-0.987152099609375,-0.177001953125,-0.078521728515625
1782951211226532400,9.918532470703125,-0.9882965087890625,-0.175628662109375,-0.071441650390625
1782951211236458500,9.92845849609375,-0.98858642578125,-0.173553466796875,-0.0666046142578125
1782951211246385700,9.9383857421875,-0.984344482421875,-0.1741485595703125,-0.067657470703125
1782951211256312600,9.9483125,-0.9748382568359375,-0.17425537109375,-0.0735015869140625
1782951211266239700,9.95823974609375,-0.965850830078125,-0.17724609375,-0.0770416259765625
1782951211276166400,9.96816650390625,-0.9590606689453125,-0.1802825927734375,-0.0783233642578125
1782951211286092500,9.978092529296875,-0.956817626953125,-0.1809844970703125,-0.0785675048828125
1782951211296019500,9.98801953125,-0.962371826171875,-0.179351806640625,-0.07830810546875
1782951211305946600,9.997946533203125,-0.971771240234375,-0.1789093017578125,-0.0760498046875
1782951211315873500,10.00787353515625,-0.98028564453125,-0.1763916015625,-0.0760498046875
1782951211325799400,10.01779931640625,-0.9880523681640625,-0.175384521484375,-0.074554443359375
1782951211335726600,10.0277265625,-0.993011474609375,-0.17645263671875,-0.072906494140625
1782951211345653500,10.037653564453125,-0.9901275634765625,-0.1763458251953125,-0.0733642578125
1782951211355580700,10.04758056640625,-0.9827423095703125,-0.1783447265625,-0.0726776123046875
1782951211365506300,10.05750634765625,-0.9763031005859375,-0.1818389892578125,-0.068328857421875
1782951211375433500,10.06743359375,-0.9758148193359375,-0.1842803955078125,-0.0673370361328125
1782951211385360400,10.0773603515625,-0.9796600341796875,-0.1811065673828125,-0.0692901611328125
1782951211395287600,10.08728759765625,-0.98834228515625,-0.1793670654296875,-0.06787109375
1782951211405214500,10.09721435546875,-0.9952392578125,-0.1760711669921875,-0.0677642822265625
1782951211415140600,10.107140625,-0.98846435546875,-0.1747894287109375,-0.068450927734375
1782951211425067500,10.117067626953125,-0.97528076171875,-0.1783905029296875,-0.067901611328125
1782951211434994400,10.126994384765625,-0.9613800048828125,-0.18218994140625,-0.0628814697265625
1782951211444921600,10.136921630859375,-0.9584808349609375,-0.1815948486328125,-0.0652923583984375
1782951211454847500,10.146847412109375,-0.96435546875,-0.1773681640625,-0.06591796875
1782951211464774700,10.156774658203124,-0.9765167236328125,-0.1719207763671875,-0.06683349609375
1782951211474701600,10.16670166015625,-0.9886016845703125,-0.170928955078125,-0.0724639892578125
1782951211484628500,10.17662841796875,-0.99188232421875,-0.17449951171875,-0.0784759521484375
1782951211494554600,10.1865546875,-0.989654541015625,-0.1795196533203125,-0.08099365234375
1782951211504481500,10.1964814453125,-0.9806671142578125,-0.18109130859375,-0.080413818359375
1782951211514408700,10.20640869140625,-0.970367431640625,-0.1831817626953125,-0.0766448974609375
1782951211524335600,10.216335693359374,-0.9666595458984375,-0.1834869384765625,-0.0755462646484375
1782951211534262500,10.226262451171875,-0.9722900390625,-0.1802978515625,-0.0737457275390625
1782951211544188400,10.2361884765625,-0.98626708984375,-0.178985595703125,-0.07269287109375
1782951211554115600,10.246115478515625,-1.00115966796875,-0.1753387451171875,-0.078521728515625
1782951211564042500,10.25604248046875,-1.0007476806640625,-0.175079345703125,-0.0847930908203125
1782951211573969700,10.2659697265625,-0.9862060546875,-0.18060302734375,-0.0858306884765625
1782951211583895600,10.2758955078125,-0.9676513671875,-0.1845703125,-0.08697509765625
1782951211593822500,10.285822509765625,-0.95172119140625,-0.1850433349609375,-0.085479736328125
1782951211603749600,10.29574951171875,-0.94696044921875,-0.1796722412109375,-0.0782470703125
1782951211613676500,10.305676513671875,-0.9586334228515625,-0.176727294921875,-0.071136474609375
1782951211623602700,10.315602783203126,-0.9795379638671875,-0.1720428466796875,-0.067230224609375
1782951211633529300,10.325529296875,-1.000274658203125,-0.1685943603515625,-0.0712738037109375
1782951211643456500,10.33545654296875,-1.0121307373046875,-0.165679931640625,-0.07568359375
1782951211653383400,10.345383544921875,-1.0063323974609375,-0.1669158935546875,-0.076568603515625
1782951211663310600,10.355310546875,-0.9910430908203125,-0.1703643798828125,-0.075897216796875
1782951211673236700,10.36523681640625,-0.9735107421875,-0.1735992431640625,-0.0734710693359375
1782951211683163600,10.37516357421875,-0.9608154296875,-0.177001953125,-0.069183349609375
1782951211693090600,10.385090576171875,-0.9595794677734375,-0.17962646484375,-0.0644073486328125
1782951211703017500,10.395017578125,-0.96441650390625,-0.1751861572265625,-0.060211181640625
1782951211712943600,10.404943603515624,-0.9727630615234375,-0.172393798828125,-0.06341552734375
1782951211722870500,10.41487060546875,-0.9772186279296875,-0.173980712890625,-0.0681610107421875
1782951211732797700,10.424797607421874,-0.9770050048828125,-0.18017578125,-0.0710906982421875
1782951211742724600,10.434724609375,-0.9788970947265625,-0.1857757568359375,-0.0740814208984375
1782951211752651500,10.444651611328124,-0.979949951171875,-0.1858978271484375,-0.0777740478515625
1782951211762577400,10.454577392578125,-0.9853057861328125,-0.184051513671875,-0.0803680419921875
1782951211772504600,10.464504638671874,-0.9922027587890625,-0.1814727783203125,-0.07818603515625
1782951211782431500,10.474431396484375,-1.0001220703125,-0.1801910400390625,-0.0727996826171875
1782951211792358700,10.484358642578124,-0.9984893798828125,-0.1798248291015625,-0.0719757080078125
1782951211802284500,10.494284423828125,-0.99371337890625,-0.1822357177734375,-0.0764007568359375
1782951211812211500,10.50421142578125,-0.98760986328125,-0.1804351806640625,-0.0821075439453125
1782951211822138600,10.514138671875,-0.97637939453125,-0.1759185791015625,-0.0846405029296875
1782951211832065500,10.5240654296875,-0.9616546630859375,-0.1747283935546875,-0.0810546875
1782951211841991700,10.53399169921875,-0.9514007568359375,-0.176055908203125,-0.07330322265625
1782951211851918300,10.54391845703125,-0.952545166015625,-0.1770172119140625,-0.0683441162109375
1782951211861845500,10.553845458984375,-0.95635986328125,-0.1747589111328125,-0.0712127685546875
1782951211871772400,10.5637724609375,-0.963897705078125,-0.17822265625,-0.0716094970703125
1782951211881699600,10.573699462890625,-0.971954345703125,-0.1788482666015625,-0.0720062255859375
1782951211891625700,10.583625732421876,-0.9789276123046875,-0.179473876953125,-0.074737548828125
1782951211901552600,10.593552734375,-0.989044189453125,-0.1800689697265625,-0.0765838623046875
1782951211911479600,10.6034794921875,-0.997772216796875,-0.1837615966796875,-0.0767974853515625
1782951211921406500,10.613406494140625,-1.0022430419921875,-0.185211181640625,-0.07635498046875
1782951211931332600,10.62333251953125,-1.0063323974609375,-0.1834716796875,-0.0760650634765625
1782951211941259500,10.633259521484375,-0.99981689453125,-0.1811370849609375,-0.07568359375
1782951211951186700,10.643186767578126,-0.984344482421875,-0.181488037109375,-0.0725555419921875
1782951211961113300,10.65311328125,-0.9715118408203125,-0.183746337890625,-0.0714111328125
1782951211971040500,10.66304052734375,-0.975555419921875,-0.1815338134765625,-0.0715789794921875
1782951211980966700,10.672966552734374,-0.9665679931640625,-0.1800384521484375,-0.078125
1782951211990893600,10.6828935546875,-0.961822509765625,-0.1832122802734375,-0.0726776123046875
1782951212000820700,10.69282080078125,-0.9637298583984375,-0.186370849609375,-0.0705718994140625
1782951212010747600,10.70274755859375,-0.9753570556640625,-0.1824798583984375,-0.0757598876953125
1782951212020673500,10.712673583984374,-0.986785888671875,-0.1822662353515625,-0.080413818359375
1782951212030600400,10.722600341796875,-0.9933929443359375,-0.17950439453125,-0.08294677734375
1782951212040527600,10.732527587890624,-0.9873046875,-0.1814727783203125,-0.0820770263671875
1782951212050454500,10.74245458984375,-0.9759063720703125,-0.18133544921875,-0.0802154541015625
1782951212060380400,10.75238037109375,-0.9637298583984375,-0.1817626953125,-0.07470703125
1782951212070307600,10.7623076171875,-0.960418701171875,-0.1770172119140625,-0.0726470947265625
1782951212080234500,10.772234375,-0.9605712890625,-0.175750732421875,-0.0716705322265625
1782951212090161700,10.78216162109375,-0.9643707275390625,-0.1768646240234375,-0.0720672607421875
1782951212100088600,10.792088623046874,-0.9730682373046875,-0.1757049560546875,-0.070556640625
1782951212110014700,10.8020146484375,-0.9779510498046875,-0.1734466552734375,-0.0718841552734375
1782951212119941400,10.81194140625,-0.9776458740234375,-0.175384521484375,-0.0705718994140625
1782951212129868500,10.82186865234375,-0.976776123046875,-0.1787109375,-0.06829833984375
1782951212139795500,10.83179541015625,-0.979705810546875,-0.17974853515625,-0.0700531005859375
1782951212149723600,10.8417236328125,-0.98681640625,-0.1778717041015625,-0.0726470947265625
1782951212159650600,10.851650634765624,-0.9949798583984375,-0.1806793212890625,-0.075927734375
1782951212169577500,10.861577392578125,-0.9973297119140625,-0.180389404296875,-0.07830810546875
1782951212179503600,10.871503662109374,-0.989349365234375,-0.1832275390625,-0.075897216796875
1782951212189430500,10.881430419921875,-0.977386474609375,-0.1843719482421875,-0.0708770751953125
1782951212199357400,10.891357421875,-0.965087890625,-0.184661865234375,-0.06805419921875
1782951212209284600,10.90128466796875,-0.953399658203125,-0.18438720703125,-0.064697265625
1782951212219211500,10.91121142578125,-0.952301025390625,-0.1846160888671875,-0.0651092529296875
1782951212229137700,10.9211376953125,-0.9574737548828125,-0.183929443359375,-0.0740814208984375
1782951212239064600,10.931064697265626,-0.9697265625,-0.1827545166015625,-0.0798797607421875
1782951212248991500,10.940991455078125,-0.9817047119140625,-0.18359375,-0.0828704833984375
1782951212258918400,10.95091845703125,-0.989532470703125,-0.182769775390625,-0.0826263427734375
1782951212268844500,10.960844482421875,-0.988861083984375,-0.1844482421875,-0.082489013671875
1782951212278771700,10.970771728515626,-0.987762451171875,-0.18701171875,-0.080108642578125
1782951212288698600,10.98069873046875,-0.9831390380859375,-0.1856689453125,-0.0789947509765625
1782951212298625500,10.99062548828125,-0.97454833984375,-0.18377685546875,-0.0759124755859375
1782951212308552400,11.000552490234375,-0.9691925048828125,-0.1823577880859375,-0.0727691650390625
1782951212318478600,11.010478515625,-0.970550537109375,-0.1829833984375,-0.0704345703125
1782951212328405500,11.020405517578125,-0.977447509765625,-0.1800689697265625,-0.07061767578125
1782951212338332700,11.030332763671876,-0.9843597412109375,-0.1802978515625,-0.0701141357421875
1782951212348259300,11.04025927734375,-0.985748291015625,-0.1775970458984375,-0.0688018798828125
1782951212358185500,11.050185546875,-0.9813232421875,-0.1774139404296875,-0.069976806640625
1782951212368112600,11.060112548828124,-0.9808197021484375,-0.1800384521484375,-0.0752105712890625
1782951212378039600,11.07003955078125,-0.976898193359375,-0.1801300048828125,-0.0783538818359375
1782951212387966700,11.079966796875,-0.976837158203125,-0.179595947265625,-0.077789306640625
1782951212397893600,11.0898935546875,-0.97723388671875,-0.1766204833984375,-0.0743865966796875
1782951212407819500,11.099819580078124,-0.974517822265625,-0.174072265625,-0.0713043212890625
1782951212417746400,11.109746337890625,-0.9684600830078125,-0.173675537109375,-0.0679931640625
1782951212427673600,11.119673583984374,-0.961334228515625,-0.1779937744140625,-0.0647125244140625
1782951212437600500,11.1296005859375,-0.954193115234375,-0.1807098388671875,-0.066558837890625
1782951212447526400,11.1395263671875,-0.95709228515625,-0.1832122802734375,-0.067962646484375
1782951212457453600,11.14945361328125,-0.9689178466796875,-0.182403564453125,-0.0727996826171875
1782951212467380500,11.15938037109375,-0.9857177734375,-0.184326171875,-0.0767059326171875
1782951212477307600,11.1693076171875,-1.0059051513671875,-0.184661865234375,-0.077789306640625
1782951212487234600,11.179234619140624,-1.0161590576171875,-0.18353271484375,-0.079071044921875
1782951212497160700,11.18916064453125,-1.01361083984375,-0.1843719482421875,-0.07891845703125
1782951212507087400,11.19908740234375,-0.995452880859375,-0.1852874755859375,-0.07720947265625
1782951212517014500,11.2090146484375,-0.970489501953125,-0.1898651123046875,-0.0756683349609375
1782951212526941400,11.21894140625,-0.94866943359375,-0.1909332275390625,-0.0716094970703125
1782951212536867600,11.22886767578125,-0.94012451171875,-0.1889190673828125,-0.0706939697265625
1782951212546794800,11.238794677734376,-0.9437255859375,-0.1850433349609375,-0.0697174072265625
1782951212556721400,11.248721435546875,-0.965057373046875,-0.1793212890625,-0.0719757080078125
1782951212566648600,11.258648681640626,-0.985076904296875,-0.17572021484375,-0.074127197265625
1782951212576574500,11.268574462890625,-0.9951629638671875,-0.1757659912109375,-0.077056884765625
1782951212586501600,11.278501708984376,-0.99798583984375,-0.1753997802734375,-0.075408935546875
1782951212596428500,11.288428466796875,-0.9924163818359375,-0.1768951416015625,-0.0757598876953125
1782951212606355700,11.298355712890626,-0.987701416015625,-0.1808624267578125,-0.076751708984375
1782951212616282400,11.308282470703125,-0.9867095947265625,-0.179931640625,-0.076873779296875
1782951212626208500,11.31820849609375,-0.9854278564453125,-0.1774139404296875,-0.0765228271484375
1782951212636135700,11.3281357421875,-0.9838104248046875,-0.17791748046875,-0.0744171142578125
1782951212646062600,11.3380625,-0.9812164306640625,-0.176666259765625,-0.074615478515625
1782951212655989800,11.34798974609375,-0.97418212890625,-0.1755828857421875,-0.07757568359375
1782951212665915400,11.357915283203125,-0.9636688232421875,-0.1788330078125,-0.076904296875
1782951212675842600,11.367842529296874,-0.9558563232421875,-0.1837310791015625,-0.0735015869140625
1782951212685769500,11.37776953125,-0.955780029296875,-0.187469482421875,-0.0737457275390625
1782951212695696600,11.387696533203124,-0.964599609375,-0.1881103515625,-0.0770263671875
1782951212705623600,11.39762353515625,-0.9749298095703125,-0.187347412109375,-0.0755615234375
1782951212715549400,11.407549560546874,-0.9836578369140625,-0.1865081787109375,-0.080230712890625
1782951212725476900,11.417476806640625,-0.9899749755859375,-0.1862640380859375,-0.0810699462890625
1782951212735403500,11.427403564453124,-0.9929656982421875,-0.186004638671875,-0.07818603515625
1782951212745330700,11.43733056640625,-0.9962310791015625,-0.18548583984375,-0.07525634765625
1782951212755256600,11.447256591796876,-0.9950103759765625,-0.1828765869140625,-0.075164794921875
1782951212765183700,11.457183837890625,-0.9898681640625,-0.180419921875,-0.0747528076171875
1782951212775110700,11.467110595703126,-0.981842041015625,-0.1829833984375,-0.07427978515625
1782951212785037800,11.477037841796875,-0.9744110107421875,-0.18524169921875,-0.0727691650390625
1782951212794964500,11.486964599609376,-0.96514892578125,-0.184906005859375,-0.0704803466796875
1782951212804890600,11.496890625,-0.962982177734375,-0.1829071044921875,-0.0685577392578125
1782951212814817800,11.50681787109375,-0.9642486572265625,-0.1799163818359375,-0.0680999755859375
1782951212824744700,11.51674462890625,-0.9729766845703125,-0.18157958984375,-0.0684051513671875
1782951212834671600,11.526671630859376,-0.983673095703125,-0.1820068359375,-0.0743560791015625
1782951212844597500,11.536597412109375,-0.987396240234375,-0.1829071044921875,-0.0783843994140625
1782951212854524700,11.546524658203126,-0.9918212890625,-0.183929443359375,-0.078033447265625
1782951212864451600,11.55645166015625,-0.99993896484375,-0.1821136474609375,-0.075042724609375
1782951212874378800,11.566378662109376,-0.99774169921875,-0.17681884765625,-0.074951171875
1782951212884305700,11.5763056640625,-0.986297607421875,-0.17919921875,-0.0707550048828125
1782951212894231600,11.5862314453125,-0.9740753173828125,-0.1822662353515625,-0.0653076171875
1782951212904158700,11.59615869140625,-0.9601287841796875,-0.18212890625,-0.06640625
1782951212914085600,11.606085693359375,-0.9547271728515625,-0.1804656982421875,-0.0689239501953125
1782951212924012500,11.616012451171875,-0.9547576904296875,-0.1829376220703125,-0.076263427734375
1782951212933938700,11.625938720703125,-0.9618682861328125,-0.1832733154296875,-0.0723114013671875
1782951212943865600,11.635865478515624,-0.968597412109375,-0.1831817626953125,-0.0726318359375
1782951212953792500,11.64579248046875,-0.9748687744140625,-0.186798095703125,-0.085113525390625
1782951212963719700,11.6557197265625,-0.9799957275390625,-0.1909637451171875,-0.0930938720703125
1782951212973645600,11.6656455078125,-0.9884185791015625,-0.1916351318359375,-0.09136962890625
1782951212983572700,11.67557275390625,-0.9942474365234375,-0.185333251953125,-0.0831756591796875
1782951212993499600,11.685499755859375,-0.9901123046875,-0.1783905029296875,-0.0651702880859375
1782951213003426600,11.695426513671874,-0.98382568359375,-0.1750030517578125,-0.0572509765625
1782951213013353500,11.705353515625,-0.9759368896484375,-0.17156982421875,-0.0571136474609375
1782951213023279600,11.715279541015626,-0.9674072265625,-0.1779022216796875,-0.0726318359375
1782951213033206800,11.725206787109375,-0.954803466796875,-0.190460205078125,-0.0962982177734375
1782951213043133700,11.7351337890625,-0.94873046875,-0.191162109375,-0.0806121826171875
1782951213053060600,11.745060546875,-0.951416015625,-0.1758880615234375,-0.048065185546875
1782951213062986500,11.754986572265626,-0.958709716796875,-0.162750244140625,-0.0484619140625
1782951213072913700,11.76491357421875,-0.9675140380859375,-0.1575164794921875,-0.0469207763671875
1782951213082840600,11.774840576171876,-0.9774169921875,-0.15606689453125,-0.047393798828125
1782951213092767700,11.784767822265625,-0.9879302978515625,-0.15936279296875,-0.0449981689453125
1782951213102694700,11.794694580078126,-0.99981689453125,-0.1619873046875,-0.0542144775390625
1782951213112620500,11.80462060546875,-1.014801025390625,-0.16522216796875,-0.0740814208984375
1782951213122547700,11.814547607421876,-1.019927978515625,-0.1660614013671875,-0.0643157958984375
1782951213132474600,11.824474609375,-1.0160369873046875,-0.1604766845703125,-0.0472259521484375
1782951213142401800,11.83440185546875,-1.009124755859375,-0.1561279296875,-0.060546875
1782951213152327400,11.844327392578125,-0.9934234619140625,-0.1615447998046875,-0.073516845703125
1782951213162254600,11.854254638671875,-0.98052978515625,-0.1642303466796875,-0.069305419921875
1782951213172181500,11.864181396484375,-0.9721832275390625,-0.1721343994140625,-0.083221435546875
1782951213182108700,11.874108642578125,-0.9653472900390625,-0.181732177734375,-0.1014862060546875
1782951213192035600,11.88403564453125,-0.9624481201171875,-0.18231201171875,-0.095489501953125
1782951213201961700,11.893961669921875,-0.959503173828125,-0.17864990234375,-0.0970001220703125
1782951213211888600,11.903888671875,-0.964630126953125,-0.1765289306640625,-0.0906829833984375
1782951213221815600,11.913815673828125,-0.9786376953125,-0.180389404296875,-0.0935516357421875
1782951213231742700,11.92374267578125,-0.9916839599609375,-0.1786956787109375,-0.085418701171875
1782951213241668600,11.933668701171875,-1.00531005859375,-0.1658935546875,-0.0691680908203125
1782951213251595800,11.943595703125,-1.0069732666015625,-0.1508026123046875,-0.0558929443359375
1782951213261522400,11.9535224609375,-0.9933319091796875,-0.1496734619140625,-0.052459716796875
1782951213271449600,11.96344970703125,-0.976318359375,-0.1602630615234375,-0.0481719970703125
1782951213281376500,11.97337646484375,-0.9578704833984375,-0.1602630615234375,-0.0364837646484375
1782951213291302700,11.983302734375,-0.946746826171875,-0.15216064453125,-0.0348052978515625
1782951213301229800,11.993229736328125,-0.9415283203125,-0.1479949951171875,-0.032318115234375
1782951213311156700,12.00315673828125,-0.9528656005859375,-0.144805908203125,-0.0300445556640625
1782951213321083600,12.013083740234375,-0.96246337890625,-0.141510009765625,-0.0322418212890625
1782951213331009500,12.023009521484376,-0.9765167236328125,-0.1502838134765625,-0.0541229248046875
1782951213340936700,12.032936767578125,-0.998077392578125,-0.158355712890625,-0.072784423828125
1782951213350863600,12.042863525390626,-1.0195465087890625,-0.1618804931640625,-0.078826904296875
1782951213360790800,12.052790771484375,-1.026336669921875,-0.1651153564453125,-0.0716094970703125
1782951213370717700,12.0627177734375,-1.0235595703125,-0.162384033203125,-0.0600738525390625
1782951213380643600,12.0726435546875,-1.017547607421875,-0.159423828125,-0.051544189453125
1782951213390570800,12.08257080078125,-1.0099029541015625,-0.16143798828125,-0.066864013671875
1782951213400497700,12.09249755859375,-1.0048370361328125,-0.1663665771484375,-0.0816192626953125
1782951213410424800,12.1024248046875,-0.9913330078125,-0.1723785400390625,-0.0834808349609375
1782951213420350500,12.1123505859375,-0.9681243896484375,-0.17462158203125,-0.088836669921875
1782951213430277600,12.122277587890625,-0.9507904052734375,-0.1776580810546875,-0.08038330078125
1782951213440204500,12.13220458984375,-0.94622802734375,-0.173492431640625,-0.070068359375
1782951213450131700,12.142131591796876,-0.9540863037109375,-0.1675262451171875,-0.0689544677734375
