time,seconds_elapsed,z,y,x
1782951201376678100,0.06867822265625,0.22476970937252044,0.07788987988829613,0.10648458113390952
1782951201386605300,0.078605224609375,0.17301263412833212,0.0926363442517817,-0.06792056679874658
1782951201396532000,0.088531982421875,0.039219665232300756,0.03326251039355993,-0.18938319256231187
1782951201406459100,0.098459228515625,-0.06187807176411152,-0.034032910244166846,-0.2816882955657318
1782951201416386000,0.108385986328125,-0.13021686397492885,-0.05105711028128862,-0.29592399739548564
1782951201426312200,0.118312255859375,-0.17482932816147803,-0.031471243062615395,-0.26591628754679114
1782951201436239400,0.1282392578125,-0.24050211603343485,0.05590937261804938,-0.17068492183312772
1782951201446166000,0.138166015625,-0.31854104900360103,0.13640402817726135,-0.10812584553491324
1782951201456093200,0.14809326171875,-0.31431027956604957,0.2127624607145786,-0.05988503478337079
1782951201466020000,0.15802001953125,-0.18927578666508196,0.23612594677582383,-0.0395730452472344
1782951201475946200,0.1679462890625,-0.017555530434846877,0.16751579027771948,-0.038037835036590695
1782951201485873200,0.177873046875,0.07966331930160522,0.0804293352380395,-0.009915537075698375
1782951201495800300,0.18780029296875,0.12229425428211688,0.06990560313612222,-0.036207952728308734
1782951201505727000,0.19772705078125,0.148924487054348,0.05685644420981407,-0.07707750405948609
1782951201515654100,0.207654052734375,0.10981588098108767,0.049897857243567705,-0.05359656563103199
1782951201525581000,0.2175810546875,0.06623217532038689,0.07438581729009747,-0.08106025355271995
1782951201535507200,0.227507080078125,0.07619827353954314,0.06509907963722944,-0.1158999501351267
1782951201545434000,0.23743408203125,0.0740565853357315,0.06086582598164677,-0.08773300931490957
1782951201555361000,0.247361083984375,0.08320727551877498,0.05191285032778978,-0.02772555372826755
1782951201565288200,0.2572880859375,0.08427753509879111,0.05237155388072133,0.0032095366310328243
1782951201575214000,0.267214111328125,0.0689671532422304,0.04650266184732318,0.027687267544493077
1782951201585141200,0.277141357421875,0.09652852938473223,0.06591667963042855,0.04361826551742851
1782951201595068200,0.287068115234375,0.12539455838501454,0.08272548335120082,0.05299238919280469
1782951201604995300,0.296995361328125,0.061546647852659224,0.06308189459592103,0.04636361870281398
1782951201614922000,0.306921875,-0.0347737917393446,0.07445055308938026,-0.009699190911278128
1782951201624848100,0.31684814453125,-0.0788847361445427,0.09631795537397266,-0.023123247564584015
1782951201634775000,0.326775146484375,-0.0917547391116619,0.10065262357741593,0.060287478104420006
1782951201644702200,0.3367021484375,-0.08535831607282161,0.10953618725687264,0.15074918173085897
1782951201654629000,0.346629150390625,-0.050853404402732845,0.13152633913829923,0.14225136596597732
1782951201664556300,0.356556396484375,0.011593991681933402,0.16190686435475946,0.14495872522853315
1782951201674482200,0.366482177734375,0.08712883287668227,0.13642828583568334,0.14493194681946187
1782951201684409000,0.3764091796875,0.12466390602290629,0.0875711698167026,0.08535378602817655
1782951201694336300,0.386336181640625,0.08697510361969471,0.06543605650663376,-0.031695845598727464
1782951201704263200,0.39626318359375,0.07925181589126587,0.07161825227290392,-0.1057999964032322
1782951201714190300,0.4061904296875,0.12361059757769106,0.09386837026476859,-0.09134524499531835
1782951201724117000,0.416116943359375,0.10370353558063507,0.06913549554646015,-0.04199899375252426
1782951201734044000,0.4260439453125,0.09550853868722915,0.06347220908775925,-0.010468312120251356
1782951201743970800,0.435970703125,0.04290566026866436,0.07887099988013506,0.04043364413194358
1782951201753898000,0.44589794921875,-0.017930208966135976,0.056282735975086685,0.03200447315648198
1782951201763825000,0.455824951171875,-0.0385252532273531,0.04817380992993712,0.013679675382189452
1782951201773751000,0.4657509765625,-0.014331892213225363,0.04778422609046101,0.0205085350215435
1782951201783678000,0.475677978515625,0.012531564792990684,0.03422551020681858,-0.01715169887430966
1782951201793604900,0.48560498046875,0.021782208219170568,0.01553790700212121,-0.08097034677956252
1782951201803531800,0.49553173828125,0.05538286452591419,0.017005641467124223,-0.10944427118971943
1782951201813459000,0.505458984375,0.11435469345450401,0.025035510926693677,-0.0625355492921546
1782951201823385000,0.515385009765625,0.03688800741434097,-0.01205532558336854,-0.05763729238919913
1782951201833312000,0.52531201171875,-0.05992986030578613,-0.010595774424821137,-0.05457490914389491
1782951201843239000,0.535239013671875,-0.03361526935398578,0.02273848603069782,-0.03938212578501552
1782951201853165800,0.545165771484375,0.10041092377603053,0.005910100826621055,0.0017205767149105666
1782951201863093000,0.555093017578125,0.10015373414456843,-0.019144553191959856,0.060158262234181165
1782951201873019000,0.565018798828125,0.03109013479053974,0.01866904463469982,0.028738895489275454
1782951201882946000,0.574946044921875,-0.029348844081163405,0.051796822732686994,-0.06267908594869077
1782951201892873000,0.584873046875,-0.09725918174684046,0.011633739170432091,-0.029766850297525523
1782951201902800000,0.5947998046875,-0.22017653636336326,-0.03504062598198652,0.008528831957653164
1782951201912726800,0.604726806640625,-0.3073842796951532,-0.01216273148059845,-0.007022665178403258
1782951201922654000,0.614654052734375,-0.27036884650886056,0.059320350105315445,-0.055826991564221676
1782951201932580000,0.624580078125,-0.13397300163805484,0.06385258670747279,-0.10390194422956556
1782951201942507000,0.634507080078125,0.02555880414843559,0.00995674586892128,-0.06886153744328767
1782951201952434000,0.644433837890625,0.17043956876993177,-0.017486264590919016,0.0031385172214359043
1782951201962360800,0.65436083984375,0.20314999823868274,0.01473901170939207,0.04525507293902337
1782951201972288000,0.6642880859375,0.1912818657904863,0.039661417650431394,0.03231474468205124
1782951201982214000,0.6742138671875,0.14243395599126815,0.09060264646708965,0.014763707759231328
1782951201992141000,0.68414111328125,0.09356500340402125,0.11436769906654953,-0.006043079556524753
1782951202002068000,0.69406787109375,0.07752338466346263,0.11207929586842655,-0.008394026596844196
1782951202011995000,0.703994873046875,0.03823591489195823,0.09787073777392506,-0.02383219955153763
1782951202021921000,0.713921142578125,-0.05405599983632564,0.0808843855291605,-0.05914535886459052
1782951202031848000,0.723847900390625,-0.046433249872922897,0.09892200039252638,-0.07271225805468857
1782951202041775000,0.733775146484375,0.020545359900593755,0.0861244781397283,-0.05737812999635934
1782951202051702000,0.743701904296875,0.08051087604165076,0.08569865394309163,-0.02520220926310867
1782951202061629200,0.753629150390625,0.12574702508449553,0.08265285650640726,-0.02039718360155821
1782951202071554800,0.763554931640625,0.12981120578348637,0.08909399546980858,-0.01636179060563445
1782951202081482000,0.77348193359375,0.08083294760286808,0.06807312701195478,-0.030962599420733747
1782951202091409000,0.783408935546875,0.05696808789074421,0.059871700377762314,-0.018545747048594057
1782951202101336000,0.793336181640625,0.01591419296860695,0.04867313775420189,-0.01068071276191622
1782951202111263000,0.803262939453125,-0.005147299760580063,0.044131987193226814,-0.012956219945847988
1782951202121188900,0.81318896484375,-0.05357026214599609,0.024752748462557792,-0.01244695524945855
1782951202131116000,0.823115966796875,-0.10285539431869983,0.0302662511870265,-0.014797171637415885
1782951202141043000,0.83304296875,-0.13448738090097903,0.03979161990135908,-0.04268785279951989
1782951202150969900,0.842969970703125,-0.12144669754207134,0.05138458866998553,-0.07290142395123839
1782951202160897000,0.85289697265625,-0.05710720410048961,0.022741408640146253,-0.047124154746532435
1782951202170823000,0.862822998046875,0.03773556415438652,0.018662322632968426,-0.014733531816676259
1782951202180749800,0.872749755859375,0.1067781207203865,0.028601532845199108,0.04520144305564463
1782951202190677000,0.882677001953125,0.11352291880548,0.04045505224615335,0.04197758563831448
1782951202200604000,0.89260400390625,0.06842705501616,0.029645342809706925,0.0327148133829236
1782951202210531000,0.902531005859375,0.014320201775431632,0.042415977055579424,0.03402838019952178
1782951202220457000,0.91245703125,-0.06832067203223705,0.0683129271171987,0.002409910685941577
1782951202230383900,0.9223837890625,-0.12578911066055298,0.0881409325286746,0.03110891255624592
1782951202240310800,0.932310791015625,-0.10297346774041652,0.11296718461886048,0.03299260741099715
1782951202250238000,0.942238037109375,-0.04032791873514652,0.11285144928470253,0.06309080855473875
1782951202260164900,0.952164794921875,0.06641980684697628,0.13862170422673226,0.0655787529129535
1782951202270091000,0.962091064453125,0.1367418818295002,0.11323708760142326,0.02977634877823293
1782951202280018000,0.972017822265625,0.16499533188939094,0.07215104397535324,0.031170506550371645
1782951202289944800,0.98194482421875,0.15075520961284636,0.055093233929574485,0.013615414506942033
1782951202299872000,0.9918720703125,0.130837626221776,0.05061769595071673,-0.03208915576525032
1782951202309799000,1.001798828125,0.109688455209136,0.04069426782950759,-0.029080986925214526
1782951202319725000,1.01172509765625,0.058251697960495945,0.023189590799063443,-0.06007562545202672
1782951202329651700,1.021651611328125,-0.008100888869166373,0.014428484455496072,-0.040106384938955304
1782951202339579000,1.031578857421875,-0.009372223979234694,0.0111518008723855,-0.030853622620925305
1782951202349505800,1.041505859375,0.02022621094882488,-0.02238601933121681,-0.022470336613804102
1782951202359433000,1.051432861328125,-0.035487492966651914,-0.05689399974122643,-0.022226590985804796
1782951202369359000,1.061359130859375,-0.17525544461905956,-0.05284589339420199,-0.05856478249765932
1782951202379286000,1.0712861328125,-0.2612128956288099,-0.010614040733873844,-0.1194258592389524
1782951202389213000,1.081212890625,-0.2054816560566425,-0.0012064531803131103,-0.12599800417087972
1782951202399139800,1.091139892578125,-0.11890753445327282,0.016662965509295462,-0.052517172896489495
1782951202409067000,1.10106689453125,-0.025358897662162778,0.020721154858916995,-0.022989903508499263
1782951202418993000,1.110992919921875,0.058846156722307204,0.061637394876033064,-0.02650324539169669
1782951202428920000,1.120920166015625,0.10079670822322367,0.06835559721514582,0.03192877757176757
1782951202438846700,1.1308466796875,0.17461013245284557,0.054354544391483066,0.09085304103158413
1782951202448774000,1.14077392578125,0.11457973438203334,0.06298121070042252,0.06361855875588954
1782951202458700800,1.15070068359375,-0.007259177348017692,0.11752134079188108,0.0006656243018805981
1782951202468627000,1.160626953125,-0.02571136436164379,0.14198372800573705,-0.04980148419700563
1782951202478554000,1.17055419921875,0.0055991351813077924,0.12224924609661102,-0.0029025165084749457
1782951202488481000,1.18048095703125,0.041458384069800375,0.1236168811880052,0.041556218421086664
1782951202498408000,1.190407958984375,0.09690379243791103,0.15272987068668006,0.009464505372568965
1782951202508334800,1.2003349609375,0.16533844623863697,0.11340046146959065,-0.03297748290710151
1782951202518261000,1.210260986328125,0.19621347697377203,0.03846080968901515,-0.00739748984016478
1782951202528188000,1.22018798828125,0.16411796453297137,0.019952216313034295,-0.01823116467408836
1782951202538115000,1.230114990234375,0.08044657863378524,0.021000264061242342,-0.04035020363219082
1782951202548042000,1.2400419921875,0.01584872651696205,0.014397504795342683,0.006136529993638396
1782951202557969000,1.249968994140625,-0.043885318955779073,-0.008129092050343751,0.039333427805081006
1782951202567895000,1.25989501953125,-0.11784312009215354,0.002237695924192667,0.0023729396764189
1782951202577822000,1.269822021484375,-0.16599194171130657,0.01924596773982048,-0.046775779700279234
1782951202587749000,1.2797490234375,-0.18283377091884612,-0.037477936131507156,-0.018446926316618917
1782951202597676000,1.289676025390625,-0.20202713168859482,-0.05342135519459843,-0.003804433784261346
1782951202607603000,1.29960302734375,-0.17044190685749053,-0.010446136821061372,-0.07244717737771571
1782951202617528800,1.30952880859375,-0.11212766505479813,0.0342202495098114,-0.08972491378448903
1782951202627456000,1.3194560546875,-0.007593523868918419,0.06193287069126963,-0.036180882058292625
1782951202637383000,1.3293828125,0.09458090244829655,0.08570552207529544,0.05113521701879799
1782951202647310000,1.33931005859375,0.1439829389989376,0.11423282064050436,0.07653108569048345
1782951202657237000,1.349237060546875,0.0881517461836338,0.1150108192756772,0.07499708105623722
1782951202667163000,1.359162841796875,0.07609364412128924,0.13841186086833476,0.02924808712042868
1782951202677090000,1.369090087890625,0.10204115532636641,0.12047171503007412,0.001867693568021059
1782951202687017000,1.379016845703125,0.10043605821728706,0.09375862627997994,0.002116188436374068
1782951202696943900,1.38894384765625,0.06811784293651581,0.1075916290603578,-0.029241511249169707
1782951202706871000,1.39887109375,0.08306640574336051,0.12052943656668066,-0.07575951679609716
1782951202716796700,1.408796630859375,0.06991641679108142,0.09604717560857534,-0.07357282040677965
1782951202726723600,1.4187236328125,0.06053717854917049,0.07618278370946645,-0.016966478500515223
1782951202736650500,1.428650390625,0.04420388338565826,0.09853986920714378,-0.0616794804520905
1782951202746577400,1.438577392578125,0.029388007047772405,0.07417465875744819,-0.07922207834012807
1782951202756504600,1.448504638671875,-0.014251812714338301,0.023367285453528164,-0.06509294215738773
1782951202766430700,1.4584306640625,-0.03768763335943222,-0.00474222609102726,-0.07919146400615572
1782951202776357600,1.468357666015625,-0.0512561399847269,0.01895692166537046,-0.0807136320721358
1782951202786284800,1.478284912109375,-0.06316460444331169,0.034380700768530364,-0.05946085455454886
1782951202796211500,1.48821142578125,-0.04669102402627468,0.027514906652271746,-0.037011414598301054
1782951202806138600,1.498138671875,-0.021409867775440215,0.015033318480849265,-0.02278904717415571
1782951202816064500,1.508064453125,-0.020237901386618615,-0.007062631862610578,-0.04288819767720997
1782951202825991700,1.51799169921875,-0.0035194062978029248,-0.014819091208279131,-0.03504354859143495
1782951202835918600,1.527918701171875,-0.033517069676518435,0.020939473784714936,-0.008633534441143273
1782951202845845500,1.537845458984375,-0.048052375507354736,0.07131722349971532,-0.006443696246668696
1782951202855771600,1.547771728515625,-0.04012684320509433,0.12231573546156287,0.01687931167371571
1782951202865698600,1.557698486328125,-0.011184241837263107,0.15166618697792292,0.04473959769755602
1782951202875625700,1.567625732421875,0.03335164998173713,0.15611746729835868,0.026539851075038312
1782951202885552600,1.577552734375,0.09242167858779429,0.1651740494571626,-0.032833398261293764
1782951202895479600,1.5874794921875,0.1492068111270666,0.1525099443256855,-0.09743862996697425
1782951202905405400,1.597405517578125,0.21742168469727038,0.10679814059510827,-0.10264036332853138
1782951202915332600,1.60733251953125,0.23059622356891632,0.08649199627786874,-0.0800121327392757
1782951202925259500,1.617259521484375,0.23596564164757727,0.07689780011102557,-0.06220766904465854
1782951202935186700,1.627186767578125,0.14682663799226284,0.033306349535286425,-0.042468584025651214
1782951202945113600,1.637113525390625,-0.07876900081038475,-0.010821838265657423,-0.04245104836896062
1782951202955039500,1.64703955078125,-0.2614899590045214,-0.013217062839120625,-0.04199409838169813
1782951202964966700,1.656966552734375,-0.32031098128557206,0.0216642809279263,-0.09122172821350395
1782951202974893600,1.6668935546875,-0.24665070179104803,0.009189560888707636,-0.09214235018976032
1782951202984820500,1.676820556640625,-0.10354103849530219,-0.03443929908797145,-0.04690707792975008
1782951202994747600,1.68674755859375,0.00970657050013542,-0.07567863357961177,-0.007664762474223971
1782951203004673500,1.696673583984375,0.014606617501378058,-0.06175502990633249,0.058109586076065894
1782951203014600400,1.706600341796875,-0.10372340932488441,-0.00043970659151673316,0.08024864490889012
1782951203024527600,1.716527587890625,-0.05797638815045356,0.05636617647483944,0.04788037994131446
1782951203034454500,1.72645458984375,0.022551439025998113,0.07180734510421752,0.09432838899195194
1782951203044381700,1.736381591796875,0.10193360329866409,0.08284048803299665,0.12235197581872344
1782951203054307600,1.7463076171875,0.18653671709001063,0.1064804529480636,0.08074410027563571
1782951203064234500,1.756234375,0.19679975242912767,0.10729571485370397,0.05833506539501249
1782951203074161400,1.766161376953125,0.14094868586957454,0.13439502644240856,0.062377180392667646
1782951203084088600,1.776088623046875,0.06104571259319782,0.1729923219926655,0.036874344215169545
1782951203094015500,1.786015380859375,0.04082768495082855,0.22415464621409772,0.044694224185869096
1782951203103941600,1.795941650390625,0.08982932400703429,0.2026616301998496,0.08601261526308954
1782951203113868500,1.80586865234375,0.12573825725615023,0.14031769448965786,0.10280286041386424
1782951203123795500,1.81579541015625,0.11088789412677287,0.11216916610896586,0.08313369882591068
1782951203133722600,1.82572265625,0.041241526448726654,0.09292071415111422,0.02802943204566836
1782951203143649500,1.8356494140625,-0.060201078462600706,0.06532207473814487,-0.015688275258243085
1782951203153575700,1.84557568359375,-0.13810381783246994,0.021409867775440215,-0.06129661861434579
1782951203163502300,1.85550244140625,-0.15982640481889246,0.00023877719193696973,-0.11487214145734906
1782951203173429500,1.865429443359375,-0.13223814066946507,-0.021305092226713895,-0.1379893976725638
1782951203183356400,1.8753564453125,-0.03596504735052585,-0.027695523916184902,-0.10846870415583253
1782951203193283600,1.88528369140625,0.08075111453831195,-0.016346300775557755,-0.10947649295888841
1782951203203209700,1.895209716796875,0.17343991962969302,-0.022351824800670144,-0.09655877839252353
1782951203213136600,1.90513671875,0.2548041976302862,-0.04698328497111797,-0.08643865865543485
1782951203223063600,1.9150634765625,0.31067572245597835,-0.00821501676812768,-0.055334641470015045
1782951203232990500,1.924990478515625,0.31777415628433225,0.002915595185756683,-0.015535788110271096
1782951203242917600,1.934917724609375,0.1732581333220005,-0.0193190329760313,0.0017902444176375865
1782951203252843500,1.944843505859375,-0.034707156243920324,0.010283785866200924,0.005936696572601795
1782951203262770700,1.954770751953125,-0.23087387146651744,0.0722311234742403,-0.0039127895295619965
1782951203272697300,1.964697265625,-0.33292028748989105,0.057378860648721455,0.0018692279379814863
1782951203282624500,1.97462451171875,-0.3385165000617504,0.06003872750774025,-0.005399374825507402
1782951203292550700,1.984550537109375,-0.2456061611741781,0.08619418237507342,-0.002282777174934745
1782951203302477600,1.9944775390625,-0.09262450768351554,0.08031301538199186,-0.0012822948954999446
1782951203312404700,2.00440478515625,0.10574702410697936,0.06351283335909247,0.0432610495775938
1782951203322331600,2.01433154296875,0.23292905043065545,0.04542962578833103,0.08531820325814186
1782951203332258600,2.024258544921875,0.280446588408947,0.044691666902601714,0.09474493390358985
1782951203342184400,2.034184326171875,0.22656536061763763,0.059250353609025475,0.08278839251957833
1782951203352111600,2.044111572265625,0.13855682229697702,0.062207303718477484,0.03552490236759186
1782951203362038500,2.05403857421875,0.06782499746978282,0.05283011130318045,-0.010540025649592279
1782951203371965700,2.063965576171875,-0.022035890719294546,0.01620294678211212,-0.05210187009386718
1782951203381892600,2.073892578125,-0.0705710813075304,0.007929039433598517,-0.08319434297196567
1782951203391818500,2.083818603515625,-0.08783551984131335,0.01520239143744111,-0.0743428549312055
1782951203401745700,2.09374560546875,-0.06694879915714264,0.005123626624047756,-0.06259542625322938
1782951203411672600,2.103672607421875,-0.06402151353359221,0.009251374078541994,-0.0429653545666486
1782951203421599700,2.113599853515625,-0.06773848823010921,0.0018225392520427703,-0.049923868467658755
1782951203431526700,2.123526611328125,-0.020960370442271233,0.006725216601788997,-0.05958141219429671
1782951203441452500,2.13345263671875,0.05990647943019867,0.01094400334060192,-0.058275298031792044
1782951203451379500,2.14337939453125,0.10576046811044215,-0.00298369198590517,-0.006853373026102781
1782951203461306600,2.153306640625,0.1542477279037237,0.056879825085401535,-0.008125292658060789
1782951203471233500,2.163233642578125,0.12666180184185505,0.08267784481719136,0.008651289293542504
1782951203481160700,2.17316064453125,0.009856208103895188,0.07317644150033593,-0.009870017433539033
1782951203491086600,2.183086669921875,-0.08082008812129497,0.08802315136790274,-0.036455388150736685
1782951203501013500,2.193013427734375,-0.12486673511862754,0.08778656613305211,-0.06155351598486304
1782951203510940700,2.202940673828125,-0.08673311155736446,0.07103840655833482,-0.0199542621396482
1782951203520867600,2.21286767578125,-0.00720832394361496,0.0545012593857944,-0.010194938538968563
1782951203530794500,2.22279443359375,0.06939969944059848,0.06574921410903334,-0.01547492476850748
1782951203540720400,2.232720458984375,0.12120412095785141,0.04628726553097367,-0.025373656839877367
1782951203550647600,2.2426474609375,0.09387772261500359,0.040272973677515984,-0.019413214065507053
1782951203560574500,2.252574462890625,0.07663081973791122,0.06946969593688845,-0.04989405785128474
1782951203570501600,2.262501708984375,0.1069219131052494,0.09395882502719759,-0.019747268325462936
1782951203580428500,2.272428466796875,0.12429039653539657,0.06675868341252207,0.012509426026418805
1782951203590354700,2.282354736328125,0.12494564557373523,0.047965866267681116,0.00011595452986657619
1782951203600281600,2.292281494140625,0.06425298420190811,0.05186228918433189,-0.023456205845996735
1782951203610208500,2.30220849609375,-0.004281622841954231,0.02449351300448179,-0.045004824505001303
1782951203620135400,2.312135498046875,-0.08772796781361103,0.04305193687155843,-0.07549173270538449
1782951203630061600,2.3220615234375,-0.1347673668861389,0.04274374770522117,-0.09438399163670837
1782951203639988700,2.33198876953125,-0.11447919661700724,0.008900514814257621,-0.09011931992955505
1782951203649915400,2.341915283203125,-0.0204781398832798,-0.00015650573596358297,-0.06177439219392836
1782951203659842600,2.351842529296875,0.055123336806893346,0.009835895968228578,-0.027166677736490962
1782951203669769500,2.36176953125,0.095044428306818,0.013701046963781117,-0.0015512480299919842
1782951203679695600,2.371695556640625,0.07233399932682513,0.029051468569785355,0.037032092060148715
1782951203689622500,2.38162255859375,0.04323883774578571,0.08282105268016457,0.040143282883241774
1782951203699549700,2.3915498046875,0.02629647077322006,0.09672902039289474,0.0009922259077429771
1782951203709476400,2.401476318359375,0.04587678503394126,0.06167977271303534,-0.022959069978818296
1782951203719403800,2.41140380859375,0.041627895417809486,0.04382277511358261,-0.059680269458889955
1782951203729330000,2.421329833984375,0.05376724602282047,0.03388824107646942,-0.0973538742929697
1782951203739256800,2.4312568359375,0.09261515533328056,0.04193842267170548,-0.07069200427345931
1782951203749184000,2.44118408203125,0.08245031967163086,0.0474796901859343,-0.013179434242472051
1782951203759111000,2.45111083984375,0.009392097723484039,0.04403700238615274,0.01383892106451094
1782951203769037800,2.461037841796875,-0.05072597863078117,0.05731675519794226,0.02412679858393967
1782951203778963700,2.470963623046875,-0.05920388411879539,0.07521013928502798,0.04620236372649669
1782951203788891000,2.480890869140625,-0.07750994065999985,0.064086249332875,0.04920841367468238
1782951203798817800,2.49081787109375,-0.07799334026277065,0.07970058257207274,0.03275492619760334
1782951203808745000,2.500744873046875,-0.04109247336685657,0.10877221714705228,0.020571955646574495
1782951203818671600,2.510671630859375,0.025799042645096776,0.0607154577255249,-0.013952902832999825
1782951203828597800,2.52059765625,0.08976035042405128,0.006486585540324449,-0.01605988504961133
1782951203838525000,2.53052490234375,0.061063832771778105,0.017953882102668284,0.0005436784226447343
1782951203848451800,2.540451904296875,0.027128829944133757,0.03923807767182588,-0.0312471519831568
1782951203858379000,2.55037890625,0.03326981691718101,0.0582156037338078,-0.028459420960769057
1782951203868306000,2.560305908203125,0.08676935191452503,0.047332390669733285,0.006431786613166332
1782951203878231800,2.570231689453125,0.16971826875805854,0.054584407624602316,0.05273761071413755
1782951203888158700,2.58015869140625,0.22220599636435506,0.036369390367716546,0.0656611704993993
1782951203898086000,2.5900859375,0.18321312562525272,0.020584961258620024,0.06805727185569703
1782951203908012800,2.6000126953125,0.034957331612706186,0.02817833899706602,0.04865275255329907
1782951203917940000,2.60993994140625,-0.1989735893368721,0.037857583098858595,0.01371456403248012
1782951203927865900,2.619865966796875,-0.41444004831314085,0.04916384388059378,-0.012710136230289935
1782951203937792800,2.629792724609375,-0.4727811781227588,0.09040215545892714,-0.03132270143739879
1782951203947720000,2.639719970703125,-0.3557195637971163,0.10016849332228302,-0.050422611770033834
1782951203957646800,2.649646728515625,-0.10153379032611846,0.08343728488236665,-0.009657835987582802
1782951203967573000,2.659572998046875,0.17379180180728435,0.0753803812853992,0.004382014476507902
1782951203977499600,2.669499755859375,0.37009003445506095,0.07438786311671138,-0.025882410079613328
1782951203987426800,2.6794267578125,0.32050211994349953,0.055134588853269814,0.010830679159238934
1782951203997353700,2.689353759765625,0.2078875481545925,0.06431055960804223,-0.02999028378985822
1782951204007281000,2.699281005859375,0.14409984337687493,0.094097941236943,-0.09025375996418297
1782951204017206800,2.709206787109375,0.0742529846906662,0.06136807641535997,-0.0684586922634393
1782951204027133700,2.7191337890625,0.03537643380761146,0.05340133531987667,-0.08414367958605289
1782951204037060900,2.729060791015625,0.008825111490488051,0.0571152412764728,-0.09239902836456894
1782951204046987800,2.73898779296875,-0.00189443544447422,0.08381079436987637,-0.10097937131375073
1782951204056914700,2.748914794921875,0.019120295533537862,0.04323240800499916,-0.06795695328637957
1782951204066840800,2.7588408203125,-0.04043897789418697,0.039112989987432956,-0.03570055119544267
1782951204076768000,2.76876806640625,-0.083833882984519,0.05374503419101238,-0.007417144388705492
1782951204086694700,2.778694580078125,-0.11528525230288506,0.08615311971232295,-0.036894729416072365
1782951204096621800,2.788621826171875,-0.043755555096268654,0.08321472817286849,-0.053082259433344006
1782951204106548700,2.798548828125,0.06115384914278984,0.051007572051137685,-0.05917436576336622
1782951204116475000,2.808474853515625,0.13712766627669334,0.03960252707004547,-0.029696926866471764
1782951204126401800,2.81840185546875,0.1823684914946556,0.03319149098396301,-0.05231507445313036
1782951204136329000,2.828328857421875,0.13764087649583814,0.06716404934301971,-0.04260587360449135
1782951204146255600,2.838255615234375,0.023439912298321722,0.092310327167809,-0.026173575045913455
1782951204156182800,2.848182861328125,-0.10305237819552421,0.12949673300683498,-0.020252879760041833
1782951204166109000,2.85810888671875,-0.20814824491739273,0.15590411680862307,-0.02037000333368778
1782951204176035800,2.868035888671875,-0.20931728869676589,0.13801497050523756,0.0024645634826272723
1782951204185963000,2.877962890625,-0.14094517873823642,0.120585696798563,0.014775836588442325
1782951204195889700,2.8878896484375,-0.00891629690527916,0.09339666109979153,0.0336943990048021
1782951204205815800,2.89781591796875,0.14756138200759886,0.07646437712982297,0.028492446447536346
1782951204215742700,2.90774267578125,0.18910159914195537,0.02864975590109825,0.01649498853124678
1782951204225670000,2.917669921875,0.1713794799685478,0.04002089861258864,0.007907704384624958
1782951204235596800,2.9275966796875,0.10522095440626143,0.0732856009632349,-0.018045067517459393
1782951204245524000,2.93752392578125,0.07310965987443924,0.08453969316631554,-0.013234452365338802
1782951204255449900,2.947449951171875,0.03083703681230545,0.06178016434758901,-0.005141600672155618
1782951204265376800,2.957376708984375,-0.02836041756570339,0.04367737529352307,-0.007512567587196826
1782951204275304000,2.967303955078125,-0.06614683512449264,0.04770370820015669,-0.00488959867246449
1782951204285230800,2.97723095703125,-0.06006663842797279,0.025247692372649906,-0.02739895212240517
1782951204295158000,2.987157958984375,-0.08353168516755104,0.007487579276412725,-0.03155592567138374
1782951204305083600,2.997083740234375,-0.10913608202338218,0.024448797079920766,-0.049329190510138864
1782951204315010800,3.0070107421875,-0.0692985771536827,0.04181684211865067,-0.030384763000160454
1782951204324937700,3.016937744140625,0.019175825113058088,0.05636266934350133,0.03192943515889347
1782951204334865000,3.026864990234375,0.0803653300911188,0.06534633239656687,0.0949168564043939
1782951204344791800,3.036791748046875,0.05735562590360641,0.08491860948130488,0.10754618248343467
1782951204354717700,3.0467177734375,0.04251519964635372,0.13458733414411544,0.04593209541775286
1782951204364644900,3.056644775390625,0.06400982309579849,0.11869023844078183,-0.017725626304745674
1782951204374571800,3.06657177734375,0.06447217991054058,0.06808861684203148,-0.04137728165760636
1782951204384499000,3.0764990234375,0.05249065021574497,0.06574994476139545,-0.05826338839828968
1782951204394425900,3.08642578125,0.020440730482339856,0.09028905047327279,-0.1385842217605561
1782951204404351700,3.096351806640625,0.043403088396787644,0.1225900223582983,-0.15045476536154745
1782951204414278700,3.106278564453125,0.06644318772256375,0.09219239987656473,-0.06873436739966272
1782951204424205800,3.116205810546875,0.08792319812476634,0.0685370912618935,0.032615006270259615
1782951204434132700,3.1261328125,0.04072656266391277,0.09214198486357927,0.05476305212713778
1782951204444059000,3.136058837890625,-0.0740261901974678,0.09574600070491432,0.020323241582512853
1782951204453986000,3.145986083984375,-0.12005787353217601,0.07764876460880041,-0.014199424939975142
1782951204463912700,3.15591259765625,-0.08393149814009666,0.05613894359022378,-0.05474924279749393
1782951204473839900,3.16583984375,-0.025963877817988396,0.007455576702952385,-0.09883695245757698
1782951204483766800,3.175766845703125,0.048509471625089645,-0.0019793372489511967,-0.09313742564171552
1782951204493693000,3.18569287109375,0.10171499211192131,-0.002762158189713955,-0.07387392224520445
1782951204503619800,3.195619873046875,0.1331768828243017,0.006586831044405698,-0.054395387858524914
1782951204513546800,3.205546630859375,0.13335107034742832,0.04378551184311509,-0.03121602619253099
1782951204523473700,3.2154736328125,0.10186579875946045,0.03309022256657481,-0.01779978751949966
1782951204533400800,3.22540087890625,0.07973989166915416,0.03828413794785738,0.014385887422785163
1782951204543327000,3.235326904296875,0.020019874721765515,0.03131605250090361,0.04764803249016404
1782951204553254000,3.24525390625,-0.00906651903092861,0.03856237036734819,0.03146525171324611
1782951204563180800,3.255180908203125,-0.006444353833794593,0.055892713744193315,0.031166926353797315
1782951204573107700,3.265107666015625,-0.0457096117734909,0.02917188007906079,0.042933936515077945
1782951204583035000,3.275034912109375,-0.11234276911020279,0.0007145780101418495,0.06739530081562697
1782951204592960800,3.284960693359375,-0.1822685382515192,0.013927110804617403,0.04665127653777599
1782951204602888000,3.294887939453125,-0.25733342384696006,0.04601151732951402,0.025089579201489687
1782951204612814800,3.30481494140625,-0.3331453284174204,0.09929828635901213,-0.03112761725671589
1782951204622741800,3.31474169921875,-0.24459493830502033,0.095225337831676,-0.0646809272903949
1782951204632668700,3.324668701171875,-0.045751697349548336,0.053922874975949525,-0.03820252407900989
1782951204642594800,3.3345947265625,0.16815233461558818,0.014749971494823693,0.02385258475244045
1782951204652521700,3.344521728515625,0.3373503788918257,0.009121756349503993,0.06339534445926547
1782951204662449000,3.354448974609375,0.3938496802270412,0.02976648497134447,0.02191299499198794
1782951204672375800,3.364375732421875,0.3103215021908283,0.04897299748361111,0.001661211210489273
1782951204682302700,3.374302734375,0.12488193268775939,0.08483195411115885,-0.004196282646059989
1782951204692228900,3.384228759765625,-0.02578852125108242,0.1182721591591835,-0.04006802568994462
1782951204702155800,3.39415576171875,-0.0881295343518257,0.1237836160570383,-0.06158785664588213
1782951204712083000,3.4040830078125,-0.07291793669462203,0.11449161770716308,-0.03331394831985235
1782951204722009300,3.41400927734375,0.0027834932386875152,0.09301379926204681,-0.02752228624112904
1782951204731935200,3.423935302734375,0.08347849367558956,0.05650704625025391,-0.04828399230614304
1782951204741862400,3.4338623046875,0.057223523956537244,0.007784224135428667,-0.06495119559913873
1782951204751789300,3.443789306640625,-0.012906243324279785,0.014849486346542835,-0.08052402778416871
1782951204761716500,3.453716552734375,-0.1039677394747734,0.05467983082309365,-0.07299407067075371
1782951204771643400,3.463643310546875,-0.16008008731901643,0.07202157237678766,-0.058523135313019156
1782951204781569300,3.4735693359375,-0.12270049699544906,0.06844415228143334,-0.02547711721435189
1782951204791496200,3.48349609375,0.009755670338869094,0.04383052002862096,0.024097426358982918
1782951204801423400,3.49342333984375,0.10922376030683517,0.013367577225714921,0.04003909185640513
1782951204811350300,3.503350341796875,0.14734043273329733,0.03997019133865833,0.029056071679666638
1782951204821277400,3.51327734375,0.10326806677281856,0.06516659191548824,0.005818111694231629
1782951204831203300,3.523203369140625,-0.0037777649730443954,0.06647036799043417,-0.03821874456144869
1782951204841130200,3.533130126953125,-0.10414894126057624,0.0876791602358222,-0.058976139777526256
1782951204851057400,3.543057373046875,-0.11153554438054561,0.10438947201818227,-0.07124371987208723
1782951204860984300,3.552984375,-0.05086451031863689,0.06835764304175973,-0.02457066989392042
1782951204870911200,3.5629111328125,0.013521744874119758,0.044908086132258176,0.024324951504543422
1782951204880837000,3.572837158203125,0.11534896518886088,0.090118954603374,0.025888547559455036
1782951204890764300,3.582764404296875,0.17502981916964053,0.09180179312378167,0.03022197365388274
1782951204900691200,3.592691162109375,0.16914543730616569,0.05203209279328584,0.05188903106078505
1782951204910618400,3.602618408203125,0.033361586853861806,0.06652239043861627,0.026185923070833086
1782951204920545300,3.612545166015625,-0.05146481429934501,0.12093714058473705,-0.06420191160179674
1782951204930471400,3.622471435546875,-0.037355624926090236,0.1126467204928398,-0.07733619152829051
1782951204940398300,3.6323984375,0.03971241718530655,0.027777210850268602,-0.008706234351173042
1782951204950325200,3.6423251953125,0.04597790732085705,-0.011704904710501432,0.000989741689711809
1782951204960252200,3.652252197265625,-0.008607669347524643,0.020671470498293636,-0.05698306626416742
1782951204970178300,3.66217822265625,-0.017976386195421218,0.03995236342102289,-0.06526004235260188
1782951204980105500,3.67210546875,-0.028005028256773947,0.014847586650401354,-0.031628406385704876
1782951204990032400,3.682032470703125,-0.05164893869459629,0.005758271265774965,-0.020877441399171946
1782951204999959300,3.691959228515625,-0.04868658175766468,0.03367518284767866,-0.06156308753080666
1782951205009886200,3.70188623046875,0.010318564918637274,0.027921295496076345,-0.07871697836220264
1782951205019812400,3.711812255859375,0.027581249886751175,0.009526099366694688,-0.006795286163315177
1782951205029739300,3.7217392578125,0.058495443588495254,0.02057429373413324,0.0327100641425699
1782951205039666400,3.73166650390625,0.09189970054030418,0.07084507594332098,0.023285671584680676
1782951205049593000,3.741593017578125,0.08953472497463226,0.08527268361598253,0.033039807553589345
1782951205059520300,3.751520263671875,0.062329322662949556,0.07032792020142078,0.02398008358962834
1782951205069446400,3.7614462890625,0.04816986440718174,0.10593334045931696,-0.034227629098668694
1782951205079373300,3.771373291015625,0.007861234894394874,0.09037190645113587,-0.12175262168608605
1782951205089300500,3.781300537109375,0.025510873353481293,0.09384469712823629,-0.1454249545007944
1782951205099227400,3.791227294921875,0.08417641281187534,0.11212532696723937,-0.13234561963193117
1782951205109154300,3.801154296875,0.13074001106619834,0.08154927917867899,-0.027375498181581494
1782951205119080200,3.811080078125,0.11515490392148495,0.07542261299192905,0.07528883054442703
1782951205129007400,3.82100732421875,0.05562368754446506,0.09692030518129467,0.0920470731217414
1782951205138934300,3.830934326171875,-0.014276362633705138,0.11124138373956084,0.0639578737128526
1782951205148861400,3.840861328125,-0.10065525392591952,0.07657441337555647,0.03571721006929874
1782951205158788000,3.8507880859375,-0.16729074935019014,0.056091889578104015,-0.015580723230540751
1782951205168714200,3.86071435546875,-0.1874836425513029,0.05307721793204546,-0.06822605255134404
1782951205178641400,3.870641357421875,-0.12435820107460022,0.01667597112134099,-0.07104797810427844
1782951205188568300,3.880568359375,0.0130319155305624,-0.007305208446830511,-0.04062288309372961
1782951205198495500,3.89049560546875,0.16224048022329807,-0.025823592564463614,0.0239534878436476
1782951205208422400,3.90042236328125,0.24518355184793472,-0.0327411168679595,0.0680914663862437
1782951205218348300,3.910348388671875,0.23354805911183357,-0.019228724344074726,0.08500774906948208
1782951205228275200,3.920275146484375,0.15079904875457287,0.02943023875430226,0.04988762811049819
1782951205238202400,3.930202392578125,0.06121171680986881,0.03311155761554837,0.04706329140476882
1782951205248129300,3.94012939453125,-0.013640402817726134,0.05269128735437989,0.03092420363910496
1782951205258055200,3.95005517578125,-0.07561258260607719,0.05542582688480615,0.0035663141794502733
1782951205267982300,3.959982421875,-0.12347089684605597,0.06287351254224777,0.02483421620093286
1782951205277909200,3.9699091796875,-0.17585633312165735,0.052739948801696294,0.05604870802350342
1782951205287836400,3.97983642578125,-0.2180219886779785,0.06063464757427573,0.04487915229871869
1782951205297763300,3.989763427734375,-0.2362526418954134,0.09819967746734619,-0.020172069608792663
1782951205307689500,3.999689453125,-0.16703239067494868,0.1284030925512314,-0.0761898710373789
1782951205317615400,4.009615478515625,-0.01383271051943302,0.07646613069549202,-0.08806348337829112
1782951205327542300,4.019542236328125,0.14789806661605834,0.02173690777271986,-0.06276018836088479
1782951205337469400,4.029469482421875,0.2826502359330654,0.014480360773205756,-0.032687340854108335
1782951205347396400,4.039396240234375,0.2972276273399591,0.030880583693087098,-0.013205883857980369
1782951205357323500,4.049323486328125,0.19831658673286437,0.08596358848959207,-0.0025820523824542758
1782951205367249200,4.059249267578125,0.08797346700727939,0.10381211052164435,-0.009618088499084115
1782951205377176300,4.06917626953125,0.0008019640326499939,0.08367854629233479,-0.03784180100783705
1782951205387103200,4.079103271484375,-0.06721300305128097,0.09217442582845688,-0.06424794270060956
1782951205397030400,4.089030517578125,-0.06725508862733841,0.08364668984934687,-0.06226378314606845
1782951205406957300,4.098957275390625,-0.03812310216724872,0.07555719915702938,-0.054667775059118864
1782951205416883200,4.10888330078125,0.007226444122195244,0.09247223973125218,-0.03848353297747671
1782951205426810400,4.118810302734375,0.04123568122982978,0.07563450217694044,-0.04198854542374611
1782951205436737300,4.1287373046875,0.04147416616082191,0.06908025822788477,-0.022517755952104923
1782951205446664400,4.13866455078125,-0.02096446209549904,0.05866875432878732,-0.03128134651370346
1782951205456590300,4.14859033203125,-0.06174713886082172,0.05890504730269312,-0.03850815596207976
1782951205466517200,4.158517333984375,-0.08379705810546874,0.06319675314724445,-0.03837897662445903
1782951205476444200,4.168444091796875,-0.09069032475054263,0.07411445300281047,-0.02895085773952305
1782951205486371300,4.178371337890625,-0.04984919579625129,0.09310045463219284,-0.03408537108376622
1782951205496298200,4.18829833984375,-0.0023123685956001282,0.09367679321542381,-0.01277794076949358
1782951205506224400,4.198224365234375,0.006101239484548568,0.09504457443729042,-0.01934117174260318
1782951205516151600,4.208151611328125,0.0677647917151451,0.09738543847501277,-0.062358256496489045
1782951205526078200,4.218078125,0.11123860726058482,0.07605375050231813,-0.08189853100776671
1782951205536005400,4.22800537109375,0.1251134033560753,0.05892199843749404,-0.03467676110565662
1782951205545932300,4.237932373046875,0.09283668912947177,0.0624058950304985,-0.05572101043909788
1782951205555858400,4.2478583984375,0.1136667111903429,0.07153919568732381,-0.08161408804319799
1782951205565785300,4.257785400390625,0.07610825716853141,0.09298588834181427,-0.02617401343733072
1782951205575712300,4.267712158203125,0.05792027404904365,0.09031301587074994,-0.033247532020136715
1782951205585639200,4.27763916015625,0.02850245638489723,0.07065729828625918,-0.06673362203650177
1782951205595566300,4.28756640625,-0.012023030748963355,0.05553308665156364,-0.06426328640021384
1782951205605492500,4.297492431640625,-0.05243745872378349,0.07525996977612376,-0.06893427388593554
1782951205615419400,4.30741943359375,-0.06709025345444679,0.09246770968660711,-0.02865055961869657
1782951205625346300,4.31734619140625,-0.045801966232061384,0.07798442630395293,0.03133073861338198
1782951205635273200,4.327273193359375,0.022643793484568596,0.07738280714899301,0.04325586194582283
1782951205645200100,4.3372001953125,0.05353869796395302,0.06768529673814773,0.04793415595516562
1782951205655126300,4.347126220703125,0.06224281342327594,0.07180924480035901,0.02952938827984035
1782951205665053400,4.357053466796875,0.05926993509232997,0.05082110956832766,0.018710472623631357
1782951205674980400,4.36698046875,0.04076104945540428,0.033412732519209384,0.026473653971031307
1782951205684907300,4.3769072265625,0.003968903630971909,0.05091667889729142,0.02430887715257704
1782951205694834200,4.386834228515625,-0.02958908257782459,0.05935059911310672,-0.02941694088131189
1782951205704760300,4.39676025390625,-0.01756020660996437,0.03203662186041474,-0.021693433957174418
1782951205714689300,4.406689208984375,-0.01812660832107067,-0.004675152204185724,-0.015033976067975163
1782951205724617200,4.4166171875,-0.004544073170423508,0.013942892895638942,-0.03561133854202926
1782951205734543000,4.426543212890625,0.010891396370530129,0.03607259937822819,-0.04829546354822814
1782951205744470000,4.436469970703125,0.05303133296370506,0.04406827430725097,0.005735328781604767
1782951205754397200,4.446397216796875,0.11942249823808669,0.010915946289896965,0.023863836798816918
1782951205764324000,4.456323974609375,0.16592179908454419,0.018480536325275895,0.024601211162656546
1782951205774251300,4.466251220703125,0.12029051324427127,0.021305822879076,0.004468304520472884
1782951205784177200,4.47617724609375,0.04910685299634933,0.021266952173411846,-0.04855871759429574
1782951205794104000,4.48610400390625,-0.04663023374974727,0.03709317459762096,-0.10299100339710712
1782951205804031200,4.49603125,-0.08447042732238769,0.035978783614933486,-0.12345387264601886
1782951205813958100,4.505958251953125,-0.07714461447894573,0.04455430425852537,-0.13021890980154274
1782951205823885300,4.51588525390625,-0.07817103491723537,0.04335428081899881,-0.0867691327188164
1782951205833811000,4.52581103515625,-0.10900398007631301,0.07172332008257508,-0.0018913667045533655
1782951205843738000,4.535738037109375,-0.053475569599866865,0.1348456928193569,0.0853616770736873
1782951205853665000,4.5456650390625,0.04049801460504532,0.13686024751216172,0.1186219224449247
1782951205863592200,4.55559228515625,0.11039105052053928,0.08740721142664551,0.12832673937939107
1782951205873519000,4.56551904296875,0.1326940677434206,0.041634179028123615,0.08938004586957395
1782951205883445200,4.5754453125,0.0672287851423025,0.010289923346042633,0.017027195711806414
1782951205893372200,4.5853720703125,0.02694704363644123,0.030390169827640055,-0.0374707757383585
1782951205903299000,4.595299072265625,0.014797171637415885,0.02999722498729825,-0.05081738324128091
1782951205913226200,4.605226318359375,0.01796761836707592,0.03204962747246027,-0.012483560932800173
1782951205923153200,4.615153076171875,0.047830257189273834,0.03895984525233507,0.0107123134765774
1782951205933079300,4.625079345703125,0.06972703169882297,0.031693507511168714,0.02645246505253017
1782951205943006000,4.635005859375,0.09796119253635406,0.02834799647554755,0.014557517662644386
1782951205952933000,4.64493310546875,0.1001245080500841,0.02108823460564017,0.0321470964975655
1782951205962860000,4.654860107421875,0.07717559413909912,0.028083208059519527,0.03791859257109463
1782951205972786200,4.6647861328125,0.004137830457091331,0.05398804916664958,0.04123516977317631
1782951205982713300,4.67471337890625,-0.10555530092716216,0.05007599028944969,0.03993753117807209
1782951205992640300,4.68464013671875,-0.1687310112863779,0.03358808908611536,0.01741882537789643
1782951206002567200,4.694567138671875,-0.18798866946399212,0.007064969950169324,-0.006854907396063208
1782951206012494000,4.704494140625,-0.14805997917950153,0.00019508418068289756,-0.022189327715337274
1782951206022420200,4.714420166015625,-0.11558102037906647,0.02234261858090758,-0.06720365070104599
1782951206032347100,4.72434716796875,-0.04244739510715007,0.04161459754481912,-0.11860168337449431
1782951206042274300,4.7342744140625,0.007963526225090027,0.049621378389745945,-0.1268484835203737
1782951206052201000,4.744200927734375,0.08317512681484222,0.06322846345975995,-0.1001663013651967
1782951206062128000,4.754128173828125,0.1675192974090576,0.05827317913994193,-0.06134177293032408
1782951206072054300,4.76405419921875,0.1638508380293846,0.03747384447827935,-0.06942556453421711
1782951206081981200,4.773981201171875,0.1635989090949297,0.06459273755028844,-0.06682173871137201
1782951206091908000,4.783908203125,0.14596271463930607,0.09185571526810526,-0.060237391884997486
1782951206101835300,4.793835205078125,0.11007540870010853,0.05067950914055109,-0.03567110590524971
1782951206111762000,4.803761962890625,0.05564473033249378,0.07453823137283325,-0.06581300006024539
1782951206121688000,4.81368798828125,0.022903321203589438,0.10013970561921597,-0.030044863521307703
1782951206131615200,4.823615234375,-0.039296822121739385,0.10891177174821495,0.0015151538033038377
1782951206141542100,4.833542236328125,-0.10073825603425503,0.11612637930214405,-0.008110387349873781
1782951206151469300,4.84346923828125,-0.09362170202732085,0.13128916938155888,-0.04672499936111271
1782951206161396200,4.853396240234375,-0.05748363619744777,0.10704670852869748,-0.04929404613152146
1782951206171322000,4.863322021484375,0.022348609930276868,0.0708127811089158,-0.0361138812366873
1782951206181249000,4.8732490234375,0.11568331170976161,0.06359641998931766,-0.02634067524112761
1782951206191176200,4.88317626953125,0.18647475776970385,0.057633858323097226,-0.01758680235594511
1782951206201103000,4.89310302734375,0.16094225710630417,0.07059329313933849,0.04704202942103147
1782951206211030300,4.9030302734375,0.06198971544504165,0.09556070726588368,0.05606368639692664
1782951206220956200,4.9129560546875,-0.05465396572947502,0.09081921182721853,0.023840528988465667
1782951206230883000,4.922883056640625,-0.12645780370235443,0.043007513207942244,-0.012269041399285197
1782951206240810200,4.932810302734375,-0.11162906788289546,-0.0012070377022027968,-0.07893376291804015
1782951206250737200,4.942737060546875,-0.055308045724034305,-0.04449965146183967,-0.1119357957445085
1782951206260664300,4.952664306640625,0.014407295536994933,-0.03355827846974134,-0.11527400025650858
1782951206270590000,4.96258984375,0.07056348252296447,-0.01319090548455715,-0.09455050731003284
1782951206280517000,4.97251708984375,0.06545066955387592,-0.007998597538471222,-0.041078737102448935
1782951206290444000,4.982444091796875,-0.010198737931251525,0.012925532546639442,-0.009313260333612561
1782951206300371200,4.99237109375,-0.07940145349502563,0.06343947586193681,-0.0438308122895658
1782951206310297300,5.00229736328125,-0.10496785642802715,0.10302300597056746,-0.06913491102457046
1782951206320224000,5.01222412109375,-0.053548050314188,0.11155541812479496,-0.041322409665212036
1782951206330151200,5.022151123046875,0.049289223825931545,0.08961232025548815,0.0007966302704066038
1782951206340078000,5.032078125,0.10863982293903827,0.04153437191545963,-0.005541559775173664
1782951206350005200,5.042005126953125,0.08761281700134277,0.04467719998583197,-0.014244798451662063
1782951206359931100,5.05193115234375,0.0593166968435049,0.07292875034958124,-0.026448373399302363
1782951206369858300,5.0618583984375,0.028877719438076016,0.08141849240586162,0.0034578123036772012
1782951206379785000,5.071784912109375,0.02607026080191135,0.07741276389583945,0.023111849387735126
1782951206389712100,5.081712158203125,0.031768180182576176,0.06543240324482322,0.03167348763644695
1782951206399639000,5.09163916015625,0.057504094463586806,0.05089373641312122,0.013767463263496756
1782951206409565200,5.101565185546875,0.07298749479949473,0.04636763729080558,0.003132014415413141
1782951206419492400,5.111492431640625,0.05399754764735698,0.045766748788207766,-0.020680311391875147
1782951206429419000,5.1214189453125,-0.04012918129265308,0.01825797961577773,-0.01589220033250749
1782951206439346200,5.13134619140625,-0.17347323737740517,0.020769816306233403,-0.05039017080515623
1782951206449272000,5.14127197265625,-0.13255319796800613,0.007882277682423592,-0.06449475706852972
1782951206459199200,5.15119921875,-0.041728433182835575,-0.04340805683284998,-0.00482749322168529
1782951206469126100,5.161126220703125,0.01968728176653385,-0.047617491221427916,0.04207037848830223
1782951206479053300,5.17105322265625,0.04097673803269863,-0.01699818881303072,0.006517053743824362
1782951206488980000,5.18097998046875,0.0401502240806818,0.034123072745651004,-0.02131203342415392
1782951206498906000,5.190906005859375,0.030634207716584205,0.06187748724222183,-0.03274674289114773
1782951206508833300,5.200833251953125,0.046778117787837976,0.08213643141686916,-0.03730513684786856
1782951206518760200,5.21076025390625,0.04679214631319046,0.09282382964789866,-0.0005387099865823984
1782951206528687400,5.220687255859375,0.12473521769344806,0.10288739689216017,0.01628456065095961
1782951206538614000,5.230614013671875,0.17174422162771225,0.11837693470790982,0.045211891384422775
1782951206548540200,5.2405400390625,0.17277181110978126,0.11180836997255682,0.02800005982071161
1782951206558467000,5.250467041015625,0.11509762077629565,0.10331935856863855,-0.055396966116502876
1782951206568394200,5.260394287109375,0.029095746102929112,0.10835077686458826,-0.11923172490634024
1782951206578321200,5.270321044921875,-0.00220247848033905,0.13343860250040887,-0.13855616470985113
1782951206588248300,5.280248291015625,-0.010346621969342232,0.15262567965984344,-0.0988162019304931
1782951206598174200,5.29017431640625,0.00011515081226825714,0.17571487882435322,-0.019096622397005557
1782951206608101000,5.30010107421875,0.05944412261545658,0.1574855407811701,0.0500268173854798
1782951206618028300,5.3100283203125,0.05280512299239635,0.11161372418329119,0.07361395613476633
1782951206627955200,5.319955078125,0.026223405537009237,0.08986001140624285,0.04655936047062278
1782951206637881000,5.329881103515625,-0.03616086218357086,0.06458528489619493,0.014435790979117154
1782951206647808000,5.33980810546875,-0.07111936284005642,0.024758593681454655,-0.01584324662424624
1782951206657735200,5.349735107421875,-0.09206336666941642,-0.008478051618486642,-0.009304273309558629
1782951206667662000,5.359662109375,-0.09782266084849833,-0.016179127515107392,-0.0361462491363287
1782951206677589200,5.36958935546875,-0.11194763231277464,0.010482523308694362,-0.05235292224548757
1782951206687515100,5.37951513671875,-0.02215864031612873,0.023610446559637784,-0.023653116657584905
1782951206697442000,5.389442138671875,0.11079320158064365,0.022293957133591173,-0.010730287524685264
1782951206707369200,5.399369140625,0.2326876428902149,0.017954612755030394,0.0036793460998684165
1782951206717296000,5.409296142578125,0.26110651264488693,0.00159881349876523,-0.012606895051524042
1782951206727223000,5.41922314453125,0.1913613607674837,0.0041834231644868845,0.012374474535137413
1782951206737149000,5.42914892578125,0.06562368803322315,0.04073912988454103,-0.01756093726232648
1782951206747076000,5.439076171875,-0.06773907275199889,0.05855930260494351,-0.04747932485975325
1782951206757003000,5.4490029296875,-0.1573667367070913,0.08088117065876722,-0.03953567237891257
1782951206766930200,5.45893017578125,-0.18302724766433237,0.06148527305424213,-0.041088747039809824
1782951206776856000,5.46885595703125,-0.1943453450143337,0.047591772258281706,-0.015057430008798837
1782951206786783000,5.478782958984375,-0.1378694245547056,0.053017304438352585,-0.01657937887907028
1782951206796710000,5.4887099609375,-0.0689414342790842,0.04777721182778477,-0.0372797832109034
1782951206806637000,5.498636962890625,-0.00044599020183086393,0.07153422725126146,-0.055733212333545085
1782951206816564000,5.50856396484375,0.08916530714035034,0.09930778483971953,-0.07253799746632575
1782951206826490000,5.518489990234375,0.17621522956192492,0.09518369064703583,-0.02696669818498194
1782951206836417000,5.5284169921875,0.22099662057459354,0.07345891170352697,0.038948447075486184
1782951206846344000,5.538343994140625,0.25341771170794963,0.05042758020609617,0.06331899128742516
1782951206856271000,5.54827099609375,0.22558394836485385,0.028343612561374902,0.0318304317638278
1782951206866198000,5.558197998046875,0.07279167996644974,0.03567278640568256,-0.006458820750564336
1782951206876124200,5.568124267578125,-0.09228139333426952,0.07005904013216495,-0.0755775843579322
1782951206886051000,5.578051025390625,-0.1808610095411539,0.07237652329429983,-0.11504472154527902
1782951206895978000,5.58797802734375,-0.20673077933490275,0.04413827080354094,-0.09836896961964667
1782951206905905000,5.59790478515625,-0.15669979723095892,0.04216360972970724,-0.08744432856664061
1782951206915831000,5.6078310546875,-0.045479310148954386,0.048845133320242165,-0.08599164554029702
1782951206925758200,5.61775830078125,0.10196166034936904,0.03641951311975717,-0.05787628877684474
1782951206935685000,5.62768505859375,0.1422001472353935,-0.0021450492046773432,-0.039431481352075935
1782951206945612000,5.637612060546875,0.13069558740258216,0.008949030131101607,-0.05363339051008224
1782951206955539000,5.6475390625,0.0876508109241724,0.06105930272713303,-0.09379201709292828
1782951206965465000,5.657465087890625,0.028790625676512718,0.044397652392089364,-0.06653430007211864
1782951206975392000,5.66739208984375,-0.056581134399771686,0.018069032914936542,-0.021267244434356687
1782951206985319200,5.677319091796875,-0.11928396655023098,0.03632467444315553,-0.07002404188401996
1782951206995246000,5.68724609375,-0.13987491915822028,0.03115779319927096,-0.09730740480273961
1782951207005173000,5.697173095703125,-0.11375614303946495,0.042350364473462104,-0.09435454634651541
1782951207015099100,5.70709912109375,0.009852116450667381,0.05051321266293526,-0.03308013956397771
1782951207025026000,5.717026123046875,0.1117237604290247,0.056452393453568214,-0.006407528954744338
1782951207034953200,5.726953125,0.16634090127944945,0.08595978909730911,0.04239982963837683
1782951207044880100,5.736880126953125,0.13982406575381756,0.0919612214691937,0.06333718453124165
1782951207054806000,5.746805908203125,0.05341419480144977,0.11464169370234012,0.04953165427967906
1782951207064733000,5.75673291015625,-0.05413140316009521,0.11790098775923251,0.041393356009572745
1782951207074660000,5.76666015625,-0.10169278028011322,0.12369126159846781,0.012362272640690206
1782951207084587000,5.7765869140625,-0.0949748702019453,0.11373963029608129,-0.012621435033529997
1782951207094514200,5.78651416015625,-0.034518355673551555,0.12343582553267478,-0.02476049337759614
1782951207104440000,5.796440185546875,0.07730769608616829,0.09101298083364963,-0.029335327012464402
1782951207114367000,5.806366943359375,0.14768763873577118,0.06971651030480862,0.0007535217810422181
1782951207124294100,5.816294189453125,0.13766308832764626,0.07608823729380965,0.002043123200163245
1782951207134221000,5.826220947265625,0.06347147843539715,0.07011296227648854,-0.043443566537648436
1782951207144147200,5.836147216796875,-0.011169044268131256,0.03536883502304554,-0.07668737223073839
1782951207154073900,5.846073974609375,0.0029255320578813553,0.035950726564228534,-0.07316387427970766
1782951207164001000,5.8560009765625,0.05880991636514663,0.04132482081800699,-0.051177521790564055
1782951207173928000,5.865927978515625,0.07417348971366881,0.01244958559796214,-0.026526991593465207
1782951207183855000,5.875855224609375,0.01603577352166176,-0.008393880466371774,-0.014541443310678004
1782951207193781200,5.88578125,-0.08222995491921901,0.019016250637173653,-0.022099822800979017
1782951207203708200,5.895708251953125,-0.12114976042211055,0.06193009421229362,-0.03588087619841099
1782951207213635000,5.905635009765625,-0.10475976663529872,0.054101300282776356,-0.009645780223608017
1782951207223562000,5.91556201171875,-0.048050037419795986,0.04757306755781173,0.01668072036169469
1782951207233489200,5.9254892578125,0.015963877329230308,0.0590446019038558,0.011813333521038293
1782951207243415000,5.9354150390625,0.0714379272699356,0.060290071920305485,0.016438874429836867
1782951207253342200,5.94534228515625,0.0899158332467079,0.07076046639978885,0.0623039690259844
1782951207263268900,5.955268798828125,0.046207039901614184,0.049397068114578724,0.051332420091331
1782951207273196000,5.965196044921875,-0.0030599720925092696,0.0902580708131194,0.02204049382917583
1782951207283122200,5.9751220703125,-0.0828320124655962,0.13757614069655535,-0.005842588548362255
1782951207293049000,5.985049072265625,-0.10229308426082134,0.13649667489677667,-0.0529364212218672
1782951207302976300,5.994976318359375,-0.06877133840918541,0.12542992195934055,-0.09939137146994471
1782951207312903200,6.004903076171875,0.01575987918972969,0.1392154323361814,-0.11782280795648693
1782951207322830000,6.014830078125,0.08665829275548458,0.11189648664742707,-0.04849463938213885
1782951207332756000,6.024755859375,0.13283376847505568,0.10824965457767248,-0.007315510645136237
1782951207342683100,6.03468310546875,0.1074181721895933,0.08627937644049524,-0.06422865347824991
1782951207352610000,6.044610107421875,0.09572539630830287,0.11363134761601686,-0.06631780777722597
1782951207362537200,6.054537109375,0.05959317569732666,0.11249825193285941,-0.02097542188093066
1782951207372463000,6.064463134765625,0.03997720560133457,0.07739756632670759,-0.014933292172476648
1782951207382390000,6.07439013671875,0.02421557284593582,0.02825476523414254,-0.043804947195947165
1782951207392317200,6.084317138671875,-0.008031915286183357,0.0004749240353703499,-0.07367050862759351
1782951207402244000,6.094244140625,0.015404489880800246,-0.012209493231773375,-0.0703165950898081
1782951207412171000,6.1041708984375,-0.00007481880187988281,0.00865808436051011,-0.05137450566738844
1782951207422097000,6.114096923828125,-0.013262801676988602,0.03349675754085183,-0.0003829349029809236
1782951207432024000,6.124024169921875,-0.054251814669370645,0.059693567331880325,0.04889204120188951
1782951207441951000,6.133950927734375,-0.01805821925997734,0.07541252998933196,0.0434318760998547
1782951207451878100,6.143878173828125,-0.020746435430645943,0.0115298404045403,0.010383519913628696
1782951207461805000,6.15380517578125,0.019275778356194494,0.03937397901117801,0.01075301081314683
1782951207471731000,6.16373095703125,0.0010305120915174483,0.06041399056091904,0.001103358132019639
1782951207481657900,6.173657958984375,0.008428221127390861,0.08009951876178384,0.0050001463748514646
1782951207491585000,6.1835849609375,0.007125906357169151,0.09997808531671762,0.04741707327850163
1782951207501512000,6.193511962890625,-0.028265725019574164,0.0897017521046102,0.10396861625760793
1782951207511438000,6.20343798828125,-0.10751111117005348,0.10419745657742023,0.08647190333791077
1782951207521365200,6.213365234375,-0.14424363576173782,0.10021467055156827,0.025257190853357314
1782951207531292000,6.2232919921875,-0.13871405868530273,0.08421499125659465,-0.010218246349319815
1782951207541219000,6.233218994140625,-0.03333703693449497,0.06836363439112901,-0.044577246742695566
1782951207551146000,6.24314599609375,0.09699088619947432,0.07695800586566329,-0.06413534917160868
1782951207561072000,6.253072021484375,0.23102000193893907,0.09302709713503718,-0.0401981548756361
1782951207570999000,6.2629990234375,0.29741350530087945,0.09841858091503382,0.013942089178040623
1782951207580926200,6.27292626953125,0.3033721214443445,0.0929017171896994,0.046750352998077865
1782951207590852900,6.282852783203125,0.2554185301363468,0.08469678342416882,0.036661870508268475
1782951207600780000,6.292780029296875,0.19029928449392317,0.07090572008937597,-0.012767200179770588
1782951207610706200,6.3027060546875,0.15943652871847153,0.04298720107227563,-0.056045858479291194
1782951207620633000,6.312633056640625,0.1419265909910202,0.01549099912047386,-0.06317322614118456
1782951207630560300,6.322560302734375,0.02053951468169689,-0.035311113486438984,-0.0420944900162518
1782951207640487000,6.33248681640625,-0.0834025058299303,-0.013371522748470305,-0.05492401484251022
1782951207650413000,6.3424130859375,-0.05915303071439266,0.025782091510295868,-0.10850187577307224
1782951207660340000,6.352340087890625,-0.061525605064630506,0.0020199615202844143,-0.08852649778015911
1782951207670267100,6.36226708984375,-0.10856208152770995,-0.015428893669694662,-0.11197028253600001
1782951207680194000,6.372194091796875,-0.21947043392062185,-0.0048820729531347746,-0.14078925752416252
1782951207690121200,6.382121337890625,-0.3317372151851654,-0.008877718460559845,-0.143359254142642
1782951207700047000,6.392047119140625,-0.3271434576541185,0.012875117533653974,-0.11992489480227231
1782951207709974000,6.40197412109375,-0.22421733618676662,0.03826104933321476,-0.08453479779548942
1782951207719901200,6.411901123046875,-0.08321370525956154,0.059762687045335765,-0.05104812325723469
1782951207729827800,6.421827880859375,0.030033903735876083,0.06985401907935739,-0.019536913510411976
1782951207739753700,6.431753662109375,0.151341485068202,0.07212810149118304,-0.021840368147194384
1782951207749680600,6.4416806640625,0.15725918467938899,0.06542772706970572,-0.051163054873794314
1782951207759607800,6.45160791015625,0.11499474492371081,0.0891373962201178,-0.05421119039803743
1782951207769534700,6.46153466796875,0.048774260041117665,0.09392214627861976,-0.036949089951813216
1782951207779462000,6.4714619140625,-0.013900515058636664,0.11756795641258358,-0.010531550082191825
1782951207789387800,6.4813876953125,-0.08342179505228996,0.13773659195527432,0.01956570121347904
1782951207799314700,6.491314697265625,-0.06417173565924167,0.1319293669812381,0.027590456106513738
1782951207809241900,6.501241943359375,-0.015649404552578926,0.12772256294116377,0.01368080789335072
1782951207819168800,6.511168701171875,0.0423071098536253,0.10830883741900324,-0.0009265402603894472
1782951207829096000,6.521095947265625,0.07280278588235378,0.07540785381421446,-0.029862565756961702
1782951207839021800,6.531021728515625,0.07358019999563693,0.05825988126695156,-0.06377170349098742
1782951207848948700,6.54094873046875,0.07634148140251636,0.04065072094872594,-0.10544446096383034
1782951207858875600,6.550875732421875,0.06677227354645729,0.020799773053079843,-0.13652517033889888
1782951207868802800,6.560802734375,0.09258768280446529,0.010411503899097441,-0.10445252731703221
1782951207878729000,6.57072900390625,0.09498422255218028,0.03630129356756806,-0.06355294617377222
1782951207888656000,6.58065576171875,0.10676350767314434,0.030202246040105817,-0.02348850068040192
1782951207898583000,6.5905830078125,0.06759352680146694,0.027862551046162844,0.004484671133384108
1782951207908509700,6.600509765625,0.00635083033144474,0.02666135856285691,0.010000511945411562
1782951207918436900,6.610436767578125,-0.031821956196427345,0.06214943605139851,0.03988748149126768
1782951207928362800,6.62036279296875,-0.024740473502874373,0.08342807866260409,0.0900886325303465
1782951207938290000,6.6302900390625,0.016799159109592437,0.0859219413049519,0.14483319915272294
1782951207948216800,6.640216796875,0.03088321404159069,0.08784969449713825,0.09378244554698467
1782951207958143700,6.650143798828125,0.04852466919422149,0.0652433104135096,0.02227839423827827
1782951207968070700,6.660070556640625,0.04050795147716999,0.03168970811888575,-0.00362462023794651
1782951207977996800,6.669996826171875,-0.006095978787541389,0.028139468291401862,0.03742518303096294
1782951207987924000,6.679924072265625,-0.09288637349009514,0.10109539890885352,0.06946721171885728
1782951207997851000,6.689850830078125,-0.1302495972007513,0.16609920147806406,0.10083448295034468
1782951208007778000,6.699778076171875,-0.1169476325571537,0.1481679695986211,0.08712064957022667
1782951208017703700,6.70970361328125,-0.0783919841915369,0.09850143689289688,0.04138772998638451
1782951208027630800,6.719630859375,-0.018334698113799095,0.05783054993897676,-0.01152450664229691
1782951208037557800,6.729557861328125,0.035434301474690434,0.06344941273406147,-0.06190079505257308
1782951208047485000,6.73948486328125,0.06214578278958797,0.05806128995493054,-0.09079999567009508
1782951208057411800,6.749411865234375,0.07771919949650764,0.02687339387834072,-0.08386398586183785
1782951208067337700,6.759337646484375,0.06782675103545188,0.03563274665623903,-0.08576112472005187
1782951208077265000,6.769264892578125,0.07316402041018008,0.06847440128922462,-0.09556735620237887
1782951208087191800,6.77919189453125,0.0583493131160736,0.07994798146188259,-0.1430782452441752
1782951208097119000,6.789118896484375,0.053743865147233005,0.07535363940894603,-0.1403470667146146
1782951208107046000,6.7990458984375,0.03745090199410915,0.07160553892180323,-0.17310710747875271
1782951208116971800,6.8089716796875,0.02312836213111877,0.04395604610443115,-0.191143480233103
1782951208126898700,6.818898681640625,0.007095511218905448,0.04839271337762475,-0.14637838276810944
1782951208136825900,6.828825927734375,-0.026766426372528074,0.05038227975964546,-0.09242555104531347
1782951208146752800,6.838752685546875,-0.01941021839082241,0.06080547409653663,-0.056746919420734045
1782951208156679000,6.848678955078125,0.02459901920557022,0.05664879280850291,-0.05490457948967814
1782951208166605800,6.858605712890625,0.05200491252541542,0.048012481888383626,-0.05014854406900704
1782951208176532700,6.86853271484375,0.07841887219846248,0.05866290910989046,-0.07064290443472564
1782951208186460000,6.8784599609375,0.10472001914680004,0.1013328609265387,-0.07503573256619274
1782951208196386800,6.88838671875,0.11905249588191509,0.10825038523003458,-0.060304831098020074
1782951208206313000,6.89831298828125,0.15586393092870712,0.09680866150036453,0.016475041721761226
1782951208216239900,6.908239990234375,0.1319669225126505,0.07261749244332313,0.09160181357227265
1782951208226166800,6.918166748046875,0.031825463327765466,0.04673237894997,0.07539177946224808
1782951208236093700,6.92809375,-0.0925040961742401,0.03354614964053035,0.053065527494251724
1782951208246019800,6.938019775390625,-0.21717384741604326,0.04785495323911309,0.006523410419374704
1782951208255946800,6.94794677734375,-0.2755260831415653,0.05548544811755418,0.0011366028144955635
1782951208265874000,6.9578740234375,-0.20231588550209997,0.05854688151478767,0.01273819328099489
1782951208275800800,6.96780078125,-0.08274608774781227,0.05294891537725925,0.06414243649952113
1782951208285727700,6.977727783203125,0.051255555462837214,0.05920739125013351,0.08344875612445175
1782951208295654000,6.98765380859375,0.16428864492475986,0.04877528295442462,0.14253405536487698
1782951208305580800,6.997580810546875,0.20987141544818877,0.05604483556598425,0.13619345416650175
1782951208315508000,7.007508056640625,0.20719255162775516,0.05348842908143997,0.12602847237437964
1782951208325435000,7.017434814453125,0.13550678707659244,0.03971621657758951,0.08400565935485065
1782951208335361800,7.02736181640625,0.028329437905550002,0.04312967828288674,0.034971944659948344
1782951208345287700,7.03728759765625,-0.05407412001490593,0.029154636683315038,-0.0073282970614731305
1782951208355214800,7.04721484375,-0.11755787340998648,0.03152794168591499,-0.036354631190001964
1782951208365141800,7.057141845703125,-0.1276531509667635,0.021625556352734564,-0.030493118745461106
1782951208375069000,7.06706884765625,-0.12195990776121615,0.020349983458966017,-0.009343582406640053
1782951208384994800,7.076994873046875,-0.14987491964697838,0.03175035226494074,0.016529256127029657
1782951208394921700,7.086921630859375,-0.09214227712452411,-0.0033801439575850962,0.001697963024303317
1782951208404849000,7.096848876953125,-0.05514087246358394,-0.006221797124296427,-0.05823511215187609
1782951208414775800,7.10677587890625,0.008943769434094428,0.018459639667719602,-0.08633351778052746
1782951208424703000,7.116702880859375,0.04649228658378124,0.02382394317984581,-0.142072429202497
1782951208434628600,7.126628662109375,0.03818330792188644,0.035571079596877095,-0.12297580680549144
1782951208444555800,7.1365556640625,0.0692073917388916,0.05530570763647556,-0.09958345997594296
1782951208454482700,7.146482666015625,0.08414017245471477,0.05895970009937882,-0.036165830619633195
1782951208464409900,7.156409912109375,0.10854454587101936,0.06594312924593687,0.01144552312195301
1782951208474336000,7.1663359375,0.11955343114137648,0.0988593104198575,0.0059423956610262394
1782951208484262700,7.1762626953125,0.11118424672484398,0.13110548337772487,-0.02912482606694102
1782951208494189800,7.18618994140625,0.10504442879557609,0.09907222251817584,-0.06526106526590883
1782951208504116700,7.19611669921875,0.10042378325760364,0.0659771776460111,-0.10179236819706856
1782951208514044000,7.2060439453125,0.07836918783783912,0.07452420284748076,-0.11638320360742509
1782951208523969800,7.2159697265625,0.04144961624145507,0.08214782959371805,-0.09518464049510657
1782951208533897000,7.22589697265625,-0.028166940820217132,0.07929580116346478,-0.09999299062490463
1782951208543823600,7.23582373046875,-0.06648351973295212,0.07082417928576469,-0.09760996794588864
1782951208553750800,7.245750732421875,-0.08678513400554656,0.08634586580544709,-0.056914677203074096
1782951208563677700,7.255677734375,-0.06492343080937862,0.07073562421947717,-0.03587546937093138
1782951208573603800,7.265603759765625,0.006996142497658729,0.07640314846187829,0.020886939879879354
1782951208583531000,7.275531005859375,0.05864449667036533,0.09082257282808423,0.04230323739610612
1782951208593457700,7.285457763671875,0.09690496148169041,0.09046542995348572,0.03371456500999629
1782951208603384800,7.295384765625,0.10203472558557987,0.05458601505979895,0.014462313659861684
1782951208613310700,7.305310791015625,0.03625321664214134,0.05098199921846389,-0.011265125053748487
1782951208623238000,7.31523779296875,-0.027481296643614768,0.06600625761002302,-0.06881408157236873
1782951208633164800,7.325164794921875,-0.06110884095728397,0.06938961643800139,-0.0828529821883887
1782951208643092000,7.335092041015625,-0.010556465327739715,0.05101370953097939,-0.05902421670295298
1782951208653018600,7.3450185546875,-0.0015355390042066574,0.060937137652188535,-0.01930456605926156
1782951208662944800,7.35494482421875,-0.04821721068024635,0.07104132916778326,-0.048456353198364374
1782951208672872000,7.364871826171875,-0.08354045299589634,0.08057415053620934,-0.07237908057756721
1782951208682798800,7.374798828125,-0.03693827629685402,0.08479176823124289,-0.06708521195314825
1782951208692726000,7.38472607421875,0.06774842510223389,0.07996683229282497,0.012760112851858138
1782951208702651600,7.394651611328125,0.13818857350647448,0.07925371558740735,0.03391907460615039
1782951208712578800,7.404578857421875,0.17599252672195434,0.08058554871305823,-0.013486819691210985
1782951208722505700,7.414505615234375,0.18453472961783407,0.07318783967718481,-0.04268675682097673
1782951208732433000,7.424432861328125,0.12045827102661132,0.05068871536031365,-0.049283597802743315
1782951208742359800,7.43435986328125,0.04758066634237766,0.023592472511529922,-0.07798179595544934
1782951208752285700,7.44428564453125,0.0038712884753942488,0.017320844896137715,-0.09987908192165196
1782951208762212900,7.454212890625,-0.051124038037657735,0.02184066040813923,-0.07250782152377068
1782951208772139800,7.464139892578125,-0.08172960418164729,0.0074279580436646935,-0.04257482087910175
1782951208782067000,7.47406689453125,-0.0704664518892765,0.03763736447691917,-0.02163841583430767
1782951208791992800,7.483992919921875,-0.0455529599070549,0.0535980269357562,0.012376155035570264
1782951208801919700,7.493919677734375,0.003441664886474609,0.05594985075891017,0.04607216147556901
1782951208811846700,7.5038466796875,0.009385667982697486,0.04517959655001759,0.04732946806028485
1782951208821773800,7.51377392578125,-0.010686229187250137,0.042074762402474875,0.010741028114408253
1782951208831700700,7.52370068359375,-0.06371639310717582,0.06510726294368505,-0.003458250695094466
1782951208841627000,7.533626953125,-0.06549041704237461,0.1063609182216227,0.03009403642527759
1782951208851553800,7.5435537109375,-0.03518354158401489,0.1152390750735998,0.040852965522557495
1782951208861480700,7.553480712890625,0.03612286826074123,0.08888590567708014,0.044195553948730225
1782951208871407900,7.563407958984375,0.0917547391116619,0.06365925609245895,0.02632379717156291
1782951208881333800,7.573333740234375,0.09988193146586417,0.06936915817186236,-0.002218698962777853
1782951208891261000,7.583260986328125,0.08600070562958717,0.06435775975063443,-0.01510134221576154
1782951208901187800,7.593187744140625,0.009874328282475472,0.07842530193924903,-0.013740136865153909
1782951208911115000,7.603114990234375,-0.010850479838252066,0.09526873858198523,-0.0008292904309928417
1782951208921041700,7.613041748046875,-0.013100889113545417,0.07170446925163268,-0.03808116272166371
1782951208930967800,7.6229677734375,-0.020184125372767446,0.034367110634595154,-0.03712130471356213
1782951208940894700,7.632894775390625,-0.031157354807853695,0.027692455176264046,-0.08695267259217798
1782951208950822000,7.64282177734375,0.004231353959441185,0.04233604368716478,-0.11104798005931078
1782951208960748800,7.652748779296875,0.049452305433154105,0.03243511965870857,-0.07364552031680942
1782951208970674700,7.6626748046875,0.07966682643294334,0.03206087951883674,-0.038458617731928824
1782951208980601900,7.672601806640625,0.07295651513934134,0.027721973531693218,-0.028889336810633538
1782951208990528800,7.68252880859375,0.042564884006977076,0.04512728184089064,-0.02008409906439483
1782951209000456000,7.6924560546875,-0.031135142976045607,0.04580167397111654,-0.051397375086322424
1782951209010382800,7.7023828125,-0.09762684601545334,0.04302241851612925,-0.07929565503299235
1782951209020308700,7.712308837890625,-0.12965046226382254,0.05636573808342218,-0.11535137634165585
1782951209030235600,7.722235595703125,-0.062198389759659765,0.08878405273780227,-0.10880648474283516
1782951209040162800,7.732162841796875,0.07251637015640736,0.11461977413147688,-0.07167531622238457
1782951209050089700,7.74208984375,0.18101649236381054,0.11076222192049026,-0.027727015032991766
1782951209060015900,7.752015869140625,0.21945757443904876,0.1123820782072842,0.013974164816737173
1782951209069942800,7.76194287109375,0.2252630458474159,0.13812266866341233,0.060678559781238435
1782951209079869700,7.77186962890625,0.1547884106516838,0.1280880352526903,0.11251140367537736
1782951209089796900,7.781796875,0.04982230778932571,0.1082167752213776,0.0847810276415199
1782951209099723800,7.791723876953125,-0.0848228940218687,0.08958031768202782,-0.0050366059277206655
1782951209109650000,7.80164990234375,-0.1697375579804182,0.08082271846979856,-0.07540887672752142
1782951209119576800,7.811576904296875,-0.14447861356139183,0.05573416218161582,-0.08346234625838697
1782951209129503700,7.821503662109375,-0.0012158055305480956,0.042015871822088956,-0.04890555827058851
1782951209139430700,7.8314306640625,0.09593699323236941,0.010207798020541668,-0.018160583655908703
1782951209149356800,7.841356689453125,0.14886369677782058,0.025425825418531892,0.006347907721996307
1782951209159284000,7.851283935546875,0.11747311773598193,0.033159780671447515,-0.01519976108893752
1782951209169211000,7.8612109375,0.04960545016825199,0.02562441673055291,-0.026374285249784586
1782951209179137800,7.8711376953125,-0.004698971471190453,0.012727525756508111,-0.018467603778466582
1782951209189063700,7.881063720703125,-0.00808452225625515,0.03478533604666591,-0.005013809574022889
1782951209198990800,7.890990966796875,0.012363222488760947,0.01021422776132822,0.011349150075390934
1782951209208917800,7.900917724609375,0.0040413843452930445,0.01593216701671481,-0.011920593287795782
1782951209218845000,7.910844970703125,-0.02265139226913452,0.014445727851241826,-0.01939765117019415
1782951209228771800,7.920771728515625,-0.06850947260260581,0.01662964776158333,-0.02336962354108691
1782951209238697700,7.93069775390625,-0.13307166888415814,-0.004197743950784206,-0.007759893411770463
1782951209248625000,7.940625,-0.19420096810758114,0.009787965173274278,-0.023231895570829508
1782951209258551800,7.9505517578125,-0.18827099353671073,0.024118103820830582,-0.05520348937101662
1782951209268479000,7.96047900390625,-0.11919687278866767,0.03277764948606491,-0.0662896776612848
1782951209278404600,7.970404541015625,-0.016022914040088654,0.04467252381071448,-0.04411430540606379
1782951209288331800,7.980331787109375,0.1542383755534887,0.05310439819991588,-0.0076456924475729465
1782951209298258700,7.9902587890625,0.3062497227072716,0.03612038404271006,0.012183993464335798
1782951209308185900,8.000185791015625,0.334093422922492,0.029625469065457582,0.011264759727567434
1782951209318112800,8.01011279296875,0.2743547012746334,0.024374562799930572,0.0019414163913577794
1782951209328039000,8.020038818359374,0.1449719500362873,0.03342237713038921,-0.029128040937334298
1782951209337965800,8.0299658203125,0.04422024999856949,0.04365165633037686,-0.050735769372433424
1782951209347892700,8.039892822265625,-0.030925299617648123,0.05090528072044253,-0.05414360505454242
1782951209357820000,8.04981982421875,-0.08577917183339595,0.046748599432408805,-0.04280110391564667
1782951209367745800,8.059745849609374,-0.1350596278309822,0.04016001482233405,-0.06426672046631575
1782951209377673000,8.0696728515625,-0.1619640013694763,0.053568070188909765,-0.10292268740125
1782951209387599600,8.079599609375,-0.15801555600464343,0.05554550774171948,-0.11461699765250086
1782951209397526800,8.08952685546875,-0.08604396024942397,0.051271191423386334,-0.08925948822982609
1782951209407453700,8.09945361328125,-0.010231471157073974,0.06448781587108969,-0.06414594363085925
1782951209417379800,8.1093798828125,0.07382628371119498,0.06691358171328902,-0.02246229943782091
1782951209427307000,8.11930712890625,0.13608312565982342,0.07978826085552573,-0.013053542840480804
1782951209437234000,8.12923388671875,0.14451543844044207,0.09774199682772158,-0.02114836729504168
1782951209447160800,8.139160888671874,0.11186053855121135,0.08709668417274952,-0.01126622103229165
1782951209457086700,8.149086669921875,0.08276713053584098,0.0906840411402285,-0.03530139581002295
1782951209467014000,8.159013916015626,0.08416881402730941,0.12158303727284073,-0.03693564594835043
1782951209476940800,8.16894091796875,0.04761164600253105,0.12473434091061353,-0.029521131908148524
1782951209486868000,8.178867919921874,0.0264952082157135,0.09311272959187626,-0.07639058124125003
1782951209496793900,8.1887939453125,0.028215456137061116,0.07182955693602562,-0.08266564292274416
1782951209506720800,8.198720703125,0.06108019938468933,0.0390194664850831,-0.06789587074890732
1782951209516648000,8.20864794921875,0.06456979506611824,0.030659342157840726,-0.03760477738156914
1782951209526574800,8.218574951171876,0.059201546031236646,0.06797478120401501,-0.034229967186227436
1782951209536501800,8.228501708984375,0.05372983662188053,0.06414923156648875,-0.040527386830002066
1782951209546427600,8.238427734375,0.05157470441460609,0.029987434245645997,-0.031900574390590186
1782951209556354800,8.248354736328125,-0.007750175735354423,0.04273410309404135,-0.050876127691194414
1782951209566281700,8.25828173828125,-0.0710328536003828,0.05283054969459772,-0.09806092658378184
1782951209576209000,8.268208984375,-0.09357435575425624,0.048802317091822624,-0.10042831330224872
1782951209586134800,8.278134765625,-0.03939969797432422,0.037612668427079915,-0.07184855389744042
1782951209596061700,8.288061767578125,-0.013490180692076682,0.006432078874111175,-0.05552884886786341
1782951209605988900,8.29798876953125,0.021861118674278257,0.019181816462427375,-0.047214536443725225
1782951209615915800,8.307915771484375,0.03752162914276123,0.04887772041559219,-0.06579590279497206
1782951209625842700,8.3178427734375,0.05599485894441604,0.0334108328230679,-0.045421077155694364
1782951209635768800,8.327768798828124,0.03979600381553173,0.07703662405982613,-0.040839667649567125
1782951209645696000,8.337696044921875,0.013411270236968994,0.11575403885841369,-0.029780148170515892
1782951209655622700,8.34762255859375,-0.02720481778979301,0.12287307708337902,-0.0014268179327249525
1782951209665549800,8.3575498046875,-0.0451432100623846,0.09894187413677573,-0.007590674324706196
1782951209675475700,8.367475830078124,0.03350479471683502,0.08018675865381955,-0.021635566290095446
1782951209685403000,8.37740283203125,0.095680388122797,0.06293634864538908,0.0014325900863856077
1782951209695329800,8.387329833984374,0.11937982814013957,0.053412587366253136,0.019807620210573074
1782951209705256700,8.397256591796875,0.16440379573702812,0.06488163749426602,0.05408865999691188
1782951209715182800,8.407182861328126,0.15085457833409308,0.07618702149316668,0.10219846477992832
1782951209725109500,8.417109619140625,0.1058323643028736,0.07560746803954244,0.08101612215004861
1782951209735036700,8.42703662109375,0.08553075003027916,0.08295783080235124,0.08725538186579943
1782951209744963600,8.436963623046875,0.09226268863379955,0.06969912077859043,0.07831862669438124
1782951209754890800,8.446890869140624,0.09064297847747803,0.0009903262116014956,0.03257730460837483
1782951209764816600,8.456816650390625,0.032387188863754274,-0.026756489500403404,0.019645342320948837
1782951209774743600,8.46674365234375,-0.06573182458281517,-0.028087299712747333,0.004379822519421577
1782951209784670500,8.47667041015625,-0.1588017379462719,-0.02107040668800473,-0.01909947194121778
1782951209794597600,8.48659765625,-0.22870295716822145,-0.015447744500637054,-0.01697086241468787
1782951209804523500,8.4965234375,-0.195997203874588,0.015537760871648787,-0.003776084472611546
1782951209814450400,8.506450439453126,-0.10950725342333316,0.017176614119857547,0.0028192221391946074
1782951209824377600,8.516377685546875,-0.02278641682565212,0.005774930139631033,0.0018802607886493205
1782951209834304500,8.526304443359376,0.06230886439681053,-0.021708120069652795,0.005297594951465726
1782951209844230700,8.536230712890625,0.10979776080250739,-0.020288754791021345,-0.05282689643278718
1782951209854157600,8.546157470703125,0.06455576654076575,-0.013921265585720538,-0.1194252747170627
1782951209864084500,8.55608447265625,0.02467792966067791,0.017184943556785584,-0.1639385893780738
1782951209874011400,8.566011474609375,-0.003261632144451141,0.007861234894394874,-0.19598200630545615
1782951209883938600,8.5759384765625,-0.02185761154294014,0.017711597779393195,-0.1955650960676372
1782951209893864700,8.58586474609375,0.030647651720046996,0.04005903866589069,-0.18521693972833453
1782951209903791600,8.59579150390625,0.06357844594120979,0.06640110214650631,-0.20028496419638395
1782951209913718500,8.605718505859375,0.11282733775675297,0.09092091863602399,-0.1542727162145078
1782951209923645400,8.6156455078125,0.14792787723243236,0.13347688868418336,-0.09340053355731069
1782951209933571600,8.625571533203125,0.15172025525271893,0.13735621433556078,-0.011911460133269429
1782951209943498500,8.63549853515625,0.12691080816686154,0.12288052973747253,0.06947093804590404
1782951209953425700,8.64542578125,0.014526538002490997,0.11050430163666605,0.09836816590204835
1782951209963352600,8.6553525390625,-0.10301146166324615,0.10907383044213056,0.012608064095303415
1782951209973279500,8.665279541015625,-0.1738198588579893,0.12286372473314404,-0.04619483800716698
1782951209983205600,8.67520556640625,-0.16029402233064174,0.11850333756655454,-0.07069653431810438
1782951209993132500,8.685132568359375,-0.09317571182548999,0.0967624842710793,-0.05195018666349351
1782951210003059700,8.695059814453124,-0.016965163326263428,0.07792392828837037,0.0030055384915322063
1782951210012986600,8.704986572265625,0.07812953386306762,0.07188420973271131,0.03761157244853675
1782951210022912500,8.71491259765625,0.18685060534477232,0.05821282725483179,0.054425782996788616
1782951210032839400,8.72483935546875,0.21757482943236828,0.04150061577633023,0.08324256602786481
1782951210042766600,8.7347666015625,0.17719722633659837,0.03652911097407341,0.07540653863996268
1782951210052693500,8.744693603515625,0.08685586115419865,0.06277867386564612,0.02912373008839786
1782951210062619400,8.754619384765626,-0.0037228199154138563,0.05775543887615203,-0.006943243266642093
1782951210072546600,8.764546630859375,-0.08446399758160114,0.03786898127570748,-0.03170841281935573
1782951210082473500,8.774473388671876,-0.11765022786855697,0.02124678616821766,-0.06763093620240689
1782951210092400600,8.784400634765625,-0.16050094307959079,0.029100276147574183,-0.07083411615788936
1782951210102327600,8.79432763671875,-0.19390695359706878,0.025548428884893653,-0.03592157353498041
1782951210112253700,8.804253662109375,-0.18452888439893722,0.011494915221631527,-0.02653963187932968
1782951210122180400,8.814180419921875,-0.1360965696632862,0.010987696351855992,0.0020061521906405686
1782951210132107500,8.824107421875,-0.01931611036658287,0.04934694536253809,-0.04763736496567726
1782951210142034400,8.834034423828125,0.14246727373898027,0.05937953294664621,-0.08290895015932619
1782951210151960600,8.843960693359374,0.25951310597360133,0.05124269598126411,-0.05654876650013029
1782951210161887700,8.8538876953125,0.3405868765950203,0.06381634635031223,-0.02645246505253017
1782951210171814700,8.863814697265624,0.37218846803903577,0.08452668755427002,-0.014295432660356162
1782951210181741600,8.873741455078125,0.2897819875091314,0.07682999557182192,0.006438289419189095
1782951210191668500,8.88366845703125,0.1754623653680086,0.07766410830840469,0.008842135690525174
1782951210201594600,8.8935947265625,-0.003159340813755989,0.088032942109555,-0.040750162735208866
1782951210211521500,8.903521484375,-0.1865384706556797,0.07790420067459344,-0.04800510229952633
1782951210221448700,8.91344873046875,-0.30552783817350865,0.08428294192627071,-0.007353577633202076
1782951210231375400,8.923375244140624,-0.32604864815473555,0.08753814432993531,-0.013710326248779893
1782951210241301500,8.933301513671875,-0.25465865167975427,0.0820084211230278,0.011656024067476392
1782951210251228700,8.943228759765624,-0.11494038438796997,0.05896320723071694,0.0345996772814542
1782951210261155600,8.953155517578125,0.05680033010840416,0.04466609406992793,0.03966813965216279
1782951210271082800,8.963082763671874,0.15956453901231288,0.04999532626867294,0.01567731547281146
1782951210281008400,8.97300830078125,0.19525486107468604,0.03656900459304452,-0.026385025839507577
1782951210290935600,8.982935546875,0.16247136636972426,0.035180765105038876,-0.06109057464823126
1782951210300862500,8.992862548828125,0.039974282991886136,0.06097293961793184,-0.07370463009290397
1782951210310789600,9.00278955078125,-0.06231821674704551,0.06861527106463909,-0.06629493835829198
1782951210320716500,9.012716552734375,-0.09341419675648212,0.0620528438091278,-0.08562193544507027
1782951210330642400,9.022642333984376,-0.06774491797089577,0.0739107471242547,-0.10162760608941317
1782951210340569600,9.032569580078125,0.02919920647740364,0.054889674181491134,-0.09432122859880328
1782951210350496500,9.04249658203125,0.08348609246015548,0.04869739541262388,-0.09145013014189898
1782951210360423700,9.052423583984375,0.09519055877923965,0.05057999428883195,-0.08007767225615679
1782951210370349600,9.062349609375,0.04088146096467971,0.0749793992690742,-0.12059139588698745
1782951210380276700,9.07227685546875,-0.0020586860954761505,0.09241378754228353,-0.1107740584887564
1782951210390203400,9.082203369140625,-0.05196867216825485,0.10972644913196564,-0.09987214072421192
1782951210400130600,9.092130615234375,-0.036064416071772576,0.07827391076982021,-0.08499087099991738
1782951210410057500,9.102057373046875,0.019857377636432645,0.050314182959496974,-0.07369608146026731
1782951210419983600,9.111983642578124,0.05770809260308742,0.0450952792674303,-0.0610584259442985
1782951210429910800,9.121910888671875,0.0728542238086462,0.04012114411666989,-0.07001388581618666
1782951210439837400,9.13183740234375,0.08926993655860424,0.04999591079056263,-0.03966207523755729
1782951210449764600,9.1417646484375,0.0440975004017353,0.0470300467222929,-0.027507307867705822
1782951210459690500,9.1516904296875,-0.03582476209700108,0.07054097843021154,-0.017033113995939493
1782951210469617700,9.16161767578125,-0.07166238367557526,0.08775047190636395,-0.0034171149671077725
1782951210479544600,9.171544677734374,-0.05442600219249725,0.11420359454602003,-0.01923793056383729
1782951210489471700,9.1814716796875,0.00954933411180973,0.07410700034871696,0.009946443670615554
1782951210499397600,9.191397705078124,0.06204056884944439,0.0914535642080009,0.03976853128671646
1782951210509324500,9.201324462890625,0.10526362450420856,0.09830620658174156,0.04370638219229877
1782951210519251700,9.211251708984374,0.09640870239734649,0.0678504241719842,0.049573447594791646
1782951210529178600,9.2211787109375,0.04458323809206485,0.06260887025669216,0.05151515624709427
1782951210539105500,9.23110546875,-0.004815291327238082,0.06211757960841059,0.009890110373497008
1782951210549031400,9.241031494140625,-0.02295066747665405,0.06730389620512724,-0.010693462645635008
1782951210558958600,9.25095849609375,-0.017771803534030912,0.05017521288022399,-0.0028410686448216435
1782951210568885500,9.260885498046875,-0.006185410636663437,0.052949938290566205,0.02432378246076405
1782951210578812700,9.270812744140626,-0.016361352214217185,0.043216333653032776,0.0043587797313928605
1782951210588738600,9.280738525390625,-0.020523148068785666,0.023317747223377226,-0.002613397368788719
1782951210598665500,9.29066552734375,-0.002097264540195465,0.031609774750471116,0.007649784100800752
1782951210608592400,9.30059228515625,-0.01845686318874359,0.043298751239478586,-0.009368936043605208
1782951210618519600,9.31051953125,-0.06238017606735229,0.024366671754419804,-0.011107231078296899
1782951210628445700,9.32044580078125,-0.06199906779527664,0.04478533653542399,-0.03492152964696288
1782951210638372600,9.33037255859375,0.006250877088308334,0.059539545813947915,-0.049682168666273355
1782951210648299500,9.340299560546875,0.07387012285292148,0.04228972032740712,-0.050947658557444805
1782951210658226400,9.350226318359375,0.08783259723186493,0.04147489681318402,-0.0625996640369296
1782951210668153600,9.360153564453125,0.09929974766373634,0.053741088668257,-0.075425024144724
1782951210678079500,9.37007958984375,0.07324702251851559,0.04970233467146754,-0.06635704380907118
1782951210688006700,9.380006591796874,0.03473521329462528,0.07013122858554124,-0.061702349871024485
1782951210697933600,9.38993359375,-0.011285948646068572,0.07586129667013883,-0.046654637538641686
1782951210707860500,9.399860595703124,-0.04625730878412723,0.04841521747037768,-0.03425283660516143
1782951210717786600,9.40978662109375,-0.03914192382097244,0.04766878301724791,-0.07604089102074503
1782951210727713500,9.419713623046874,-0.023196166670322416,0.045279842054098844,-0.103310152348876
1782951210737640700,9.429640625,-0.011809680259227752,0.05065145208984613,-0.09056699063181876
1782951210747567400,9.4395673828125,0.03172024938762188,0.07018442007750272,-0.07315686001703142
1782951210757494500,9.44949462890625,0.06848258459568023,0.07413096574619411,-0.06024228725582361
1782951210767420400,9.45942041015625,0.09740940387248992,0.07731383356600999,-0.009790376326069236
1782951210777347600,9.46934765625,0.09123802176117897,0.07183613280728458,0.029772987777367234
1782951210787274500,9.4792744140625,0.016066753181815146,0.06842442466765641,0.04846753217950463
1782951210797201700,9.48920166015625,-0.07402560567557812,0.0756578830525279,0.01750270426906645
1782951210807127600,9.49912744140625,-0.1343371587753296,0.0921010683313012,0.007040785356983542
1782951210817054500,9.509054443359375,-0.13362287302613257,0.09326865080595016,0.03067366294413805
1782951210826981600,9.518981689453126,-0.07624094363749027,0.07171762099415063,0.014634747617319225
1782951210836908500,9.528908447265625,0.009349427625536918,0.062450464824587104,-0.0026023645181208845
1782951210846834400,9.53883447265625,0.08607903156280516,0.04999591079056263,-0.015116028328239916
1782951210856761300,9.54876123046875,0.1397568457365036,0.047746378298103805,-0.027970979856699704
1782951210866688500,9.5586884765625,0.17111059989929198,0.04015606929957866,-0.009668065120652318
1782951210876615400,9.568615478515625,0.17830372627377508,0.053202890138328074,0.010690247775241732
1782951210886541600,9.57854150390625,0.15098609575927258,0.0592079757720232,0.013310878602415322
1782951210896468700,9.58846875,0.07412497439682483,0.05773103508725762,0.025625731904804706
1782951210906395400,9.5983955078125,-0.07282850484549999,0.07907865128144621,0.022549977721273897
1782951210916322600,9.608322509765625,-0.16395839005708693,0.08288651913180947,-0.025724443038925526
1782951210926249500,9.61824951171875,-0.16932605457007885,0.058897010126709934,-0.016311448657885193
1782951210936175600,9.628175537109374,-0.20127602106034753,0.009849193841218948,0.020018048090860247
1782951210946102500,9.6381025390625,-0.274459915214777,0.03009235592484474,-0.008285816982015966
1782951210956029400,9.648029541015624,-0.26154841119349004,0.08599763688966632,-0.008328487079963087
1782951210965956400,9.657956298828125,-0.17853110528886318,0.07547653513625263,0.0017319383591413496
1782951210975882500,9.667882568359374,-0.007292495095729827,0.07298983288705349,-0.007529884048178791
1782951210985809700,9.6778095703125,0.15387538745999335,0.09296747590228914,-0.048998716446757316
1782951210995736600,9.687736572265624,0.27528876725435253,0.10553206618204712,-0.041839492341876026
1782951211005663700,9.697663818359375,0.3383113328784704,0.10938961839303374,-0.019631825252249834
1782951211015590400,9.70759033203125,0.3159773359954357,0.12037117726504802,-0.02444214814342558
1782951211025516500,9.7175166015625,0.22937165021002293,0.12382365580648183,-0.04913454472087323
1782951211035443500,9.727443359375,0.11718494844436644,0.11845277642309665,-0.04590995665118098
1782951211045370600,9.73737060546875,0.04473112213015556,0.1394267369993031,-0.0791406836669892
1782951211055297500,9.747297607421874,-0.008684826236963272,0.12498451627939938,-0.09542086040377616
1782951211065223400,9.757223388671875,-0.07835632835626602,0.09256941649541259,-0.1071001922816038
1782951211075150600,9.767150634765626,-0.13230126903355122,0.09876768661364912,-0.10650536819361149
1782951211085077500,9.777077392578125,-0.18213409821689128,0.08681362944766878,-0.10028254815600812
1782951211095004700,9.787004638671876,-0.13171616262197494,0.1186934533111751,-0.1034060870040208
1782951211104930600,9.7969306640625,-0.010105798950791358,0.09844912218376993,-0.09419752915389835
1782951211114857500,9.806857421875,0.1010357776761055,0.03339636590629816,-0.08696165961623191
1782951211124784400,9.816784423828125,0.1420744750291109,-0.003571721006929874,-0.10223689709417522
1782951211134711600,9.826711669921876,0.1348550451695919,0.010904255852103233,-0.1204446078274399
1782951211144638500,9.836638427734375,0.07740648028552531,0.048603725779801606,-0.11039411926046014
1782951211154564600,9.846564697265626,0.03425473630130291,0.06564663051739335,-0.08099727131910622
1782951211164491500,9.856491455078125,0.020038579422235487,0.07119315872862934,-0.05994191606976092
1782951211174418400,9.86641845703125,0.001050970357656479,0.048136985050886864,-0.04374773711599409
1782951211184345600,9.876345703125,-0.011308744999766349,0.03235489402934909,-0.09100224024392664
1782951211194271500,9.886271484375,-0.0170142631649971,0.027000819650292395,-0.1096161936905235
1782951211204198700,9.89619873046875,-0.05429156215786934,0.012037059274315833,-0.10732720597051083
1782951211214125600,9.90612548828125,-0.06910685397386551,0.03763677995502949,-0.07441044027470052
1782951211224052500,9.916052490234375,-0.06878127528131008,0.06639204205721616,-0.023676716728881
1782951211233978600,9.925978515625,-0.07597732426524162,0.07325871295630931,0.03630070904567838
1782951211243905500,9.935905517578124,-0.05999181962609291,0.09004837358519434,0.04740501751452684
1782951211253832700,9.945832763671875,0.034790158352255816,0.08011135533004998,-0.007227174774557352
1782951211263759600,9.955759521484374,0.12016425651609897,0.07081804180592298,-0.057301192302629346
1782951211273686500,9.9656865234375,0.19466624753177164,0.025020605618506667,-0.06998465972170233
1782951211283612400,9.9756123046875,0.22720132043361663,0.02278188678100705,-0.06452778255529701
1782951211293539600,9.98553955078125,0.20050503668785094,0.030948826623708008,-0.07470313961096108
1782951211303466500,9.995466552734374,0.11610475199222564,0.033747517431527374,-0.045292847666144366
1782951211313393700,10.0053935546875,0.017376082214713096,0.05255830862447619,-0.03706416769884527
1782951211323319600,10.015319580078126,-0.05208206941485405,0.06649141077846288,-0.02855995872579515
1782951211333246500,10.02524658203125,-0.11100421398282051,0.05584565973207354,-0.0030236586701124905
1782951211343173400,10.03517333984375,-0.11717968774735926,0.06143178930133581,-0.0038785219337791202
1782951211353100500,10.0451005859375,-0.03655190732777119,0.047732203642278904,-0.00849471049234271
1782951211363026700,10.055026611328126,0.029219080221652982,0.018802607886493204,0.02548420454226434
1782951211372953300,10.064953369140625,0.05793897874951362,-0.015133563984930515,0.04268485712483525
1782951211382880500,10.074880615234376,0.01866787559092045,0.0076245035290718076,0.036005087099969385
1782951211392807400,10.084807373046875,-0.05606909322440624,0.03354410381391644,0.03774528183080256
1782951211402734600,10.094734619140626,-0.13957389038503168,0.052989247387647626,0.04689699492715299
1782951211412660500,10.104660400390625,-0.10154022006690501,0.07155775425732136,0.03898819456398487
1782951211422587600,10.114587646484376,0.016142741027474403,0.058892480082064866,0.03076528675034642
1782951211432514300,10.124514404296875,0.1514414383113384,0.012451777555048464,0.07822313043065368
1782951211442441500,10.13444140625,0.2147539267927408,0.012409984239935874,0.07406842190399765
1782951211452367600,10.14436767578125,0.17977789047956466,0.052273061942309136,0.05816606550365686
1782951211462294500,10.15429443359375,0.06689969931840896,0.08881722435504198,0.04670183768123388
1782951211472221700,10.1642216796875,-0.050049102282524106,0.1180379120118916,0.013833806497976183
1782951211482148400,10.1741484375,-0.11078969444930553,0.09009484307542442,-0.05369703033082187
1782951211492074500,10.184074462890624,-0.10162029956579208,0.04394362501427531,-0.08227605908326804
1782951211502001400,10.19400146484375,-0.02438333062827587,0.022236235596984625,-0.08697232714071869
1782951211511928600,10.203928466796874,0.07046060667037964,0.005402297434955835,-0.05654504017308354
1782951211521855500,10.21385546875,0.14160101229846478,-0.004315671242028475,-0.037882717540115116
1782951211531782700,10.22378271484375,0.10204466245770454,0.019807693275809286,-0.023227000200003383
1782951211541708500,10.23370849609375,-0.014496727386116981,0.032041151905059816,-0.006533639552444219
1782951211551635500,10.243635498046874,-0.17397592620253563,0.0691338881112635,-0.04839972764030099
1782951211561562600,10.253562744140625,-0.21323533892333507,0.08482435532659292,-0.12258227744325995
1782951211571489500,10.263489501953124,-0.09883213015198707,0.04639598660245538,-0.14294775073230265
1782951211581415400,10.27341552734375,0.08216156585812569,0.001389846923202276,-0.1581673855654895
1782951211591342300,10.28334228515625,0.25131226386129857,-0.004275777623057365,-0.14161964393369852
1782951211601269500,10.29326953125,0.3230184866786003,0.02951251021027565,-0.0968826765846461
1782951211611196400,10.303196533203124,0.25038462762236596,0.063851271533221,-0.00982099066004157
1782951211621122600,10.31312255859375,0.05804243912398815,0.09617708559855818,0.028354426216334102
1782951211631049700,10.3230498046875,-0.14930676437020302,0.1404306533448398,0.01743300003372133
1782951211640976400,10.332976318359375,-0.29843349599838254,0.1572550930261612,-0.030700112559646366
1782951211650903600,10.342903564453126,-0.28027064732015133,0.16628697913512586,-0.053866760874539614
1782951211660830500,10.35283056640625,-0.1542792920857668,0.13623524748161434,-0.05395969985499978
1782951211670756600,10.362756591796876,0.025336101308465003,0.1031866720996797,-0.031024083817005155
1782951211680683500,10.37268359375,0.1710264287471771,0.07986249513551592,0.001584784973412752
1782951211690610400,10.3826103515625,0.21616437811255454,0.041553515007346865,0.04433101689666509
1782951211700537300,10.392537353515625,0.17811667926907537,0.07849500617459416,0.09139540427997708
1782951211710463500,10.40246337890625,0.09166472274065017,0.10648191425278782,0.08807349331565201
1782951211720390700,10.412390625,0.03847790695428848,0.09902692207172513,0.03048573915660381
1782951211730317600,10.422317626953125,0.038458033210039134,0.04715045823156833,0.012868249401450156
1782951211740244700,10.43224462890625,0.01902151133418083,-0.011184826359152793,-0.019620865466818214
1782951211750171600,10.442171630859375,0.0036509237229824065,-0.023175708404183388,-0.05436294689364731
1782951211760097500,10.45209765625,-0.03275777574181556,-0.0013005612045526504,-0.08457980598099529
1782951211770022700,10.462022705078125,-0.09881459449529648,0.020119827964901922,-0.08056099879369139
1782951211779949600,10.471949462890626,-0.18193068459928036,0.032800591970235105,-0.027641017249971627
1782951211789876500,10.48187646484375,-0.1851215895950794,0.03850391817837953,-0.0029054391179233786
1782951211799803400,10.491803466796876,-0.14347148234546184,0.015637129592895507,-0.03710698392726481
1782951211809729500,10.5017294921875,-0.09251227948069572,0.023855653492361305,-0.09519939967282116
1782951211819656700,10.51165673828125,0.005628945797681808,0.07747764582559466,-0.13857830347642303
1782951211829583600,10.52158349609375,0.1461094296336174,0.10088029485344886,-0.12002009880505501
1782951211839510800,10.5315107421875,0.26320260814130303,0.09156988406404852,-0.061193012109398835
1782951211849437400,10.5414375,0.2847241195976734,0.07674976994246244,0.012682882897183298
1782951211859363600,10.551363525390625,0.2410492285221815,0.09703311790600419,0.0009738134682178497
1782951211869290500,10.56129052734375,0.1784293984800577,0.07977744720056652,-0.012590090047195553
1782951211879217700,10.5712177734375,0.09710779057741165,0.0667655515447259,-0.006711334206908941
1782951211889144600,10.58114453125,0.03728372873365879,0.05092763868272304,-0.038793694905191654
1782951211899070500,10.591070556640625,-0.05747603741288185,0.048599341865628955,-0.05792560781128704
1782951211908997600,10.60099755859375,-0.151507489284873,0.018942747009545565,-0.05147716232426464
1782951211918924500,10.610924560546875,-0.20532208158075807,-0.0020966800183057784,-0.05972527764439582
1782951211928851700,10.620851806640625,-0.253487854334712,-0.00022080314382910728,-0.056020724038034674
1782951211938778600,10.630778564453125,-0.21560966683924196,0.03898103417083621,-0.05451251143217087
1782951211948704500,10.64070458984375,-0.08828501717448234,0.044581338395923376,-0.019477511473372577
1782951211958631400,10.65063134765625,0.07461246565282344,0.03071735595539212,-0.010027546082809567
1782951211968558600,10.66055859375,0.04243862727880478,0.03760930742621422,-0.0021915186949074267
1782951211978485500,10.670485595703125,0.1016325745254755,0.0673056497707963,-0.05789221699833869
1782951211988411600,10.68041162109375,0.1712047079235315,0.04809563012719154,-0.047257864128798246
1782951211998338600,10.690338623046875,0.175317988461256,0.013171470131725073,0.0049393560983240605
1782951212008265500,10.700265380859374,0.07016308502852917,0.04097483833655715,-0.04077836591638624
1782951212018192600,10.710192626953125,-0.038377953711152074,0.04820464345961809,-0.08763042572326958
1782951212028118500,10.720118408203126,-0.13011223455667495,0.07348784553706646,-0.11511932115145027
1782951212038045700,10.730045654296875,-0.10627601641714572,0.05881196219176053,-0.11805661671236156
1782951212047972600,10.73997265625,0.011026420927047729,0.0685430826112628,-0.10367715903036295
1782951212057899500,10.7498994140625,0.1329249538898468,0.06831117355152964,-0.051265565400198096
1782951212067826400,10.759826416015626,0.18666706547141074,0.10639847375303506,-0.017786270450800657
1782951212077752600,10.769752685546875,0.19083119941353796,0.12776143364682793,-0.007969444509223104
1782951212087679700,10.7796796875,0.1655102956742048,0.12378785384073852,-0.013037541553750634
1782951212097606700,10.789606689453125,0.0834025058299303,0.1194381341986358,0.00035867724455893035
1782951212107533600,10.799533447265626,0.01811608692705631,0.1428765851922333,-0.008407470600306987
1782951212117459500,10.80945947265625,0.013881225836277006,0.13301643156558274,-0.007151844516023993
1782951212127386600,10.81938671875,0.03204991973340511,0.10144231265038252,0.021361133262887595
1782951212137313500,10.8293134765625,0.0069493807464838025,0.08514248136505484,0.01651011303514242
1782951212147240700,10.83924072265625,-0.04362462219297886,0.0997666345231235,-0.01217091478705406
1782951212157167600,10.849167724609375,-0.13182897534668445,0.07832870969697833,-0.048431511018052695
1782951212167093500,10.859093505859375,-0.17748948728144168,0.0775130093999207,-0.0705170860979706
1782951212177020700,10.869020751953125,-0.13005962758660317,0.06479439760223031,-0.06681472444869578
1782951212186947600,10.878947509765625,-0.011319266393780707,0.04618994263634085,-0.01597571389749646
1782951212196874500,10.88887451171875,0.10980594410896301,0.04501315394192934,0.0018728811997920274
1782951212206800400,10.89880029296875,0.22956337338984012,0.053131432337313884,0.046657925474271174
1782951212216727600,10.9087275390625,0.26982173402011395,0.04978840551972389,0.06194171158485114
1782951212226654500,10.918654541015625,0.23269465715289114,0.050959787386655804,-0.01922908967025578
1782951212236581600,10.92858154296875,0.12906301776468754,0.0577808655783534,-0.0820529178518802
1782951212246508500,10.938508544921875,0.003585457271337509,0.051932724072039124,-0.10953647951781749
1782951212256434700,10.9484345703125,-0.09142857589721679,0.046391310427337885,-0.11690152839310466
1782951212266361600,10.958361572265625,-0.09381868590414523,0.04429229232147336,-0.1083686047822237
1782951212276288500,10.96828857421875,-0.07928279555141925,0.02305529689490795,-0.09012991438880562
1782951212286215400,10.97821533203125,-0.0451128149241209,0.024404227285832164,-0.07689400071874261
1782951212296141600,10.9881416015625,0.02466565470099449,0.0407274394467473,-0.06091127255856991
1782951212306068700,10.99806884765625,0.09246785581707954,0.053285892246663566,-0.03007642770335078
1782951212315995400,11.007995361328126,0.10014438179433345,0.04969780462682247,-0.005099295900389552
1782951212325922600,11.017922607421875,0.03664426178634166,0.06541939763277768,0.005709463687986135
1782951212335848400,11.027848388671876,-0.03107844435274601,0.06832958599105476,0.0006227350082248449
1782951212345775600,11.037775634765625,-0.06326923386156559,0.08883417548984289,0.011181611488759517
1782951212355702500,11.04770263671875,-0.018223054432868955,0.11446852909252046,0.022802637308090925
1782951212365629700,11.057629638671875,-0.019323124629259107,0.0852400965206325,-0.02024652308449149
1782951212375556400,11.067556396484376,0.016607435929775236,0.07132599132806063,-0.062087915122508996
1782951212385482500,11.077482421875,0.02925532057881355,0.07520940863266587,-0.057809361020475625
1782951212395409700,11.08740966796875,0.020910101559758185,0.1017196682870388,-0.049620428541675206
1782951212405336600,11.097336669921875,0.03927402576804161,0.13191051615029573,-0.0158132898773998
1782951212415263700,11.107263671875,0.09701251350939273,0.14201602284014225,0.015678411451354624
1782951212425189400,11.117189453125,0.16789982115924357,0.11597644943743944,0.05607661894373595
1782951212435116500,11.127116455078125,0.24000468790531157,0.07591741077154875,0.05041450152881443
1782951212445043500,11.13704345703125,0.23296119913458824,0.04542684930935502,0.029967414370924234
1782951212454970600,11.146970703125,0.14436287822723387,0.04827098669409752,0.0030979660153388974
1782951212464897500,11.1568974609375,-0.006621463966369629,0.02970876343473792,-0.04720993333384394
1782951212474823400,11.166823486328125,-0.19985680191218852,0.014878712441027163,-0.06493643642142415
1782951212484750600,11.17675048828125,-0.34050095187723634,0.025764117462188003,-0.07662541291043162
1782951212494677500,11.186677490234375,-0.3523375201433897,0.019703209988027808,-0.08557166656255721
1782951212504604700,11.196604736328124,-0.21211948663592337,0.01783098637536168,-0.06025185880176723
1782951212514530600,11.206530517578125,0.026913141366839408,-0.02203077615275979,-0.05918379117883742
1782951212524457500,11.21645751953125,0.26661504693329335,-0.0321470964975655,-0.022189327715337274
1782951212534384400,11.22638427734375,0.3805348561018705,-0.019680559764802454,-0.004646802892535925
1782951212544311600,11.2363115234375,0.38516602303385733,0.0051772565074265,0.006256356981024146
1782951212554238500,11.246238525390625,0.20533143393099307,0.056009179730713364,-0.010167027618736028
1782951212564164600,11.25616455078125,-0.0032552024036645887,0.09268602861240506,-0.021937764107063412
1782951212574091800,11.266091796875,-0.1317255149722099,0.09864362184256315,-0.05958170445524156
1782951212584018400,11.276018310546876,-0.17879472466111182,0.10198036504983901,-0.04154182456955313
1782951212593945600,11.285945556640625,-0.13624328465759752,0.09269304287508129,-0.04706752918846905
1782951212603871500,11.29587158203125,-0.08131284007430076,0.05201996396407485,-0.05820493620932102
1782951212613798700,11.305798583984375,-0.06945055284500122,0.0504088755056262,-0.04295242201983929
1782951212623725600,11.3157255859375,-0.051536710491776466,0.07112842292934655,-0.05972388940490782
1782951212633652500,11.325652587890625,-0.043725744479894635,0.08190174587816,-0.05007694013752043
1782951212643579400,11.335579345703126,-0.02744154915511608,0.08355491991266607,-0.033990605472400785
1782951212653505500,11.345505615234375,0.04432955559194088,0.0988729005537927,-0.06152640878222882
1782951212663432700,11.3554326171875,0.1240367140352726,0.08147022259309887,-0.0634860184174031
1782951212673359600,11.365359619140625,0.2257861929386854,0.039783144333958624,-0.0409448085244745
1782951212683286800,11.375286865234376,0.24484394463002682,-0.013028554529696703,-0.02602664085589349
1782951212693212400,11.38521240234375,0.18105156367719172,-0.028330314688384532,-0.0606222995493561
1782951212703139600,11.3951396484375,0.07754325840771198,-0.020123481226712463,-0.05026281809844076
1782951212713066500,11.40506640625,-0.02112812822461128,-0.015164543645083904,-0.07753003359995782
1782951212722993700,11.41499365234375,-0.08135317208468913,-0.014706863005459307,-0.10790610183700919
1782951212732920600,11.424920654296875,-0.11079320158064365,-0.01494315597936511,-0.07935702983140945
1782951212742846700,11.4348466796875,-0.15227379748225212,-0.008622282394766806,-0.045476314474269745
1782951212752774000,11.44477392578125,-0.15678046125173567,0.016414543706178664,-0.04699008003808558
1782951212762700500,11.454700439453125,-0.10534370400309562,0.051254094158113,-0.04885200145244598
1782951212772627700,11.464627685546875,-0.03494681021869182,0.03549289979413151,-0.04097549592368305
1782951212782553600,11.4745537109375,0.03422726377248764,0.003241904530674219,-0.0355859849050641
1782951212792480800,11.484480712890624,0.13207622810602188,0.0040739714406430715,-0.009265767930075526
1782951212802407700,11.49440771484375,0.16988719558417797,0.021230419555306433,0.0015548282265663146
1782951212812334600,11.50433447265625,0.16718962706327437,0.05388882657587528,0.012234408477321266
1782951212822260700,11.5142607421875,0.09251987826526165,0.0452316189981997,0.01895326840355992
1782951212832187600,11.524187744140624,-0.01575344944894314,0.038013942704349754,-0.02288563941642642
1782951212842114600,11.534114501953125,-0.07128478253483772,0.024129940389096736,-0.07834295741803944
1782951212852041700,11.544041748046874,-0.09891220965087413,0.014565262577682732,-0.0789569976631552
1782951212861968600,11.55396875,-0.1805827771216631,0.024537498276680707,-0.05190042923763394
1782951212871894500,11.56389453125,-0.19011866723001003,0.08041632962599396,-0.05729103623479605
1782951212881821700,11.57382177734375,-0.09615677346289157,0.08103913769945502,-0.029890622807666658
1782951212891748600,11.58374853515625,0.02385141570866108,0.05994841887578368,0.0342830125477165
1782951212901675800,11.59367578125,0.1596726755619049,0.049705549541860815,0.029998320965841412
1782951212911601700,11.6036015625,0.24637714554667473,0.05912263557612896,0.013354790809378026
1782951212921528600,11.613528564453125,0.2516547936886549,0.045717648949474096,-0.05225406498089433
1782951212931455500,11.62345556640625,0.20840894168019294,0.03816869487464428,-0.053936538175120945
1782951212941382700,11.633382568359375,0.11764788978099823,0.03268997120261192,-0.00586618861965835
1782951212951309600,11.6433095703125,0.06825052940547466,0.0020598551392555235,-0.13001432714015246
1782951212961235700,11.653235595703125,0.017224106523394584,-0.04497428323626518,-0.21664595108442009
1782951212971162600,11.66316259765625,-0.05051204361915588,-0.06380144104212522,-0.2228334075476974
1782951212981089500,11.673089599609375,-0.13614274689257144,-0.018381167604029178,-0.1743780041974038
1782951212991016700,11.6830166015625,-0.09872457812428474,0.0423820747859776,-0.016720906241610645
1782951213000942600,11.692942626953124,-0.05478314506709575,0.08516206284835934,0.09436104915253818
1782951213010869800,11.702869873046875,0.025379940450191495,0.11734043126702308,0.1144471940435469
1782951213020796400,11.71279638671875,0.11119359907507896,0.08207447209656238,0.008825842142850161
1782951213030723600,11.7227236328125,0.2285492279112339,-0.047284459874778986,-0.23860541556663808
1782951213040650500,11.732650390625,0.31794834380745884,-0.11742708663716911,-0.2259920907743275
1782951213050576600,11.74257666015625,0.3037865474641323,0.005715308906883001,0.12324819400608539
1782951213060503800,11.75250390625,0.24730010561048982,0.13885828946158288,0.19561850675530731
1782951213070430700,11.7624306640625,0.16422434751689433,0.19061521857529878,0.17764701593071222
1782951213080357600,11.772357666015624,0.065599722635746,0.1929559364825487,0.1933831489186734
1782951213090283500,11.782283447265625,-0.030541268736124037,0.17007029706612228,0.19715243832431734
1782951213100210700,11.792210693359374,-0.1372387254357338,0.12371025855988263,0.16880298054404555
1782951213110137600,11.8021376953125,-0.2854863361418247,0.07313830144703387,-0.04243775049597025
1782951213120064800,11.812064697265624,-0.3640139294117689,0.05071253462731838,-0.047934594346582884
1782951213129991400,11.821991455078125,-0.33514673136770723,0.0929867651246488,0.15404643317796288
1782951213139917600,11.83191748046875,-0.27703765674829484,0.14684490430131553,0.09063537969291209
1782951213149844700,11.8418447265625,-0.14036591754555702,0.11606719646081327,-0.081732965182513
1782951213159771600,11.851771728515626,-0.002760696884989738,0.08288841882795095,-0.06641279258430004
1782951213169698800,11.86169873046875,0.08729951326847075,0.027368630049377677,-0.1291532533314079
1782951213179624400,11.87162451171875,0.1603694256544113,-0.07588087815344333,-0.3506633033208549
1782951213189551600,11.881551513671875,0.1950216368407011,-0.10654825748726725,-0.3337123877156526
1782951213199478500,11.891478515625,0.22647768233418464,-0.07898118225634097,-0.3324593189146369
1782951213209405700,11.90140576171875,0.20977672290205954,-0.050647506567090744,-0.300347074534744
1782951213219332600,11.91133251953125,0.08000994078218937,-0.08679448635578155,-0.29934549627676604
1782951213229258500,11.921258544921875,-0.03924129254221916,-0.09491378766447305,-0.26395404756311325
1782951213239185700,11.931185546875,-0.1812619915574789,-0.00161123458892107,-0.1284788977338001
1782951213249112600,11.941112548828125,-0.24382746106386183,0.15681071025952695,0.02986377133335918
1782951213259039700,11.951039794921876,-0.13236498191952706,0.19943711519539356,0.06104107295069843
1782951213268965600,11.960965576171875,0.028265725019574164,0.112045831990242,0.09028828328829258
1782951213278892800,11.970892822265625,0.2174550024449825,0.07216960254535079,0.1847123146744445
1782951213288819500,11.9808193359375,0.33792145677804947,0.15130758279860018,0.23905074818134306
1782951213298746600,11.99074658203125,0.42029578860402106,0.19859043523818254,0.2426747108321637
1782951213308672800,12.0006728515625,0.34340310305953026,0.21817411049976942,0.28266072079446164
1782951213318599700,12.010599609375,0.2275853513151407,0.23054434725120662,0.264038510976173
1782951213328526800,12.02052685546875,0.12961948260366915,0.15912877794355154,0.11021540169268845
1782951213338453500,12.03045361328125,-0.06988952878415584,0.05191285032778978,-0.10778105068523436
1782951213348380700,12.040380615234374,-0.28920915605723857,0.0026944997809827324,-0.21313735844157636
1782951213358306600,12.050306640625,-0.4025701622992754,-0.03584156710132956,-0.17100589741580188
1782951213368233700,12.060233642578124,-0.3790373110204935,-0.021510113279521462,-0.058777438867650925
1782951213378160600,12.07016064453125,-0.340333778616786,0.018569529782980678,0.0533462075991556
1782951213388087800,12.080087890625,-0.26136194871067997,0.010345160664618014,-0.03340849473550916
1782951213398013700,12.090013671875,-0.20472762281894683,-0.012709843969345092,-0.21060875327941028
