time,seconds_elapsed,z,y,x
1782951201376678100,0.06867822265625,0.04053570702672005,-0.019709788262844086,-0.06284261494874954
1782951201386605300,0.078605224609375,0.04643221199512482,-0.003970507066696882,-0.09008382260799408
1782951201396532000,0.088531982421875,0.043714724481105804,-0.00267674308270216,-0.09496299922466278
1782951201406459100,0.098459228515625,0.022301310673356056,-0.016377108171582222,-0.06462852656841278
1782951201416386000,0.108385986328125,-0.006388657260686159,-0.029318740591406822,-0.020313793793320656
1782951201426312200,0.118312255859375,-0.024822525680065155,-0.04709267616271973,0.016919327899813652
1782951201436239400,0.1282392578125,-0.02646569535136223,-0.051181696355342865,0.047982703894376755
1782951201446166000,0.138166015625,-0.021943913772702217,-0.025358619168400764,0.07695736736059189
1782951201456093200,0.14809326171875,-0.008052067831158638,0.010811368934810162,0.09863735735416412
1782951201466020000,0.15802001953125,-0.000041811628761934116,0.016327308490872383,0.10319003462791443
1782951201475946200,0.1679462890625,0.00006657902849838138,-0.005218996666371822,0.09663652628660202
1782951201485873200,0.177873046875,-0.007754059974104166,-0.02088051475584507,0.08259527385234833
1782951201495800300,0.18780029296875,-0.02214524894952774,-0.021390242502093315,0.06450815498828888
1782951201505727000,0.19772705078125,-0.0259903222322464,-0.015895076096057892,0.04530063644051552
1782951201515654100,0.207654052734375,-0.01455923542380333,-0.0056978329084813595,0.03387913852930069
1782951201525581000,0.2175810546875,-0.009196161292493343,0.0034024545457214117,0.03199228644371033
1782951201535507200,0.227507080078125,-0.014417022466659546,0.0002593918761704117,0.03659423068165779
1782951201545434000,0.23743408203125,-0.022661902010440826,-0.007358846720308065,0.04854676127433777
1782951201555361000,0.247361083984375,-0.02642042189836502,-0.01185106672346592,0.05801989510655403
1782951201565288200,0.2572880859375,-0.02400999516248703,-0.02431998774409294,0.0629667118191719
1782951201575214000,0.267214111328125,-0.02159317582845688,-0.03165087103843689,0.06004362925887108
1782951201585141200,0.277141357421875,-0.020084761083126068,-0.029699571430683136,0.051420047879219055
1782951201595068200,0.287068115234375,-0.020967599004507065,-0.02696264162659645,0.02731923945248127
1782951201604995300,0.296995361328125,-0.018605375662446022,-0.009954895824193954,0.008436094969511032
1782951201614922000,0.306921875,-0.016821591183543205,0.016532104462385178,0.00791491474956274
1782951201624848100,0.31684814453125,-0.01793638989329338,0.021274928003549576,0.021457888185977936
1782951201634775000,0.326775146484375,-0.01678031124174595,-0.00035499935620464385,0.04549664631485939
1782951201644702200,0.3367021484375,-0.009694439359009266,-0.0168511513620615,0.06756146997213364
1782951201654629000,0.346629150390625,0.006798251066356897,-0.02365659363567829,0.0787627249956131
1782951201664556300,0.356556396484375,0.027814853936433792,-0.025895513594150543,0.06917481124401093
1782951201674482200,0.366482177734375,0.03803180530667305,-0.026934944093227386,0.05132630467414856
1782951201684409000,0.3764091796875,0.031000526621937752,-0.026309102773666382,0.029935261234641075
1782951201694336300,0.386336181640625,0.0202765092253685,-0.0011432950850576162,0.014720356091856956
1782951201704263200,0.39626318359375,0.007200388703495264,0.026075275614857674,0.009219597093760967
1782951201714190300,0.4061904296875,0.0009677927591837943,0.021621672436594963,0.0025949841365218163
1782951201724117000,0.416116943359375,0.002231462625786662,0.0034416031558066607,0.0073202308267354965
1782951201734044000,0.4260439453125,0.011316836811602116,-0.02069542557001114,0.01943814568221569
1782951201743970800,0.435970703125,0.020157465711236,-0.05010977387428284,0.039674174040555954
1782951201753898000,0.44589794921875,0.025945579633116722,-0.053337521851062775,0.04706338420510292
1782951201763825000,0.455824951171875,0.027306189760565758,-0.03934953734278679,0.04221802577376366
1782951201773751000,0.4657509765625,0.02912912331521511,-0.023369237780570984,0.013227388262748718
1782951201783678000,0.475677978515625,0.02887851931154728,0.00427304208278656,-0.011332016438245773
1782951201793604900,0.48560498046875,0.020180102437734604,0.031077224761247635,-0.02690192125737667
1782951201803531800,0.49553173828125,0.010268083773553371,0.03689170628786087,-0.034865837544202805
1782951201813459000,0.505458984375,0.008464058861136436,0.00833942275494337,-0.02767237462103367
1782951201823385000,0.515385009765625,0.005558816250413656,-0.01635846681892872,-0.00324852392077446
1782951201833312000,0.52531201171875,0.00520701240748167,-0.017225591465830803,0.024707211181521416
1782951201843239000,0.535239013671875,0.0003110571997240186,-0.023935159668326378,0.0355641208589077
1782951201853165800,0.545165771484375,0.0028162929229438305,-0.03404318913817406,0.022892799228429794
1782951201863093000,0.555093017578125,0.009355418384075165,-0.027829499915242195,0.0049337721429765224
1782951201873019000,0.565018798828125,0.008859537541866302,-0.005277586169540882,-0.008733037859201431
1782951201882946000,0.574946044921875,0.009796970523893833,0.002100435085594654,-0.01224601361900568
1782951201892873000,0.584873046875,0.010160225443542004,-0.019041068851947784,0.001547030289657414
1782951201902800000,0.5947998046875,0.012295016087591648,-0.028861476108431816,0.02490321919322014
1782951201912726800,0.604726806640625,0.009356217458844185,-0.007586014457046986,0.04777231439948082
1782951201922654000,0.614654052734375,0.0022309301421046257,0.013464676216244698,0.061173610389232635
1782951201932580000,0.624580078125,-0.008597216568887234,0.02630537375807762,0.05383766442537308
1782951201942507000,0.634507080078125,-0.008414523676037788,0.029637254774570465,0.03614841774106026
1782951201952434000,0.644433837890625,-0.0035987296141684055,0.013483318500220776,0.01438053697347641
1782951201962360800,0.65436083984375,-0.0005869606975466013,0.001645300886593759,-0.0013869742397218943
1782951201972288000,0.6642880859375,0.005709284916520119,-0.0030298782512545586,-0.012478773482143879
1782951201982214000,0.6742138671875,0.009918943047523499,-0.004584365524351597,-0.019516710191965103
1782951201992141000,0.68414111328125,0.010804444551467896,-0.0021057615522295237,-0.01155945099890232
1782951202002068000,0.69406787109375,0.010991930961608887,-0.015217302367091179,-0.007728226948529482
1782951202011995000,0.703994873046875,0.007642739452421665,-0.020323380827903748,0.002625077962875366
1782951202021921000,0.713921142578125,0.0012455604737624526,-0.009406019002199173,0.022188127040863037
1782951202031848000,0.723847900390625,0.0001328917423961684,-0.003379817819222808,0.03080185502767563
1782951202041775000,0.733775146484375,0.0019773971289396286,-0.005411277059465647,0.02743961289525032
1782951202051702000,0.743701904296875,0.002347310073673725,0.0015654060989618301,0.014355503022670746
1782951202061629200,0.753629150390625,0.0020714066922664642,-0.0033904702868312597,-0.0012428972404450178
1782951202071554800,0.763554931640625,0.0035366779193282127,-0.01085797417908907,-0.009660350158810616
1782951202081482000,0.77348193359375,0.0009531453251838684,-0.015340606682002544,-0.012514459900557995
1782951202091409000,0.783408935546875,0.0008356999605894089,-0.025346634909510612,-0.008704808540642262
1782951202101336000,0.793336181640625,0.006620085798203945,-0.034634411334991455,-0.007516772020608187
1782951202111263000,0.803262939453125,0.003941744565963745,-0.03472868725657463,-0.004989165812730789
1782951202121188900,0.81318896484375,0.005125786177814007,-0.033662088215351105,0.005497563164681196
1782951202131116000,0.823115966796875,0.00794367678463459,-0.02804761379957199,0.01564553938806057
1782951202141043000,0.83304296875,0.0009302421822212636,-0.015176556073129177,0.02931234799325466
1782951202150969900,0.842969970703125,-0.008015848696231842,0.0014183996245265007,0.03748771920800209
1782951202160897000,0.85289697265625,-0.015242336317896843,0.005637912079691887,0.03843687102198601
1782951202170823000,0.862822998046875,-0.009965282864868641,0.0019062906503677368,0.025104820728302002
1782951202180749800,0.872749755859375,-0.008643022738397121,0.0008647284121252596,0.005485845264047384
1782951202190677000,0.882677001953125,-0.002493517706170678,-0.0005169195355847478,-0.00944889523088932
1782951202200604000,0.89260400390625,-0.007257912773638964,0.008264588192105293,-0.02056785859167576
1782951202210531000,0.902531005859375,-0.0021494373213499784,0.011316836811602116,-0.021041102707386017
1782951202220457000,0.91245703125,-0.001924666459672153,0.021138308569788933,-0.003772634081542492
1782951202230383900,0.9223837890625,-0.0012002866715192795,0.014967763796448708,0.01811588741838932
1782951202240310800,0.932310791015625,0.0037060549948364496,0.010773285292088985,0.03762327507138252
1782951202250238000,0.942238037109375,0.010759171098470688,0.01101749762892723,0.0483132041990757
1782951202260164900,0.952164794921875,0.015557654201984406,0.005561213009059429,0.041545577347278595
1782951202270091000,0.962091064453125,0.020605942234396935,-0.003400856629014015,0.031992021948099136
1782951202280018000,0.972017822265625,0.021467475220561028,-0.009690710343420506,0.02305631712079048
1782951202289944800,0.98194482421875,0.022359367460012436,-0.012719789519906044,0.010981811210513115
1782951202299872000,0.9918720703125,0.020602479577064514,-0.007725830189883709,0.0030562435276806355
1782951202309799000,1.001798828125,0.0181766077876091,-0.011123225092887878,-0.004816593136638403
1782951202319725000,1.01172509765625,0.01798432692885399,-0.0022154836915433407,-0.0046757119707763195
1782951202329651700,1.021651611328125,0.01230353768914938,-0.0020756677258759737,-0.003961718175560236
1782951202339579000,1.031578857421875,0.013413277454674244,-0.00019254654762335122,-0.007518636528402567
1782951202349505800,1.041505859375,0.010449444875121117,-0.007526625879108906,-0.012138155288994312
1782951202359433000,1.051432861328125,0.011623100377619267,-0.012308331206440926,-0.00942093227058649
1782951202369359000,1.061359130859375,0.008128500543534756,0.005077316425740719,0.007231281138956547
1782951202379286000,1.0712861328125,-0.004313788376748562,0.022481340914964676,0.031498804688453674
1782951202389213000,1.081212890625,-0.014750716276466846,0.019633090123534203,0.05100645869970322
1782951202399139800,1.091139892578125,-0.016019446775317192,0.013303288258612156,0.057007092982530594
1782951202409067000,1.10106689453125,-0.015852466225624084,0.00942173134535551,0.056833721697330475
1782951202418993000,1.110992919921875,-0.008466721512377262,-0.00361683894880116,0.05782255157828331
1782951202428920000,1.120920166015625,-0.012926717288792133,-0.002270611235871911,0.04121028631925583
1782951202438846700,1.1308466796875,-0.005961486138403416,-0.01811828278005123,0.015278289094567299
1782951202448774000,1.14077392578125,0.005173190496861935,-0.002487392397597432,-0.0016215987270697951
1782951202458700800,1.15070068359375,0.004932973068207502,0.024115988984704018,-0.0025513083674013615
1782951202468627000,1.160626953125,-0.0025486452504992485,0.026612170040607452,0.009221994318068027
1782951202478554000,1.17055419921875,0.0046237800270318985,0.011802863329648972,0.019471170380711555
1782951202488481000,1.18048095703125,0.012677179649472237,0.0024522386956959963,0.028243089094758034
1782951202498408000,1.190407958984375,0.011450527235865593,-0.0006314354832284153,0.03327300027012825
1782951202508334800,1.2003349609375,0.009396164678037167,-0.012231632135808468,0.02484729327261448
1782951202518261000,1.210260986328125,0.008284561336040497,-0.019210712984204292,0.011087805032730103
1782951202528188000,1.22018798828125,0.006114617921411991,-0.015132613480091095,0.0001906823308672756
1782951202538115000,1.230114990234375,0.00047857005847617984,-0.008406800217926502,-0.005864547099918127
1782951202548042000,1.2400419921875,0.0008972189389169216,-0.009237973019480705,-0.010212955996394157
1782951202557969000,1.249968994140625,0.008170577697455883,-0.00830746442079544,-0.010271280072629452
1782951202567895000,1.25989501953125,0.008853678591549397,0.0016439693281427026,-0.006896788254380226
1782951202577822000,1.269822021484375,0.0024051007349044085,0.002129729837179184,0.00018988338706549257
1782951202587749000,1.2797490234375,0.001714010490104556,0.0013888385146856308,0.010104299522936344
1782951202597676000,1.289676025390625,0.004618453793227673,0.011728028766810894,0.020020313560962677
1782951202607603000,1.29960302734375,-0.00458596320822835,0.02413090318441391,0.028356008231639862
1782951202617528800,1.30952880859375,-0.014814632013440132,0.037455230951309204,0.037399038672447205
1782951202627456000,1.3194560546875,-0.013763216324150562,0.029146432876586914,0.044679585844278336
1782951202637383000,1.3293828125,-0.0024138891603797674,0.008853678591549397,0.043403930962085724
1782951202647310000,1.33931005859375,0.008380701765418053,-0.012722453102469444,0.04316238313913345
1782951202657237000,1.349237060546875,0.016596021130681038,-0.01733611337840557,0.053645119071006775
1782951202667163000,1.359162841796875,0.01865784078836441,-0.012114453129470348,0.04874783009290695
1782951202677090000,1.369090087890625,0.020676782354712486,-0.012495019473135471,0.03809705004096031
1782951202687017000,1.379016845703125,0.02136014960706234,-0.009377788752317429,0.02112126350402832
1782951202696943900,1.38894384765625,0.013883857987821102,0.002118278294801712,0.010683536529541016
1782951202706871000,1.39887109375,0.0139568280428648,0.005613144487142563,0.009200156666338444
1782951202716796700,1.408796630859375,0.008345548063516617,0.0011060107499361038,0.007980428636074066
1782951202726723600,1.4187236328125,0.007413974031805992,-0.0003866909828502685,0.003323358716443181
1782951202736650500,1.428650390625,0.009883789345622063,0.007261374965310097,0.001743305241689086
1782951202746577400,1.438577392578125,0.0030394657514989376,0.005336974747478962,0.0031614385079592466
1782951202756504600,1.448504638671875,-0.0017353157745674253,0.004411792848259211,0.009351157583296299
1782951202766430700,1.4584306640625,-0.005903162993490696,-0.0023614249657839537,0.01775609329342842
1782951202776357600,1.468357666015625,-0.008842227049171925,-0.007219296880066395,0.026341592893004417
1782951202786284800,1.478284912109375,-0.0073412698693573475,-0.006183593533933163,0.03063247725367546
1782951202796211500,1.48821142578125,-0.007889880798757076,-0.009442769922316074,0.027060646563768387
1782951202806138600,1.498138671875,-0.009311743080615997,-0.0070672305300831795,0.0186474546790123
1782951202816064500,1.508064453125,-0.015499331057071686,0.010794058442115784,0.0043651871383190155
1782951202825991700,1.51799169921875,-0.016938770189881325,0.018025072291493416,-0.005151352379471064
1782951202835918600,1.527918701171875,-0.014444719068706036,0.017736386507749557,-0.00755086075514555
1782951202845845500,1.537845458984375,-0.010000436566770077,0.019350795075297356,0.004005660768598318
1782951202855771600,1.547771728515625,-0.005693838465958834,0.0023526365403085947,0.0216554943472147
1782951202865698600,1.557698486328125,0.0015651397407054901,-0.01672331988811493,0.036009132862091064
1782951202875625700,1.567625732421875,0.004514058120548725,-0.024355407804250717,0.043534692376852036
1782951202885552600,1.577552734375,0.0033657029271125793,-0.00868989434093237,0.036736443638801575
1782951202895479600,1.5874794921875,-0.0052964948117733,0.0001507349224993959,0.01942749321460724
1782951202905405400,1.597405517578125,-0.01011095754802227,0.002313754288479686,-0.00152359448838979
1782951202915332600,1.60733251953125,-0.01079672109335661,-0.002508165081962943,-0.019338544458150864
1782951202925259500,1.617259521484375,-0.011752263642847538,-0.008502141572535038,-0.035052791237831116
1782951202935186700,1.627186767578125,-0.00947739090770483,-0.03478514403104782,-0.03544401004910469
1782951202945113600,1.637113525390625,-0.010645986534655094,-0.03779664635658264,-0.01768738403916359
1782951202955039500,1.64703955078125,-0.011958125978708267,-0.021149493753910065,0.011807390488684177
1782951202964966700,1.656966552734375,-0.020954815670847893,0.004573446698486805,0.03375104069709778
1782951202974893600,1.6668935546875,-0.024707743898034096,0.02274818904697895,0.04212960973381996
1782951202984820500,1.676820556640625,-0.02642441727221012,0.025787122547626495,0.03981958329677582
1782951202994747600,1.68674755859375,-0.028961077332496643,0.009824134409427643,0.02959997020661831
1782951203004673500,1.696673583984375,-0.02732935920357704,-0.015860721468925476,0.04041986167430878
1782951203014600400,1.706600341796875,-0.031004788354039192,0.002126800362020731,0.05390824005007744
1782951203024527600,1.716527587890625,-0.025497369468212128,0.007153783459216356,0.05572531372308731
1782951203034454500,1.72645458984375,-0.013427391648292542,0.00968804769217968,0.05068554729223251
1782951203044381700,1.736381591796875,-0.010333331301808357,0.010641193017363548,0.03431163355708122
1782951203054307600,1.7463076171875,-0.00959883164614439,0.00869255792349577,0.019721506163477898
1782951203064234500,1.756234375,-0.008926116861402988,0.0036730316933244467,0.00950801745057106
1782951203074161400,1.766161376953125,-0.008219846524298191,-0.0012783173006027937,0.01242178212851286
1782951203084088600,1.776088623046875,-0.006128199864178896,-0.0007832356495782733,0.021944446489214897
1782951203094015500,1.786015380859375,-0.003635481232777238,-0.0022453111596405506,0.029653232544660568
1782951203103941600,1.795941650390625,0.007360710762441158,-0.014063354581594467,0.022055501118302345
1782951203113868500,1.80586865234375,0.020650682970881462,-0.029026059433817863,0.006592122372239828
1782951203123795500,1.81579541015625,0.028254806995391846,-0.02725798636674881,-0.008704009465873241
1782951203133722600,1.82572265625,0.029160015285015106,-0.013037504628300667,-0.018562499433755875
1782951203143649500,1.8356494140625,0.024202806875109673,0.004692223388701677,-0.021276792511343956
1782951203153575700,1.84557568359375,0.01950552500784397,0.021091170608997345,-0.012050803750753403
1782951203163502300,1.85550244140625,0.01420530118048191,0.030250048264861107,0.0007281082216650248
1782951203173429500,1.865429443359375,0.008798019029200077,0.03569035232067108,0.01878007873892784
1782951203183356400,1.8753564453125,0.003772367723286152,0.0269533209502697,0.03086257539689541
1782951203193283600,1.88528369140625,0.00000958738019107841,0.009440373629331589,0.03352520242333412
1782951203203209700,1.895209716796875,-0.006330333650112152,-0.00023089606838766485,0.028666531667113304
1782951203213136600,1.90513671875,-0.011386877857148647,-0.003397927153855562,0.008359395898878574
1782951203223063600,1.9150634765625,-0.011772236786782742,-0.005961752496659756,-0.021091969683766365
1782951203232990500,1.924990478515625,-0.013515009544789791,-0.018488196656107903,-0.046247921884059906
1782951203242917600,1.934917724609375,-0.006340187508612871,-0.014929148368537426,-0.05417482182383537
1782951203252843500,1.944843505859375,-0.004751079250127077,-0.010499246418476105,-0.04442072659730911
1782951203262770700,1.954770751953125,-0.005080245900899172,-0.006010221783071756,-0.018130267038941383
1782951203272697300,1.964697265625,-0.0037502634804695845,0.006563626695424318,0.01275920495390892
1782951203282624500,1.97462451171875,-0.00261788722127676,0.024049676954746246,0.03640807420015335
1782951203292550700,1.984550537109375,-0.0016567525453865528,0.03526318073272705,0.052677858620882034
1782951203302477600,1.9944775390625,0.00017417073831893504,0.0353100523352623,0.05271940305829048
1782951203312404700,2.00440478515625,0.005754824727773666,0.019051721319556236,0.03917376697063446
1782951203322331600,2.01433154296875,0.015024756081402302,-0.0013065468519926071,0.013824735768139362
1782951203332258600,2.024258544921875,0.019643209874629974,-0.009288307279348373,-0.010180998593568802
1782951203342184400,2.034184326171875,0.025948775932192802,-0.0062280683778226376,-0.030734742060303688
1782951203352111600,2.044111572265625,0.03057548590004444,0.0005012069013901055,-0.036558810621500015
1782951203362038500,2.05403857421875,0.02696743607521057,0.002653839997947216,-0.03466210514307022
1782951203371965700,2.063965576171875,0.0209465604275465,0.0034381409641355276,-0.023187078535556793
1782951203381892600,2.073892578125,0.014555772766470909,0.001654089312069118,-0.0018599516479298472
1782951203391818500,2.083818603515625,0.007379619404673576,0.007496265694499016,0.010355968028306961
1782951203401745700,2.09374560546875,0.009615609422326088,0.001311873085796833,0.018806444481015205
1782951203411672600,2.103672607421875,0.011543471366167068,0.007148190401494503,0.02485901117324829
1782951203421599700,2.113599853515625,0.006040315609425306,0.01678670383989811,0.029266275465488434
1782951203431526700,2.123526611328125,-0.0003478088474366814,0.020807810127735138,0.02557247132062912
1782951203441452500,2.13345263671875,-0.0019824570044875145,0.019468773156404495,0.012226039543747902
1782951203451379500,2.14337939453125,0.003962783608585596,0.02557327039539814,-0.003613909473642707
1782951203461306600,2.153306640625,0.00780519237741828,0.01278876606374979,-0.018276209011673927
1782951203471233500,2.163233642578125,0.00999164767563343,-0.0005166532355360687,-0.021440843120217323
1782951203481160700,2.17316064453125,0.011365838348865509,-0.007594802882522345,-0.004848817363381386
1782951203491086600,2.183086669921875,0.01088780164718628,-0.006339921150356531,0.017945976927876472
1782951203501013500,2.193013427734375,0.004168379586189985,-0.001222390914335847,0.03303438425064087
1782951203510940700,2.202940673828125,0.004083957523107529,0.0068448567762970924,0.038123417645692825
1782951203520867600,2.21286767578125,0.00950855016708374,0.013649232685565948,0.029375199228525162
1782951203530794500,2.22279443359375,0.01005210168659687,0.016529973596334457,0.014829546213150024
1782951203540720400,2.232720458984375,0.007668306119740009,0.008861135691404343,0.007192132994532585
1782951203550647600,2.2426474609375,0.0072954632341861725,0.008753277361392975,0.0071066454984247684
1782951203560574500,2.252574462890625,0.0027808728627860546,0.0033843449782580137,0.012864932417869568
1782951203570501600,2.262501708984375,0.002938798163086176,-0.0025683525018393993,0.010469685308635235
1782951203580428500,2.272428466796875,0.009325590915977955,-0.008448345586657524,0.0018676748732104897
1782951203590354700,2.282354736328125,0.01034744642674923,-0.01689802296459675,-0.0009110674145631492
1782951203600281600,2.292281494140625,0.006738330237567425,-0.019781960174441338,-0.006727145053446293
1782951203610208500,2.30220849609375,0.004449076950550079,-0.006791593506932259,-0.0041124531999230385
1782951203620135400,2.312135498046875,0.001070857048034668,0.012228436768054962,-0.00202267081476748
1782951203630061600,2.3220615234375,-0.005330583080649376,0.01794038526713848,0.015629293397068977
1782951203639988700,2.33198876953125,-0.011699000373482704,0.028450284153223038,0.024696825072169304
1782951203649915400,2.341915283203125,-0.013579191640019417,0.028367459774017334,0.02665078453719616
1782951203659842600,2.351842529296875,-0.010097108781337738,0.019115637987852097,0.020503943786025047
1782951203669769500,2.36176953125,-0.012025503441691399,0.0031063109636306763,0.022004900500178337
1782951203679695600,2.371695556640625,-0.001961151836439967,-0.006648048758506775,0.0237031988799572
1782951203689622500,2.38162255859375,0.005630987696349621,-0.009154083207249641,0.025293638929724693
1782951203699549700,2.3915498046875,0.004631769843399525,-0.007201720029115677,0.019542274996638298
1782951203709476400,2.401476318359375,-0.0020698087755590677,0.0009483516332693398,0.0165395624935627
1782951203719403800,2.41140380859375,-0.004887965973466635,0.012152004055678844,0.00905501376837492
1782951203729330000,2.421329833984375,-0.016446618363261223,0.022280538454651833,0.0010996191995218396
1782951203739256800,2.4312568359375,-0.023560985922813416,0.020854149013757706,-0.012344550341367722
1782951203749184000,2.44118408203125,-0.016918262466788292,0.00848483107984066,-0.01372193731367588
1782951203759111000,2.45111083984375,-0.011333081871271133,0.0029768813401460648,-0.01170565839856863
1782951203769037800,2.461037841796875,-0.008867527358233929,0.0043713124468922615,-0.005122856702655554
1782951203778963700,2.470963623046875,-0.003734284546226263,-0.001814944320358336,-0.0014660701854154468
1782951203788891000,2.480890869140625,0.0038123151753097773,0.006069876719266176,0.0031523837242275476
1782951203798817800,2.49081787109375,0.006689061876386404,0.016528643667697906,0.010013751685619354
1782951203808745000,2.500744873046875,0.0026762105990201235,0.020623786374926567,0.009314672090113163
1782951203818671600,2.510671630859375,0.0022069616243243217,0.020741231739521027,0.002569950418546796
1782951203828597800,2.52059765625,0.00009614011651137844,0.014242319390177727,0.002426672261208296
1782951203838525000,2.53052490234375,-0.00011105381418019533,0.011955196037888527,0.00424161646515131
1782951203848451800,2.540451904296875,-0.00503870053216815,0.01224761176854372,0.0151605773717165
1782951203858379000,2.55037890625,-0.006711432244628668,0.005287706386297941,0.021825404837727547
1782951203868306000,2.560305908203125,-0.0016247945604845881,0.001960352761670947,0.019177157431840897
1782951203878231800,2.570231689453125,-0.001109739183448255,0.0033744913525879383,0.006587328854948282
1782951203888158700,2.58015869140625,-0.0006460828590206802,-0.006232329644262791,-0.02166588045656681
1782951203898086000,2.5900859375,0.0054938350804150105,-0.015622901730239391,-0.04567454382777214
1782951203908012800,2.6000126953125,0.011886753141880035,-0.012947224080562592,-0.05109727382659912
1782951203917940000,2.60993994140625,0.010625746101140976,-0.003394198836758733,-0.034750524908304214
1782951203927865900,2.619865966796875,0.012488095089793205,0.01804983988404274,0.004950284026563168
1782951203937792800,2.629792724609375,0.00899695698171854,0.03629782050848007,0.04868631437420845
1782951203947720000,2.639719970703125,0.005662146955728531,0.044556815177202225,0.07434267550706863
1782951203957646800,2.649646728515625,0.005875465925782919,0.03951678425073624,0.07448488473892212
1782951203967573000,2.659572998046875,0.01155758649110794,0.02875974215567112,0.049677275121212006
1782951203977499600,2.669499755859375,0.012792494148015976,0.0070706927217543125,0.018807509914040565
1782951203987426800,2.6794267578125,0.018017616122961044,-0.01715555042028427,0.0014956312952563167
1782951203997353700,2.689353759765625,0.012606605887413025,-0.008172974921762943,-0.003516437951475382
1782951204007281000,2.699281005859375,0.009551693685352802,-0.008793225511908531,-0.018793128430843353
1782951204017206800,2.709206787109375,0.008392686024308205,-0.0013275857781991363,-0.02291996218264103
1782951204027133700,2.7191337890625,0.003805390791967511,0.012911537662148476,-0.026103772222995758
1782951204037060900,2.729060791015625,-0.0011763182701542974,0.022296782582998276,-0.023431289941072464
1782951204046987800,2.73898779296875,-0.005231780000030994,0.019748404622077942,-0.015425295569002628
1782951204056914700,2.748914794921875,-0.005322593729943037,0.001746501075103879,-0.003194727934896946
1782951204066840800,2.7588408203125,-0.0015747271245345473,-0.011094463057816029,0.013786918483674526
1782951204076768000,2.76876806640625,0.0022945795208215714,-0.01137036643922329,0.02761697955429554
1782951204086694700,2.778694580078125,0.0030181603506207466,-0.0024674187880009413,0.03519979864358902
1782951204096621800,2.788621826171875,-0.0008245146600529552,0.0021614215802401304,0.03003806062042713
1782951204106548700,2.798548828125,-0.004599012900143862,0.0018937737913802266,0.015103318728506565
1782951204116475000,2.808474853515625,-0.004541754722595215,0.002129729837179184,-0.010350375436246395
1782951204126401800,2.81840185546875,-0.009575662203133106,0.005636846646666527,-0.04072266072034836
1782951204136329000,2.828328857421875,-0.01062068622559309,0.00726377172395587,-0.05912989750504494
1782951204146255600,2.838255615234375,-0.006649646908044815,0.0028099012561142445,-0.05153056979179382
1782951204156182800,2.848182861328125,-0.004838963504880667,0.000011451592399680521,-0.02569551020860672
1782951204166109000,2.85810888671875,-0.00401471508666873,-0.008347944356501102,0.010334130376577377
1782951204176035800,2.868035888671875,-0.0010703244479373097,-0.00577719509601593,0.042035866528749466
1782951204185963000,2.877962890625,0.0032386700622737408,-0.002817890839651227,0.051712729036808014
1782951204195889700,2.8878896484375,0.003320162883028388,0.0007462177309207618,0.04135143384337425
1782951204205815800,2.89781591796875,0.002314020646736026,0.0022053637076169252,0.015264440327882767
1782951204215742700,2.90774267578125,-0.00027270769351162016,0.001493500778451562,-0.01061882171779871
1782951204225670000,2.917669921875,0.004090615548193455,0.005019525997340679,-0.028558140620589256
1782951204235596800,2.9275966796875,-0.00010972223390126601,0.0078046596609056,-0.0329880453646183
1782951204245524000,2.93752392578125,-0.0030221552588045597,-0.00008548746700398624,-0.02280065417289734
1782951204255449900,2.947449951171875,-0.0021558289881795645,-0.01335868239402771,-0.009256348945200443
1782951204265376800,2.957376708984375,0.00023409185814671218,-0.01793159544467926,0.004818723537027836
1782951204275304000,2.967303955078125,-0.003631752682849765,-0.011324027553200722,0.010663297027349472
1782951204285230800,2.97723095703125,-0.006164685357362032,-0.0038362834602594376,0.008942361921072006
1782951204295158000,2.987157958984375,-0.013113937340676785,0.012419119477272034,0.007753260899335146
1782951204305083600,2.997083740234375,-0.017944112420082092,0.032160867005586624,0.009574863128364086
1782951204315010800,3.0070107421875,-0.01822560839354992,0.03930160030722618,0.008990831673145294
1782951204324937700,3.016937744140625,-0.013318735174834728,0.027701934799551964,0.007130613550543785
1782951204334865000,3.026864990234375,-0.003430684097111225,0.002397377509623766,0.004038949962705374
1782951204344791800,3.036791748046875,0.010426009073853493,-0.007730890065431595,0.006636597216129303
1782951204354717700,3.0467177734375,0.010633735917508602,-0.007829693146049976,0.009443036280572414
1782951204364644900,3.056644775390625,0.008675247430801392,-0.007907724007964134,0.005343632772564888
1782951204374571800,3.06657177734375,0.002883404493331909,-0.012721121311187744,-0.0009603358921594918
1782951204384499000,3.0764990234375,-0.006719954311847687,-0.0016791230300441384,-0.003952929750084877
1782951204394425900,3.08642578125,-0.018743593245744705,0.01878434047102928,-0.0042733084410429
1782951204404351700,3.096351806640625,-0.026016952469944954,0.029986128211021423,-0.006150037981569767
1782951204414278700,3.106278564453125,-0.022819828242063522,0.01137010008096695,-0.01236532349139452
1782951204424205800,3.116205810546875,-0.005928995553404093,-0.0051747881807386875,-0.011505655013024807
1782951204434132700,3.1261328125,0.002261556452140212,-0.020928984507918358,-0.008029164746403694
1782951204444059000,3.136058837890625,0.005179315805435181,-0.022404640913009644,0.0023497070651501417
1782951204453986000,3.145986083984375,0.0043931505642831326,-0.01119486428797245,0.009884055703878403
1782951204463912700,3.15591259765625,-0.001281779375858605,0.005405418109148741,0.011196727864444256
1782951204473839900,3.16583984375,-0.008166050538420677,0.01552436500787735,0.002210956299677491
1782951204483766800,3.175766845703125,-0.012928581796586514,0.018250375986099243,-0.0022983080707490444
1782951204493693000,3.18569287109375,-0.01672731526196003,0.021405423060059547,-0.010053965263068676
1782951204503619800,3.195619873046875,-0.01804531365633011,0.013433250598609447,-0.016636500135064125
1782951204513546800,3.205546630859375,-0.01751055009663105,0.0059963734820485115,-0.014387461356818676
1782951204523473700,3.2154736328125,-0.018613364547491074,-0.0016279903938993812,-0.013156548142433167
1782951204533400800,3.22540087890625,-0.01829937845468521,-0.006869091186672449,-0.011257448233664036
1782951204543327000,3.235326904296875,-0.013375460170209408,-0.00842384435236454,-0.012675315141677856
1782951204553254000,3.24525390625,-0.013705692254006863,-0.0007246461464092135,-0.018062356859445572
1782951204563180800,3.255180908203125,-0.010821222327649593,-0.0032445292454212904,-0.02479669265449047
1782951204573107700,3.265107666015625,-0.006738063879311085,-0.011376758106052876,-0.021339643746614456
1782951204583035000,3.275034912109375,0.0016021577175706625,-0.012612731195986271,-0.019655460491776466
1782951204592960800,3.284960693359375,0.005584915168583393,-0.006461894139647484,-0.004742024466395378
1782951204602888000,3.294887939453125,0.003320162883028388,0.01341727189719677,0.018246915191411972
1782951204612814800,3.30481494140625,-0.0003504719934426248,0.0377095602452755,0.04742397367954254
1782951204622741800,3.31474169921875,-0.007669637445360422,0.047053262591362,0.07275702804327011
1782951204632668700,3.324668701171875,-0.01088780164718628,0.03509993106126785,0.0776607096195221
1782951204642594800,3.3345947265625,-0.005936718545854092,0.007983890362083912,0.05849500000476837
1782951204652521700,3.344521728515625,0.0018455706303939223,-0.013530456461012363,0.024655811488628387
1782951204662449000,3.354448974609375,0.0052197957411408424,-0.01649348996579647,-0.015210910700261593
1782951204672375800,3.364375732421875,0.009329586289823055,-0.010617490857839584,-0.04014661908149719
1782951204682302700,3.374302734375,0.012003133073449135,-0.00014567491598427296,-0.04207554832100868
1782951204692228900,3.384228759765625,0.01074026245623827,0.008798551745712757,-0.021558821201324463
1782951204702155800,3.39415576171875,0.0038029940333217382,0.007345797028392553,0.002469815546646714
1782951204712083000,3.4040830078125,0.007766842842102051,-0.0016245282022282481,0.02100301906466484
1782951204722009300,3.41400927734375,0.004081560764461756,-0.015340073965489864,0.020776119083166122
1782951204731935200,3.423935302734375,0.0033478597179055214,-0.02045467495918274,0.009939982555806637
1782951204741862400,3.4338623046875,-0.00035606464371085167,-0.014003166928887367,0.0007922904333099723
1782951204751789300,3.443789306640625,-0.005481318105012178,-0.0001816275907913223,-0.010601511225104332
1782951204761716500,3.453716552734375,-0.007126352749764919,0.01943548396229744,-0.0046695866622030735
1782951204771643400,3.463643310546875,-0.006762565113604069,0.031386420130729675,0.006176669616252184
1782951204781569300,3.4735693359375,-0.006262955721467733,0.021935392171144485,0.01715288870036602
1782951204791496200,3.48349609375,-0.0009062737226486206,-0.00152359448838979,0.022907447069883347
1782951204801423400,3.49342333984375,-0.00041864890954457223,-0.015503059141337872,0.010148507542908192
1782951204811350300,3.503350341796875,0.0057138120755553246,-0.016634104773402214,-0.00506906071677804
1782951204821277400,3.51327734375,0.004916994366794825,-0.01239275373518467,-0.015455389395356178
1782951204831203300,3.523203369140625,0.005944175645709038,0.0025094966404139996,-0.01176238339394331
1782951204841130200,3.533130126953125,0.00016698020044714212,0.019034145399928093,0.0010314423125237226
1782951204851057400,3.543057373046875,-0.007456584833562374,0.019903667271137238,0.019151058048009872
1782951204860984300,3.552984375,-0.00273133791051805,0.0031166973058134317,0.02754800394177437
1782951204870911200,3.5629111328125,-0.0017164073651656508,-0.00014061490946915,0.03164980560541153
1782951204880837000,3.572837158203125,0.002537992550060153,-0.004328968469053507,0.022607840597629547
1782951204890764300,3.582764404296875,0.0020064255222678185,-0.015297729521989822,0.005822735372930765
1782951204900691200,3.592691162109375,0.00821052584797144,-0.015108113177120686,-0.01215999387204647
1782951204910618400,3.602618408203125,0.013141368515789509,0.0071010529063642025,-0.014723286032676697
1782951204920545300,3.612545166015625,0.007455785758793354,0.028126975521445274,-0.004496214911341667
1782951204930471400,3.622471435546875,0.00361683894880116,0.026885144412517548,0.003404052462428808
1782951204940398300,3.6323984375,-0.0023467775899916887,0.0009038768475875258,0.004462658893316984
1782951204950325200,3.6423251953125,0.0014817827614024282,-0.012552277185022831,0.008224107325077057
1782951204960252200,3.652252197265625,-0.0029111013282090425,-0.006061621010303497,0.014570686966180801
1782951204970178300,3.66217822265625,-0.006308495998382568,-0.006542587652802467,0.02183712273836136
1782951204980105500,3.67210546875,-0.006082393694669008,-0.009318133816123009,0.022947659716010094
1782951204990032400,3.682032470703125,-0.002886600326746702,0.0032834112644195557,0.024028370156884193
1782951204999959300,3.691959228515625,-0.01161564327776432,0.018506838008761406,0.02166987583041191
1782951205009886200,3.70188623046875,-0.01654036156833172,0.0184013769030571,0.018096977844834328
1782951205019812400,3.711812255859375,-0.015978965908288956,0.006867759861052036,0.01437920518219471
1782951205029739300,3.7217392578125,-0.006592388730496168,0.0017366473330184817,0.010034258477389812
1782951205039666400,3.73166650390625,-0.0006229133578017354,-0.0019491675775498152,-0.00013129384024068713
1782951205049593000,3.741593017578125,0.0018165421206504107,0.0004916195175610483,-0.004317782819271088
1782951205059520300,3.751520263671875,0.007029946427792311,0.006037652492523193,-0.01263776421546936
1782951205069446400,3.7614462890625,0.006161755882203579,0.003477022983133793,-0.006294913589954376
1782951205079373300,3.771373291015625,-0.008114651776850224,0.009414540603756905,-0.00001651159800530877
1782951205089300500,3.781300537109375,-0.024810807779431343,0.01155811920762062,0.006072273477911949
1782951205099227400,3.791227294921875,-0.02785986103117466,0.010202569887042046,0.0002287655370309949
1782951205109154300,3.801154296875,-0.02448137477040291,0.00044607947347685695,-0.017243701964616776
1782951205119080200,3.811080078125,-0.012237757444381714,-0.001910019083879888,-0.03171904757618904
1782951205129007400,3.82100732421875,-0.0015480954898521304,-0.00007723167072981596,-0.0362381637096405
1782951205138934300,3.830934326171875,0.006321545224636793,-0.0019944412633776665,-0.030951790511608124
1782951205148861400,3.840861328125,0.010242517106235027,-0.002540122950449586,-0.016753146424889565
1782951205158788000,3.8507880859375,0.008331432938575745,0.007494135294109583,0.006963633466511965
1782951205168714200,3.86071435546875,0.0014114753575995564,0.015733689069747925,0.03130332753062248
1782951205178641400,3.870641357421875,-0.0035324168857187033,0.017483385279774666,0.04586256295442581
1782951205188568300,3.880568359375,-0.008567389100790024,0.014374411664903164,0.04608680307865143
1782951205198495500,3.89049560546875,-0.009836917743086815,0.00455800024792552,0.02171648107469082
1782951205208422400,3.90042236328125,-0.004763862583786249,0.0005211806274019182,-0.009159942157566547
1782951205218348300,3.910348388671875,0.0021901836153119802,0.005016330163925886,-0.026442792266607285
1782951205228275200,3.920275146484375,0.00458596320822835,0.006822485942393541,-0.036981452256441116
1782951205238202400,3.930202392578125,0.007154049351811409,-0.0002924150903709233,-0.0314660482108593
1782951205248129300,3.94012939453125,0.005397428758442402,-0.007223558146506548,-0.01635820046067238
1782951205258055200,3.95005517578125,0.007620635442435741,-0.01600346714258194,-0.0073471288196742535
1782951205267982300,3.959982421875,0.008202802389860153,-0.017850369215011597,0.006807572208344936
1782951205277909200,3.9699091796875,0.013777065090835094,-0.012179434299468994,0.015341139398515224
1782951205287836400,3.97983642578125,0.01751188188791275,0.00538331363350153,0.026374615728855133
1782951205297763300,3.989763427734375,0.019844545051455498,0.03205780312418938,0.03861290588974953
1782951205307689500,3.999689453125,0.010991664603352547,0.04313015937805176,0.04842159524559975
1782951205317615400,4.009615478515625,0.009708020836114883,0.03299416974186897,0.050147056579589844
1782951205327542300,4.019542236328125,0.005501291714608669,0.015385081060230732,0.0330977663397789
1782951205337469400,4.029469482421875,0.0013499563792720437,-0.0007896272582001984,0.011298194527626038
1782951205347396400,4.039396240234375,0.0070485882461071014,0.0017827199772000313,-0.016163524240255356
1782951205357323500,4.049323486328125,0.011712050065398216,0.008715727366507053,-0.027996746823191643
1782951205367249200,4.059249267578125,0.016805345192551613,0.009527725167572498,-0.0253977682441473
1782951205377176300,4.06917626953125,0.014123009517788887,0.000026897927455138415,-0.009800964966416359
1782951205387103200,4.079103271484375,0.008903746493160725,-0.005391037091612816,0.0190727598965168
1782951205397030400,4.089030517578125,0.0044200485572218895,-0.011873969808220863,0.030533941462635994
1782951205406957300,4.098957275390625,0.0019094864837825298,-0.008219313807785511,0.028368791565299034
1782951205416883200,4.10888330078125,0.0004689826746471226,0.0059630838222801685,0.01637577824294567
1782951205426810400,4.118810302734375,0.00014141385327093303,0.016588032245635986,0.001982190879061818
1782951205436737300,4.1287373046875,0.0009688580175861716,0.022973492741584778,-0.01444312185049057
1782951205446664400,4.13866455078125,0.0017600831342861056,0.015935823321342468,-0.014177870936691761
1782951205456590300,4.14859033203125,-0.0017153420485556126,0.012842562049627304,-0.0006894923863001168
1782951205466517200,4.158517333984375,-0.0057593523524701595,0.005323126446455717,0.013558685779571533
1782951205476444200,4.168444091796875,0.0022916500456631184,0.0026612968649715185,0.02425234206020832
1782951205486371300,4.178371337890625,0.005358546506613493,-0.0031816784758120775,0.023480558767914772
1782951205496298200,4.18829833984375,0.010182330384850502,-0.007298126816749573,0.02401904948055744
1782951205506224400,4.198224365234375,0.004743888974189758,0.006015548016875982,0.020376112312078476
1782951205516151600,4.208151611328125,0.006645119283348322,0.013230850920081139,0.014338725246489048
1782951205526078200,4.218078125,-0.00039494677912443876,0.004206995479762554,0.0028154938481748104
1782951205536005400,4.22800537109375,-0.00410552928224206,0.0010434264549985528,0.0006524744676426053
1782951205545932300,4.237932373046875,-0.006334328558295965,0.005303418729454279,-0.005499427672475576
1782951205555858400,4.2478583984375,-0.007485879585146904,0.006078398786485195,-0.010605772957205772
1782951205565785300,4.257785400390625,-0.0013542174128815532,0.009099489077925682,-0.019571304321289062
1782951205575712300,4.267712158203125,-0.004777444526553154,-0.0016173376934602857,-0.01564047858119011
1782951205585639200,4.27763916015625,-0.007522098254412413,-0.007899468764662743,-0.010308297351002693
1782951205595566300,4.28756640625,-0.010522948578000069,-0.010585266165435314,-0.0002769687562249601
1782951205605492500,4.297492431640625,-0.012686233967542648,-0.006047772243618965,0.01088806800544262
1782951205615419400,4.30741943359375,-0.011115501634776592,0.0017576862592250109,0.01715768128633499
1782951205625346300,4.31734619140625,-0.009957559406757355,0.005721268709748983,0.012518721632659435
1782951205635273200,4.327273193359375,-0.005279717035591602,0.0073535204865038395,0.0007736482657492161
1782951205645200100,4.3372001953125,-0.002115348819643259,0.007830758579075336,-0.005892243701964617
1782951205655126300,4.347126220703125,-0.004196076653897762,0.007444866932928562,-0.006866694428026676
1782951205665053400,4.357053466796875,-0.002269545802846551,0.00005912217602599412,-0.009780459105968475
1782951205674980400,4.36698046875,0.0014343785587698221,-0.0028426581993699074,-0.012990366667509079
1782951205684907300,4.3769072265625,0.002285258611664176,-0.000371777277905494,-0.011038802564144135
1782951205694834200,4.386834228515625,-0.0026170883793383837,0.006578806787729263,-0.0013693973887711763
1782951205704760300,4.39676025390625,-0.004710332956165075,0.004992361646145582,-0.002981142606586218
1782951205714689300,4.406689208984375,-0.002407231368124485,0.0014740596525371075,-0.00010386328358436003
1782951205724617200,4.4166171875,-0.003524960018694401,0.010098174214363098,0.006770021747797728
1782951205734543000,4.426543212890625,-0.005850964691489935,0.010223076678812504,0.011815913021564484
1782951205744470000,4.436469970703125,-0.0031856733839958906,0.004891428165137768,0.013773069716989994
1782951205754397200,4.446397216796875,0.0008756473544053733,-0.009909888729453087,0.0037497307639569044
1782951205764324000,4.456323974609375,0.004536428488790989,-0.018518555909395218,-0.010808438993990421
1782951205774251300,4.466251220703125,0.008435030467808247,-0.02293327823281288,-0.02468217723071575
1782951205784177200,4.47617724609375,0.0007366303470917046,-0.007970308884978294,-0.027119768783450127
1782951205794104000,4.48610400390625,-0.009660083800554276,0.007216367404907942,-0.026373283937573433
1782951205804031200,4.49603125,-0.021573469042778015,0.015037273056805134,-0.01757979206740856
1782951205813958100,4.505958251953125,-0.032110266387462616,0.00896926037967205,-0.005973470397293568
1782951205823885300,4.51588525390625,-0.03435318171977997,0.0026732811238616705,0.009578591212630272
1782951205833811000,4.52581103515625,-0.02773788757622242,-0.00013901700731366873,0.02538365311920643
1782951205843738000,4.535738037109375,-0.018131598830223083,0.0020096213556826115,0.022848058491945267
1782951205853665000,4.5456650390625,-0.0021606225054711103,0.0006463492172770202,0.010845723561942577
1782951205863592200,4.55559228515625,0.008785502053797245,0.0014791196445003152,-0.010090184397995472
1782951205873519000,4.56551904296875,0.0073047843761742115,0.004500209353864193,-0.02406405657529831
1782951205883445200,4.5754453125,0.005344697739928961,0.01101669855415821,-0.02827744372189045
1782951205893372200,4.5853720703125,0.0005834985640831292,0.01506949681788683,-0.02195802889764309
1782951205903299000,4.595299072265625,-0.003183542750775814,0.013200757093727589,-0.014693458564579487
1782951205913226200,4.605226318359375,-0.0035246936604380608,0.0032855418976396322,-0.0006982808117754757
1782951205923153200,4.615153076171875,0.0010495517635717988,-0.006697583943605423,0.007103183306753635
1782951205933079300,4.625079345703125,0.0002359560749027878,-0.011344799771904945,0.011934157460927963
1782951205943006000,4.635005859375,0.0014093448407948017,-0.01740029640495777,0.012475045397877693
1782951205952933000,4.64493310546875,0.0019401127938181162,-0.010190851986408234,-0.0017379788914695382
1782951205962860000,4.654860107421875,0.007255782373249531,-0.005593437235802412,-0.014995194971561432
1782951205972786200,4.6647861328125,0.013193033635616302,-0.0018128136871382594,-0.022359101101756096
1782951205982713300,4.67471337890625,0.019625365734100342,-0.0029824741650372744,-0.01396029070019722
1782951205992640300,4.68464013671875,0.017054351046681404,-0.004327103961259127,-0.0024881914723664522
1782951206002567200,4.694567138671875,0.017436247318983078,-0.0025217472575604916,0.007339671719819307
1782951206012494000,4.704494140625,0.015428757295012474,-0.000770452490542084,0.009396963752806187
1782951206022420200,4.714420166015625,0.009273393079638481,0.013733921572566032,0.010998855344951153
1782951206032347100,4.72434716796875,0.003053047927096486,0.02997227944433689,0.01098633836954832
1782951206042274300,4.7342744140625,0.001035436987876892,0.03316114842891693,0.01437867246568203
1782951206052201000,4.744200927734375,-0.0032959282398223877,0.022457372397184372,0.014128868468105793
1782951206062128000,4.754128173828125,-0.0026437200140208006,-0.0013233247445896268,0.016397882252931595
1782951206072054300,4.76405419921875,-0.003306314582005143,-0.015123292803764343,0.015233281068503857
1782951206081981200,4.773981201171875,-0.0025603631511330605,-0.01938488334417343,0.013051886111497879
1782951206091908000,4.783908203125,-0.005931658670306206,-0.01907702162861824,0.00038056570338085294
1782951206101835300,4.793835205078125,-0.00785765703767538,-0.00680197961628437,-0.01453073974698782
1782951206111762000,4.803761962890625,-0.0023816649336367846,0.007274424657225609,-0.02195909433066845
1782951206121688000,4.81368798828125,0.000675377668812871,0.008565258234739304,-0.02406432293355465
1782951206131615200,4.823615234375,0.0029385320376604795,0.0024519723374396563,-0.013702762313187122
1782951206141542100,4.833542236328125,0.004316451493650675,0.005033640656620264,0.005440305452793837
1782951206151469300,4.84346923828125,0.0011701929615810513,0.0034855452831834555,0.0204544086009264
1782951206161396200,4.853396240234375,-0.0017142767319455743,0.005604089703410864,0.022283468395471573
1782951206171322000,4.863322021484375,-0.002968092914670706,0.01649455353617668,0.00987340323626995
1782951206181249000,4.8732490234375,-0.004494084510952234,0.020924989134073257,-0.00980496034026146
1782951206191176200,4.88317626953125,0.0013249226612970233,0.018079668283462524,-0.02883297950029373
1782951206201103000,4.89310302734375,0.009040366858243942,0.008241684176027775,-0.03261227160692215
1782951206211030300,4.9030302734375,0.019394204020500183,-0.0024138891603797674,-0.02486167475581169
1782951206220956200,4.9129560546875,0.02106187492609024,-0.009366603568196297,-0.006857373286038637
1782951206230883000,4.922883056640625,0.017429323866963387,-0.00866113230586052,0.01600826159119606
1782951206240810200,4.932810302734375,0.005885586142539978,-0.006476541515439749,0.02401239238679409
1782951206250737200,4.942737060546875,-0.0007331682136282325,0.007249390706419945,0.016030365601181984
1782951206260664300,4.952664306640625,-0.009667274542152882,0.028503013774752617,0.0008862999966368079
1782951206270590000,4.96258984375,-0.013807158917188644,0.0285275150090456,-0.01672331988811493
1782951206280517000,4.97251708984375,-0.007299990858882666,0.020243220031261444,-0.02726304531097412
1782951206290444000,4.982444091796875,-0.003947869874536991,0.012972789816558361,-0.019525764510035515
1782951206300371200,4.99237109375,-0.002010420197620988,0.010312558151781559,0.001100684516131878
1782951206310297300,5.00229736328125,-0.005527656991034746,0.013904896564781666,0.01889113336801529
1782951206320224000,5.01222412109375,-0.0023819312918931246,0.010788465850055218,0.02973286248743534
1782951206330151200,5.022151123046875,-0.0033446638844907284,0.0034320156555622816,0.018267421051859856
1782951206340078000,5.032078125,0.0028367992490530014,0.006293315906077623,0.005114068277180195
1782951206350005200,5.042005126953125,0.0028594359755516052,0.01810949482023716,-0.005831257440149784
1782951206359931100,5.05193115234375,0.003209641668945551,0.023679763078689575,-0.010496582835912704
1782951206369858300,5.0618583984375,0.0017398431664332747,0.02377110905945301,0.0003909520455636084
1782951206379785000,5.071784912109375,0.0009912285022437572,0.004002198576927185,0.008470184169709682
1782951206389712100,5.081712158203125,0.004225637763738632,-0.008841427974402905,0.018548650667071342
1782951206399639000,5.09163916015625,0.006355900317430496,-0.01273097563534975,0.02118651196360588
1782951206409565200,5.101565185546875,0.0049276468344032764,-0.004771585576236248,0.012174640782177448
1782951206419492400,5.111492431640625,0.003460245206952095,0.003173955250531435,0.000809068325906992
1782951206429419000,5.1214189453125,0.0070488546043634415,0.008932508528232574,0.0041526672430336475
1782951206439346200,5.13134619140625,0.002478337613865733,0.024275511503219604,0.023439012467861176
1782951206449272000,5.14127197265625,-0.004882373381406069,0.023322099819779396,0.034262631088495255
1782951206459199200,5.15119921875,-0.00022663500567432493,0.009246229194104671,0.026399383321404457
1782951206469126100,5.161126220703125,0.00404587434604764,0.0023899206425994635,0.01960699073970318
1782951206479053300,5.17105322265625,0.0062829297967255116,0.007726629264652729,0.012488627806305885
1782951206488980000,5.18097998046875,0.002817624481394887,0.018815232440829277,0.007999337278306484
1782951206498906000,5.190906005859375,0.0016383767360821366,0.027716582641005516,0.003019491909071803
1782951206508833300,5.200833251953125,0.004347876645624638,0.03213449940085411,0.005160939879715443
1782951206518760200,5.21076025390625,0.005278385244309902,0.02057877741754055,0.013468137942254543
1782951206528687400,5.220687255859375,0.008282963186502457,0.0035033884923905134,0.012616459280252457
1782951206538614000,5.230614013671875,0.016687100753188133,-0.004945756401866674,-0.0034469293896108866
1782951206548540200,5.2405400390625,0.01338664535433054,-0.006396646611392498,-0.018460232764482498
1782951206558467000,5.250467041015625,0.006697850301861763,0.002569950418546796,-0.025123994797468185
1782951206568394200,5.260394287109375,-0.0026069683954119682,0.016770457848906517,-0.02147972583770752
1782951206578321200,5.270321044921875,-0.013571735471487045,0.021327925845980644,-0.009383114986121655
1782951206588248300,5.280248291015625,-0.012355735525488853,0.022164691239595413,-0.000532365869730711
1782951206598174200,5.29017431640625,-0.005817675497382879,0.014452442526817322,0.001865011639893055
1782951206608101000,5.30010107421875,0.006449643522500992,-0.00020666129421442747,-0.005119394510984421
1782951206618028300,5.3100283203125,0.016262592747807503,-0.0070278155617415905,-0.010665427893400192
1782951206627955200,5.319955078125,0.018519887700676918,-0.008131695911288261,-0.019599534571170807
1782951206637881000,5.329881103515625,0.01363352034240961,0.0023369237314909697,-0.023146597668528557
1782951206647808000,5.33980810546875,0.008386294357478619,0.01830337382853031,-0.028620725497603416
1782951206657735200,5.349735107421875,0.009237706661224365,0.024934111163020134,-0.024213727563619614
1782951206667662000,5.359662109375,0.009101352654397488,0.03413373604416847,-0.01152829173952341
1782951206677589200,5.36958935546875,0.006077866069972515,0.035304728895425797,0.009947971440851688
1782951206687515100,5.37951513671875,0.004561728797852993,0.023356987163424492,0.02491786703467369
1782951206697442000,5.389442138671875,0.0073295519687235355,0.009052617475390434,0.0258110910654068
1782951206707369200,5.399369140625,0.008232629857957363,-0.005780390929430723,0.013170929625630379
1782951206717296000,5.409296142578125,0.004708202555775642,-0.015809057280421257,-0.004976116586476564
1782951206727223000,5.41922314453125,0.006506102625280619,-0.01731880195438862,-0.020683972164988518
1782951206737149000,5.42914892578125,0.007101585157215595,-0.015487613156437874,-0.024237429723143578
1782951206747076000,5.439076171875,0.00624138442799449,-0.009020126424729824,-0.017493773251771927
1782951206757003000,5.4490029296875,0.006115949247032404,0.0017664746847003698,-0.0012692625168710947
1782951206766930200,5.45893017578125,0.0049401638098061085,0.008065116591751575,0.00974716991186142
1782951206776856000,5.46885595703125,0.008568188175559044,0.010297911241650581,0.021980665624141693
1782951206786783000,5.478782958984375,0.009493903256952763,0.009914948605000973,0.02563904970884323
1782951206796710000,5.4887099609375,0.0057524279691278934,0.02335379272699356,0.025462748482823372
1782951206806637000,5.498636962890625,0.003579554846510291,0.038669366389513016,0.017841314896941185
1782951206816564000,5.50856396484375,-0.001395496423356235,0.03837881237268448,0.011388476006686687
1782951206826490000,5.518489990234375,0.0018663433147594333,0.021406222134828568,0.011915781535208225
1782951206836417000,5.5284169921875,0.0028967203106731176,-0.0027593011036515236,0.005342567339539528
1782951206846344000,5.538343994140625,0.008108792826533318,-0.024564731866121292,-0.011871307156980038
1782951206856271000,5.54827099609375,0.011447598226368427,-0.02863137796521187,-0.02683534286916256
1782951206866198000,5.558197998046875,0.011553858406841755,-0.016285495832562447,-0.03617824241518974
1782951206876124200,5.568124267578125,0.006644054315984249,0.004857872147113085,-0.0285916980355978
1782951206886051000,5.578051025390625,-0.0022796657867729664,0.017466874793171883,-0.011875301599502563
1782951206895978000,5.58797802734375,-0.008375908248126507,0.027170101180672646,0.007167898118495941
1782951206905905000,5.59790478515625,-0.012250807136297226,0.029566681012511253,0.021047495305538177
1782951206915831000,5.6078310546875,-0.011355185881257057,0.02767210826277733,0.023555127903819084
1782951206925758200,5.61775830078125,-0.010037453845143318,0.0030013825744390488,0.013049222528934479
1782951206935685000,5.62768505859375,-0.007633684668689966,-0.007221694104373455,0.0028128307312726974
1782951206945612000,5.637612060546875,-0.006661098450422287,-0.001068193931132555,-0.006865363102406263
1782951206955539000,5.6475390625,-0.006481335032731295,0.001463406952098012,-0.012504073791205883
1782951206965465000,5.657465087890625,-0.0038453382439911366,-0.0054762582294642925,-0.018855180591344833
1782951206975392000,5.66739208984375,-0.003994208760559559,-0.0032202943693846464,-0.007411843631416559
1782951206985319200,5.677319091796875,-0.014040185138583183,-0.00017683389887679368,0.005600361619144678
1782951206995246000,5.68724609375,-0.018994996324181557,0.008844357915222645,0.02431492693722248
1782951207005173000,5.697173095703125,-0.025370869785547256,0.014249775558710098,0.02369893714785576
1782951207015099100,5.70709912109375,-0.026085397228598595,0.0161195807158947,0.01413712464272976
1782951207025026000,5.717026123046875,-0.023631293326616287,0.014170413836836815,-0.0030128341168165207
1782951207034953200,5.726953125,-0.014736335724592209,0.010752513073384762,-0.019181950017809868
1782951207044880100,5.736880126953125,-0.006355633959174156,-0.004294347018003464,-0.023301860317587852
1782951207054806000,5.746805908203125,-0.0022152173332870007,-0.014316088519990444,-0.010056362487375736
1782951207064733000,5.75673291015625,-0.0016863135388121009,-0.01906397193670273,0.0067481836304068565
1782951207074660000,5.76666015625,-0.0012599414912983775,-0.0173233300447464,0.021746307611465454
1782951207084587000,5.7765869140625,-0.002831472782418132,-0.008055795915424824,0.03392787277698517
1782951207094514200,5.78651416015625,-0.0046354979276657104,0.0046392264775931835,0.024100808426737785
1782951207104440000,5.796440185546875,-0.005299690645188093,0.011698201298713684,0.007000918034464121
1782951207114367000,5.806366943359375,0.003430950455367565,0.011905395425856113,-0.017001619562506676
1782951207124294100,5.816294189453125,0.0029409287963062525,0.010440124198794365,-0.026451580226421356
1782951207134221000,5.826220947265625,-0.00350472005084157,0.009722135961055756,-0.02274392731487751
1782951207144147200,5.836147216796875,-0.008311991579830647,0.008220112882554531,-0.011183146387338638
1782951207154073900,5.846073974609375,-0.013107812032103539,0.007548197638243437,-0.0020716730505228043
1782951207164001000,5.8560009765625,-0.01679016463458538,-0.0005222458858042955,-0.002826412906870246
1782951207173928000,5.865927978515625,-0.014386928640305996,-0.009376989677548409,-0.011173025704920292
1782951207183855000,5.875855224609375,-0.011958925053477287,-0.015300659462809563,-0.003985154442489147
1782951207193781200,5.88578125,-0.014626879245042801,-0.007964449934661388,0.007832356728613377
1782951207203708200,5.895708251953125,-0.015391472727060318,-0.001401355373673141,0.022412898018956184
1782951207213635000,5.905635009765625,-0.017906827852129936,-0.004277835600078106,0.031194137409329414
1782951207223562000,5.91556201171875,-0.012264389544725418,0.0006748450105078518,0.032272983342409134
1782951207233489200,5.9254892578125,-0.010849984362721443,0.008215319365262985,0.022456040605902672
1782951207243415000,5.9354150390625,-0.012791695073246956,0.008153000846505165,0.005768406670540571
1782951207253342200,5.94534228515625,-0.008067247457802296,0.003379018744453788,-0.012678244151175022
1782951207263268900,5.955268798828125,-0.002523345174267888,0.0005576659459620714,-0.016813334077596664
1782951207273196000,5.965196044921875,0.0008916263468563557,0.0012458267156034708,-0.014213024638593197
1782951207283122200,5.9751220703125,0.0025350630749017,0.0015864450251683593,-0.0013933659065514803
1782951207293049000,5.985049072265625,0.0019097528420388699,0.0033425334841012955,0.019571304321289062
1782951207302976300,5.994976318359375,-0.004165716469287872,0.007127950433641672,0.03110945038497448
1782951207312903200,6.004903076171875,-0.004563592839986086,-0.004341219086199999,0.035303663462400436
1782951207322830000,6.014830078125,-0.000520647969096899,-0.02040114626288414,0.03921344876289368
1782951207332756000,6.024755859375,-0.008841162547469139,-0.029807429760694504,0.029325664043426514
1782951207342683100,6.03468310546875,-0.01435417216271162,-0.015719573944807053,0.012240953743457794
1782951207352610000,6.044610107421875,-0.006622482556849718,0.0010793792316690087,0.0011102718999609351
1782951207362537200,6.054537109375,-0.0015286544803529978,-0.0019502328941598535,-0.009207346476614475
1782951207372463000,6.064463134765625,-0.003969707991927862,-0.012414058670401573,-0.009562878869473934
1782951207382390000,6.07439013671875,-0.004007524810731411,-0.021348165348172188,-0.011651063337922096
1782951207392317200,6.084317138671875,-0.01130778156220913,-0.015477493405342102,-0.013450827449560165
1782951207402244000,6.094244140625,-0.018029067665338516,-0.007078948430716991,-0.020481307059526443
1782951207412171000,6.1041708984375,-0.016619190573692322,0.0032442628871649504,-0.024808410555124283
1782951207422097000,6.114096923828125,-0.015096395276486874,0.009226521477103233,-0.01997610554099083
1782951207432024000,6.124024169921875,-0.003964115399867296,0.013410347513854504,-0.005017129238694906
1782951207441951000,6.133950927734375,-0.002900714986026287,0.006357498001307249,0.0023012375459074974
1782951207451878100,6.143878173828125,-0.006404902320355177,-0.0010404969798400998,0.014212225563824177
1782951207461805000,6.15380517578125,-0.014888135716319084,-0.012342420406639576,0.019347865134477615
1782951207471731000,6.16373095703125,-0.01173282228410244,-0.011567706242203712,0.018729479983448982
1782951207481657900,6.173657958984375,-0.007475759368389845,-0.008599347434937954,0.016453808173537254
1782951207491585000,6.1835849609375,-0.0041097900830209255,-0.01200899202376604,0.004508731886744499
1782951207501512000,6.193511962890625,0.005577191710472107,-0.008501875214278698,-0.003519633784890175
1782951207511438000,6.20343798828125,0.01356587652117014,0.004523379262536764,-0.0046480149030685425
1782951207521365200,6.213365234375,0.016516659408807755,0.016589894890785217,0.005303951445966959
1782951207531292000,6.2232919921875,0.013094496913254261,0.029224464669823647,0.014650315046310425
1782951207541219000,6.233218994140625,0.001686846255324781,0.02955176681280136,0.020168650895357132
1782951207551146000,6.24314599609375,0.0003028014034498483,0.026005500927567482,0.01709749363362789
1782951207561072000,6.253072021484375,0.005227518733590841,0.013728861697018147,0.0038282941095530987
1782951207570999000,6.2629990234375,0.016231967136263847,-0.0035183019936084747,-0.01133787538856268
1782951207580926200,6.27292626953125,0.02190876007080078,-0.015913452953100204,-0.025127723813056946
1782951207590852900,6.282852783203125,0.0280968826264143,-0.02424009144306183,-0.03314730152487755
1782951207600780000,6.292780029296875,0.026497919112443924,-0.018141984939575195,-0.04635072126984596
1782951207610706200,6.3027060546875,0.024533305317163467,0.013615943491458893,-0.07212479412555695
1782951207620633000,6.312633056640625,0.018374480307102203,-0.0073449984192848206,-0.09324898570775986
1782951207630560300,6.322560302734375,0.01642477884888649,-0.0018679412314668298,-0.09594490379095078
1782951207640487000,6.33248681640625,0.007498662453144789,0.0019451729021966457,-0.08126609027385712
1782951207650413000,6.3424130859375,-0.0011297129094600677,0.0007765777409076691,-0.07413787394762039
1782951207660340000,6.352340087890625,-0.001615473534911871,-0.00230816169641912,-0.06647063791751862
1782951207670267100,6.36226708984375,-0.004202734678983688,-0.005338838789612055,-0.052554819732904434
1782951207680194000,6.372194091796875,-0.009365804493427277,-0.005043228156864643,-0.020562533289194107
1782951207690121200,6.382121337890625,-0.021689582616090775,-0.0004037352045997977,0.021331652998924255
1782951207700047000,6.392047119140625,-0.02658660337328911,-0.0010343717876821756,0.05161632224917412
1782951207709974000,6.40197412109375,-0.023448068648576736,-0.001526257605291903,0.06649993360042572
1782951207719901200,6.411901123046875,-0.017831994220614433,0.00020746025256812572,0.06042206287384033
1782951207729827800,6.421827880859375,-0.014798919670283794,0.0009629990672692657,0.041426271200180054
1782951207739753700,6.431753662109375,-0.014189056120812893,0.003933488857001066,0.01599707640707493
1782951207749680600,6.4416806640625,-0.014707573689520359,0.006853645201772451,-0.0035630431957542896
1782951207759607800,6.45160791015625,-0.02008769102394581,0.02046133205294609,-0.012636166997253895
1782951207769534700,6.46153466796875,-0.020414460450410843,0.020917000249028206,-0.012005530297756195
1782951207779462000,6.4714619140625,-0.014418620616197586,0.010330667719244957,0.005405418109148741
1782951207789387800,6.4813876953125,-0.0044232443906366825,0.00355798308737576,0.027463581413030624
1782951207799314700,6.491314697265625,0.0002748382103163749,-0.006994260009378195,0.04467159882187843
1782951207809241900,6.501241943359375,0.006872020661830902,-0.009718673303723335,0.045954443514347076
1782951207819168800,6.511168701171875,0.007287207525223494,-0.013123791664838791,0.03976445645093918
1782951207829096000,6.521095947265625,0.006609699688851833,-0.012900352478027344,0.035782232880592346
1782951207839021800,6.531021728515625,-0.0022913836874067783,-0.004625378176569939,0.020049607381224632
1782951207848948700,6.54094873046875,-0.0072776200249791145,0.005912483669817448,0.005175853613764048
1782951207858875600,6.550875732421875,-0.02201715111732483,0.021990252658724785,-0.014683871529996395
1782951207868802800,6.560802734375,-0.02503451332449913,0.030719030648469925,-0.02425047755241394
1782951207878729000,6.57072900390625,-0.026991670951247215,0.0329907052218914,-0.03368472680449486
1782951207888656000,6.58065576171875,-0.02623426727950573,0.023061376065015793,-0.03886377438902855
1782951207898583000,6.5905830078125,-0.025259817019104958,0.015174158848822117,-0.033434391021728516
1782951207908509700,6.600509765625,-0.02672135829925537,0.0111647704616189,-0.020306870341300964
1782951207918436900,6.610436767578125,-0.027343474328517914,0.00863423477858305,-0.005711681675165892
1782951207928362800,6.62036279296875,-0.01895291917026043,-0.0019001654582098126,0.0024586303625255823
1782951207938290000,6.6302900390625,-0.011859322898089886,-0.0028391960076987743,-0.0028783443849533796
1782951207948216800,6.640216796875,-0.00774633651599288,0.001133707701228559,-0.005839246790856123
1782951207958143700,6.650143798828125,-0.013968013226985931,-0.0025305356830358505,-0.01239302009344101
1782951207968070700,6.660070556640625,-0.020367322489619255,-0.0046384274028241634,-0.01558002457022667
1782951207977996800,6.669996826171875,-0.017224526032805443,-0.003285275539383292,-0.013944311067461967
1782951207987924000,6.679924072265625,-0.01125398650765419,0.0075790900737047195,-0.004313522018492222
1782951207997851000,6.689850830078125,0.0021763353142887354,0.015531023032963276,0.009788980707526207
1782951208007778000,6.699778076171875,0.010542389005422592,0.013230051845312119,0.019352393224835396
1782951208017703700,6.70970361328125,0.01182017382234335,0.009345032274723053,0.023984162136912346
1782951208027630800,6.719630859375,0.016442090272903442,0.004282096866518259,0.023808393627405167
1782951208037557800,6.729557861328125,0.017291106283664703,0.00546294217929244,0.02250903658568859
1782951208047485000,6.73948486328125,0.01236132811754942,-0.0018053569365292788,0.01853746548295021
1782951208057411800,6.749411865234375,0.01255041267722845,-0.007613178342580795,0.011953066103160381
1782951208067337700,6.759337646484375,0.010913633741438389,0.00024048343766480684,0.004877313040196896
1782951208077265000,6.769264892578125,0.009861951693892479,0.0010759170399978757,0.0036509274505078793
1782951208087191800,6.77919189453125,0.007004646118730307,0.002668487373739481,-0.0002961435238830745
1782951208097119000,6.789118896484375,0.002091380301862955,0.004057592246681452,-0.0012210593558847904
1782951208107046000,6.7990458984375,-0.00689092930406332,0.005815810989588499,0.0009470200748182833
1782951208116971800,6.8089716796875,-0.014073740690946579,0.014210893772542477,0.003971305675804615
1782951208126898700,6.818898681640625,-0.022011559456586838,0.005535114090889692,0.005437375977635384
1782951208136825900,6.828825927734375,-0.01888900250196457,0.009942645207047462,0.004269047174602747
1782951208146752800,6.838752685546875,-0.018331602215766907,0.012464126572012901,0.003994208760559559
1782951208156679000,6.848678955078125,-0.016693226993083954,0.0068182251416146755,0.00008655273268232122
1782951208166605800,6.858605712890625,-0.01840910129249096,-0.0012479572324082255,-0.0028964539524167776
1782951208176532700,6.86853271484375,-0.02178332582116127,0.0024671524297446012,-0.00569916469976306
1782951208186460000,6.8784599609375,-0.031681496649980545,0.008527441881597042,-0.0054546864703297615
1782951208196386800,6.88838671875,0.010969826951622963,-0.011936554685235023,-0.0005065332516096532
1782951208206313000,6.89831298828125,-0.05643744394183159,-0.00373002327978611,-0.023136477917432785
1782951208216239900,6.908239990234375,0.018381137400865555,-0.05416976287961006,-0.01218769047409296
1782951208226166800,6.918166748046875,-0.03476756811141968,-0.02779221720993519,-0.027048662304878235
1782951208236093700,6.92809375,0.008460596203804016,-0.04459942504763603,-0.008533567190170288
1782951208246019800,6.938019775390625,-0.022357769310474396,0.008005994372069836,-0.012602344155311584
1782951208255946800,6.94794677734375,-0.005760417319834232,0.008475776761770248,0.013462545350193977
1782951208265874000,6.9578740234375,-0.011956527829170227,0.04201829060912132,0.013246030546724796
1782951208275800800,6.96780078125,-0.017729729413986206,0.01673823408782482,0.03241999074816704
1782951208285727700,6.977727783203125,0.006971090566366911,0.028256937861442566,0.021164407953619957
1782951208295654000,6.98765380859375,-0.01770149916410446,-0.007443268783390522,0.019033879041671753
1782951208305580800,6.997580810546875,0.03825045004487038,-0.0025843314360827208,-0.0029766152147203684
1782951208315508000,7.007508056640625,-0.00872291810810566,-0.02642654813826084,-0.005997172556817532
1782951208325435000,7.017434814453125,0.060205817222595215,-0.011918178759515285,-0.01660001650452614
1782951208335361800,7.02736181640625,-0.01776142045855522,-0.01859472319483757,-0.004110322799533606
1782951208345287700,7.03728759765625,0.06364528834819794,-0.004929244983941317,0.002516420790925622
1782951208355214800,7.04721484375,-0.03776894882321358,-0.0024668860714882612,0.016645289957523346
1782951208365141800,7.057141845703125,0.06980012357234955,0.003978496417403221,0.021621938794851303
1782951208375069000,7.06706884765625,-0.04127287119626999,-0.002663427498191595,0.029401298612356186
1782951208384994800,7.076994873046875,0.08844064921140671,-0.003463174682110548,0.039870716631412506
1782951208394921700,7.086921630859375,-0.04222841188311577,-0.011682755313813686,0.04212614893913269
1782951208404849000,7.096848876953125,0.08929073065519333,-0.002665557898581028,0.041913360357284546
1782951208414775800,7.10677587890625,-0.065152108669281,0.008293616585433483,0.020434968173503876
1782951208424703000,7.116702880859375,0.0768929198384285,0.03164980560541153,0.0119091235101223
1782951208434628600,7.126628662109375,-0.08619453758001328,0.048163801431655884,-0.0023672839161008596
1782951208444555800,7.1365556640625,0.07281162589788437,0.03593083471059799,0.011244664900004864
1782951208454482700,7.146482666015625,-0.09156160801649094,0.02093617431819439,0.014572018757462502
1782951208464409900,7.156409912109375,0.09115894138813019,-0.014166685752570629,0.0306380707770586
1782951208474336000,7.1663359375,-0.0718049481511116,-0.006900783162564039,0.018995529040694237
1782951208484262700,7.1762626953125,0.10216205567121506,-0.021736720576882362,0.023690681904554367
1782951208494189800,7.18618994140625,-0.07328247278928757,-0.00842943787574768,0.0032003207597881556
1782951208504116700,7.19611669921875,0.09106545895338058,-0.021507423371076584,0.009383914060890675
1782951208514044000,7.2060439453125,-0.08601903915405273,-0.0008463526028208435,-0.00561154680326581
1782951208523969800,7.2159697265625,0.07844793796539307,-0.01822560839354992,0.005111405160278082
1782951208533897000,7.22589697265625,-0.09362129867076874,0.014537397772073746,-0.012032694183290005
1782951208543823600,7.23582373046875,0.06441867351531982,0.0009068063227459788,0.00996208656579256
1782951208553750800,7.245750732421875,-0.09746823459863663,0.028111528605222702,0.0036309538409113884
1782951208563677700,7.255677734375,0.05999169871211052,-0.003055977402254939,0.026511767879128456
1782951208573603800,7.265603759765625,-0.015786686912178993,0.008154066279530525,0.01871323399245739
1782951208583531000,7.275531005859375,0.001698830397799611,-0.0044141896069049835,0.012691826559603214
1782951208593457700,7.285457763671875,0.00126713200006634,-0.012513394467532635,0.0007869640830904245
1782951208603384800,7.295384765625,0.007241134997457266,-0.02161075361073017,-0.004546815063804388
1782951208613310700,7.305310791015625,0.003311374457553029,-0.017190437763929367,-0.0009776464430615306
1782951208623238000,7.31523779296875,-0.005745237227529287,-0.00788561999797821,0.005356948357075453
1782951208633164800,7.325164794921875,-0.011004714295268059,0.0015488944482058287,0.005022189114242792
1782951208643092000,7.335092041015625,-0.012259862385690212,0.005912217777222395,-0.0015960324089974165
1782951208653018600,7.3450185546875,-0.009697368368506432,0.0011052117915824056,-0.003078614128753543
1782951208662944800,7.35494482421875,-0.00866273045539856,0.010300308465957642,0.007895473390817642
1782951208672872000,7.364871826171875,-0.017252489924430847,0.016878582537174225,0.02033429965376854
1782951208682798800,7.374798828125,-0.01878354139626026,0.004495149478316307,0.028483839705586433
1782951208692726000,7.38472607421875,-0.007737015374004841,-0.0034621094819158316,0.024584172293543816
1782951208702651600,7.394651611328125,-0.004269846249371767,-0.0005611280212178826,0.008125836960971355
1782951208712578800,7.404578857421875,-0.0003073287953156978,-0.0046544065698981285,-0.006539924535900354
1782951208722505700,7.414505615234375,-0.0007920240750536323,-0.01116290595382452,-0.01601252146065235
1782951208732433000,7.424432861328125,-0.007645935285836458,-0.009545568376779556,-0.023093068972229958
1782951208742359800,7.43435986328125,-0.014709437265992165,-0.010538660921156406,-0.021811289712786674
1782951208752285700,7.44428564453125,-0.019886089488863945,-0.0005102616851218045,-0.016292154788970947
1782951208762212900,7.454212890625,-0.023146864026784897,0.0034490597900003195,-0.009162339381873608
1782951208772139800,7.464139892578125,-0.02558259107172489,0.0049497513100504875,0.0007962851668708026
1782951208782067000,7.47406689453125,-0.020958811044692993,0.007074421271681786,0.01335948146879673
1782951208791992800,7.483992919921875,-0.017712151631712914,-0.0003403519804123789,0.01329956017434597
1782951208801919700,7.493919677734375,-0.012343484908342361,-0.003946005832403898,0.008022773079574108
1782951208811846700,7.5038466796875,-0.01261033397167921,-0.0025627599097788334,0.00609224708750844
1782951208821773800,7.51377392578125,-0.013378123752772808,-0.003900465788319707,0.005043228156864643
1782951208831700700,7.52370068359375,-0.012599415145814419,0.004794488660991192,0.01631745509803295
1782951208841627000,7.533626953125,-0.010083526372909546,0.016226107254624367,0.018930813297629356
1782951208851553800,7.5435537109375,-0.00361737166531384,0.01793692260980606,0.015907593071460724
1782951208861480700,7.553480712890625,0.0005366269615478814,0.016710536554455757,0.003555053612217307
1782951208871407900,7.563407958984375,0.005206213798373938,0.013277722522616386,-0.006040581967681646
1782951208881333800,7.573333740234375,0.006149505265057087,0.007833954878151417,-0.008506402373313904
1782951208891261000,7.583260986328125,0.0007153250626288354,0.0035779569298028946,-0.007997206412255764
1782951208901187800,7.593187744140625,0.0054357778280973434,-0.0019683423452079296,0.00219551008194685
1782951208911115000,7.603114990234375,0.007892810739576817,-0.0013582120882347226,0.0034109766129404306
1782951208921041700,7.613041748046875,0.007571633439511061,-0.0023606258910149336,0.011426558718085289
1782951208930967800,7.6229677734375,0.004804608877748251,0.010902714915573597,0.015751533210277557
1782951208940894700,7.632894775390625,-0.004208859521895647,0.01561384741216898,0.016948357224464417
1782951208950822000,7.64282177734375,-0.00660517206415534,0.018451178446412086,0.020984644070267677
1782951208960748800,7.652748779296875,-0.006314621306955814,0.0062365904450416565,0.01829831302165985
1782951208970674700,7.6626748046875,-0.0012325108982622623,-0.0023547669406980276,0.013848437927663326
1782951208980601900,7.672601806640625,0.0016402408946305513,-0.00749067310243845,0.00765791954472661
1782951208990528800,7.68252880859375,0.0030770162120461464,-0.00990243162959814,0.003427754621952772
1782951209000456000,7.6924560546875,0.0037523938808590174,0.002448510378599167,0.0049159289337694645
1782951209010382800,7.7023828125,-0.004206462763249874,0.011029215529561043,0.010057427920401096
1782951209020308700,7.712308837890625,-0.012431102804839611,0.023724503815174103,0.02166588045656681
1782951209030235600,7.722235595703125,-0.018677281215786934,0.027183949947357178,0.031810928136110306
1782951209040162800,7.732162841796875,-0.023000923916697502,0.019363312050700188,0.028241490945219994
1782951209050089700,7.74208984375,-0.018934009596705437,0.010724549181759357,0.012893428094685078
1782951209060015900,7.752015869140625,-0.009244897402822971,0.005133509170264006,-0.007704524789005518
1782951209069942800,7.76194287109375,0.006186789367347956,-0.00999031588435173,-0.024700552225112915
1782951209079869700,7.77186962890625,0.018861837685108185,-0.020327376201748848,-0.0367598794400692
1782951209089796900,7.781796875,0.025116538628935814,-0.016398681327700615,-0.0398201160132885
1782951209099723800,7.791723876953125,0.024057399481534958,-0.007829959504306316,-0.023925039917230606
1782951209109650000,7.80164990234375,0.015084411017596722,0.014041783288121223,-0.0003451456723269075
1782951209119576800,7.811576904296875,0.010116550140082836,0.020480241626501083,0.014094247482717037
1782951209129503700,7.821503662109375,0.007104780990630388,0.015677763149142265,0.007150853984057903
1782951209139430700,7.8314306640625,0.011142133735120296,0.013556022197008133,-0.0032053806353360415
1782951209149356800,7.841356689453125,0.012300075963139534,0.013103817589581013,-0.01321167591959238
1782951209159284000,7.851283935546875,0.013164537958800793,0.004113518632948399,-0.014087056741118431
1782951209169211000,7.8612109375,0.010969826951622963,-0.001008539111353457,-0.008166849613189697
1782951209179137800,7.8711376953125,0.009346097707748413,-0.006160424090921879,0.00021784658019896597
1782951209189063700,7.881063720703125,0.010092048905789852,-0.00953651312738657,0.0007552724564447999
1782951209198990800,7.890990966796875,0.012471583671867847,-0.009127718396484852,-0.002665557898581028
1782951209208917800,7.900917724609375,0.014221279881894588,-0.0027473168447613716,-0.012032427825033665
1782951209218845000,7.910844970703125,0.013545369729399681,0.0006125270738266408,-0.01817101426422596
1782951209228771800,7.920771728515625,0.013787983916699886,0.00466559175401926,-0.0199862252920866
1782951209238697700,7.93069775390625,0.015352590940892696,0.01255014631897211,-0.014495319686830044
1782951209248625000,7.940625,0.013681457377970219,0.02780419960618019,0.0024762072134763002
1782951209258551800,7.9505517578125,0.008957808837294579,0.030423419550061226,0.025652632117271423
1782951209268479000,7.96047900390625,0.007249124348163605,0.028678249567747116,0.05253031849861145
1782951209278404600,7.970404541015625,0.006007292307913303,0.023315975442528725,0.06023005023598671
1782951209288331800,7.980331787109375,0.00824807584285736,0.00953970942646265,0.04923811927437782
1782951209298258700,7.9902587890625,0.01410729717463255,0.00404534162953496,0.021980931982398033
1782951209308185900,8.000185791015625,0.018386198207736015,-0.005657619331032038,-0.005675196181982756
1782951209318112800,8.01011279296875,0.0187811441719532,-0.005268531385809183,-0.024943433701992035
1782951209328039000,8.020038818359374,0.01678217574954033,-0.003025617217645049,-0.03207031637430191
1782951209337965800,8.0299658203125,0.014082795940339565,0.003064765827730298,-0.030650055035948753
1782951209347892700,8.039892822265625,0.009940781630575657,-0.0004346278728917241,-0.017497500404715538
1782951209357820000,8.04981982421875,0.01062041986733675,-0.0030362699180841446,-0.006070143077522516
1782951209367745800,8.059745849609374,0.006113019771873951,0.004571049474179745,0.00926327332854271
1782951209377673000,8.0696728515625,0.001782453735359013,0.009236108511686325,0.022772157564759254
1782951209387599600,8.079599609375,-0.005042695440351963,0.01883014664053917,0.030467627570033073
1782951209397526800,8.08952685546875,-0.009307214990258217,0.025767948478460312,0.034878622740507126
1782951209407453700,8.09945361328125,-0.00839561503380537,0.026763170957565308,0.02504037134349346
1782951209417379800,8.1093798828125,-0.003062102710828185,0.02708221785724163,0.012633503414690495
1782951209427307000,8.11930712890625,-0.003239735495299101,0.014814898371696472,0.0016383767360821366
1782951209437234000,8.12923388671875,-0.0034104441292583942,-0.0010668623726814985,0.0024586303625255823
1782951209447160800,8.139160888671874,-0.0014024205738678575,-0.008680573664605618,-0.0012988236267119646
1782951209457086700,8.149086669921875,-0.003584614722058177,-0.005429386626929045,0.00016431703988928348
1782951209467014000,8.159013916015626,0.002225870033726096,0.0027981833554804325,-0.0070493873208761215
1782951209476940800,8.16894091796875,0.005041896365582943,0.01492035947740078,-0.011392736807465553
1782951209486868000,8.178867919921874,0.0010687265312299132,0.024601750075817108,-0.006121009588241577
1782951209496793900,8.1887939453125,-0.00595456175506115,0.019205385819077492,-0.0005451490869745612
1782951209506720800,8.198720703125,-0.011061172932386398,0.004589691758155823,-0.0022234732750803232
1782951209516648000,8.20864794921875,-0.010121876373887062,0.002129996195435524,-0.001936650718562305
1782951209526574800,8.218574951171876,-0.005440571811050177,-0.004048271104693413,-0.001683384063653648
1782951209536501800,8.228501708984375,-0.006313822232186794,-0.009906427003443241,-0.00800040178000927
1782951209546427600,8.238427734375,-0.0018586200894787908,-0.012768525630235672,-0.011261709034442902
1782951209556354800,8.248354736328125,-0.0043838294222950935,-0.007648864760994911,-0.006452572997659445
1782951209566281700,8.25828173828125,-0.010786068625748158,0.0033923345617949963,0.00523577444255352
1782951209576209000,8.268208984375,-0.013848970644176006,0.005760417319834232,0.011202586814761162
1782951209586134800,8.278134765625,-0.01720854826271534,0.007229683455079794,0.01146650593727827
1782951209596061700,8.288061767578125,-0.01726021245121956,0.008390288800001144,0.007017429452389479
1782951209605988900,8.29798876953125,-0.020299945026636124,0.013748835772275925,-0.004713795147836208
1782951209615915800,8.307915771484375,-0.028794895857572556,0.012025769799947739,-0.017049556598067284
1782951209625842700,8.3178427734375,-0.030282804742455482,0.018212558701634407,-0.029344307258725166
1782951209635768800,8.327768798828124,-0.03247511759400368,0.022357236593961716,-0.03139893710613251
1782951209645696000,8.337696044921875,-0.029809826985001564,0.020119382068514824,-0.027108317241072655
1782951209655622700,8.34762255859375,-0.025056617334485054,0.017892448231577873,-0.0180575642734766
1782951209665549800,8.3575498046875,-0.027167439460754395,0.01745116151869297,-0.0030304109677672386
1782951209675475700,8.367475830078124,-0.02978079952299595,0.013772537931799889,-0.00037683729897253215
1782951209685403000,8.37740283203125,-0.028569325804710388,0.0145299406722188,0.00013875069271307439
1782951209695329800,8.387329833984374,-0.024227840825915337,0.022819029167294502,-0.00885101594030857
1782951209705256700,8.397256591796875,-0.01569880172610283,0.01738698035478592,-0.021799305453896523
1782951209715182800,8.407182861328126,-0.004448277875781059,0.011981029063463211,-0.023919181898236275
1782951209725109500,8.417109619140625,0.002251968951895833,0.011155182495713234,-0.018208831548690796
1782951209735036700,8.42703662109375,0.009468602947890759,0.003994208760559559,-0.016747821122407913
1782951209744963600,8.436963623046875,0.013748036697506905,-0.005468801129609346,-0.017236510291695595
1782951209754890800,8.446890869140624,0.015587481670081615,-0.009401224553585052,-0.024718929082155228
1782951209764816600,8.456816650390625,0.01335868239402771,-0.006671750918030739,-0.028723256662487984
1782951209774743600,8.46674365234375,0.008867260999977589,0.0023824640084058046,-0.027248665690422058
1782951209784670500,8.47667041015625,0.007148456759750843,0.01901204138994217,-0.015508119948208332
1782951209794597600,8.48659765625,0.005907423794269562,0.03104633279144764,0.0021459751296788454
1782951209804523500,8.4965234375,0.009249158203601837,0.03015683777630329,0.010522682219743729
1782951209814450400,8.506450439453126,0.01549267303198576,0.020676515996456146,0.024897094815969467
1782951209824377600,8.516377685546875,0.017257550731301308,0.009404687210917473,0.02479269728064537
1782951209834304500,8.526304443359376,0.01624634861946106,-0.004247475415468216,0.014165353961288929
1782951209844230700,8.536230712890625,0.01672252081334591,-0.006401972845196724,0.00646775308996439
1782951209854157600,8.546157470703125,0.01188355777412653,0.005382248666137457,-0.00013369068619795144
1782951209864084500,8.55608447265625,0.000027963191314483993,0.009760218672454357,-0.0007187871960923076
1782951209874011400,8.566011474609375,-0.003990214318037033,0.009532252326607704,0.004757204558700323
1782951209883938600,8.5759384765625,-0.015143266879022121,0.015901735052466393,0.01016848161816597
1782951209893864700,8.58586474609375,-0.023919181898236275,0.015572834759950638,0.014947524294257164
1782951209903791600,8.59579150390625,-0.03322027251124382,0.018339592963457108,0.011769840493798256
1782951209913718500,8.605718505859375,-0.036866672337055206,0.02238067239522934,0.0007595335482619703
1782951209923645400,8.6156455078125,-0.035533491522073746,0.019720707088708878,-0.011534683406352997
1782951209933571600,8.625571533203125,-0.0225583054125309,0.0020610203500837088,-0.021208349615335464
1782951209943498500,8.63549853515625,-0.014958975836634636,-0.022758575156331062,-0.027280090376734734
1782951209953425700,8.64542578125,-0.007925567217171192,-0.027440145611763,-0.025977272540330887
1782951209963352600,8.6553525390625,-0.007801996544003487,-0.012866795994341373,-0.016090020537376404
1782951209973279500,8.665279541015625,-0.012797820381820202,0.008285626769065857,-0.004187288228422403
1782951209983205600,8.67520556640625,-0.016079368069767952,0.02105415239930153,0.009008408524096012
1782951209993132500,8.685132568359375,-0.016759805381298065,0.026740001514554024,0.01635686866939068
1782951210003059700,8.695059814453124,-0.01558055728673935,0.02822045236825943,0.014970693737268448
1782951210012986600,8.704986572265625,-0.01017034612596035,0.023986559361219406,0.009358081966638565
1782951210022912500,8.71491259765625,-0.006868558935821056,0.011887285858392715,-0.005695968866348267
1782951210032839400,8.72483935546875,-0.0007837683078832924,-0.007734618615359068,-0.01678510569036007
1782951210042766600,8.7347666015625,0.005245628301054239,-0.010516823269426823,-0.02576608397066593
1782951210052693500,8.744693603515625,0.004978246986865997,-0.013088105246424675,-0.025225462391972542
1782951210062619400,8.754619384765626,0.006649646908044815,-0.009576461277902126,-0.026562102138996124
1782951210072546600,8.764546630859375,0.00010492854926269501,-0.005034173373132944,-0.02063310705125332
1782951210082473500,8.774473388671876,-0.005406749434769154,0.003552124137058854,-0.016032762825489044
1782951210092400600,8.784400634765625,-0.011541341431438923,0.013768808916211128,-0.005388373974710703
1782951210102327600,8.79432763671875,-0.009252354502677917,0.018919095396995544,0.0037795582320541143
1782951210112253700,8.804253662109375,-0.004935103934258223,0.02327602729201317,0.01654275692999363
1782951210122180400,8.814180419921875,-0.0028876655269414186,0.03206552565097809,0.02545236237347126
1782951210132107500,8.824107421875,-0.008243015967309475,0.039015576243400574,0.025971679016947746
1782951210142034400,8.834034423828125,-0.013196495361626148,0.035591281950473785,0.017652230337262154
1782951210151960600,8.843960693359374,-0.01263723149895668,0.02527899108827114,0.000672181835398078
1782951210161887700,8.8538876953125,-0.011830826289951801,0.00920548290014267,-0.018387796357274055
1782951210171814700,8.863814697265624,-0.008348743431270123,-0.00914289802312851,-0.03421575948596001
1782951210181741600,8.873741455078125,-0.008235293440520763,-0.019837886095046997,-0.04742637276649475
1782951210191668500,8.88366845703125,-0.009880593977868557,-0.019774504005908966,-0.052502356469631195
1782951210201594600,8.8935947265625,-0.011420699767768383,-0.006833937484771013,-0.047271907329559326
1782951210211521500,8.903521484375,-0.01107262447476387,0.00962546281516552,-0.029154423624277115
1782951210221448700,8.91344873046875,-0.010428672656416893,0.02623852901160717,-0.002679672557860613
1782951210231375400,8.923375244140624,-0.00669358903542161,0.03555479645729065,0.024118119850754738
1782951210241301500,8.933301513671875,-0.003913248889148235,0.026743730530142784,0.04195836931467056
1782951210251228700,8.943228759765624,-0.0022096247412264347,0.01961364783346653,0.04632435366511345
1782951210261155600,8.953155517578125,0.0029848709236830473,0.01227371022105217,0.03249109908938408
1782951210271082800,8.963082763671874,0.004822984803467989,0.005874666851013899,0.010160225443542004
1782951210281008400,8.97300830078125,0.005078914575278759,0.008049670606851578,-0.013095828704535961
1782951210290935600,8.982935546875,0.0029758161399513483,0.012402074411511421,-0.026446787640452385
1782951210300862500,8.992862548828125,0.003614175831899047,0.013419668190181255,-0.02323741279542446
1782951210310789600,9.00278955078125,0.0005129248020239174,0.01125158928334713,-0.00649678148329258
1782951210320716500,9.012716552734375,-0.00569889834150672,0.005771868862211704,0.009601227939128876
1782951210330642400,9.022642333984376,-0.007276022341102362,0.0019244002178311348,0.01727779023349285
1782951210340569600,9.032569580078125,-0.00782489962875843,-0.0005539375124499202,0.015150456689298153
1782951210350496500,9.04249658203125,-0.005056810099631548,-0.0062331282533705235,-0.00034700988908298314
1782951210360423700,9.052423583984375,-0.005548696033656597,-0.0037521275226026773,-0.00823928788304329
1782951210370349600,9.062349609375,-0.00788348913192749,0.0027116306591778994,-0.01104652602225542
1782951210380276700,9.07227685546875,-0.010851582512259483,0.006468818057328463,-0.00412363838404417
1782951210390203400,9.082203369140625,-0.011204184964299202,0.008676046505570412,0.004571315832436085
1782951210400130600,9.092130615234375,-0.014684404246509075,0.0049377670511603355,0.011171693913638592
1782951210410057500,9.102057373046875,-0.014936339110136032,0.0018548916559666395,0.010949053801596165
1782951210419983600,9.111983642578124,-0.017897240817546844,0.001612011343240738,0.005842442624270916
1782951210429910800,9.121910888671875,-0.022468024864792824,0.004963066894561052,-0.008845689706504345
1782951210439837400,9.13183740234375,-0.022350579500198364,0.006682137493044138,-0.017001619562506676
1782951210449764600,9.1417646484375,-0.024162594228982925,0.002332130214199424,-0.019424298778176308
1782951210459690500,9.1516904296875,-0.02111167646944523,0.0015763250412419438,-0.00999324582517147
1782951210469617700,9.16161767578125,-0.020988106727600098,0.006426207721233368,0.0038567897863686085
1782951210479544600,9.171544677734374,-0.02418682910501957,0.0041337586008012295,0.012812468223273754
1782951210489471700,9.1814716796875,-0.019149459898471832,0.007838482037186623,0.011536546982824802
1782951210499397600,9.191397705078124,-0.013606356456875801,0.007178284227848053,0.010577809065580368
1782951210509324500,9.201324462890625,-0.008072307333350182,0.0073567163199186325,-0.001264735241420567
1782951210519251700,9.211251708984374,-0.002436526119709015,0.0018311894964426756,-0.007281082216650248
1782951210529178600,9.2211787109375,0.001859685406088829,-0.00640863087028265,-0.002776611829176545
1782951210539105500,9.23110546875,-0.0031193606555461884,-0.007184675894677639,-0.0006679208017885685
1782951210549031400,9.241031494140625,-0.0046842340379953384,0.00023995080846361816,-0.0015853798249736428
1782951210558958600,9.25095849609375,0.0009701895760372281,0.007348460145294666,-0.0054608117789030075
1782951210568885500,9.260885498046875,0.0007901599165052176,0.01446895394474268,-0.01326893363147974
1782951210578812700,9.270812744140626,0.0009619337506592274,0.01452914159744978,-0.005890113301575184
1782951210588738600,9.280738525390625,-0.0037787591572850943,0.01577550172805786,-0.0034501252230256796
1782951210598665500,9.29066552734375,0.0011747203534469008,-0.0012828446924686432,0.0023451796732842922
1782951210608592400,9.30059228515625,0.0021084246691316366,-0.013949104584753513,0.011707255616784096
1782951210618519600,9.31051953125,-0.001969141187146306,-0.010186324827373028,0.020656809210777283
1782951210628445700,9.32044580078125,-0.0016919062472879887,0.004172640852630138,0.01925492100417614
1782951210638372600,9.33037255859375,-0.0043982104398310184,0.018074341118335724,0.007963650859892368
1782951210648299500,9.340299560546875,-0.0033771544694900513,0.02046239748597145,-0.010936803184449673
1782951210658226400,9.350226318359375,-0.006196909584105015,0.021885324269533157,-0.014694523997604847
1782951210668153600,9.360153564453125,-0.007888282649219036,0.012716594152152538,-0.016705211251974106
1782951210678079500,9.37007958984375,-0.009105081669986248,0.0049034119583666325,-0.009878729470074177
1782951210688006700,9.380006591796874,-0.011729893274605274,-0.0005060005933046341,-0.000185888638952747
1782951210697933600,9.38993359375,-0.005351622123271227,-0.00944782979786396,0.005155080929398537
1782951210707860500,9.399860595703124,-0.000006924218723725062,-0.011946141719818115,0.013424728997051716
1782951210717786600,9.40978662109375,-0.004566788673400879,-0.008420116268098354,0.016939036548137665
1782951210727713500,9.419713623046874,-0.006174805108457804,0.0006495449924841523,0.018664764240384102
1782951210737640700,9.429640625,-0.015084144659340382,0.0028807413764297962,0.01450064592063427
1782951210747567400,9.4395673828125,-0.019651465117931366,0.005724198184907436,0.006795854307711124
1782951210757494500,9.44949462890625,-0.018219217658042908,0.004456533584743738,0.0019835224375128746
1782951210767420400,9.45942041015625,-0.01236479077488184,-0.004550276789814234,-0.0038874163292348385
1782951210777347600,9.46934765625,-0.008592423051595688,-0.019033079966902733,-0.01624235324561596
1782951210787274500,9.4792744140625,0.0000010652644277797663,-0.024578047916293144,-0.014001036994159222
1782951210797201700,9.48920166015625,0.001157143502496183,-0.014667625539004803,-0.002555569401010871
1782951210807127600,9.49912744140625,0.0006585997180081904,-0.005528988782316446,0.009429188445210457
1782951210817054500,9.509054443359375,0.001253017340786755,-0.000699079770129174,0.02004081942141056
1782951210826981600,9.518981689453126,0.004012318328022957,0.008207063190639019,0.024112792685627937
1782951210836908500,9.528908447265625,0.0029699571896344423,0.011754926294088364,0.016396816819906235
1782951210846834400,9.53883447265625,-0.0008008125587366521,0.01350702065974474,0.011727496050298214
1782951210856761300,9.54876123046875,-0.006228867452591658,0.006695453077554703,-0.0015140071045607328
1782951210866688500,9.5586884765625,-0.0044205812737345695,-0.004437092691659927,-0.010438526049256325
1782951210876615400,9.568615478515625,-0.002779541304334998,-0.011030014604330063,-0.016321714967489243
1782951210886541600,9.57854150390625,-0.00013928332191426307,-0.020600883290171623,-0.020079435780644417
1782951210896468700,9.58846875,0.002296443795785308,-0.02363795042037964,-0.01942962408065796
1782951210906395400,9.5983955078125,0.006165218073874712,-0.014948589727282524,-0.010113087482750416
1782951210916322600,9.608322509765625,0.003585147438570857,-0.0043745082803070545,-0.0013012205017730594
1782951210926249500,9.61824951171875,0.0027425233274698257,-0.010963968001306057,0.007650462910532951
1782951210936175600,9.628175537109374,0.0070371367037296295,-0.003305515507236123,0.013799701817333698
1782951210946102500,9.6381025390625,0.006850449368357658,0.01504046842455864,0.026457706466317177
1782951210956029400,9.648029541015624,0.00908457487821579,0.028121383860707283,0.03472282737493515
1782951210965956400,9.657956298828125,0.00926300697028637,0.03418140485882759,0.042392462491989136
1782951210975882500,9.667882568359374,0.010701113380491734,0.034327346831560135,0.040458742529153824
1782951210985809700,9.6778095703125,0.008143147453665733,0.024082167074084282,0.03213902935385704
1782951210995736600,9.687736572265624,0.006361492909491062,0.004562527406960726,0.020531639456748962
1782951211005663700,9.697663818359375,0.006681338418275118,-0.010374077595770359,0.00765871861949563
1782951211015590400,9.70759033203125,0.01315148826688528,-0.02792803756892681,-0.0019981698133051395
1782951211025516500,9.7175166015625,0.01025716494768858,-0.029349366202950478,-0.007531153038144112
1782951211035443500,9.727443359375,0.008577775210142136,-0.019240539520978928,-0.01859765313565731
1782951211045370600,9.73737060546875,0.007738879881799221,-0.0024027039762586355,-0.024349015206098557
1782951211055297500,9.747297607421874,0.00518810423091054,0.0029142971616238356,-0.02629685215651989
1782951211065223400,9.757223388671875,0.0044410875998437405,0.00040027310024015605,-0.014031130820512772
1782951211075150600,9.767150634765626,0.0029702235478907824,-0.004463457968086004,0.004354001954197884
1782951211085077500,9.777077392578125,0.0013315805699676275,0.0015962987672537565,0.026979686692357063
1782951211095004700,9.787004638671876,0.0003866909828502685,0.0029984530992805958,0.03645521402359009
1782951211104930600,9.7969306640625,0.0009773800848051906,-0.005167864263057709,0.031773641705513
1782951211114857500,9.806857421875,-0.003522563260048628,-0.009138104505836964,0.015659652650356293
1782951211124784400,9.816784423828125,-0.008289887569844723,-0.006205431651324034,-0.007358047645539045
1782951211134711600,9.826711669921876,-0.013830861076712608,0.0033803503029048443,-0.022950056940317154
1782951211144638500,9.836638427734375,-0.018847724422812462,0.011408449150621891,-0.02431066520512104
1782951211154564600,9.846564697265626,-0.019723903387784958,-0.000716922979336232,-0.018098043277859688
1782951211164491500,9.856491455078125,-0.012797021307051182,-0.013856693170964718,-0.004251470323652029
1782951211174418400,9.86641845703125,-0.009411611594259739,-0.02456020377576351,0.003832022426649928
1782951211184345600,9.876345703125,-0.014933941885828972,-0.028976790606975555,-0.0002719087351579219
1782951211194271500,9.886271484375,-0.02424089051783085,-0.022409435361623764,-0.0029108349699527025
1782951211204198700,9.89619873046875,-0.029635922983288765,-0.00643819198012352,-0.011141068302094936
1782951211214125600,9.90612548828125,-0.029828734695911407,0.007861651480197906,-0.007125553674995899
1782951211224052500,9.916052490234375,-0.026634540408849716,0.014944860711693764,-0.0019206717843189836
1782951211233978600,9.925978515625,-0.018156100064516068,0.0043982104398310184,0.01058952696621418
1782951211243905500,9.935905517578124,-0.010782074183225632,-0.0018458369886502624,0.023088008165359497
1782951211253832700,9.945832763671875,-0.010733071714639664,-0.010749050416052341,0.02594371698796749
1782951211263759600,9.955759521484374,-0.014214621856808662,-0.012998090125620365,0.019414177164435387
1782951211273686500,9.9656865234375,-0.02129596658051014,-0.017285512760281563,0.003888215171173215
1782951211283612400,9.9756123046875,-0.0230517890304327,-0.014743260107934475,-0.020191553980112076
1782951211293539600,9.98553955078125,-0.023741815239191055,-0.011393802240490913,-0.031152592971920967
1782951211303466500,9.995466552734374,-0.03750503063201904,-0.020787304267287254,-0.029378661885857582
1782951211313393700,10.0053935546875,0.010948521085083485,-0.006392918061465025,-0.024814270436763763
1782951211323319600,10.015319580078126,-0.0645049586892128,-0.02419188804924488,0.0016144082183018327
1782951211333246500,10.02524658203125,0.018682075664401054,-0.003981692250818014,0.011960255913436413
1782951211343173400,10.03517333984375,-0.07157192379236221,-0.008859005756676197,0.02136041596531868
1782951211353100500,10.0451005859375,0.030789338052272797,0.00720624765381217,0.010666492395102978
1782951211363026700,10.055026611328126,-0.07674510776996613,-0.0013571468880400062,-0.0028061727061867714
1782951211372953300,10.064953369140625,0.04536109045147896,0.0057737333700060844,-0.012282765470445156
1782951211382880500,10.074880615234376,-0.08184187114238739,0.0007249124464578927,-0.01221378892660141
1782951211392807400,10.084807373046875,0.056288838386535645,0.0014397049089893699,0.0029550434555858374
1782951211402734600,10.094734619140626,-0.08430209755897522,0.013470801524817944,0.017377125099301338
1782951211412660500,10.104660400390625,0.06511162221431732,0.01997290924191475,0.03618064150214195
1782951211422587600,10.114587646484376,-0.09107744693756104,0.025240641087293625,0.02491040900349617
1782951211432514300,10.124514404296875,0.07132185250520706,0.008347145281732082,0.014750982634723186
1782951211442441500,10.13444140625,-0.0913914293050766,0.0026671558152884245,-0.010266751982271671
1782951211452367600,10.14436767578125,0.08110204339027405,-0.006554838269948959,-0.014051103964447975
1782951211462294500,10.15429443359375,-0.08297930657863617,0.008950618095695972,-0.02527446299791336
1782951211472221700,10.1642216796875,0.09384260326623917,0.00041678472189232707,0.001654089312069118
1782951211482148400,10.1741484375,-0.07900293916463852,0.02004321664571762,0.007743140682578087
1782951211492074500,10.184074462890624,0.084011010825634,-0.003114833263680339,0.03683364763855934
1782951211502001400,10.19400146484375,-0.09677554666996002,0.014607438817620277,0.018126806244254112
1782951211511928600,10.203928466796874,0.07518156617879868,0.000755805114749819,0.012832707725465298
1782951211521855500,10.21385546875,-0.09071844816207886,0.018914835527539253,-0.02052977681159973
1782951211531782700,10.22378271484375,0.08268369734287262,-0.009965282864868641,-0.0136638805270195
1782951211541708500,10.23370849609375,-0.06720326840877533,0.02105441875755787,-0.02322569489479065
1782951211551635500,10.243635498046874,0.08998101949691772,0.0051476238295435905,0.018932411447167397
1782951211561562600,10.253562744140625,-0.06642696261405945,0.039019305258989334,0.033249299973249435
1782951211571489500,10.263489501953124,0.062300924211740494,0.007114634849131107,0.06233394891023636
1782951211581415400,10.27341552734375,-0.08801747113466263,0.027234550565481186,0.03315182775259018
1782951211591342300,10.28334228515625,0.036433376371860504,-0.008744489401578903,0.0176951065659523
1782951211601269500,10.29326953125,-0.08467094600200653,0.009077117778360844,-0.038722626864910126
1782951211611196400,10.303196533203124,0.035282623022794724,-0.02213433012366295,-0.04095755144953728
1782951211621122600,10.31312255859375,-0.05795624479651451,0.0027835359796881676,-0.059592489153146744
1782951211631049700,10.3230498046875,0.039616383612155914,-0.023396668955683708,-0.01233576238155365
1782951211640976400,10.332976318359375,-0.0405610091984272,0.02082432247698307,0.004248807206749916
1782951211650903600,10.342903564453126,0.03449193015694618,0.008082161657512188,0.044083837419748306
1782951211660830500,10.35283056640625,-0.032103341072797775,0.04727696627378464,0.029332855716347694
1782951211670756600,10.362756591796876,0.02051779255270958,0.017293769866228104,0.03304210677742958
1782951211680683500,10.37268359375,-0.024454209953546524,0.031926508992910385,0.0011339739430695772
1782951211690610400,10.3826103515625,0.006690659560263157,0.009265136905014515,-0.0035752938129007816
1782951211700537300,10.392537353515625,0.0133850472047925,0.00043010051012970507,-0.005482915788888931
1782951211710463500,10.40246337890625,0.020425112918019295,-0.004819522611796856,0.0003552656853571534
1782951211720390700,10.412390625,0.023145532235503197,-0.008321845903992653,0.004211789462715387
1782951211730317600,10.422317626953125,0.022892532870173454,-0.012433500029146671,0.004765193909406662
1782951211740244700,10.43224462890625,0.014602910727262497,-0.0072776200249791145,0.0002532666258048266
1782951211750171600,10.442171630859375,0.009621734730899334,0.0013193299528211355,-0.00974450632929802
1782951211760097500,10.45209765625,0.009660083800554276,0.006676278542727232,-0.013680658303201199
1782951211770022700,10.462022705078125,0.008159925229847431,0.00965688843280077,-0.007483216468244791
1782951211779949600,10.471949462890626,0.009397230111062527,0.012969328090548515,0.007765777874737978
1782951211789876500,10.48187646484375,0.013537379913032055,0.009460080415010452,0.02256389893591404
1782951211799803400,10.491803466796876,0.014420750550925732,0.013613280840218067,0.030788272619247437
1782951211809729500,10.5017294921875,-0.00035180358099751174,0.027230821549892426,0.03943289443850517
1782951211819656700,10.51165673828125,-0.005960420705378056,0.04229046404361725,0.03604242205619812
1782951211829583600,10.52158349609375,-0.007225155830383301,0.03531644493341446,0.025105087086558342
1782951211839510800,10.5315107421875,-0.0005824333056807518,0.014533402398228645,0.015993880107998848
1782951211849437400,10.5414375,0.004826180636882782,-0.005239236634224653,0.005960687063634396
1782951211859363600,10.551363525390625,0.007816111668944359,-0.016087090596556664,-0.0002170476218452677
1782951211869290500,10.56129052734375,0.005742574110627174,-0.018450912088155746,-0.007139136083424091
1782951211879217700,10.5712177734375,0.006684800609946251,-0.013034309260547161,-0.013101421296596527
1782951211889144600,10.58114453125,0.0070307450369000435,-0.010368751361966133,-0.015911322087049484
1782951211899070500,10.591070556640625,0.0062970444560050964,0.0018815232906490564,-0.01468680053949356
1782951211908997600,10.60099755859375,0.004019242711365223,0.012018047273159027,-0.0060264673084020615
1782951211918924500,10.610924560546875,-0.0021403825376182795,0.01636059768497944,0.009111473336815834
1782951211928851700,10.620851806640625,-0.0004500742070376873,0.022357769310474396,0.03634123131632805
1782951211938778600,10.630778564453125,-0.005526858381927013,0.02232314832508564,0.05410957336425781
1782951211948704500,10.64070458984375,-0.004682902246713638,0.015201323665678501,0.05992431938648224
1782951211958631400,10.65063134765625,0.0009773800848051906,-0.006340720225125551,0.05277559533715248
1782951211968558600,10.66055859375,0.0044072652235627174,0.0013662016717717052,0.051420580595731735
1782951211978485500,10.670485595703125,-0.0017214673571288586,0.006144445389509201,0.037887461483478546
1782951211988411600,10.68041162109375,0.0012061456218361855,0.002502572489902377,0.012561597861349583
1782951211998338600,10.690338623046875,0.003990747034549713,0.002656236756592989,-0.005398760084062815
1782951212008265500,10.700265380859374,0.008388424292206764,0.005391835700720549,-0.011035607196390629
1782951212018192600,10.710192626953125,0.005096225067973137,0.005097290500998497,0.0029846045654267073
1782951212028118500,10.720118408203126,-0.0014319816837087274,0.008272843435406685,0.0325600728392601
1782951212038045700,10.730045654296875,-0.011012171395123005,0.006651244591921568,0.05113189294934273
1782951212047972600,10.73997265625,-0.014671354554593563,0.0018695390317589045,0.049018941819667816
1782951212057899500,10.7498994140625,-0.009096026420593262,0.00015339808305725455,0.03400404006242752
1782951212067826400,10.759826416015626,-0.007285077124834061,0.004344947170466185,0.012233230285346508
1782951212077752600,10.769752685546875,-0.00812237523496151,0.009819873608648777,-0.005250155925750732
1782951212087679700,10.7796796875,-0.004329234827309847,0.003722300287336111,-0.018156632781028748
1782951212097606700,10.789606689453125,-0.0012564794160425663,0.0038362834602594376,-0.016039153560996056
1782951212107533600,10.799533447265626,-0.0034501252230256796,0.002718821167945862,-0.008589493110775948
1782951212117459500,10.80945947265625,-0.002502039773389697,-0.002537459833547473,-0.006079464219510555
1782951212127386600,10.81938671875,0.0008303736103698611,-0.008435828611254692,-0.00743101816624403
1782951212137313500,10.8293134765625,0.005154814571142197,-0.008388690650463104,-0.005651494022458792
1782951212147240700,10.83924072265625,0.006417419295758009,-0.003846403444185853,-0.00036991306114941835
1782951212157167600,10.849167724609375,0.0035830168053507805,0.010604174807667732,0.010815363377332687
1782951212167093500,10.859093505859375,-0.002846386516466737,0.025787388905882835,0.020360132679343224
1782951212177020700,10.869020751953125,-0.01167689636349678,0.03467888385057449,0.031008781865239143
1782951212186947600,10.878947509765625,-0.004180363845080137,0.026102706789970398,0.03238829970359802
1782951212196874500,10.88887451171875,-0.0014729943359270692,0.014097442850470543,0.02430454082787037
1782951212206800400,10.89880029296875,0.00484295841306448,-0.005615008994936943,0.0037409423384815454
1782951212216727600,10.9087275390625,0.012312859296798706,-0.014674017205834389,-0.01161670871078968
1782951212226654500,10.918654541015625,0.01270008273422718,-0.013748303055763245,-0.029895847663283348
1782951212236581600,10.92858154296875,0.010072341188788414,-0.009007343091070652,-0.033481527119874954
1782951212246508500,10.938508544921875,0.01014131773263216,-0.0016311861108988523,-0.02358761802315712
1782951212256434700,10.9484345703125,0.0018069547368213534,0.000027696874894900247,-0.009006277658045292
1782951212266361600,10.958361572265625,-0.0018583538476377726,-0.005872003734111786,0.004375840071588755
1782951212276288500,10.96828857421875,-0.00788748450577259,-0.003997404593974352,0.015125157311558723
1782951212286215400,10.97821533203125,-0.013709686696529388,0.005247492343187332,0.010610033757984638
1782951212296141600,10.9881416015625,-0.01067794393748045,0.016505474224686623,-0.006388390902429819
1782951212306068700,10.99806884765625,-0.006631004624068737,0.022274145856499672,-0.025240108370780945
1782951212315995400,11.007995361328126,-0.0037707698065787554,0.012588496319949627,-0.030585605651140213
1782951212325922600,11.017922607421875,-0.0025931198615580797,0.0029372002463787794,-0.02407817170023918
1782951212335848400,11.027848388671876,0.0015688681742176414,-0.0033249566331505775,-0.0016815199051052332
1782951212345775600,11.037775634765625,0.0019022959750145674,-0.008530637249350548,0.01058952696621418
1782951212355702500,11.04770263671875,0.006683202926069498,-0.022896792739629745,0.019193135201931
1782951212365629700,11.057629638671875,0.004762797150760889,-0.014196512289345264,0.017722804099321365
1782951212375556400,11.067556396484376,-0.005050684791058302,0.003215766977518797,0.005923402961343527
1782951212385482500,11.077482421875,-0.009286176413297653,0.018979016691446304,-0.007201187312602997
1782951212395409700,11.08740966796875,-0.00845500361174345,0.03416942059993744,-0.008753277361392975
1782951212405336600,11.097336669921875,-0.004720186814665794,0.038112763315439224,-0.007423295173794031
1782951212415263700,11.107263671875,0.00039547940832562745,0.019509252160787582,-0.002956375014036894
1782951212425189400,11.117189453125,0.003692206460982561,-0.0030748858116567135,-0.006023005116730928
1782951212435116500,11.127116455078125,0.011059575714170933,-0.019600866362452507,-0.01884346269071102
1782951212445043500,11.13704345703125,0.016390956938266754,-0.027005251497030258,-0.0335283987224102
1782951212454970600,11.146970703125,0.014255101792514324,-0.02719194069504738,-0.047752607613801956
1782951212464897500,11.1568974609375,0.017229054123163223,-0.01612251065671444,-0.04902533441781998
1782951212474823400,11.166823486328125,0.011245197616517544,0.0012508867075666785,-0.029160814359784126
1782951212484750600,11.17675048828125,0.010310161858797073,0.018025072291493416,0.001585912425071001
1782951212494677500,11.186677490234375,0.0036045885644853115,0.04063611105084419,0.037144437432289124
1782951212504604700,11.196604736328124,-0.0031321437563747168,0.03842728212475777,0.05175027996301651
1782951212514530600,11.206530517578125,-0.007920240983366966,0.02911660633981228,0.045409027487039566
1782951212524457500,11.21645751953125,-0.008949286304414272,0.010385795496404171,0.01702984981238842
1782951212534384400,11.22638427734375,-0.009104282595217228,-0.003177683800458908,-0.021042700856924057
1782951212544311600,11.2363115234375,-0.006083192303776741,-0.009461412206292152,-0.049186188727617264
1782951212554238500,11.246238525390625,-0.0008247809601016343,-0.005612611770629883,-0.056956227868795395
1782951212564164600,11.25616455078125,-0.0033510555513203144,-0.00205276464112103,-0.04218500480055809
1782951212574091800,11.266091796875,0.000011451592399680521,0.0022775353863835335,-0.01829991117119789
1782951212584018400,11.276018310546876,-0.002802444389089942,-0.004548146389424801,0.007312241476029158
1782951212593945600,11.285945556640625,-0.0013137373607605696,-0.007835285738110542,0.011173824779689312
1782951212603871500,11.29587158203125,-0.0027177559677511454,-0.0018839201657101512,0.012309130281209946
1782951212613798700,11.305798583984375,-0.008021441288292408,0.01462608017027378,0.005024852231144905
1782951212623725600,11.3157255859375,-0.004562793765217066,0.026014290750026703,0.0003230414295103401
1782951212633652500,11.325652587890625,-0.00005246427463134751,0.033364616334438324,0.0009837717516347766
1782951212643579400,11.335579345703126,0.005062669049948454,0.034158769994974136,0.01079885195940733
1782951212653505500,11.345505615234375,0.0026056368369609118,0.026142122223973274,0.015560317784547806
1782951212663432700,11.3554326171875,0.0010705908061936498,0.008869924582540989,0.015535017475485802
1782951212673359600,11.365359619140625,0.0025624935515224934,-0.00887844618409872,0.0015986956423148513
1782951212683286800,11.375286865234376,0.00472524669021368,-0.013487046584486961,-0.019887421280145645
1782951212693212400,11.38521240234375,0.00007057376933516935,-0.0067569720558822155,-0.035541217774152756
1782951212703139600,11.3951396484375,-0.0056861150078475475,0.003192064817994833,-0.038418494164943695
1782951212713066500,11.40506640625,-0.008280300535261631,0.0076155755668878555,-0.03567357361316681
1782951212722993700,11.41499365234375,-0.016031963750720024,0.004718855023384094,-0.018824022263288498
1782951212732920600,11.424920654296875,-0.018786737695336342,0.00044821001938544214,-0.0012357067316770554
1782951212742846700,11.4348466796875,-0.020053869113326073,0.001130245509557426,0.01996651664376259
1782951212752774000,11.44477392578125,-0.018153171986341476,0.009061938151717186,0.030005834996700287
1782951212762700500,11.454700439453125,-0.018021877855062485,0.0228738896548748,0.031087080016732216
1782951212772627700,11.464627685546875,-0.018822424113750458,0.030186664313077927,0.030338464304804802
1782951212782553600,11.4745537109375,-0.016349146142601967,0.025304291397333145,0.0212435033172369
1782951212792480800,11.484480712890624,-0.01654542051255703,0.009729593060910702,0.010969826951622963
1782951212802407700,11.49440771484375,-0.014095845632255077,0.0012887036427855492,-0.002834135899320245
1782951212812334600,11.50433447265625,-0.008082693442702293,-0.007753260899335146,-0.015845276415348053
1782951212822260700,11.5142607421875,-0.004816326778382063,-0.012252671644091606,-0.02539430558681488
1782951212832187600,11.524187744140624,-0.005991313606500626,-0.000639691308606416,-0.018738800659775734
1782951212842114600,11.534114501953125,-0.015064969658851624,0.005037901923060417,-0.010008159093558788
1782951212852041700,11.544041748046874,-0.0145312724635005,0.0002402171230642125,0.004963333252817392
1782951212861968600,11.55396875,-0.018498582765460014,0.012825250625610352,0.02587340958416462
1782951212871894500,11.56389453125,-0.01871802844107151,0.022534070536494255,0.04193919524550438
1782951212881821700,11.57382177734375,-0.014169881120324135,0.019030416384339333,0.05331755056977272
1782951212891748600,11.58374853515625,-0.008357532322406769,0.015282283537089825,0.041912030428647995
1782951212901675800,11.59367578125,-0.0041345576755702496,0.0073199644684791565,0.022333268076181412
1782951212911601700,11.6036015625,-0.006343383342027664,-0.0025092302821576595,0.0036157737486064434
1782951212921528600,11.613528564453125,-0.005693039391189814,0.0024085629265755415,-0.021621406078338623
1782951212931455500,11.62345556640625,-0.007504521403461695,-0.00948165263980627,-0.02978505939245224
1782951212941382700,11.633382568359375,-0.025674469769001007,-0.013994112610816956,-0.038541533052921295
1782951212951309600,11.6433095703125,-0.033841587603092194,-0.0018042916199192405,-0.04848071560263634
1782951212961235700,11.653235595703125,-0.04269979149103165,0.014827681705355644,-0.06028357893228531
1782951212971162600,11.66316259765625,-0.05556019768118858,0.03675268962979317,-0.057008158415555954
1782951212981089500,11.673089599609375,-0.06765014678239822,0.0449104830622673,-0.040530115365982056
1782951212991016700,11.6830166015625,-0.05540360510349274,0.03327832743525505,-0.03201305866241455
1782951213000942600,11.692942626953124,-0.03359604254364967,0.027216173708438873,-0.027819380164146423
1782951213010869800,11.702869873046875,-0.02009647898375988,0.029565349221229553,-0.03332599997520447
1782951213020796400,11.71279638671875,-0.027274232357740402,0.034575287252664566,-0.05806862935423851
1782951213030723600,11.7227236328125,-0.04218899831175804,0.05910646170377731,-0.09722907841205597
1782951213040650500,11.732650390625,-0.046307045966386795,0.04374348744750023,-0.12080205231904984
1782951213050576600,11.74257666015625,-0.04719121381640434,0.0005118595436215401,-0.1246335431933403
1782951213060503800,11.75250390625,-0.035832833498716354,-0.00818229652941227,-0.13206295669078827
1782951213070430700,11.7624306640625,-0.010214021429419518,-0.0019686087034642696,-0.14276061952114105
1782951213080357600,11.772357666015624,0.005001949146389961,0.0004391552647575736,-0.14953143894672394
1782951213090283500,11.782283447265625,0.007098655682057142,-0.0006996124284341931,-0.13707689940929413
1782951213100210700,11.792210693359374,-0.0038189729675650597,0.02226642332971096,-0.12118181586265564
1782951213110137600,11.8021376953125,-0.0059987702406942844,0.06945443898439407,-0.09926613420248032
